"# PR data"
"# Start time: 20191127T184002"
"# Subject: lukasz"
"# Activity type: Walking"
"# Correctness: Correct"
"# Notes: "
""
"timestamp","seq","accel_x","accel_y","accel_z","gyro_x","gyro_y","gyro_z"
"1574876402785","0","0.46875","-0.91308594","0.056640625","14.9375","-61.6875","-3.34375"
"1574876402786","1","0.4423828","-0.88378906","0.059570312","12.125","-66.09375","-0.15625"
"1574876402786","2","0.41601562","-0.89453125","0.06738281","19.46875","-66.625","3.3125"
"1574876402786","3","0.47070312","-0.8828125","0.03515625","11.90625","-72.375","0.40625"
"1574876402787","4","0.46484375","-0.9111328","0.072265625","25.875","-79.75","1.25"
"1574876402787","5","0.38085938","-0.8984375","0.1015625","31.375","-77.5625","5.625"
"1574876402787","6","0.36035156","-0.89160156","0.08300781","23.375","-74.3125","6.625"
"1574876402788","7","0.3701172","-0.92285156","0.095703125","19.21875","-67.90625","9.78125"
"1574876402789","8","0.3720703","-0.91015625","0.10839844","24.46875","-59.0625","8.3125"
"1574876402789","9","0.28808594","-0.9658203","0.1640625","20.25","-55.03125","10.9375"
"1574876402985","10","0.25097656","-1.0419922","0.072265625","2.8125","-37.09375","11.625"
"1574876402985","11","0.33007812","-0.8720703","0.043945312","-7.5","-10.21875","-0.15625"
"1574876402985","12","0.28808594","-0.88183594","-0.0625","19.875","15.65625","5.21875"
"1574876402986","13","0.3798828","-0.8925781","-0.028320312","36.84375","12.90625","5.21875"
"1574876402986","14","0.33496094","-1.0605469","-0.0546875","9.625","2.40625","1.1875"
"1574876402986","15","0.37402344","-1.0195312","-9.765625E-4","0.65625","6.0625","0.03125"
"1574876402987","16","0.35253906","-0.92871094","-0.06542969","-1.34375","6.90625","-1.4375"
"1574876402987","17","0.3408203","-0.9482422","-0.14160156","-10.4375","2.84375","-2.125"
"1574876402987","18","0.3779297","-0.9355469","-0.11425781","-19.84375","-3.65625","-1.3125"
"1574876402987","19","0.328125","-0.9316406","-0.057617188","-8.84375","-12.0","0.5625"
"1574876403383","20","0.31640625","-0.97558594","-0.02734375","-5.5625","-11.21875","0.875"
"1574876403384","21","0.29589844","-0.98339844","0.025390625","-7.8125","-0.84375","0.15625"
"1574876403384","22","0.31347656","-0.90234375","0.034179688","-15.3125","2.59375","-1.8125"
"1574876403384","23","0.29492188","-0.88964844","0.0068359375","-10.03125","4.21875","-2.65625"
"1574876403385","24","0.3173828","-0.9111328","0.0087890625","-18.5","1.78125","-1.8125"
"1574876403386","25","0.35839844","-0.9375","0.018554688","-8.3125","4.46875","-1.5"
"1574876403386","26","0.28808594","-0.9267578","0.041015625","-8.375","6.125","-0.21875"
"1574876403387","27","0.33789062","-0.9296875","0.0126953125","-9.09375","8.25","0.09375"
"1574876403387","28","0.34375","-0.9169922","-0.0146484375","-6.0625","10.9375","-0.21875"
"1574876403387","29","0.375","-0.8935547","0.043945312","-11.84375","11.5","-0.46875"
"1574876403781","30","0.35546875","-0.87890625","0.091796875","-9.28125","17.84375","1.84375"
"1574876403782","31","0.3486328","-0.98535156","0.041992188","-14.15625","23.53125","1.0625"
"1574876403782","32","0.3330078","-1.0097656","0.09375","-7.8125","31.5","0.625"
"1574876403782","33","0.30566406","-0.9941406","0.06933594","-15.9375","51.84375","0.5"
"1574876403782","34","0.3310547","-0.953125","0.07324219","-22.28125","69.53125","-1.0625"
"1574876403783","35","0.30273438","-0.9248047","0.13671875","-23.03125","88.46875","0.4375"
"1574876403783","36","0.2890625","-0.9189453","0.13476562","-31.5","103.96875","-1.0"
"1574876403784","37","0.3515625","-0.9277344","0.16992188","-42.84375","112.25","-1.6875"
"1574876403785","38","0.36035156","-0.9160156","0.21582031","-35.28125","125.5625","-3.15625"
"1574876403785","39","0.34765625","-0.9033203","0.18945312","-63.125","125.5","-3.5625"
"1574876404178","40","0.41796875","-0.8935547","0.16894531","-58.78125","125.3125","-0.84375"
"1574876404178","41","0.36523438","-0.8964844","0.1484375","-60.75","121.34375","-0.34375"
"1574876404179","42","0.4423828","-0.94140625","0.08105469","-61.34375","116.59375","-1.875"
"1574876404179","43","0.4873047","-0.92089844","0.044921875","-45.25","106.21875","-0.71875"
"1574876404179","44","0.37597656","-0.96777344","0.032226562","-17.78125","91.09375","0.09375"
"1574876404179","45","0.29003906","-0.96777344","-0.01171875","-24.3125","96.53125","5.46875"
"1574876404180","46","0.31347656","-0.91308594","-0.0048828125","-20.46875","101.9375","7.90625"
"1574876404180","47","0.39941406","-0.8886719","-0.0390625","-27.53125","90.21875","1.5625"
"1574876404180","48","0.3623047","-0.9746094","-0.087890625","-19.78125","70.03125","1.0625"
"1574876404181","49","0.26367188","-1.0087891","-0.03125","-23.5","75.21875","1.71875"
"1574876404578","50","0.328125","-0.9501953","-0.064453125","-26.0","74.96875","2.15625"
"1574876404579","51","0.42578125","-0.8808594","-0.11035156","-34.4375","60.75","-1.625"
"1574876404579","52","0.39160156","-0.9082031","-0.12597656","-25.46875","44.40625","-4.625"
"1574876404579","53","0.3466797","-0.8935547","-0.16894531","-15.6875","31.28125","-4.84375"
"1574876404579","54","0.3828125","-0.890625","-0.1328125","-12.59375","21.625","-6.6875"
"1574876404580","55","0.34277344","-0.9238281","-0.15820312","4.875","4.0625","-7.78125"
"1574876404580","56","0.29101562","-0.96972656","-0.1328125","4.6875","-0.09375","-10.28125"
"1574876404580","57","0.29589844","-0.87597656","-0.18066406","0.25","-3.65625","-7.3125"
"1574876404580","58","0.3984375","-1.0136719","-0.16601562","16.15625","-12.625","-11.6875"
"1574876404581","59","0.2529297","-0.9921875","-0.0146484375","17.625","-22.0625","-11.09375"
"1574876404975","60","0.23730469","-0.9892578","0.03125","-7.34375","-10.78125","-4.5"
"1574876404977","61","0.33398438","-0.93066406","0.11425781","-28.34375","-5.84375","-3.03125"
"1574876404977","62","0.4560547","-0.8671875","0.022460938","-33.625","-19.09375","-3.21875"
"1574876404978","63","0.5253906","-0.8076172","-0.06640625","0.40625","-31.96875","-2.34375"
"1574876404978","64","0.38671875","-0.90234375","-0.09667969","18.5","-35.9375","-0.90625"
"1574876404978","65","0.33984375","-0.99121094","-0.03125","26.78125","-28.65625","-9.4375"
"1574876404979","66","0.45507812","-0.8925781","-0.025390625","13.90625","-22.25","-8.71875"
"1574876404979","67","0.5566406","-0.8886719","-0.015625","31.125","-27.625","-7.3125"
"1574876404979","68","0.38378906","-0.9003906","-0.041015625","44.25","-27.5","-5.46875"
"1574876404980","69","0.3486328","-0.8876953","-0.016601562","23.6875","-19.8125","-4.90625"
"1574876405371","70","0.4375","-0.9238281","-0.056640625","27.65625","-9.1875","-3.625"
"1574876405371","71","0.33984375","-0.9951172","0.0546875","21.78125","-8.40625","-3.6875"
"1574876405372","72","0.29101562","-0.9189453","0.0625","3.53125","11.75","-2.84375"
"1574876405373","73","0.42089844","-0.9033203","0.02734375","-12.21875","22.71875","-1.6875"
"1574876405374","74","0.40234375","-0.953125","0.06933594","-26.75","22.0","1.6875"
"1574876405374","75","0.4326172","-0.9003906","-0.0107421875","-25.9375","32.96875","3.75"
"1574876405374","76","0.47851562","-0.8798828","-0.02734375","-7.5625","35.53125","9.125"
"1574876405375","77","0.5126953","-0.8232422","0.0107421875","-17.46875","29.75","7.03125"
"1574876405375","78","0.58203125","-0.7705078","-0.057617188","-7.28125","19.5625","7.96875"
"1574876405375","79","0.5498047","-0.8798828","-0.009765625","-1.46875","5.40625","5.03125"
"1574876405769","80","0.23632812","-1.0703125","-0.051757812","32.40625","0.21875","10.78125"
"1574876405769","81","0.12597656","-0.8847656","0.07324219","43.9375","33.28125","9.53125"
"1574876405769","82","0.16308594","-0.7763672","-0.06640625","9.5","26.5","16.8125"
"1574876405770","83","0.4736328","-1.2480469","-0.0859375","-7.46875","47.09375","3.25"
"1574876405770","84","0.35253906","-1.0185547","-0.13769531","-7.6875","31.40625","14.71875"
"1574876405771","85","0.20410156","-0.90234375","-0.0126953125","-8.6875","47.75","11.25"
"1574876405772","86","0.22265625","-0.8251953","-0.095703125","13.90625","53.84375","13.625"
"1574876405772","87","0.3095703","-0.8769531","-0.05078125","-0.125","51.53125","12.0"
"1574876405772","88","0.30273438","-0.9667969","-0.033203125","-8.0","49.15625","3.8125"
"1574876405773","89","0.40625","-0.8466797","0.0","-4.65625","43.125","-14.3125"
"1574876406165","90","0.36816406","-0.80566406","0.0068359375","-1.21875","10.8125","-21.875"
"1574876406165","91","0.30566406","-0.9296875","-0.07128906","3.78125","-16.65625","-22.5625"
"1574876406166","92","0.2783203","-1.2431641","-0.016601562","-30.34375","7.34375","-4.90625"
"1574876406166","93","0.4482422","-1.3408203","9.765625E-4","-32.1875","1.84375","-6.5625"
"1574876406166","94","0.38183594","-1.0341797","0.16015625","-17.28125","7.53125","5.21875"
"1574876406166","95","0.3623047","-1.0927734","0.27539062","-7.6875","16.625","-2.90625"
"1574876406166","96","0.20214844","-1.0996094","0.049804688","37.53125","25.59375","-8.15625"
"1574876406168","97","0.22851562","-0.7705078","0.0625","4.09375","26.21875","-5.28125"
"1574876406168","98","0.24023438","-0.67089844","0.10058594","6.21875","26.6875","-2.96875"
"1574876406169","99","0.23242188","-0.6347656","0.020507812","-3.5","21.6875","1.5"
"1574876406565","100","0.28515625","-0.66015625","0.109375","-25.75","17.0","-1.125"
"1574876406565","101","0.2861328","-0.70703125","0.045898438","-20.15625","3.75","-6.5"
"1574876406566","102","0.34570312","-0.9199219","0.018554688","-39.125","0.75","-7.84375"
"1574876406566","103","0.5253906","-1.2285156","-0.20898438","-40.53125","13.03125","-3.9375"
"1574876406566","104","0.7626953","-1.2890625","-0.3017578","-13.1875","40.5625","0.6875"
"1574876406566","105","0.59765625","-1.125","-0.14746094","-23.6875","42.0","-6.375"
"1574876406567","106","0.6279297","-0.9765625","0.41503906","-23.8125","103.34375","-8.65625"
"1574876406567","107","-0.5546875","-0.9550781","0.5419922","117.5","-27.03125","24.5625"
"1574876406567","108","0.10644531","-1.5048828","-0.35351562","-95.09375","64.0","4.34375"
"1574876406568","109","0.49316406","-1.1904297","0.46679688","-28.5625","73.4375","-29.75"
"1574876406961","110","-0.034179688","-0.9140625","0.15917969","20.0","9.0625","-9.5625"
"1574876406962","111","0.07519531","-0.73828125","0.018554688","-16.5","30.71875","-10.96875"
"1574876406962","112","0.1015625","-0.6044922","0.034179688","-15.5","44.34375","2.78125"
"1574876406962","113","0.12695312","-0.66308594","-0.01171875","-1.03125","44.5625","-3.875"
"1574876406962","114","0.23046875","-0.7050781","-0.05078125","-3.0625","43.34375","-5.53125"
"1574876406963","115","0.25195312","-0.8652344","-0.026367188","-9.90625","28.34375","-3.8125"
"1574876406963","116","0.3330078","-1.0048828","-0.040039062","-2.21875","21.625","-11.6875"
"1574876406963","117","0.390625","-0.9609375","-0.024414062","-3.59375","0.5","-9.8125"
"1574876406963","118","0.45410156","-1.0449219","-0.16601562","-6.1875","-25.3125","-14.5"
"1574876406963","119","0.58496094","-1.2460938","-0.25683594","-3.71875","-35.6875","-21.59375"
"1574876407359","120","0.4248047","-1.2373047","-0.27929688","-4.84375","-28.65625","-23.03125"
"1574876407361","121","0.34960938","-1.1484375","-0.203125","-2.5625","-17.5625","-25.0"
"1574876407361","122","-0.21582031","-1.2919922","0.72265625","69.15625","60.8125","52.875"
"1574876407361","123","0.265625","-0.58691406","0.24609375","-93.40625","3.25","-5.84375"
"1574876407362","124","0.5722656","-1.2607422","0.14160156","15.9375","-6.625","-4.25"
"1574876407362","125","0.06347656","-1.1513672","0.041992188","7.9375","18.03125","4.59375"
"1574876407362","126","0.119140625","-0.7753906","0.15917969","-8.0625","17.15625","6.0625"
"1574876407362","127","0.2685547","-0.64453125","0.02734375","-10.625","26.5625","-5.53125"
"1574876407363","128","0.3125","-0.7236328","0.00390625","-2.375","20.03125","-4.6875"
"1574876407363","129","0.29882812","-0.6904297","-0.0146484375","-9.34375","6.3125","-0.34375"
"1574876407756","130","0.33789062","-0.7597656","0.033203125","-2.21875","5.5625","4.0"
"1574876407756","131","0.34960938","-0.8457031","0.0048828125","-5.0","-4.0","4.90625"
"1574876407756","132","0.3359375","-0.8925781","0.016601562","0.78125","-1.125","8.21875"
"1574876407758","133","0.40527344","-1.0683594","-0.11328125","5.375","0.4375","4.59375"
"1574876407758","134","0.5029297","-1.3398438","-0.12988281","4.6875","14.3125","9.59375"
"1574876407758","135","0.5283203","-1.3769531","-0.1015625","-0.375","21.75","10.875"
"1574876407759","136","0.48046875","-1.1347656","-0.16113281","-48.90625","48.0","2.21875"
"1574876407759","137","0.5234375","-0.8222656","0.6308594","45.09375","13.03125","-8.75"
"1574876407759","138","-0.5722656","-0.9423828","-0.0126953125","-29.96875","-4.8125","14.5625"
"1574876407759","139","0.3828125","-1.1298828","0.049804688","-81.125","61.53125","-20.46875"
"1574876408152","140","0.40429688","-0.9423828","0.056640625","-19.21875","36.15625","-11.5"
"1574876408153","141","0.28320312","-0.8613281","0.076171875","-9.53125","14.84375","-18.09375"
"1574876408153","142","0.068359375","-0.7558594","0.076171875","-11.84375","11.625","-0.28125"
"1574876408153","143","0.111328125","-0.6982422","-0.01953125","-16.625","31.09375","1.6875"
"1574876408153","144","0.17773438","-0.76660156","-0.11328125","-16.4375","27.0625","1.125"
"1574876408154","145","0.23730469","-0.8046875","-0.09277344","-9.40625","29.125","1.5"
"1574876408155","146","0.27441406","-0.8144531","-0.11230469","-13.375","24.6875","2.28125"
"1574876408155","147","0.33691406","-0.86816406","-0.08691406","-4.90625","20.15625","0.09375"
"1574876408155","148","0.37109375","-0.91308594","-0.14648438","-6.59375","14.25","-3.34375"
"1574876408155","149","0.4921875","-1.0654297","-0.28125","-18.125","-6.21875","-5.28125"
"1574876408948","150","0.6347656","-1.1865234","-0.3173828","-6.40625","-21.21875","-12.90625"
"1574876408949","151","0.6542969","-1.0039062","-0.36035156","-9.34375","-31.78125","-29.6875"
"1574876408949","152","0.25585938","-1.2832031","-0.11328125","17.03125","-82.75","-19.125"
"1574876408949","153","0.10546875","-1.2255859","0.20800781","11.21875","13.9375","5.03125"
"1574876408950","154","0.49316406","-0.6845703","0.16503906","-16.78125","-51.6875","-22.875"
"1574876408950","155","0.2841797","-1.3427734","0.0078125","28.875","-46.78125","4.53125"
"1574876408950","156","0.08496094","-0.98828125","0.06933594","32.9375","12.78125","-2.65625"
"1574876408951","157","0.2685547","-0.6611328","0.08984375","21.59375","-17.25","3.5625"
"1574876408952","158","0.2548828","-0.62890625","-0.030273438","26.25","-7.65625","-4.75"
"1574876408952","159","0.32226562","-0.66308594","0.017578125","15.0625","-14.75","3.5"
"1574876409146","160","0.36035156","-0.671875","-0.0107421875","7.8125","-8.59375","5.15625"
"1574876409146","161","0.43847656","-0.8339844","0.01171875","2.6875","-6.375","4.0625"
"1574876409146","162","0.42773438","-0.9277344","0.026367188","13.84375","-8.46875","6.4375"
"1574876409147","163","0.34472656","-0.93652344","0.015625","10.625","-11.8125","6.4375"
"1574876409147","164","0.4404297","-1.0898438","-0.12792969","8.28125","-4.875","8.625"
"1574876409147","165","0.5810547","-1.2138672","-0.18652344","-16.0","22.125","7.59375"
"1574876409147","166","0.5527344","-1.0537109","-0.09765625","-11.84375","29.5625","4.90625"
"1574876409148","167","0.8964844","-1.0664062","0.2705078","-36.5","47.09375","-15.21875"
"1574876409148","168","-0.21191406","-0.9375","0.21972656","13.3125","-24.75","-1.375"
"1574876409148","169","-0.15527344","-1.2548828","-0.15527344","-4.90625","7.96875","9.71875"
"1574876409345","170","0.7167969","-0.9316406","0.057617188","-20.40625","38.96875","-18.15625"
"1574876409346","171","0.24902344","-1.0048828","0.08984375","14.8125","-29.75","-1.0"
"1574876409346","172","0.17480469","-0.8613281","0.08886719","-6.53125","-11.40625","0.75"
"1574876409347","173","0.19921875","-0.70996094","-0.0078125","-0.5625","-2.84375","6.875"
"1574876409347","174","0.20214844","-0.7597656","-0.00390625","-2.5","8.125","5.21875"
"1574876409347","175","0.24023438","-0.78027344","-0.087890625","-4.59375","10.21875","3.6875"
"1574876409348","176","0.32226562","-0.7792969","-0.09765625","-16.5","5.8125","3.25"
"1574876409348","177","0.390625","-0.8466797","-0.08691406","1.53125","-6.5625","2.21875"
"1574876409348","178","0.3076172","-0.85253906","-0.061523438","13.0625","-6.28125","-3.75"
"1574876409349","179","0.33984375","-0.90625","-0.21582031","5.5","-23.71875","-6.75"
"1574876409742","180","0.44433594","-1.0263672","-0.24511719","-8.75","-33.84375","-8.71875"
"1574876409743","181","0.52441406","-1.1240234","-0.30371094","-7.03125","-40.4375","-14.25"
"1574876409744","182","0.4736328","-1.2314453","-0.26953125","-21.375","-48.8125","-17.1875"
"1574876409744","183","0.109375","-1.5380859","0.4013672","9.5625","23.65625","18.53125"
"1574876409744","184","0.5839844","-0.74316406","0.018554688","-40.46875","-22.625","-15.65625"
"1574876409744","185","0.3408203","-0.7470703","0.21289062","-2.3125","-61.125","1.1875"
"1574876409745","186","0.03515625","-1.1777344","0.08691406","41.875","-8.78125","23.40625"
"1574876409745","187","0.40234375","-0.98339844","-0.07128906","1.53125","1.3125","-5.15625"
"1574876409745","188","0.3125","-0.6982422","0.03125","0.0","-19.5625","-1.5625"
"1574876409745","189","0.27246094","-0.7167969","-0.052734375","14.875","-13.09375","-4.84375"
"1574876410140","190","0.34960938","-0.79003906","-0.10449219","14.40625","-10.53125","3.625"
"1574876410140","191","0.40820312","-0.765625","-0.02734375","-3.3125","-7.78125","3.375"
"1574876410140","192","0.44433594","-0.8251953","-0.09082031","16.46875","-5.46875","0.8125"
"1574876410141","193","0.39746094","-0.86035156","-0.076171875","17.09375","-6.9375","0.875"
"1574876410142","194","0.32226562","-0.8535156","-0.06738281","-5.875","-2.90625","5.03125"
"1574876410142","195","0.35839844","-0.91503906","-0.10253906","-17.84375","-5.28125","4.65625"
"1574876410142","196","0.5263672","-0.92871094","-0.16113281","-14.09375","4.15625","-3.21875"
"1574876410142","197","0.5644531","-1.0283203","-0.23730469","-21.8125","11.8125","-2.40625"
"1574876410143","198","0.5751953","-0.97558594","-0.20605469","-12.75","25.40625","-11.375"
"1574876410143","199","0.68359375","-1.1835938","0.20996094","48.9375","-2.84375","-32.875"
"1574876410538","200","-0.16113281","-0.97753906","0.13183594","60.90625","-25.4375","-16.15625"
"1574876410539","201","-0.18554688","-1.0107422","-0.22753906","-42.625","35.46875","15.34375"
"1574876410539","202","0.9267578","-1.0019531","0.022460938","-20.5625","44.6875","-19.6875"
"1574876410539","203","0.30078125","-1.078125","-0.09863281","-2.15625","-12.4375","-1.6875"
"1574876410539","204","0.234375","-0.8544922","-0.016601562","-8.6875","-2.59375","3.9375"
"1574876410541","205","0.25976562","-0.7158203","-0.107421875","2.25","8.5","7.09375"
"1574876410541","206","0.25585938","-0.76953125","-0.09082031","0.84375","3.625","2.65625"
"1574876410541","207","0.2529297","-0.8564453","-0.18945312","5.0625","4.125","3.5"
"1574876410542","208","0.3203125","-0.8496094","-0.18554688","1.75","6.90625","4.25"
"1574876410542","209","0.37109375","-0.8310547","-0.13085938","-1.78125","7.78125","-2.40625"
"1574876411133","210","0.31933594","-0.82421875","-0.20019531","10.6875","0.09375","-8.75"
"1574876411134","211","0.3779297","-0.9199219","-0.123046875","11.21875","-10.59375","-3.46875"
"1574876411134","212","0.3642578","-1.0332031","-0.17089844","4.03125","-12.6875","-0.34375"
"1574876411134","213","0.6591797","-1.0341797","-0.39160156","-19.46875","-4.5","-10.46875"
"1574876411135","214","0.6386719","-1.2373047","-0.3828125","-6.21875","-55.09375","-14.875"
"1574876411135","215","0.19238281","-1.3447266","0.17382812","4.875","-15.3125","-1.875"
"1574876411135","216","0.17089844","-0.75","-0.001953125","-9.15625","-11.8125","-5.09375"
"1574876411136","217","0.34179688","-0.70703125","0.24902344","-0.6875","-32.3125","12.21875"
"1574876411136","218","0.16894531","-1.0771484","0.001953125","15.9375","-18.21875","4.65625"
"1574876411137","219","0.43652344","-1.0966797","-0.053710938","-10.125","10.46875","5.53125"
"1574876411334","220","0.31933594","-0.8173828","0.0068359375","-2.5625","5.4375","0.9375"
"1574876411334","221","0.27246094","-0.8027344","-0.028320312","2.25","20.21875","0.5"
"1574876411334","222","0.34179688","-0.80859375","-0.0546875","2.6875","25.78125","5.53125"
"1574876411335","223","0.3515625","-0.8076172","-0.095703125","-4.71875","28.09375","6.0625"
"1574876411335","224","0.4091797","-0.83496094","-0.12011719","-17.03125","30.46875","5.6875"
"1574876411335","225","0.40527344","-0.8251953","-0.119140625","-14.09375","33.03125","6.6875"
"1574876411335","226","0.36621094","-0.8623047","-0.02734375","-8.0625","46.21875","5.03125"
"1574876411336","227","0.31347656","-0.9033203","-0.107421875","-26.375","43.34375","5.03125"
"1574876411336","228","0.52441406","-0.9658203","-0.16894531","-20.6875","35.78125","5.6875"
"1574876411337","229","0.52246094","-1.0224609","-0.18066406","-20.46875","48.90625","-1.0"
"1574876411730","230","0.6113281","-1.1933594","-0.18847656","-38.28125","67.59375","-15.78125"
"1574876411730","231","0.5595703","-1.2041016","0.05859375","11.84375","40.84375","-24.09375"
"1574876411730","232","-0.053710938","-0.9277344","0.20507812","23.5","45.6875","-13.9375"
"1574876411731","233","-0.25097656","-0.83691406","-0.25195312","0.71875","74.125","6.625"
"1574876411731","234","0.5732422","-1.0351562","-0.0078125","-61.78125","115.125","-2.34375"
"1574876411731","235","0.27539062","-1.2128906","0.01953125","-28.21875","65.4375","7.03125"
"1574876411731","236","0.14453125","-0.9658203","-0.08203125","-27.03125","78.875","9.0"
"1574876411732","237","0.3359375","-0.78222656","-0.048828125","-18.75","90.59375","3.625"
"1574876411732","238","0.24609375","-0.7441406","-0.123046875","-0.8125","71.6875","-1.1875"
"1574876411732","239","0.2578125","-0.8251953","-0.1328125","-8.5625","67.84375","-1.0625"
"1574876412128","240","0.3046875","-0.88964844","-0.14160156","-8.5","65.8125","-3.75"
"1574876412129","241","0.2578125","-0.8886719","-0.13085938","-3.78125","60.25","-7.59375"
"1574876412129","242","0.27734375","-0.8564453","-0.13671875","-6.53125","56.90625","-7.53125"
"1574876412130","243","0.41601562","-0.9091797","-0.111328125","-15.21875","55.0","-13.09375"
"1574876412130","244","0.24316406","-1.0400391","0.009765625","-5.75","46.65625","-15.1875"
"1574876412130","245","0.62109375","-1.140625","-0.28027344","-38.8125","45.96875","-18.15625"
"1574876412130","246","0.6621094","-1.1748047","-0.12792969","-35.03125","13.5625","-34.03125"
"1574876412131","247","0.12011719","-1.3457031","0.20605469","-14.40625","5.21875","-16.6875"
"1574876412131","248","-0.041992188","-0.6376953","0.32617188","-16.90625","20.59375","6.4375"
"1574876412131","249","0.17578125","-0.89160156","0.1875","-33.46875","26.6875","6.8125"
"1574876412526","250","0.34277344","-1.2421875","0.068359375","-19.53125","56.125","-1.9375"
"1574876412527","251","0.265625","-0.92578125","0.045898438","-28.5625","70.34375","-0.03125"
"1574876412527","252","0.20996094","-0.8300781","0.072265625","-22.46875","83.9375","-5.71875"
"1574876412528","253","0.24414062","-0.88183594","0.060546875","-14.78125","93.71875","-7.65625"
"1574876412529","254","0.3515625","-0.8671875","-0.0126953125","-37.375","110.5","-8.65625"
"1574876412529","255","0.49316406","-0.8378906","0.09472656","-33.625","116.84375","-7.96875"
"1574876412529","256","0.44628906","-0.85253906","-0.057617188","-32.46875","92.90625","-8.71875"
"1574876412530","257","0.46777344","-0.8232422","-0.021484375","-32.90625","78.625","-10.90625"
"1574876412530","258","0.41601562","-0.859375","-9.765625E-4","-47.375","66.78125","-12.0625"
"1574876412530","259","0.27929688","-0.9121094","-0.0029296875","-37.84375","63.5625","-15.96875"
"1574876413120","260","0.3388672","-1.0732422","-0.09667969","-37.59375","66.5625","-2.1875"
"1574876413121","261","0.34570312","-1.1953125","-0.13085938","-54.28125","80.09375","-0.84375"
"1574876413121","262","0.36132812","-1.2216797","0.017578125","-73.3125","115.75","-7.0625"
"1574876413121","263","0.17675781","-1.2783203","0.51953125","24.21875","122.09375","-5.21875"
"1574876413122","264","-0.20703125","-0.7324219","0.17578125","-64.09375","157.96875","9.53125"
"1574876413128","265","0.77734375","-0.7089844","0.04296875","-68.375","173.53125","-23.03125"
"1574876413129","266","0.39746094","-1.2021484","0.32421875","-32.90625","115.25","-10.53125"
"1574876413129","267","-0.0068359375","-1.1601562","0.1796875","-41.6875","120.8125","2.84375"
"1574876413130","268","0.19921875","-0.8769531","0.10644531","-64.09375","157.78125","8.25"
"1574876413130","269","0.27539062","-0.7158203","0.0625","-39.4375","143.75","-0.9375"
"1574876413321","270","0.27929688","-0.75878906","-0.009765625","-30.34375","122.40625","-6.375"
"1574876413321","271","0.33007812","-0.85253906","-0.04296875","-28.28125","104.5625","-2.1875"
"1574876413321","272","0.34472656","-0.88378906","-0.09082031","-28.9375","77.09375","-6.03125"
"1574876413322","273","0.3017578","-0.8730469","-0.14550781","-22.34375","54.03125","-10.40625"
"1574876413322","274","0.27539062","-0.8886719","-0.12109375","-13.6875","38.84375","-16.09375"
"1574876413322","275","0.18652344","-0.97558594","0.072265625","-14.03125","38.21875","-14.0625"
"1574876413322","276","0.25878906","-1.1953125","-0.32226562","-42.1875","49.21875","-4.25"
"1574876413323","277","0.8300781","-1.1630859","-0.16601562","-49.875","36.03125","-33.4375"
"1574876413323","278","0.17675781","-1.4580078","-0.0078125","-30.40625","0.6875","-8.53125"
"1574876413323","279","0.09277344","-0.9482422","0.19140625","-19.71875","52.15625","-10.09375"
"1574876414311","280","0.29101562","-0.6611328","0.3232422","-34.90625","11.5","-9.1875"
"1574876414312","281","0.23046875","-1.0869141","0.22265625","-9.71875","0.03125","-5.09375"
"1574876414312","282","0.16796875","-1.2792969","-0.00390625","-14.65625","42.25","-4.75"
"1574876414313","283","0.33789062","-0.8144531","0.078125","-12.875","39.375","-3.21875"
"1574876414315","284","0.23339844","-0.75097656","0.0390625","2.0625","37.0","-8.34375"
"1574876414315","285","0.25683594","-0.7685547","0.0078125","-5.3125","40.78125","-6.625"
"1574876414316","286","0.3173828","-0.77246094","0.013671875","-22.59375","44.9375","-2.96875"
"1574876414316","287","0.3876953","-0.80859375","-0.0146484375","-21.625","39.625","-0.46875"
"1574876414316","288","0.35546875","-0.87109375","-0.025390625","-21.375","31.8125","0.9375"
"1574876414318","289","0.36035156","-0.85253906","-0.04296875","-23.5625","36.53125","1.4375"
"1574876414318","290","0.43066406","-0.8066406","-0.024414062","-22.09375","35.375","-6.8125"
"1574876414319","291","0.41503906","-1.0078125","-0.123046875","-11.375","19.4375","-2.28125"
"1574876414319","292","0.48632812","-1.1416016","-0.17773438","-10.375","17.0","2.65625"
"1574876414319","293","0.5253906","-1.2001953","-0.1953125","-23.875","40.71875","-3.5"
"1574876414319","294","0.66308594","-1.2509766","0.11425781","1.21875","28.15625","-17.0"
"1574876414320","295","-0.0048828125","-0.87402344","0.34277344","34.65625","12.03125","-8.40625"
"1574876414320","296","-0.3017578","-0.84472656","0.017578125","23.78125","38.84375","5.8125"
"1574876414320","297","0.5605469","-0.9765625","0.0048828125","-46.28125","73.3125","-14.6875"
"1574876414320","298","0.32421875","-1.0810547","0.12402344","-12.03125","5.40625","-10.09375"
"1574876414321","299","0.18652344","-1.0","-0.01171875","3.34375","12.28125","0.09375"
"1574876414713","300","0.27929688","-0.7734375","0.049804688","-1.90625","19.78125","1.84375"
"1574876414714","301","0.20703125","-0.7792969","-0.025390625","-3.5625","14.59375","-0.71875"
"1574876414715","302","0.22753906","-0.8203125","-0.053710938","-7.21875","15.40625","1.5625"
"1574876414715","303","0.2998047","-0.8261719","-0.07714844","-5.25","11.3125","3.5"
"1574876414715","304","0.31933594","-0.8154297","-0.09082031","-4.46875","2.15625","0.75"
"1574876414715","305","0.35058594","-0.83984375","-0.09082031","2.0","0.75","-6.5625"
"1574876414716","306","0.3076172","-0.88378906","-0.11816406","9.34375","-11.9375","-7.59375"
"1574876414716","307","0.296875","-1.0263672","-0.001953125","4.375","-11.5","-4.0"
"1574876414716","308","0.5029297","-1.2011719","-0.28222656","-16.90625","-13.71875","6.4375"
"1574876414716","309","0.68847656","-1.1982422","-0.20800781","-29.375","-32.21875","-15.0"
"1574876415107","310","0.19628906","-1.3886719","0.3173828","-7.09375","-6.15625","2.78125"
"1574876415108","311","0.3203125","-0.67871094","0.17089844","28.8125","6.25","-1.9375"
"1574876415108","312","0.45214844","-0.70996094","0.24414062","-22.03125","-26.15625","4.0625"
"1574876415108","313","0.20996094","-1.1533203","0.27441406","14.15625","-63.28125","9.375"
"1574876415108","314","0.5175781","-1.1191406","-0.08984375","24.21875","-20.3125","1.96875"
"1574876415109","315","0.31933594","-0.8515625","0.12109375","17.09375","-28.96875","-0.53125"
"1574876415109","316","0.24902344","-0.7138672","0.040039062","35.5625","-25.5625","6.1875"
"1574876415109","317","0.23632812","-0.67871094","0.05078125","19.59375","-15.3125","11.1875"
"1574876415109","318","0.25","-0.6826172","0.08105469","14.34375","0.8125","12.71875"
"1574876415110","319","0.3798828","-0.765625","0.0048828125","4.5625","8.375","4.53125"
"1574876415308","320","0.39453125","-0.8066406","0.041015625","4.8125","21.375","-0.46875"
"1574876415309","321","0.3779297","-0.8232422","0.047851562","5.0625","37.25","-8.46875"
"1574876415309","322","0.35839844","-0.9628906","0.036132812","10.0625","21.875","4.125"
"1574876415309","323","0.49121094","-0.98535156","0.05078125","-9.90625","32.5","-2.0"
"1574876415309","324","0.484375","-1.1455078","0.009765625","-36.8125","43.34375","-12.96875"
"1574876415311","325","0.8886719","-1.2978516","0.17578125","-11.90625","19.78125","-18.28125"
"1574876415311","326","0.051757812","-0.90527344","0.35253906","31.71875","-22.5","-17.125"
"1574876415311","327","-0.13964844","-0.86035156","-0.123046875","16.78125","2.34375","-3.15625"
"1574876415312","328","0.48632812","-1.1416016","0.13183594","-28.5","47.25","-15.0"
"1574876415312","329","0.30664062","-1.1523438","0.07324219","-14.28125","-8.875","-3.9375"
"1574876415706","330","0.22753906","-0.9638672","0.10058594","-9.90625","-13.59375","2.03125"
"1574876415706","331","0.3408203","-0.8486328","-0.0048828125","-7.875","-3.6875","0.4375"
"1574876415707","332","0.24511719","-0.73828125","-0.0068359375","-3.78125","-8.34375","1.625"
"1574876415707","333","0.23632812","-0.75","-0.026367188","-4.90625","-1.6875","4.71875"
"1574876415707","334","0.2919922","-0.7607422","-0.07324219","-2.625","-4.0","5.8125"
"1574876415708","335","0.3154297","-0.7314453","-0.10449219","4.75","-9.625","1.375"
"1574876415708","336","0.2998047","-0.734375","-0.036132812","15.4375","0.21875","-11.4375"
"1574876415709","337","0.21191406","-0.8515625","-0.10546875","6.78125","-6.8125","-8.28125"
"1574876415709","338","0.3154297","-1.0253906","-0.07714844","0.40625","-7.65625","0.8125"
"1574876415710","339","0.71191406","-1.0537109","-0.32128906","-38.21875","-4.96875","-11.8125"
"1574876416102","340","0.79785156","-1.1650391","-0.22949219","-43.71875","-65.84375","-19.4375"
"1574876416103","341","0.24121094","-1.1875","0.515625","-8.5625","-12.90625","5.46875"
"1574876416103","342","0.19824219","-0.7109375","0.328125","7.8125","-56.9375","10.40625"
"1574876416103","343","0.4013672","-1.3505859","0.00390625","-20.15625","-54.1875","1.5"
"1574876416103","344","0.4248047","-1.3730469","-0.14355469","36.84375","-18.90625","11.75"
"1574876416104","345","0.40234375","-1.0224609","0.17578125","13.25","14.375","5.28125"
"1574876416104","346","0.3623047","-0.7285156","0.064453125","20.625","-26.96875","10.21875"
"1574876416104","347","0.2626953","-0.6386719","-0.030273438","26.0","-9.9375","9.96875"
"1574876416104","348","0.20507812","-0.61816406","0.057617188","18.1875","4.125","14.78125"
"1574876416105","349","0.2890625","-0.671875","0.029296875","10.5625","6.84375","15.65625"
"1574876416502","350","0.35058594","-0.72753906","0.017578125","-9.21875","20.03125","8.5"
"1574876416503","351","0.44140625","-0.7753906","-0.0625","-35.28125","12.28125","2.90625"
"1574876416503","352","0.6279297","-0.79003906","-0.10644531","-4.21875","-26.84375","9.96875"
"1574876416503","353","0.4013672","-1.0869141","0.03515625","19.9375","-30.1875","7.15625"
"1574876416504","354","0.31835938","-1.1376953","-0.23730469","-3.4375","-20.84375","-0.71875"
"1574876416504","355","0.6611328","-1.0859375","0.078125","-62.625","47.09375","-16.9375"
"1574876416504","356","-0.07128906","-0.8173828","0.6015625","89.46875","-29.03125","-14.4375"
"1574876416505","357","-0.12207031","-1.2333984","-0.4501953","-27.71875","19.4375","4.1875"
"1574876416505","358","1.0253906","-1.2021484","0.18457031","-45.125","35.78125","-26.40625"
"1574876416505","359","0.45703125","-1.1865234","0.03125","22.6875","-53.375","-16.75"
"1574876417096","360","0.3310547","-1.0185547","-0.14453125","0.25","-54.0","-15.90625"
"1574876417097","361","0.40234375","-0.80859375","-0.05078125","11.03125","-52.09375","7.65625"
"1574876417097","362","0.24316406","-0.64746094","-0.015625","18.53125","-54.59375","4.0"
"1574876417098","363","0.23242188","-0.6376953","-0.043945312","20.75","-44.40625","9.5"
"1574876417098","364","0.2734375","-0.7128906","-0.099609375","31.5","-42.71875","14.6875"
"1574876417098","365","0.30273438","-0.7734375","-0.08105469","34.21875","-42.59375","3.625"
"1574876417098","366","0.22753906","-0.8359375","-0.026367188","43.28125","-42.15625","-1.875"
"1574876417100","367","0.19824219","-0.9277344","-0.08105469","28.4375","-33.65625","-3.75"
"1574876417101","368","0.24121094","-0.99902344","-0.15917969","7.5","-21.21875","5.21875"
"1574876417101","369","0.63183594","-0.9003906","-0.31054688","-24.0625","-10.28125","-11.3125"
"1574876417295","370","0.625","-0.9560547","-0.21289062","-21.6875","-44.40625","-23.21875"
"1574876417295","371","0.3857422","-1.6552734","0.3623047","0.125","-20.59375","-16.28125"
"1574876417295","372","0.13671875","-0.9873047","0.21972656","-20.9375","-23.0","15.78125"
"1574876417296","373","0.3857422","-0.5878906","0.060546875","-54.5625","-16.46875","-10.90625"
"1574876417297","374","0.39257812","-1.3505859","-0.17089844","42.21875","-29.09375","-3.8125"
"1574876417297","375","0.5029297","-1.1328125","0.07910156","19.71875","6.84375","-1.625"
"1574876417297","376","0.4091797","-0.8623047","0.047851562","16.65625","-3.21875","0.5625"
"1574876417297","377","0.39257812","-0.7675781","-0.08984375","23.6875","1.3125","0.5625"
"1574876417298","378","0.3046875","-0.69628906","-0.01953125","33.125","4.53125","10.59375"
"1574876417298","379","0.21777344","-0.6738281","0.0126953125","11.53125","13.09375","13.28125"
"1574876417694","380","0.36523438","-0.76171875","-0.09472656","-0.75","16.6875","11.9375"
"1574876417694","381","0.49316406","-0.80566406","-0.015625","-9.46875","17.53125","4.53125"
"1574876417694","382","0.44628906","-0.8535156","-0.047851562","-9.90625","-0.15625","3.25"
"1574876417694","383","0.40625","-0.8964844","-0.041992188","1.625","-7.96875","3.875"
"1574876417695","384","0.31933594","-0.9941406","-0.19921875","0.0","-2.1875","1.5"
"1574876417696","385","0.5341797","-0.9658203","-0.30566406","-38.53125","41.84375","-10.40625"
"1574876417696","386","0.88671875","-1.1660156","0.12011719","-2.8125","30.0625","-22.4375"
"1574876417696","387","0.12109375","-1.1337891","0.29003906","72.5625","-36.65625","-17.75"
"1574876417696","388","-0.71875","-1.1259766","-0.20507812","-33.09375","24.9375","11.0"
"1574876417697","389","1.2246094","-0.8173828","-0.09082031","-50.46875","83.09375","-10.65625"
"1574876418091","390","0.4423828","-1.2246094","0.053710938","11.90625","-10.34375","-1.5"
"1574876418092","391","0.1015625","-1.0625","-0.07421875","-13.4375","-2.90625","-3.875"
"1574876418092","392","0.36035156","-0.8300781","-0.0546875","-2.28125","1.3125","13.21875"
"1574876418092","393","0.29589844","-0.7470703","-0.11816406","12.875","1.65625","2.78125"
"1574876418092","394","0.25585938","-0.7607422","-0.10839844","3.65625","-2.375","3.5"
"1574876418092","395","0.22460938","-0.7626953","-0.09765625","4.625","-3.875","5.59375"
"1574876418093","396","0.2705078","-0.6904297","-0.119140625","7.3125","-0.96875","0.5"
"1574876418094","397","0.23242188","-0.79296875","-0.08691406","18.1875","-7.0","-4.84375"
"1574876418094","398","0.3330078","-0.8925781","-0.140625","0.1875","3.1875","-6.03125"
"1574876418095","399","0.39257812","-1.0039062","-0.20507812","0.71875","-4.0","-4.75"
"1574876418487","400","0.6923828","-0.9248047","-0.32128906","-16.78125","-0.65625","-18.84375"
"1574876418488","401","0.7080078","-0.80859375","-0.3154297","-10.625","-57.28125","-32.375"
"1574876418488","402","0.22949219","-1.4462891","0.36816406","-13.6875","-59.0","-13.34375"
"1574876418488","403","0.1171875","-1.1074219","0.6044922","-8.96875","-27.3125","21.21875"
"1574876418488","404","0.4638672","-1.2451172","-0.0859375","-32.40625","-13.28125","-22.1875"
"1574876418489","405","0.3935547","-1.4160156","-0.33398438","-7.8125","-15.78125","2.90625"
"1574876418489","406","0.16210938","-0.84472656","0.08691406","2.375","9.125","15.15625"
"1574876418489","407","0.4111328","-0.6591797","-0.12109375","-0.8125","31.875","-3.28125"
"1574876418489","408","0.4033203","-0.6591797","-0.12402344","-0.5625","24.5625","-5.96875"
"1574876418491","409","0.24804688","-0.6875","-0.0048828125","5.84375","21.4375","-2.84375"
"1574876418886","410","0.24609375","-0.81152344","-0.123046875","-13.4375","39.15625","4.1875"
"1574876418886","411","0.41601562","-0.7529297","-0.16015625","-33.53125","46.28125","1.96875"
"1574876418886","412","0.42382812","-0.75878906","-0.11621094","-31.375","41.46875","-0.28125"
"1574876418887","413","0.4560547","-0.91015625","-0.19628906","-27.78125","36.6875","-2.53125"
"1574876418887","414","0.60839844","-0.94140625","-0.25","-32.0625","33.21875","-9.125"
"1574876418887","415","0.4609375","-1.0009766","-0.2783203","-36.375","50.5","-17.4375"
"1574876418887","416","0.6533203","-1.4199219","0.08300781","21.53125","42.375","-36.40625"
"1574876418888","417","-0.19238281","-1.1220703","0.08105469","37.90625","21.0625","-17.96875"
"1574876418888","418","-0.061523438","-1.0283203","-0.3544922","-98.09375","106.96875","12.84375"
"1574876418888","419","1.1552734","-1.2578125","-0.19824219","-35.34375","89.125","-20.0625"
"1574876419282","420","0.12988281","-1.0917969","0.01171875","-42.71875","41.34375","7.40625"
"1574876419283","421","0.08105469","-0.5654297","-0.09863281","-22.78125","55.9375","8.25"
"1574876419284","422","0.37402344","-0.6933594","-0.19238281","-9.34375","66.25","7.96875"
"1574876419284","423","0.3544922","-0.71777344","-0.15527344","-17.15625","52.625","-2.90625"
"1574876419284","424","0.2626953","-0.8857422","-0.203125","-25.71875","43.34375","-0.84375"
"1574876419285","425","0.35546875","-0.86816406","-0.25195312","-37.4375","51.15625","-3.21875"
"1574876419285","426","0.4736328","-0.734375","-0.2548828","-18.3125","41.53125","-11.875"
"1574876419285","427","0.3955078","-0.86035156","-0.14355469","-1.59375","19.0625","-10.03125"
"1574876419285","428","0.29882812","-1.0205078","-0.09667969","-17.34375","23.75","-7.46875"
"1574876419286","429","0.55566406","-1.0800781","-0.32714844","-27.46875","39.875","-14.0"
"1574876419680","430","0.66308594","-1.0224609","-0.4248047","-24.1875","19.5625","-20.78125"
"1574876419680","431","0.15234375","-1.3417969","0.09667969","-39.625","9.84375","8.21875"
"1574876419680","432","0.018554688","-0.859375","0.43554688","-12.65625","38.34375","38.34375"
"1574876419682","433","0.38867188","-1.0302734","0.0048828125","-46.21875","57.9375","11.125"
"1574876419682","434","0.36914062","-1.2919922","-0.13378906","-38.71875","69.40625","11.125"
"1574876419682","435","0.19335938","-0.8886719","0.043945312","-30.28125","98.40625","24.125"
"1574876419682","436","0.29296875","-0.7871094","0.01171875","-40.53125","133.375","12.84375"
"1574876419683","437","0.34765625","-0.8330078","-0.07324219","-27.09375","145.03125","14.3125"
"1574876419683","438","0.42089844","-0.8720703","-0.021484375","-23.625","143.09375","13.6875"
"1574876419683","439","0.5292969","-0.8496094","-0.044921875","-39.8125","131.75","6.5"
"1574876420079","440","0.48339844","-0.8232422","0.017578125","-11.96875","104.5","3.125"
"1574876420079","441","0.31640625","-0.92089844","-0.038085938","-14.78125","94.125","4.40625"
"1574876420079","442","0.39746094","-0.90234375","-0.095703125","-23.4375","96.625","4.1875"
"1574876420080","443","0.30859375","-0.91015625","-0.029296875","-23.3125","92.71875","-2.125"
"1574876420080","444","0.24804688","-0.99316406","-0.080078125","-34.375","93.09375","-1.1875"
"1574876420082","445","0.3955078","-1.1123047","-0.16796875","-62.4375","98.46875","1.25"
"1574876420082","446","0.296875","-0.98339844","-0.15722656","-65.1875","100.90625","9.25"
"1574876420083","447","0.40039062","-1.21875","0.22558594","-84.3125","132.09375","7.15625"
"1574876420083","448","-0.080078125","-1.1425781","0.36816406","-29.0","118.5625","4.53125"
"1574876420083","449","0.06933594","-0.79003906","-0.16796875","-74.71875","148.75","6.0625"
"1574876420476","450","0.5683594","-0.875","0.4609375","-71.71875","172.03125","-15.0"
"1574876420477","451","0.15917969","-1.0908203","0.14453125","-34.5625","99.875","-7.71875"
"1574876420477","452","0.30859375","-0.984375","-0.001953125","-32.84375","114.53125","-1.75"
"1574876420477","453","0.1953125","-1.0292969","0.037109375","-34.3125","111.59375","3.5625"
"1574876420477","454","0.2421875","-0.87402344","-0.02734375","-19.34375","102.5","-1.375"
"1574876420478","455","0.31152344","-0.77441406","-0.06738281","-6.90625","91.6875","-1.8125"
"1574876420478","456","0.25878906","-0.77246094","-0.049804688","-7.75","79.78125","1.625"
"1574876420478","457","0.27441406","-0.81640625","-0.08886719","-11.84375","66.78125","-1.375"
"1574876420479","458","0.3486328","-0.77246094","-0.13183594","-15.3125","51.71875","-5.53125"
"1574876420479","459","0.24316406","-0.76660156","-0.09765625","-7.09375","36.65625","-10.28125"
"1574876420874","460","0.31835938","-0.94921875","-0.119140625","-12.46875","27.375","-13.34375"
"1574876420874","461","0.09667969","-1.1269531","0.0087890625","-13.875","33.96875","-12.375"
"1574876420874","462","0.65234375","-1.1005859","-0.37304688","-52.75","39.15625","-14.3125"
"1574876420875","463","0.64746094","-1.4052734","-0.087890625","-46.15625","-4.3125","-25.1875"
"1574876420875","464","-0.041015625","-1.296875","0.3857422","-42.84375","32.96875","10.65625"
"1574876420875","465","0.13378906","-0.625","0.24804688","-14.28125","40.71875","1.375"
"1574876420875","466","0.3486328","-0.92089844","0.001953125","-9.65625","9.71875","-12.0625"
"1574876420876","467","0.3720703","-1.1884766","-0.06640625","-12.53125","18.625","-11.4375"
"1574876420876","468","0.19042969","-0.9345703","0.11425781","-24.65625","26.875","-1.5625"
"1574876420877","469","0.2998047","-0.8261719","0.0859375","-14.71875","38.46875","-8.40625"
"1574876421270","470","0.29492188","-0.81347656","-0.078125","-4.71875","44.75","-3.40625"
"1574876421270","471","0.3232422","-0.7753906","0.015625","-13.625","26.6875","1.5625"
"1574876421270","472","0.38378906","-0.76464844","-0.06738281","-7.34375","25.28125","-0.46875"
"1574876421270","473","0.38085938","-0.8203125","-0.049804688","-16.0","17.46875","-3.6875"
"1574876421271","474","0.29003906","-0.83691406","-0.028320312","-14.96875","16.1875","-1.0"
"1574876421271","475","0.31152344","-0.95996094","-0.1015625","-7.6875","20.78125","2.09375"
"1574876421271","476","0.50390625","-1.1210938","-0.2265625","-15.15625","26.21875","5.625"
"1574876421271","477","0.609375","-1.2509766","-0.296875","-11.0","22.71875","7.34375"
"1574876421272","478","0.6982422","-1.1972656","0.0146484375","-0.9375","40.78125","-0.59375"
"1574876421272","479","0.35546875","-1.1318359","0.19433594","23.25","-1.125","4.84375"
"1574876421667","480","-0.26953125","-0.9951172","0.09765625","-3.5","3.625","14.96875"
"1574876421668","481","0.38867188","-0.88964844","0.06933594","3.15625","40.125","6.875"
"1574876421668","482","0.28710938","-1.046875","0.05859375","-4.59375","27.125","-1.6875"
"1574876421669","483","0.24609375","-1.0068359","0.09765625","-6.28125","12.03125","-1.5"
"1574876421669","484","0.20410156","-0.93066406","0.10546875","-4.65625","8.8125","6.375"
"1574876421669","485","0.17285156","-0.828125","-0.013671875","2.25","14.3125","4.96875"
"1574876421670","486","0.13671875","-0.7519531","-0.051757812","-1.21875","20.59375","6.125"
"1574876421670","487","0.15332031","-0.7363281","-0.051757812","-5.8125","25.84375","6.6875"
"1574876421670","488","0.20019531","-0.7705078","-0.05078125","-0.6875","20.65625","5.03125"
"1574876421670","489","0.25585938","-0.86816406","-0.072265625","-0.1875","17.71875","-0.28125"
"1574876422263","490","0.31933594","-0.93359375","-0.041015625","-0.625","19.75","-4.1875"
"1574876422263","491","0.3798828","-0.9589844","-0.12792969","-8.625","4.96875","-10.28125"
"1574876422263","492","0.44628906","-0.9482422","-0.14941406","-7.21875","-19.875","-10.90625"
"1574876422265","493","0.45898438","-1.1220703","-0.33007812","-19.84375","-31.96875","-13.09375"
"1574876422265","494","0.53027344","-1.3457031","-0.111328125","-6.28125","-34.03125","-22.375"
"1574876422265","495","-0.07910156","-1.6269531","0.3251953","0.25","19.0","19.375"
"1574876422265","496","0.5361328","-0.8378906","-0.044921875","-7.34375","8.3125","-21.9375"
"1574876422266","497","0.40722656","-0.5908203","0.26757812","28.1875","-36.59375","-10.53125"
"1574876422266","498","0.0146484375","-0.9824219","0.26367188","12.4375","-48.25","26.09375"
"1574876422266","499","0.2939453","-1.1142578","-0.013671875","4.03125","-7.65625","-3.5625"
"1574876422463","500","0.23046875","-0.8408203","0.08691406","3.96875","-2.25","3.3125"
"1574876422464","501","0.15039062","-0.69433594","0.11621094","20.5625","-12.90625","0.15625"
"1574876422464","502","0.29101562","-0.7402344","-0.017578125","18.4375","-18.21875","1.71875"
"1574876422464","503","0.32226562","-0.7734375","-0.0029296875","3.28125","-17.375","4.59375"
"1574876422464","504","0.35058594","-0.82421875","-0.04296875","1.28125","-20.78125","3.6875"
"1574876422466","505","0.38183594","-0.8730469","-0.068359375","10.84375","-18.46875","3.375"
"1574876422466","506","0.33203125","-0.890625","-0.0048828125","9.34375","-11.625","1.3125"
"1574876422466","507","0.2685547","-0.9951172","-0.03515625","17.21875","-9.5","0.40625"
"1574876422467","508","0.3564453","-1.2216797","-0.19726562","-1.59375","0.75","4.96875"
"1574876422467","509","0.5439453","-1.3125","-0.15917969","-8.1875","29.4375","8.625"
"1574876423453","510","0.5410156","-1.2255859","0.22851562","-50.65625","81.8125","-3.75"
"1574876423454","511","0.3544922","-0.92285156","0.6455078","0.96875","15.78125","2.21875"
"1574876423454","512","-0.51464844","-1.0439453","-0.020507812","32.34375","18.6875","20.46875"
"1574876423454","513","0.64453125","-0.8623047","-0.038085938","-18.3125","26.28125","-0.15625"
"1574876423455","514","0.2783203","-0.9638672","0.14355469","-14.90625","15.15625","-2.71875"
"1574876423455","515","0.15136719","-0.9433594","0.20605469","9.15625","-11.6875","-9.25"
"1574876423455","516","0.14160156","-0.8203125","0.034179688","15.75","-0.03125","1.0"
"1574876423458","517","0.21191406","-0.7714844","9.765625E-4","2.125","10.34375","-1.375"
"1574876423459","518","0.14160156","-0.78125","-0.0068359375","5.71875","8.0625","-0.03125"
"1574876423459","519","0.2265625","-0.7792969","-0.0625","7.125","8.3125","2.40625"
"1574876423459","520","0.2939453","-0.79785156","-0.055664062","8.65625","10.875","-2.96875"
"1574876423460","521","0.31347656","-0.8642578","-0.048828125","14.9375","6.1875","-7.125"
"1574876423460","522","0.2705078","-0.9746094","-0.0146484375","6.53125","3.8125","-11.4375"
"1574876423460","523","0.28710938","-1.0419922","-0.095703125","-9.34375","-2.125","-12.3125"
"1574876423461","524","0.49804688","-1.1757812","-0.14941406","-18.0","-2.3125","-10.96875"
"1574876423461","525","0.57128906","-1.0898438","-0.24804688","-9.21875","-16.46875","-17.1875"
"1574876423461","526","0.31640625","-1.4433594","0.040039062","-58.0625","-29.40625","-16.75"
"1574876423461","527","0.11035156","-1.1816406","0.23730469","14.75","27.5625","9.71875"
"1574876423462","528","0.63183594","-0.6123047","0.16894531","-7.8125","-26.53125","-12.90625"
"1574876423462","529","0.055664062","-1.0722656","0.37304688","-0.625","-54.4375","20.90625"
"1574876423655","530","0.14941406","-1.0429688","0.059570312","29.78125","-7.96875","4.46875"
"1574876423656","531","0.28515625","-0.93066406","0.057617188","15.6875","12.46875","1.0"
"1574876423656","532","0.20214844","-0.7529297","0.08691406","13.40625","-1.25","-1.1875"
"1574876423656","533","0.2919922","-0.7109375","0.013671875","23.5","8.9375","0.34375"
"1574876423657","534","0.2919922","-0.6845703","0.119140625","15.375","-0.96875","5.6875"
"1574876423657","535","0.2939453","-0.7832031","0.0625","13.40625","-7.90625","8.15625"
"1574876423657","536","0.328125","-0.85058594","0.017578125","-3.25","-2.71875","6.75"
"1574876423657","537","0.4013672","-0.8378906","0.030273438","-8.5","-0.59375","6.25"
"1574876423658","538","0.38085938","-0.88671875","0.045898438","-2.625","-5.03125","0.03125"
"1574876423658","539","0.3125","-0.93652344","0.001953125","8.34375","-0.84375","0.75"
"1574876424253","540","0.45410156","-1.1123047","-0.15136719","-5.1875","-1.1875","3.0625"
"1574876424255","541","0.52441406","-1.2646484","-0.16894531","-23.125","7.71875","5.59375"
"1574876424255","542","0.7158203","-1.1884766","0.15820312","7.3125","22.78125","4.1875"
"1574876424255","543","0.061523438","-1.0380859","0.38671875","-6.53125","-1.5625","10.40625"
"1574876424256","544","0.0146484375","-1.0449219","0.15625","-6.59375","16.875","2.78125"
"1574876424256","545","0.3125","-0.9169922","0.21582031","1.21875","24.625","0.5"
"1574876424256","546","0.26367188","-1.0488281","0.15722656","-8.6875","10.40625","-8.71875"
"1574876424257","547","0.25683594","-1.0361328","0.20996094","-7.5","-3.875","-8.59375"
"1574876424257","548","0.19824219","-0.90625","0.14257812","0.46875","-4.3125","-1.25"
"1574876424257","549","0.22753906","-0.8017578","0.043945312","-1.40625","-6.4375","-3.03125"
"1574876424451","550","0.19824219","-0.78808594","0.0234375","-3.125","4.96875","-1.6875"
"1574876424451","551","0.17871094","-0.7919922","-0.009765625","-7.15625","9.84375","-2.0"
"1574876424451","552","0.1953125","-0.765625","-0.052734375","-8.125","6.5","0.4375"
"1574876424453","553","0.3408203","-0.71777344","-0.07324219","-7.34375","8.6875","-1.125"
"1574876424453","554","0.4091797","-0.8222656","0.038085938","4.75","12.53125","-5.71875"
"1574876424453","555","0.171875","-0.91015625","-0.13867188","5.125","-14.9375","-6.9375"
"1574876424454","556","0.45703125","-1.0058594","-0.19042969","-30.21875","-19.5625","-9.9375"
"1574876424454","557","0.5488281","-1.140625","-0.27441406","-14.21875","-33.5625","-8.21875"
"1574876424454","558","0.7607422","-1.1621094","-0.328125","-18.125","-58.6875","-26.90625"
"1574876424454","559","0.24609375","-1.5908203","0.35253906","4.25","-33.96875","2.09375"
"1574876424848","560","0.36328125","-1.0214844","0.29589844","-24.4375","0.625","-9.3125"
"1574876424849","561","0.5546875","-0.42285156","0.12011719","-14.40625","-71.9375","-21.03125"
"1574876424849","562","0.052734375","-1.1386719","0.265625","48.28125","-75.71875","22.71875"
"1574876424849","563","0.20214844","-1.1982422","0.032226562","18.90625","-9.6875","-1.125"
"1574876424849","564","0.36328125","-0.78515625","0.083984375","-0.875","-25.5","1.125"
"1574876424851","565","0.20410156","-0.71484375","-0.025390625","22.875","-16.875","-7.1875"
"1574876424851","566","0.2607422","-0.73046875","-0.047851562","25.75","-13.59375","6.4375"
"1574876424851","567","0.33398438","-0.75390625","0.0625","9.15625","8.6875","13.15625"
"1574876424852","568","0.41601562","-0.7763672","-0.0234375","15.375","23.28125","11.0"
"1574876424852","569","0.4013672","-0.83691406","-0.037109375","14.75","11.875","10.9375"
"1574876425445","570","0.31054688","-0.79003906","0.0146484375","15.625","4.0","6.5"
"1574876425446","571","0.42871094","-0.9199219","9.765625E-4","0.96875","13.03125","4.78125"
"1574876425446","572","0.4580078","-0.9267578","-0.068359375","-11.53125","-20.65625","6.875"
"1574876425446","573","0.41992188","-1.1572266","-0.0126953125","19.53125","-18.59375","0.875"
"1574876425446","574","0.4375","-1.3105469","-0.18164062","-47.3125","40.65625","-10.90625"
"1574876425447","575","0.8691406","-1.2070312","0.12207031","14.46875","5.09375","-28.0"
"1574876425447","576","-0.123046875","-0.8515625","0.3642578","66.34375","-27.875","-31.09375"
"1574876425448","577","-0.27441406","-0.9873047","-0.0107421875","-29.625","34.09375","6.5"
"1574876425449","578","0.7548828","-0.99902344","0.0859375","-42.84375","49.53125","-21.75"
"1574876425449","579","0.3466797","-1.1054688","0.034179688","-4.71875","-9.875","-10.65625"
"1574876425644","580","0.22851562","-0.8847656","0.0029296875","-13.3125","-6.15625","-6.625"
"1574876425644","581","0.23730469","-0.75097656","0.025390625","-9.46875","-5.03125","5.03125"
"1574876425645","582","0.24414062","-0.75097656","0.038085938","1.75","-12.1875","0.5"
"1574876425645","583","0.21289062","-0.83496094","-0.08496094","5.1875","-3.21875","1.4375"
"1574876425645","584","0.2763672","-0.8466797","-0.10253906","-1.15625","-1.5","3.1875"
"1574876425645","585","0.3203125","-0.8173828","-0.14746094","3.34375","-4.0625","-2.0625"
"1574876425645","586","0.34765625","-0.8066406","-0.13964844","8.53125","-2.71875","-6.5"
"1574876425646","587","0.3173828","-0.8623047","-0.11328125","5.125","-10.84375","-7.53125"
"1574876425646","588","0.25976562","-1.0253906","-0.12109375","3.21875","-12.25","-5.28125"
"1574876425646","589","0.48632812","-1.0791016","-0.31054688","-12.46875","-1.4375","-7.71875"
"1574876426040","590","0.73535156","-0.99316406","-0.33203125","-8.25","-19.03125","-26.53125"
"1574876426041","591","0.32421875","-1.3769531","-0.10058594","-4.03125","-57.09375","-12.71875"
"1574876426041","592","0.049804688","-1.2714844","0.46972656","16.15625","-23.46875","20.34375"
"1574876426041","593","0.20605469","-0.6298828","0.1953125","-47.1875","-10.34375","15.84375"
"1574876426041","594","0.25097656","-1.1972656","0.033203125","9.40625","-7.5","-3.09375"
"1574876426042","595","0.1953125","-1.3046875","0.037109375","-14.21875","33.28125","11.0625"
"1574876426042","596","0.23730469","-0.828125","0.036132812","-19.0","58.1875","1.3125"
"1574876426042","597","0.22949219","-0.7480469","0.03125","-30.21875","61.0","-7.25"
"1574876426042","598","0.27539062","-0.70703125","0.1484375","-33.6875","55.75","-4.8125"
"1574876426043","599","0.33984375","-0.74121094","-0.140625","-46.09375","71.6875","-7.125"
"1574876426440","600","0.41503906","-0.77734375","-0.15234375","-48.71875","64.84375","9.96875"
"1574876426442","601","0.3466797","-0.8925781","-0.15625","-13.875","63.3125","11.1875"
"1574876426442","602","0.34472656","-0.9345703","-0.1484375","-18.5625","73.5","17.40625"
"1574876426442","603","0.41796875","-0.875","-0.0048828125","4.8125","78.03125","-6.875"
"1574876426443","604","0.17675781","-1.0009766","-0.13476562","-9.03125","78.5","1.5"
"1574876426443","605","0.44335938","-1.0615234","-0.14160156","-43.46875","101.71875","0.40625"
"1574876426443","606","0.4921875","-0.9794922","-0.13183594","-55.78125","116.125","-4.0"
"1574876426443","607","0.43164062","-1.2460938","0.087890625","6.71875","101.03125","-16.28125"
"1574876426444","608","-0.0087890625","-0.9970703","0.16113281","23.96875","104.5","-6.6875"
"1574876426444","609","0.15820312","-0.84277344","-0.12402344","-37.65625","111.03125","3.25"
"1574876426835","610","0.59375","-1.1933594","0.1953125","-59.09375","124.34375","-11.8125"
"1574876426835","611","0.08105469","-1.2197266","0.09472656","-15.28125","67.71875","10.28125"
"1574876426835","612","0.07519531","-0.9189453","0.005859375","-15.625","103.46875","16.3125"
"1574876426836","613","0.25097656","-0.7128906","-0.03515625","-16.96875","117.8125","4.125"
"1574876426837","614","0.19921875","-0.7783203","0.033203125","-18.0625","100.59375","-7.65625"
"1574876426837","615","0.16796875","-0.90625","0.03125","-33.09375","95.34375","-7.3125"
"1574876426837","616","0.29003906","-0.9658203","-0.005859375","-37.59375","101.03125","-13.34375"
"1574876426838","617","0.30273438","-0.9238281","-0.07714844","-40.59375","88.21875","-19.4375"
"1574876426838","618","0.24023438","-0.8203125","-0.059570312","-23.09375","72.96875","-18.71875"
"1574876426838","619","0.24902344","-0.9189453","-0.053710938","-22.90625","68.5625","-21.53125"
"1574876427432","620","0.14160156","-0.9589844","0.053710938","-4.59375","68.75","-19.8125"
"1574876427433","621","0.5449219","-1.1640625","-0.3017578","-50.0","67.78125","-16.53125"
"1574876427433","622","0.6689453","-1.1689453","-0.2626953","-32.59375","35.40625","-32.875"
"1574876427433","623","0.3046875","-1.1728516","-0.22070312","-25.09375","16.9375","-31.34375"
"1574876427434","624","0.06640625","-1.1708984","0.12207031","-14.21875","70.5625","-27.3125"
"1574876427435","625","0.11230469","-0.7050781","0.35351562","-30.03125","59.34375","-10.34375"
"1574876427436","626","0.10546875","-0.77734375","0.5732422","-54.5625","49.40625","1.625"
"1574876427436","627","0.27441406","-1.1523438","0.17382812","-30.59375","67.46875","-8.28125"
"1574876427436","628","0.3232422","-1.0625","0.19140625","-30.9375","99.5625","-14.5"
"1574876427436","629","0.15917969","-0.8828125","0.18164062","-19.71875","109.46875","-11.9375"
"1574876427829","630","0.33984375","-0.85546875","0.12109375","-40.46875","133.5625","-16.9375"
"1574876427829","631","0.31152344","-0.8457031","0.15429688","-49.5625","146.9375","-16.75"
"1574876427829","632","0.3984375","-0.78125","0.18457031","-61.03125","147.0","-13.59375"
"1574876427829","633","0.4375","-0.79296875","0.18847656","-44.0625","129.15625","-11.28125"
"1574876427830","634","0.5673828","-0.7861328","0.0390625","-45.90625","106.53125","-9.875"
"1574876427830","635","0.5576172","-0.85546875","0.036132812","-35.78125","81.375","-8.28125"
"1574876427830","636","0.3984375","-0.9580078","0.08984375","-23.8125","70.15625","-3.21875"
"1574876427831","637","0.40429688","-0.9941406","-0.09277344","-48.53125","63.0625","-9.0"
"1574876427832","638","0.49121094","-0.9794922","-0.17089844","-60.1875","55.0","2.65625"
"1574876427832","639","0.45117188","-1.0644531","-0.12207031","-49.5625","54.15625","9.0"
"1574876428027","640","0.53515625","-1.3554688","-0.036132812","-29.84375","54.90625","3.0"
"1574876428028","641","-0.017578125","-1.0429688","0.14257812","14.03125","53.65625","16.1875"
"1574876428028","642","-0.087890625","-0.63964844","0.015625","-28.28125","83.5625","5.09375"
"1574876428028","643","0.38867188","-0.78222656","0.14355469","-38.59375","84.0","-5.46875"
"1574876428028","644","0.16015625","-1.1875","0.025390625","-21.6875","66.1875","5.09375"
"1574876428029","645","0.18164062","-1.0595703","0.024414062","-31.1875","72.84375","1.96875"
"1574876428029","646","0.17480469","-0.9453125","0.07421875","-16.5625","72.96875","-1.1875"
"1574876428029","647","0.1953125","-0.84375","-0.041992188","0.71875","63.625","-5.78125"
"1574876428029","648","0.24121094","-0.77246094","-0.030273438","-19.84375","69.125","-10.34375"
"1574876428030","649","0.2705078","-0.765625","-0.044921875","-18.1875","55.75","-10.15625"
"1574876428425","650","0.25097656","-0.8232422","-0.083984375","-27.46875","41.09375","-10.0"
"1574876428426","651","0.35742188","-0.88671875","-0.17089844","-30.28125","27.5","-8.71875"
"1574876428426","652","0.33789062","-0.8105469","-0.06347656","-9.90625","18.03125","-7.59375"
"1574876428426","653","0.24902344","-0.9785156","-0.04296875","8.0","13.21875","-5.90625"
"1574876428427","654","0.38964844","-1.1142578","-0.12109375","2.0625","14.125","-12.71875"
"1574876428427","655","0.6123047","-1.1748047","-0.27539062","-33.09375","0.21875","-12.96875"
"1574876428427","656","0.55566406","-1.1748047","-0.23242188","-19.90625","-32.75","-20.59375"
"1574876428427","657","0.095703125","-1.4921875","0.23144531","-1.09375","-1.03125","7.21875"
"1574876428428","658","0.21582031","-0.7597656","0.16992188","-23.125","23.40625","-2.65625"
"1574876428428","659","0.43945312","-0.7714844","0.28515625","-17.65625","-47.03125","-1.9375"
"1574876428823","660","0.24414062","-1.40625","0.0068359375","14.75","-20.125","-0.78125"
"1574876428825","661","0.3486328","-1.0839844","0.09765625","-13.9375","-0.03125","1.78125"
"1574876428825","662","0.25","-0.7246094","0.08886719","-2.15625","-4.125","-4.84375"
"1574876428825","663","0.19921875","-0.7089844","0.036132812","3.03125","3.0625","-7.375"
"1574876428825","664","0.24707031","-0.6064453","0.013671875","2.875","5.28125","-2.21875"
"1574876428826","665","0.3515625","-0.6875","-0.022460938","-8.84375","9.78125","-0.9375"
"1574876428826","666","0.4033203","-0.78125","-0.036132812","-7.9375","2.84375","3.6875"
"1574876428826","667","0.4033203","-0.84472656","-0.0546875","-12.28125","-1.875","6.875"
"1574876428826","668","0.4140625","-0.8642578","-0.038085938","-0.875","-2.40625","6.1875"
"1574876428827","669","0.26171875","-0.98046875","-0.0068359375","8.28125","-1.4375","11.1875"
"1574876429417","670","0.4091797","-1.0693359","-0.125","15.125","10.65625","14.3125"
"1574876429417","671","0.4736328","-1.2490234","-0.17675781","3.53125","34.5","17.0"
"1574876429417","672","0.8222656","-1.2167969","-0.09082031","-21.1875","56.40625","-5.40625"
"1574876429418","673","0.6171875","-0.984375","0.17382812","31.78125","-31.71875","-10.84375"
"1574876429418","674","-0.52246094","-0.8544922","0.30566406","48.5","-24.40625","7.09375"
"1574876429419","675","0.2734375","-1.0410156","-0.0107421875","-29.0","32.0","2.15625"
"1574876429419","676","0.55859375","-1.0693359","0.111328125","-35.15625","7.46875","-19.5625"
"1574876429420","677","0.19726562","-1.0478516","0.109375","-4.09375","-12.1875","-8.75"
"1574876429420","678","0.19628906","-0.8173828","0.041015625","-3.78125","-9.5","-2.0"
"1574876429420","679","0.20996094","-0.7167969","0.041992188","10.96875","-1.625","0.6875"
"1574876429813","680","0.14746094","-0.8310547","0.0","7.3125","6.0625","1.25"
"1574876429813","681","0.21582031","-0.7841797","-0.033203125","-2.21875","5.5","3.125"
"1574876429813","682","0.33789062","-0.7392578","-0.08691406","3.90625","0.6875","0.5625"
"1574876429814","683","0.35351562","-0.7949219","-0.09667969","10.125","-5.90625","-3.6875"
"1574876429814","684","0.43164062","-0.82128906","-0.11328125","5.3125","-10.59375","-8.59375"
"1574876429815","685","0.42285156","-0.83984375","-0.13183594","6.15625","-26.78125","-14.625"
"1574876429815","686","0.2919922","-1.0029297","-0.1015625","17.75","-38.25","-4.25"
"1574876429816","687","0.5097656","-1.1035156","-0.20410156","-7.6875","-21.34375","-7.0"
"1574876429816","688","0.55859375","-1.4541016","0.119140625","-11.71875","-31.15625","-8.28125"
"1574876429816","689","0.18554688","-1.3574219","0.59765625","-3.65625","-10.59375","20.28125"
"1574876430016","690","0.3173828","-0.4013672","0.064453125","-32.53125","-5.65625","0.5"
"1574876430016","691","0.33496094","-0.9638672","0.11621094","4.75","-62.28125","-6.3125"
"1574876430017","692","0.26953125","-1.5039062","0.0029296875","30.6875","-6.625","5.75"
"1574876430017","693","0.3720703","-0.95214844","0.16113281","2.8125","-6.5","3.0"
"1574876430017","694","0.2734375","-0.84277344","0.022460938","10.71875","-1.625","-3.15625"
"1574876430017","695","0.21191406","-0.7265625","0.005859375","11.46875","4.46875","1.96875"
"1574876430018","696","0.15820312","-0.6044922","0.045898438","12.0625","17.46875","6.8125"
"1574876430019","697","0.27441406","-0.6669922","-0.026367188","-3.4375","28.53125","7.34375"
"1574876430020","698","0.41503906","-0.6894531","-0.018554688","-10.3125","28.9375","2.15625"
"1574876430020","699","0.5048828","-0.7109375","-0.040039062","-19.53125","25.15625","-5.65625"
"1574876430613","700","0.43652344","-0.78808594","-0.07421875","-9.84375","-7.0625","3.5"
"1574876430613","701","0.51953125","-1.0136719","0.0146484375","28.9375","-5.40625","-4.0625"
"1574876430614","702","0.27929688","-1.0927734","-0.20605469","2.25","13.875","-9.875"
"1574876430614","703","0.61621094","-1.3398438","0.13183594","-60.96875","61.125","-22.0"
"1574876430614","704","0.18554688","-1.0527344","0.30566406","64.8125","-25.3125","-29.15625"
"1574876430614","705","-0.4501953","-1.1386719","-0.0048828125","-44.5625","32.4375","8.5"
"1574876430615","706","0.8261719","-1.2314453","0.15625","-34.5","74.78125","-23.03125"
"1574876430615","707","0.4013672","-1.3427734","-0.001953125","-17.78125","8.4375","3.1875"
"1574876430615","708","0.24609375","-0.8847656","0.040039062","-22.90625","-0.84375","3.125"
"1574876430616","709","0.2783203","-0.7763672","-0.044921875","-4.90625","1.125","8.5"
"1574876430810","710","0.2626953","-0.7363281","-0.11816406","3.40625","-6.375","3.5"
"1574876430810","711","0.22265625","-0.73339844","-0.05859375","8.125","-11.8125","7.46875"
"1574876430810","712","0.19726562","-0.69628906","-0.06738281","3.09375","-11.28125","10.21875"
"1574876430811","713","0.32617188","-0.7216797","-0.061523438","12.625","-17.3125","0.15625"
"1574876430811","714","0.31445312","-0.66015625","-0.12988281","6.21875","-18.65625","-4.1875"
"1574876430811","715","0.36132812","-0.8339844","-0.10253906","9.4375","-40.1875","-4.90625"
"1574876430812","716","0.39746094","-1.0419922","-0.2705078","-12.46875","-40.4375","-3.6875"
"1574876430812","717","0.62597656","-0.984375","-0.36035156","-23.125","-38.125","-17.75"
"1574876430812","718","0.5205078","-1.34375","-0.23144531","-29.375","-84.34375","-5.84375"
"1574876430812","719","0.16210938","-1.5205078","0.47460938","22.40625","-46.65625","23.34375"
"1574876431603","720","0.328125","-0.51953125","0.13769531","-52.625","-2.40625","12.15625"
"1574876431604","721","0.33398438","-1.1113281","0.047851562","57.59375","-29.59375","24.4375"
"1574876431604","722","0.33007812","-1.5244141","-0.02734375","24.59375","-6.875","8.5"
"1574876431605","723","0.26757812","-0.9013672","0.0625","1.875","8.3125","10.53125"
"1574876431605","724","0.16210938","-0.7421875","-0.047851562","7.0","10.53125","-2.0"
"1574876431605","725","0.24804688","-0.71191406","-0.051757812","16.96875","21.8125","5.9375"
"1574876431606","726","0.29785156","-0.6074219","-0.0126953125","20.0","26.375","5.59375"
"1574876431606","727","0.3564453","-0.6923828","-0.047851562","15.6875","18.6875","9.65625"
"1574876431606","728","0.3154297","-0.7050781","-0.0234375","-0.625","25.28125","4.59375"
"1574876431606","729","0.18554688","-0.71191406","0.0078125","-20.15625","43.46875","-0.9375"
"1574876431801","730","0.37890625","-0.95996094","-0.107421875","-40.40625","43.0","4.71875"
"1574876431801","731","0.5722656","-1.1552734","-0.03125","-26.5","27.59375","7.15625"
"1574876431801","732","0.5722656","-1.078125","-0.3154297","-42.625","42.875","-4.84375"
"1574876431802","733","0.6611328","-1.1464844","0.0859375","34.15625","1.78125","-27.8125"
"1574876431803","734","-0.4560547","-1.0039062","0.13378906","121.4375","6.375","-20.53125"
"1574876431803","735","0.4404297","-1.2177734","-0.16210938","-78.1875","40.375","1.5"
"1574876431803","736","0.7685547","-1.2587891","0.12597656","-15.75","-12.78125","-22.625"
"1574876431803","737","0.18847656","-1.2294922","-0.061523438","-8.0","-30.5625","-9.4375"
"1574876431804","738","0.36035156","-0.734375","-0.13378906","0.96875","-29.65625","-6.625"
"1574876431804","739","0.31933594","-0.6035156","-0.061523438","13.53125","-47.90625","2.21875"
"1574876432401","740","0.17871094","-0.6484375","-0.057617188","24.15625","-59.25","1.625"
"1574876432401","741","0.10644531","-0.7949219","-0.07421875","28.4375","-47.21875","5.59375"
"1574876432401","742","0.14257812","-0.82128906","-0.095703125","19.84375","-30.875","-0.84375"
"1574876432402","743","0.28320312","-0.80566406","-0.095703125","27.53125","-16.28125","-5.71875"
"1574876432402","744","0.2578125","-0.84765625","-0.07519531","30.03125","-12.4375","-8.09375"
"1574876432403","745","0.32226562","-1.0019531","-0.14257812","1.34375","-8.78125","-0.28125"
"1574876432404","746","0.47851562","-0.9355469","-0.19726562","-6.21875","-3.15625","-7.0625"
"1574876432404","747","0.62597656","-0.9169922","-0.3330078","-21.1875","-26.21875","-18.34375"
"1574876432404","748","0.56640625","-1.3583984","-0.032226562","-55.0","-63.9375","-16.46875"
"1574876432404","749","0.21386719","-1.1015625","0.54785156","-1.40625","-27.375","2.28125"
"1574876432599","750","0.24902344","-0.6591797","0.27148438","-43.59375","-27.03125","4.3125"
"1574876432599","751","0.23046875","-1.4853516","-0.0126953125","13.40625","-22.75","0.8125"
"1574876432599","752","0.32617188","-1.2578125","-0.13183594","-3.59375","17.78125","9.65625"
"1574876432600","753","0.3671875","-0.8808594","0.044921875","-11.46875","24.3125","1.71875"
"1574876432600","754","0.27441406","-0.82910156","-0.10449219","7.9375","30.78125","-2.78125"
"1574876432600","755","0.2890625","-0.8095703","-0.076171875","6.875","40.0","6.375"
"1574876432600","756","0.328125","-0.68847656","-0.072265625","4.375","49.65625","11.875"
"1574876432602","757","0.3779297","-0.6640625","-0.13476562","-5.8125","48.0625","9.125"
"1574876432602","758","0.40039062","-0.7558594","-0.123046875","-20.34375","47.6875","8.21875"
"1574876432602","759","0.44335938","-0.6640625","-0.18066406","-41.375","39.375","4.125"
"1574876432997","760","0.5371094","-0.75097656","-0.23144531","-34.25","7.90625","0.28125"
"1574876432998","761","0.57128906","-0.9316406","-0.19238281","3.90625","-3.46875","-7.375"
"1574876432998","762","0.41308594","-1.0136719","-0.28125","-2.3125","-4.875","-7.96875"
"1574876432998","763","0.37890625","-0.8027344","-0.1484375","-32.125","31.09375","-19.5625"
"1574876432999","764","0.07421875","-1.0878906","0.14648438","122.71875","2.9375","-18.65625"
"1574876432999","765","0.296875","-1.6572266","-0.057617188","37.90625","-4.6875","-5.46875"
"1574876432999","766","0.40625","-1.2753906","-0.036132812","-73.875","46.28125","9.25"
"1574876432999","767","0.8564453","-1.1279297","-0.033203125","-1.46875","-7.25","-31.59375"
"1574876433000","768","0.22167969","-1.0771484","-0.19042969","-25.875","-20.78125","4.0"
"1574876433001","769","0.37890625","-0.5488281","-0.059570312","-9.59375","-18.34375","8.25"
"1574876433789","770","0.20214844","-0.5761719","-0.064453125","22.5625","-34.53125","17.84375"
"1574876433790","771","0.11328125","-0.7548828","-0.095703125","27.75","-27.03125","7.96875"
"1574876433791","772","0.07910156","-0.8847656","-0.14257812","13.65625","-6.75","4.0625"
"1574876433791","773","0.171875","-0.9082031","-0.12890625","10.96875","15.9375","-1.4375"
"1574876433792","774","0.21484375","-0.9121094","-0.13964844","15.3125","23.28125","-3.03125"
"1574876433792","775","0.26367188","-1.0078125","-0.046875","13.34375","30.1875","-1.6875"
"1574876433792","776","0.4140625","-0.98339844","-0.1796875","-12.40625","45.75","-5.46875"
"1574876433792","777","0.7216797","-1.0224609","-0.35839844","-22.71875","24.4375","-17.84375"
"1574876433793","778","0.48339844","-0.9355469","-0.31835938","-12.53125","-11.28125","-36.34375"
"1574876433793","779","0.32226562","-1.3779297","0.040039062","-29.65625","-5.46875","-24.15625"
"1574876433987","780","-0.0390625","-1.1386719","0.75097656","8.15625","66.96875","7.21875"
"1574876433988","781","-0.049804688","-1.0527344","0.375","-6.96875","29.75","22.4375"
"1574876433989","782","0.42285156","-1.1669922","0.0078125","-22.53125","62.28125","-2.28125"
"1574876433989","783","0.18164062","-0.8339844","0.017578125","-16.1875","78.75","6.3125"
"1574876433989","784","0.13769531","-0.73535156","0.009765625","-35.21875","106.84375","-2.40625"
"1574876433989","785","0.39160156","-0.81347656","0.046875","-47.875","122.15625","-13.78125"
"1574876433989","786","0.51464844","-1.0","-0.0107421875","-44.0625","117.5625","-15.0"
"1574876433990","787","0.5292969","-0.859375","0.047851562","-35.40625","109.875","-14.0625"
"1574876433990","788","0.52734375","-0.8027344","-0.03515625","-29.625","90.0625","-7.46875"
"1574876433990","789","0.47265625","-0.78027344","-0.0390625","-29.5","71.625","-3.5"
"1574876434188","790","0.40234375","-0.78808594","-0.10058594","-36.875","62.34375","-1.625"
"1574876434189","791","0.41210938","-0.8066406","-0.01171875","-42.3125","59.78125","-0.78125"
"1574876434189","792","0.42382812","-0.96777344","-0.034179688","-39.1875","59.46875","1.625"
"1574876434190","793","0.3642578","-1.03125","-0.14160156","-37.53125","53.4375","7.71875"
"1574876434190","794","0.3984375","-1.0585938","-0.19726562","-41.21875","65.4375","7.46875"
"1574876434190","795","0.43847656","-1.0205078","-0.15039062","-52.5","88.53125","-2.53125"
"1574876434190","796","0.45703125","-1.1806641","-0.022460938","-16.5","90.34375","-6.6875"
"1574876434190","797","0.39257812","-0.9863281","0.12207031","-11.0625","70.40625","-3.09375"
"1574876434191","798","-0.005859375","-0.74121094","0.11035156","-13.6875","86.8125","-5.71875"
"1574876434191","799","0.30371094","-0.8203125","0.0048828125","-39.875","132.03125","-11.6875"
"1574876434587","800","0.32910156","-1.1787109","0.061523438","-43.46875","108.34375","-2.28125"
"1574876434587","801","0.2998047","-1.0673828","0.048828125","-52.125","90.34375","16.8125"
"1574876434588","802","0.2841797","-0.9238281","0.041992188","-23.875","83.03125","14.5"
"1574876434588","803","0.19335938","-0.8154297","0.044921875","-20.9375","90.46875","7.71875"
"1574876434589","804","0.26660156","-0.79296875","-0.048828125","-22.96875","89.625","7.34375"
"1574876434589","805","0.30664062","-0.9794922","-0.030273438","-26.5625","81.0625","7.59375"
"1574876434589","806","0.27441406","-0.9628906","-0.038085938","-23.875","80.96875","5.15625"
"1574876434590","807","0.29785156","-0.9238281","-0.06738281","-23.375","80.40625","-1.9375"
"1574876434590","808","0.34179688","-0.8457031","-0.1171875","-21.4375","68.25","-6.9375"
"1574876434591","809","0.37109375","-0.8251953","-0.10253906","-16.1875","47.75","-9.9375"
"1574876434985","810","0.328125","-0.890625","-0.103515625","-15.21875","33.09375","-12.96875"
"1574876434986","811","0.22949219","-0.9824219","0.07519531","1.15625","29.75","-14.75"
"1574876434986","812","0.36621094","-1.0917969","-0.24023438","-53.90625","41.84375","-12.3125"
"1574876434986","813","0.5761719","-0.9326172","-0.2529297","-40.90625","18.8125","-20.65625"
"1574876434986","814","0.42285156","-1.1523438","-0.2626953","-34.8125","-29.875","-15.40625"
"1574876434987","815","0.24804688","-1.6035156","0.14453125","-34.4375","12.09375","6.5625"
"1574876434987","816","0.16699219","-1.0224609","0.2529297","-25.53125","41.78125","-4.25"
"1574876434988","817","0.12792969","-0.51464844","0.14257812","-47.875","42.0","2.40625"
"1574876434989","818","0.2578125","-0.69140625","0.22167969","-28.4375","43.125","4.25"
"1574876434989","819","0.4248047","-1.1279297","0.15820312","-5.25","49.9375","2.03125"
