"# PR data"
"# Start time: 20191127T183225"
"# Subject: lukasz"
"# Activity type: Bicep curl"
"# Correctness: Correct"
"# Notes: "
""
"timestamp","seq","accel_x","accel_y","accel_z","gyro_x","gyro_y","gyro_z"
"1574875945461","0","0.3876953","-0.9199219","-0.064453125","7.125","1.5","1.96875"
"1574875945462","1","0.39160156","-0.921875","-0.064453125","10.6875","0.9375","2.03125"
"1574875945462","2","0.38378906","-0.91796875","-0.045898438","9.21875","-1.1875","2.09375"
"1574875945463","3","0.38476562","-0.9238281","-0.013671875","7.625","-0.59375","1.4375"
"1574875945463","4","0.3828125","-0.90527344","-0.049804688","10.90625","-2.1875","2.09375"
"1574875945463","5","0.3876953","-0.9628906","-0.068359375","15.8125","0.875","4.84375"
"1574875945463","6","0.37304688","-0.8935547","-0.013671875","-0.5","-0.34375","0.6875"
"1574875945464","7","0.35253906","-0.9160156","-0.040039062","-2.5625","-0.65625","-0.53125"
"1574875945464","8","0.38378906","-0.94140625","-0.036132812","-3.0625","-1.6875","0.625"
"1574875945464","9","0.3720703","-0.9160156","-0.043945312","-1.15625","-1.0625","-0.34375"
"1574875945857","10","0.3779297","-0.9199219","-0.043945312","1.09375","0.03125","-0.71875"
"1574875945858","11","0.3828125","-0.92871094","-0.018554688","-0.125","-1.5625","-0.90625"
"1574875945858","12","0.3798828","-0.92285156","-0.01953125","-1.65625","-0.21875","-0.71875"
"1574875945859","13","0.38476562","-0.92871094","-0.02734375","-0.5625","-0.46875","0.03125"
"1574875945859","14","0.3798828","-0.9160156","-0.03125","-0.9375","-0.03125","0.09375"
"1574875945859","15","0.38378906","-0.9160156","-0.040039062","0.90625","0.25","0.625"
"1574875945860","16","0.38183594","-0.92285156","-0.037109375","0.53125","-0.53125","0.8125"
"1574875945860","17","0.37695312","-0.9277344","-0.032226562","3.34375","0.6875","0.9375"
"1574875945860","18","0.3779297","-0.9199219","-0.025390625","3.15625","-0.28125","0.4375"
"1574875945860","19","0.36914062","-0.92089844","-0.022460938","2.125","0.3125","0.5625"
"1574875946058","20","0.375","-0.9238281","-0.022460938","0.25","0.6875","-0.46875"
"1574875946059","21","0.37695312","-0.9355469","-0.024414062","-2.75","1.25","-0.34375"
"1574875946059","22","0.3779297","-0.93066406","-0.034179688","-3.84375","0.5625","-0.84375"
"1574875946059","23","0.3779297","-0.92285156","-0.017578125","-3.1875","1.65625","-0.28125"
"1574875946059","24","0.37304688","-0.9160156","-0.032226562","-5.8125","1.78125","-2.0"
"1574875946061","25","0.3828125","-0.92089844","-0.038085938","-0.8125","0.625","-0.90625"
"1574875946061","26","0.3779297","-0.9267578","-0.037109375","-1.65625","-0.03125","-0.90625"
"1574875946061","27","0.37597656","-0.9169922","-0.024414062","-2.5","-0.59375","-0.40625"
"1574875946061","28","0.38183594","-0.92578125","-0.041015625","-0.25","-0.09375","-0.03125"
"1574875946062","29","0.37695312","-0.93066406","-0.040039062","-5.1875","-0.65625","0.4375"
"1574875946652","30","0.37695312","-0.9238281","-0.0390625","-4.78125","0.625","-0.40625"
"1574875946653","31","0.3701172","-0.92578125","-0.04296875","-4.28125","0.5625","-0.46875"
"1574875946653","32","0.38183594","-0.9267578","-0.051757812","-6.125","1.1875","-1.625"
"1574875946653","33","0.38183594","-0.921875","-0.05078125","-7.21875","0.15625","-2.1875"
"1574875946654","34","0.390625","-0.9238281","-0.0625","-6.96875","0.03125","-2.28125"
"1574875946656","35","0.39257812","-0.92089844","-0.06640625","-7.28125","-0.65625","-2.40625"
"1574875946656","36","0.3857422","-0.92285156","-0.0703125","-7.6875","-0.28125","-2.40625"
"1574875946658","37","0.3955078","-0.9189453","-0.08886719","-6.78125","0.25","-2.71875"
"1574875946659","38","0.39160156","-0.91308594","-0.087890625","-6.0","-0.15625","-2.40625"
"1574875946659","39","0.38964844","-0.9121094","-0.09863281","-5.5625","2.03125","-3.03125"
"1574875946854","40","0.39648438","-0.90234375","-0.087890625","-4.59375","2.34375","-2.0625"
"1574875946854","41","0.3935547","-0.91015625","-0.1015625","2.25","2.21875","-1.9375"
"1574875946854","42","0.4033203","-0.9111328","-0.083984375","-0.4375","1.53125","-1.0"
"1574875946854","43","0.39941406","-0.90625","-0.09472656","-1.09375","1.1875","-2.125"
"1574875946855","44","0.4267578","-0.9042969","-0.10644531","1.8125","0.8125","-0.53125"
"1574875946855","45","0.40527344","-0.9169922","-0.09863281","4.09375","-0.28125","-0.71875"
"1574875946855","46","0.4189453","-0.8984375","-0.09082031","4.375","0.09375","0.8125"
"1574875946855","47","0.3935547","-0.91308594","-0.078125","5.78125","0.21875","1.4375"
"1574875946856","48","0.40429688","-0.91308594","-0.083984375","3.71875","0.5625","1.375"
"1574875946857","49","0.3955078","-0.9042969","-0.07910156","10.71875","-0.59375","2.34375"
"1574875947449","50","0.39257812","-0.9160156","-0.072265625","7.0625","0.9375","2.34375"
"1574875947449","51","0.3857422","-0.92285156","-0.045898438","6.09375","1.375","1.6875"
"1574875947450","52","0.390625","-0.90722656","-0.05859375","6.59375","1.375","2.03125"
"1574875947450","53","0.38867188","-0.92871094","-0.044921875","7.5","0.4375","1.71875"
"1574875947450","54","0.3798828","-0.91308594","-0.030273438","5.59375","0.4375","1.90625"
"1574875947450","55","0.3935547","-0.9121094","-0.040039062","5.375","0.25","1.84375"
"1574875947450","56","0.39160156","-0.9248047","-0.032226562","4.5","-1.25","0.9375"
"1574875947450","57","0.36816406","-0.9404297","-0.016601562","2.0625","-3.875","-0.46875"
"1574875947451","58","0.3623047","-0.9248047","-0.013671875","-0.375","-2.78125","-0.84375"
"1574875947451","59","0.36816406","-0.9482422","-0.0087890625","-1.09375","-1.4375","-1.8125"
"1574875947648","60","0.36816406","-0.9355469","-0.0107421875","-1.0","1.375","-1.5625"
"1574875947649","61","0.3779297","-0.8955078","-0.029296875","-4.53125","1.65625","-0.90625"
"1574875947649","62","0.40527344","-0.9091797","-0.057617188","0.1875","-1.0625","0.40625"
"1574875947649","63","0.38183594","-0.93652344","-0.043945312","-4.9375","-3.53125","-1.125"
"1574875947649","64","0.3955078","-0.9160156","-0.037109375","-4.65625","-3.03125","-1.625"
"1574875947649","65","0.38378906","-0.91796875","-0.046875","-3.96875","-3.53125","-2.28125"
"1574875947650","66","0.38671875","-0.93066406","-0.045898438","-5.6875","-2.78125","-2.125"
"1574875947650","67","0.39160156","-0.9160156","-0.048828125","-6.1875","-2.125","-1.6875"
"1574875947650","68","0.39648438","-0.9189453","-0.059570312","-3.78125","-1.4375","-1.75"
"1574875947650","69","0.3955078","-0.9111328","-0.07128906","-4.28125","-0.28125","-1.3125"
"1574875948048","70","0.4013672","-0.9121094","-0.07910156","-2.21875","-0.46875","-0.53125"
"1574875948049","71","0.38964844","-0.9082031","-0.06347656","-2.8125","-1.6875","-1.6875"
"1574875948049","72","0.40625","-0.90722656","-0.0859375","-0.0625","0.6875","0.6875"
"1574875948050","73","0.40820312","-0.9042969","-0.072265625","1.34375","-0.21875","-0.21875"
"1574875948050","74","0.39257812","-0.8964844","-0.09375","2.4375","0.8125","1.625"
"1574875948050","75","0.41015625","-0.92089844","-0.07519531","5.25","0.875","1.0"
"1574875948050","76","0.3779297","-0.9189453","-0.08105469","-0.4375","2.21875","-0.9375"
"1574875948051","77","0.39453125","-0.91503906","-0.09082031","-1.03125","3.9375","0.28125"
"1574875948051","78","0.40039062","-0.9238281","-0.07128906","3.15625","6.75","0.6875"
"1574875948052","79","0.3955078","-0.9042969","-0.06640625","-0.375","6.3125","1.25"
"1574875948839","80","0.40429688","-0.9189453","-0.08105469","4.15625","4.28125","2.40625"
"1574875948839","81","0.41503906","-0.92285156","-0.07714844","0.0","6.75","2.46875"
"1574875948839","82","0.3984375","-0.89746094","-0.05859375","2.90625","7.53125","4.65625"
"1574875948840","83","0.40039062","-0.92578125","-0.056640625","-0.9375","7.59375","4.34375"
"1574875948840","84","0.3828125","-0.9140625","-0.034179688","-3.0","4.84375","2.90625"
"1574875948842","85","0.40625","-0.8955078","-0.030273438","-1.78125","0.5","4.1875"
"1574875948842","86","0.38867188","-0.9238281","-0.053710938","4.25","-6.4375","2.59375"
"1574875948842","87","0.3076172","-0.96875","-0.028320312","-1.90625","-5.90625","-1.75"
"1574875948843","88","0.36523438","-0.9121094","-0.04296875","-2.21875","-0.71875","-0.03125"
"1574875948843","89","0.36523438","-0.921875","-0.028320312","4.15625","0.21875","1.0625"
"1574875949436","90","0.3701172","-0.9345703","-0.052734375","4.375","1.0","1.4375"
"1574875949436","91","0.3671875","-0.93066406","-0.048828125","3.65625","2.09375","1.125"
"1574875949436","92","0.36816406","-0.9267578","-0.043945312","3.03125","1.78125","0.5"
"1574875949437","93","0.38183594","-0.9277344","-0.02734375","2.8125","2.28125","0.5"
"1574875949437","94","0.38183594","-0.9316406","-0.037109375","-1.65625","0.625","0.15625"
"1574875949437","95","0.39160156","-0.9238281","-0.047851562","1.53125","-0.03125","-0.34375"
"1574875949438","96","0.40234375","-0.92089844","-0.064453125","5.59375","-2.59375","-0.09375"
"1574875949438","97","0.3876953","-0.921875","-0.034179688","2.25","-4.25","1.125"
"1574875949439","98","0.3798828","-0.9248047","0.0087890625","5.0625","1.375","-0.21875"
"1574875949439","99","0.37402344","-0.921875","-0.07324219","19.15625","7.15625","-1.75"
"1574875949439","100","0.35351562","-0.9199219","-9.765625E-4","6.21875","0.375","-1.875"
"1574875949440","101","0.375","-0.90527344","-0.02734375","4.5","0.5625","-2.46875"
"1574875949440","102","0.38964844","-0.9199219","-0.024414062","1.03125","0.375","-2.0"
"1574875949441","103","0.37890625","-0.9091797","-0.030273438","2.125","-0.03125","-1.25"
"1574875949441","104","0.37890625","-0.9238281","-0.028320312","2.8125","0.8125","-1.4375"
"1574875949441","105","0.3857422","-0.91796875","-0.01953125","-0.5625","-0.03125","-0.34375"
"1574875949441","106","0.38964844","-0.9111328","-0.00390625","2.0","-0.71875","-0.09375"
"1574875949441","107","0.37890625","-0.90527344","-0.01171875","1.21875","-2.0","0.15625"
"1574875949442","108","0.390625","-0.92871094","-0.0068359375","1.59375","-0.78125","1.0625"
"1574875949442","109","0.35839844","-0.9199219","0.0048828125","1.34375","-1.9375","0.75"
"1574875949636","110","0.38085938","-0.9160156","-0.01171875","0.34375","-0.96875","2.15625"
"1574875949636","111","0.37695312","-0.9326172","0.001953125","-0.0625","-0.71875","1.84375"
"1574875949638","112","0.3671875","-0.91503906","0.0048828125","-3.375","-1.625","1.0"
"1574875949638","113","0.38476562","-0.93066406","-0.015625","-2.09375","-0.53125","1.5"
"1574875949638","114","0.37402344","-0.9296875","-0.0126953125","-2.875","-0.15625","0.8125"
"1574875949639","115","0.38964844","-0.92871094","-0.01171875","0.53125","1.78125","1.96875"
"1574875949639","116","0.3720703","-0.9140625","-0.013671875","-4.9375","0.09375","0.34375"
"1574875949639","117","0.38476562","-0.9394531","-0.0126953125","2.4375","-3.15625","1.84375"
"1574875949639","118","0.35253906","-0.9355469","-9.765625E-4","-1.78125","-3.65625","-0.78125"
"1574875949640","119","0.36523438","-0.93652344","-0.0048828125","-2.5","-1.875","-2.0"
"1574875950034","120","0.36816406","-0.9189453","-0.018554688","-0.0625","-2.65625","-2.34375"
"1574875950036","121","0.36621094","-0.92871094","-0.016601562","-0.125","-3.59375","-1.6875"
"1574875950036","122","0.38378906","-0.9160156","-0.028320312","-0.1875","-1.0625","-1.9375"
"1574875950037","123","0.3857422","-0.92578125","-0.028320312","2.4375","-0.84375","-0.71875"
"1574875950037","124","0.3701172","-0.921875","-0.016601562","-0.5625","-2.125","-1.1875"
"1574875950037","125","0.38964844","-0.93359375","-0.0126953125","-0.0625","-1.6875","-1.3125"
"1574875950037","126","0.3642578","-0.92871094","-0.005859375","-2.03125","-3.09375","-1.6875"
"1574875950038","127","0.38867188","-0.9169922","-0.015625","-3.0","-3.21875","-1.375"
"1574875950038","128","0.38671875","-0.9199219","-0.0234375","-1.0","-3.09375","-1.4375"
"1574875950038","129","0.3798828","-0.9296875","-0.029296875","-1.46875","-2.78125","-2.46875"
"1574875950627","130","0.38476562","-0.9082031","-0.037109375","-1.78125","-2.84375","-1.75"
"1574875950628","131","0.40234375","-0.921875","-0.038085938","-1.46875","-3.28125","-2.34375"
"1574875950628","132","0.3720703","-0.9169922","-0.02734375","-2.875","-4.1875","-2.0"
"1574875950629","133","0.39746094","-0.9160156","-0.041015625","-2.75","-1.875","-1.6875"
"1574875950629","134","0.38085938","-0.9199219","-0.041992188","-6.46875","-3.6875","-2.59375"
"1574875950629","135","0.39648438","-0.91015625","-0.06347656","-2.5625","-3.59375","-1.4375"
"1574875950630","136","0.4013672","-0.90234375","-0.08203125","0.59375","-1.1875","-0.40625"
"1574875950630","137","0.42578125","-0.8935547","-0.06640625","2.625","-3.59375","0.09375"
"1574875950630","138","0.39160156","-0.90625","-0.0625","3.28125","-4.125","1.84375"
"1574875950631","139","0.37890625","-0.94140625","-0.047851562","0.0625","-4.3125","0.4375"
"1574875950829","140","0.3720703","-0.9003906","-0.048828125","-2.75","-1.125","0.40625"
"1574875950829","141","0.3955078","-0.93066406","-0.057617188","1.03125","-0.40625","1.3125"
"1574875950830","142","0.3701172","-0.9267578","-0.043945312","-0.9375","1.125","1.0"
"1574875950830","143","0.37695312","-0.90722656","-0.053710938","-1.0","3.4375","1.4375"
"1574875950830","144","0.38378906","-0.9248047","-0.0546875","0.84375","5.28125","0.15625"
"1574875950831","145","0.390625","-0.9238281","-0.055664062","1.625","2.78125","0.875"
"1574875950831","146","0.39453125","-0.92578125","-0.038085938","6.40625","2.28125","1.3125"
"1574875950831","147","0.38964844","-0.9111328","-0.040039062","4.75","4.90625","2.65625"
"1574875950832","148","0.40234375","-0.93359375","-0.020507812","5.125","4.78125","3.75"
"1574875950832","149","0.38085938","-0.9199219","-0.0029296875","7.1875","2.09375","3.0625"
"1574875951426","150","0.3720703","-0.9316406","-0.00390625","3.84375","0.5625","2.53125"
"1574875951426","151","0.36328125","-0.92578125","-0.00390625","0.78125","-1.3125","1.90625"
"1574875951426","152","0.37597656","-0.9296875","-0.001953125","5.0","0.9375","2.46875"
"1574875951427","153","0.3701172","-0.9238281","0.0048828125","2.5625","0.15625","1.125"
"1574875951427","154","0.38476562","-0.9355469","-0.016601562","7.25","-0.46875","1.3125"
"1574875951427","155","0.3642578","-0.9248047","-0.0078125","3.65625","-2.0","0.6875"
"1574875951427","156","0.37597656","-0.9316406","-0.00390625","1.21875","-1.8125","-0.21875"
"1574875951429","157","0.37402344","-0.9296875","-0.015625","1.03125","-2.46875","-1.125"
"1574875951429","158","0.38183594","-0.9238281","-0.016601562","-2.75","-3.9375","-1.9375"
"1574875951430","159","0.3671875","-0.9277344","-0.0048828125","-5.625","-2.90625","-3.09375"
"1574875951623","160","0.37597656","-0.9316406","-0.029296875","-3.3125","-2.40625","-2.71875"
"1574875951624","161","0.36035156","-0.93066406","-0.009765625","-3.65625","-1.5","-2.96875"
"1574875951624","162","0.37304688","-0.91796875","-0.032226562","-3.3125","-1.4375","-2.71875"
"1574875951624","163","0.38183594","-0.9160156","-0.028320312","-3.1875","-0.65625","-2.46875"
"1574875951624","164","0.3828125","-0.9199219","-0.030273438","0.59375","0.8125","-2.125"
"1574875951625","165","0.38378906","-0.9169922","-0.033203125","-2.21875","0.03125","-1.625"
"1574875951625","166","0.38476562","-0.9111328","-0.041992188","-4.84375","0.3125","-1.25"
"1574875951625","167","0.38964844","-0.90527344","-0.04296875","-2.75","0.15625","-0.21875"
"1574875951625","168","0.38671875","-0.9033203","-0.043945312","-1.84375","0.25","0.5625"
"1574875951626","169","0.38964844","-0.90722656","-0.043945312","-1.03125","-0.15625","2.21875"
"1574875952022","170","0.37695312","-0.91308594","-0.07421875","3.03125","1.84375","2.65625"
"1574875952022","171","0.37695312","-0.9189453","-0.021484375","1.75","1.65625","3.8125"
"1574875952022","172","0.38476562","-0.91015625","-0.038085938","0.25","1.1875","2.28125"
"1574875952023","173","0.39257812","-0.9091797","-0.038085938","6.40625","0.3125","4.25"
"1574875952023","174","0.359375","-0.92871094","-0.021484375","7.5625","-0.09375","4.125"
"1574875952023","175","0.36621094","-0.9189453","-0.024414062","3.96875","0.6875","2.34375"
"1574875952023","176","0.36816406","-0.9423828","-0.013671875","3.46875","1.1875","2.09375"
"1574875952024","177","0.34277344","-0.94921875","9.765625E-4","-1.65625","0.8125","0.34375"
"1574875952024","178","0.3544922","-0.93652344","-0.0048828125","-3.59375","0.625","-0.9375"
"1574875952024","179","0.37109375","-0.94921875","-0.005859375","-4.03125","-1.9375","-2.65625"
"1574875952815","180","0.35839844","-0.9404297","-0.01953125","-6.40625","-4.375","-5.09375"
"1574875952816","181","0.35253906","-0.921875","-0.01953125","-12.40625","-5.03125","-7.125"
"1574875952817","182","0.4091797","-0.91308594","-0.049804688","-1.78125","-1.03125","-4.75"
"1574875952817","183","0.38476562","-0.89453125","-0.043945312","4.6875","-2.90625","-1.125"
"1574875952818","184","0.3984375","-0.92089844","-0.052734375","6.9375","-2.53125","0.6875"
"1574875952818","185","0.38476562","-0.9394531","-0.01953125","6.9375","-3.28125","0.5"
"1574875952818","186","0.375","-0.9345703","-0.00390625","2.375","-4.1875","-0.46875"
"1574875952818","187","0.37109375","-0.9238281","-0.005859375","1.03125","-3.75","-0.84375"
"1574875952819","188","0.39160156","-0.93847656","-0.03515625","-0.0625","-2.40625","-1.25"
"1574875952819","189","0.3857422","-0.9160156","-0.03515625","-0.625","-3.59375","-0.59375"
"1574875953015","190","0.39453125","-0.9277344","-0.032226562","3.34375","-1.25","0.15625"
"1574875953016","191","0.390625","-0.90722656","-0.040039062","1.03125","-3.15625","-0.28125"
"1574875953016","192","0.39746094","-0.8857422","-0.048828125","7.75","-6.03125","1.125"
"1574875953017","193","0.38867188","-0.93359375","-0.03125","3.40625","-6.5","-0.59375"
"1574875953018","194","0.3720703","-0.9042969","-0.041992188","2.125","-3.875","0.5"
"1574875953018","195","0.3671875","-0.92578125","-0.029296875","1.625","-0.21875","-0.09375"
"1574875953018","196","0.37109375","-0.9248047","-0.033203125","0.3125","1.4375","1.0625"
"1574875953019","197","0.36914062","-0.91503906","-0.021484375","-2.3125","4.0","1.125"
"1574875953019","198","0.38964844","-0.9199219","-0.04296875","-1.65625","3.1875","2.71875"
"1574875953019","199","0.38378906","-0.9326172","-0.029296875","2.4375","4.28125","2.65625"
"1574875953413","200","0.37402344","-0.9277344","-0.033203125","0.125","4.28125","2.96875"
"1574875953414","201","0.3798828","-0.92089844","-0.026367188","0.78125","4.0625","2.84375"
"1574875953414","202","0.37597656","-0.91015625","-0.021484375","1.625","1.65625","2.46875"
"1574875953414","203","0.37304688","-0.92089844","-0.013671875","3.96875","-0.34375","2.53125"
"1574875953415","204","0.3779297","-0.92578125","-0.015625","5.84375","1.65625","1.90625"
"1574875953416","205","0.37402344","-0.92871094","-0.013671875","11.40625","3.5","0.5625"
"1574875953416","206","0.3564453","-0.93066406","0.021484375","8.59375","2.21875","-0.15625"
"1574875953417","207","0.34570312","-0.9277344","0.021484375","3.65625","2.65625","1.5625"
"1574875953417","208","0.34179688","-0.9267578","0.024414062","0.84375","3.25","1.0"
"1574875953417","209","0.33496094","-0.93359375","0.026367188","0.59375","2.03125","1.0625"
"1574875953810","210","0.3515625","-0.9375","0.0078125","6.34375","3.375","1.1875"
"1574875953810","211","0.36132812","-0.92871094","0.037109375","2.3125","3.0","0.875"
"1574875953811","212","0.3798828","-0.9296875","0.022460938","0.34375","1.65625","-0.71875"
"1574875953811","213","0.3779297","-0.9316406","0.0048828125","0.53125","-1.8125","-2.28125"
"1574875953811","214","0.3798828","-0.9267578","0.0078125","-3.90625","-4.96875","-2.90625"
"1574875953811","215","0.3671875","-0.9355469","0.037109375","-5.125","-6.21875","-4.1875"
"1574875953812","216","0.34277344","-0.94433594","0.0234375","-6.1875","-6.09375","-5.28125"
"1574875953813","217","0.3564453","-0.92285156","0.001953125","-2.375","-5.53125","-4.84375"
"1574875953813","218","0.37890625","-0.89746094","-0.0146484375","1.03125","-4.5","-2.90625"
"1574875953813","219","0.39648438","-0.9296875","0.017578125","7.8125","-3.59375","-3.8125"
"1574875954208","220","0.3466797","-0.9355469","0.0078125","2.90625","-5.34375","-3.875"
"1574875954208","221","0.3828125","-0.91015625","0.009765625","-2.625","0.21875","-2.65625"
"1574875954209","222","0.3828125","-0.91308594","0.0029296875","-3.78125","0.09375","-0.90625"
"1574875954209","223","0.40625","-0.9042969","-0.009765625","-6.84375","3.1875","0.03125"
"1574875954209","224","0.42871094","-0.9033203","-0.024414062","-1.78125","1.0","3.0"
"1574875954209","225","0.39257812","-0.9189453","-0.029296875","1.6875","-1.03125","2.15625"
"1574875954210","226","0.3701172","-0.90722656","-0.0087890625","-1.96875","-1.5625","2.34375"
"1574875954210","227","0.39257812","-0.9033203","-0.020507812","3.09375","-2.3125","1.6875"
"1574875954210","228","0.34375","-0.9326172","-0.0078125","-0.0625","-2.78125","0.34375"
"1574875954211","229","0.37402344","-0.9238281","-0.021484375","0.0625","2.9375","1.625"
"1574875954805","230","0.3828125","-0.9199219","-0.025390625","-0.25","2.46875","2.46875"
"1574875954805","231","0.37109375","-0.9355469","0.0048828125","4.8125","4.84375","2.21875"
"1574875954806","232","0.36816406","-0.9111328","-0.0087890625","-4.65625","2.9375","1.96875"
"1574875954806","233","0.38378906","-0.93066406","0.0","0.0625","1.1875","2.59375"
"1574875954806","234","0.37109375","-0.9238281","-0.005859375","-0.5","0.3125","2.65625"
"1574875954806","235","0.3671875","-0.9296875","-0.0029296875","2.96875","-0.09375","1.25"
"1574875954807","236","0.35839844","-0.9667969","0.018554688","-2.5625","-0.71875","-1.375"
"1574875954807","237","0.38085938","-0.93652344","0.033203125","-10.125","-3.8125","-2.34375"
"1574875954807","238","0.3251953","-0.9394531","0.045898438","-14.09375","-5.71875","-6.3125"
"1574875954808","239","0.36035156","-0.9121094","-0.03125","-11.96875","-2.59375","-2.125"
"1574875955002","240","0.40234375","-0.9238281","-0.038085938","1.59375","-0.28125","0.75"
"1574875955004","241","0.35546875","-0.9091797","-0.029296875","2.25","-0.40625","0.15625"
"1574875955004","242","0.3857422","-0.9248047","-0.0126953125","4.75","0.8125","1.625"
"1574875955005","243","0.37109375","-0.93359375","0.0029296875","3.28125","-0.84375","1.0625"
"1574875955005","244","0.3701172","-0.9199219","-0.022460938","2.3125","0.15625","1.0625"
"1574875955005","245","0.3935547","-0.92578125","-0.024414062","1.53125","-0.59375","1.0625"
"1574875955005","246","0.37890625","-0.9091797","-0.043945312","3.09375","-2.59375","-0.53125"
"1574875955006","247","0.39648438","-0.9169922","-0.041992188","4.5625","-0.84375","-0.53125"
"1574875955006","248","0.39648438","-0.9267578","-0.0068359375","1.34375","-3.6875","1.25"
"1574875955006","249","0.36132812","-0.9296875","-0.0078125","-6.21875","-4.0625","0.28125"
"1574875955596","250","0.3515625","-0.9277344","-0.0078125","-4.34375","-2.0625","-1.8125"
"1574875955597","251","0.3486328","-0.93066406","-0.044921875","-6.125","0.03125","-0.90625"
"1574875955597","252","0.37695312","-0.91503906","-0.026367188","-1.53125","2.46875","-1.6875"
"1574875955599","253","0.36132812","-0.93359375","-0.026367188","-7.875","1.96875","-2.46875"
"1574875955602","254","0.3798828","-0.91308594","-0.045898438","-3.1875","4.21875","-0.34375"
"1574875955603","255","0.37597656","-0.91503906","-0.05078125","-0.5625","3.375","0.6875"
"1574875955603","256","0.37109375","-0.92871094","-0.036132812","0.125","6.1875","-1.125"
"1574875955603","257","0.3701172","-0.9091797","-0.033203125","-5.5","7.96875","-0.28125"
"1574875955603","258","0.40820312","-0.90527344","-0.03125","-2.375","9.25","1.84375"
"1574875955604","259","0.36523438","-0.93847656","-0.013671875","-8.8125","11.3125","-1.25"
"1574875955798","260","0.38867188","-0.91796875","-0.045898438","-4.59375","9.71875","0.875"
"1574875955799","261","0.390625","-0.9111328","-0.037109375","-0.9375","7.78125","2.40625"
"1574875955799","262","0.38867188","-0.93066406","-0.029296875","7.9375","4.84375","2.78125"
"1574875955799","263","0.37597656","-0.9238281","-0.028320312","8.96875","2.46875","2.71875"
"1574875955799","264","0.3701172","-0.9189453","-0.021484375","11.40625","-1.5","3.1875"
"1574875955800","265","0.36523438","-0.9091797","9.765625E-4","12.1875","-2.0625","3.1875"
"1574875955801","266","0.35546875","-0.9277344","0.018554688","9.5625","-2.25","1.96875"
"1574875955801","267","0.34765625","-0.9404297","0.020507812","3.46875","-2.65625","1.6875"
"1574875955801","268","0.36816406","-0.93847656","0.005859375","9.5","0.4375","2.59375"
"1574875955802","269","0.3544922","-0.94433594","0.034179688","5.25","1.4375","1.0625"
"1574875956391","270","0.34375","-0.9267578","0.034179688","2.6875","0.375","0.625"
"1574875956392","271","0.3388672","-0.93652344","0.038085938","1.28125","-2.46875","0.6875"
"1574875956392","272","0.35253906","-0.94140625","0.024414062","3.96875","0.09375","0.75"
"1574875956392","273","0.33789062","-0.93847656","0.041015625","-4.34375","-3.65625","-0.90625"
"1574875956393","274","0.35742188","-0.94433594","0.01953125","-7.5","-3.15625","-0.53125"
"1574875956393","275","0.35839844","-0.9345703","0.0068359375","-5.0","-1.6875","-0.78125"
"1574875956393","276","0.36523438","-0.9326172","0.005859375","-3.59375","-3.21875","-0.71875"
"1574875956394","277","0.37402344","-0.92871094","0.0048828125","-2.5625","-3.9375","-0.65625"
"1574875956395","278","0.36035156","-0.9326172","-0.0068359375","-0.625","-3.875","-1.0"
"1574875956395","279","0.37109375","-0.92089844","0.0","-0.5625","-4.0","-1.375"
"1574875956592","280","0.3623047","-0.9189453","-0.00390625","-3.375","-4.75","-1.375"
"1574875956592","281","0.36523438","-0.9248047","-0.021484375","-0.375","-2.84375","-1.6875"
"1574875956592","282","0.36621094","-0.9277344","-0.0234375","-4.40625","-2.25","-0.9375"
"1574875956592","283","0.3798828","-0.9169922","-0.021484375","-3.59375","-1.25","-1.0"
"1574875956593","284","0.39160156","-0.921875","-0.033203125","-2.21875","-2.46875","-0.65625"
"1574875956593","285","0.37695312","-0.91503906","-0.032226562","-2.15625","-4.5625","-1.125"
"1574875956593","286","0.37890625","-0.9169922","-0.030273438","-1.65625","-4.96875","-0.65625"
"1574875956593","287","0.3720703","-0.92871094","-0.017578125","0.25","-4.6875","0.09375"
"1574875956594","288","0.36328125","-0.9199219","-0.022460938","0.46875","-3.59375","1.3125"
"1574875956595","289","0.359375","-0.9267578","-0.034179688","2.875","-2.0625","2.28125"
"1574875956990","290","0.3720703","-0.9248047","-0.0234375","3.03125","-1.5625","1.78125"
"1574875956990","291","0.35839844","-0.9277344","-0.022460938","4.09375","-1.6875","0.6875"
"1574875956991","292","0.35839844","-0.93066406","-0.015625","1.6875","-1.3125","0.09375"
"1574875956991","293","0.36035156","-0.9238281","-0.0068359375","2.0625","1.3125","1.375"
"1574875956991","294","0.37109375","-0.9316406","-0.0048828125","0.53125","0.09375","0.6875"
"1574875956991","295","0.3642578","-0.92285156","-0.01171875","3.40625","-2.78125","1.25"
"1574875956992","296","0.36328125","-0.93652344","-0.0078125","2.0625","-3.875","1.25"
"1574875956992","297","0.35742188","-0.9277344","-0.00390625","0.71875","-5.03125","0.03125"
"1574875956992","298","0.35839844","-0.9316406","9.765625E-4","-1.40625","-6.15625","-0.53125"
"1574875956992","299","0.34375","-0.9550781","0.0087890625","-1.46875","-6.15625","-2.1875"
"1574875957782","300","0.3232422","-0.9550781","0.0078125","-5.3125","-4.5625","-3.6875"
"1574875957784","301","0.3330078","-0.9433594","-0.00390625","-8.5625","-2.65625","-4.4375"
"1574875957784","302","0.3408203","-0.921875","-0.017578125","-8.90625","-0.65625","-4.5625"
"1574875957784","303","0.36523438","-0.9296875","-0.040039062","-6.1875","1.375","-3.46875"
"1574875957785","304","0.3857422","-0.9199219","-0.04296875","-3.1875","1.96875","-2.28125"
"1574875957785","305","0.38867188","-0.9238281","-0.04296875","-1.84375","0.375","-2.28125"
"1574875957785","306","0.38867188","-0.92578125","-0.033203125","-1.65625","-0.15625","-2.21875"
"1574875957785","307","0.37695312","-0.92578125","-0.034179688","-0.5625","-2.90625","-1.9375"
"1574875957786","308","0.3779297","-0.9375","-0.037109375","-1.0","-3.03125","-2.1875"
"1574875957786","309","0.3876953","-0.9091797","-0.041992188","-1.09375","-2.1875","-2.28125"
"1574875957980","310","0.38476562","-0.9160156","-0.051757812","1.09375","-3.53125","-2.21875"
"1574875957980","311","0.36621094","-0.92285156","-0.055664062","0.1875","-2.0625","-2.90625"
"1574875957980","312","0.3720703","-0.9189453","-0.049804688","-0.0625","0.4375","-1.9375"
"1574875957981","313","0.38476562","-0.9111328","-0.045898438","3.21875","4.90625","-1.875"
"1574875957982","314","0.38867188","-0.9111328","-0.055664062","-1.46875","2.71875","-0.84375"
"1574875957982","315","0.3955078","-0.90234375","-0.060546875","-0.125","2.21875","0.21875"
"1574875957982","316","0.41210938","-0.9160156","-0.068359375","4.09375","3.75","1.375"
"1574875957982","317","0.38085938","-0.91503906","-0.028320312","4.8125","3.0625","1.1875"
"1574875957983","318","0.39453125","-0.9169922","-0.041992188","4.8125","4.125","2.78125"
"1574875957983","319","0.38085938","-0.92871094","-0.0234375","2.125","4.28125","2.28125"
"1574875958183","320","0.3779297","-0.90625","-0.052734375","1.9375","3.4375","4.3125"
"1574875958183","321","0.39257812","-0.9248047","-0.036132812","8.125","3.0625","5.28125"
"1574875958184","322","0.37695312","-0.9121094","-0.032226562","9.75","6.1875","4.65625"
"1574875958184","323","0.38378906","-0.9140625","-0.029296875","5.71875","7.21875","3.6875"
"1574875958184","324","0.3701172","-0.9404297","0.0078125","4.03125","2.9375","1.71875"
"1574875958188","325","0.35058594","-0.9433594","-0.0029296875","-1.03125","2.34375","0.15625"
"1574875958188","326","0.39746094","-0.9013672","-9.765625E-4","4.625","3.9375","0.75"
"1574875958189","327","0.3857422","-0.9296875","0.026367188","6.875","-2.96875","0.9375"
"1574875958189","328","0.36328125","-0.93847656","0.009765625","5.125","-6.875","-0.78125"
"1574875958190","329","0.36328125","-0.9375","0.009765625","1.15625","-7.4375","-2.59375"
"1574875958581","330","0.34277344","-0.92578125","0.0234375","-0.25","-10.40625","-3.6875"
"1574875958581","331","0.36523438","-0.9326172","0.0107421875","0.71875","-6.09375","-4.5625"
"1574875958582","332","0.3564453","-0.93066406","0.00390625","-3.4375","-7.5","-4.625"
"1574875958582","333","0.38867188","-0.92578125","-0.005859375","1.875","-4.4375","-4.375"
"1574875958582","334","0.36132812","-0.91308594","-0.005859375","-5.5","-6.5","-4.84375"
"1574875958582","335","0.4091797","-0.9316406","-0.01171875","-2.8125","-6.09375","-3.46875"
"1574875958582","336","0.38183594","-0.921875","-0.02734375","1.9375","-8.21875","-2.1875"
"1574875958584","337","0.38378906","-0.9238281","-0.016601562","1.625","-7.5625","-1.75"
"1574875958584","338","0.3876953","-0.92871094","-0.0234375","2.3125","-4.6875","-0.9375"
"1574875958584","339","0.3564453","-0.92285156","-0.0048828125","4.5625","-4.375","-0.46875"
"1574875959174","340","0.38671875","-0.91503906","-9.765625E-4","0.46875","-1.5625","0.9375"
"1574875959174","341","0.38671875","-0.9169922","-0.028320312","-2.5","0.4375","0.21875"
"1574875959175","342","0.4033203","-0.9013672","-0.03125","-0.375","1.65625","1.1875"
"1574875959175","343","0.4091797","-0.8955078","-0.030273438","-1.78125","1.84375","0.8125"
"1574875959175","344","0.4013672","-0.90234375","-0.026367188","-0.6875","-0.71875","0.6875"
"1574875959176","345","0.3798828","-0.9033203","-0.022460938","0.53125","-0.09375","0.625"
"1574875959176","346","0.39941406","-0.9238281","-0.025390625","3.21875","1.53125","1.1875"
"1574875959176","347","0.39257812","-0.9033203","-9.765625E-4","4.25","0.3125","2.46875"
"1574875959176","348","0.38183594","-0.9121094","0.0","4.09375","-2.125","2.34375"
"1574875959178","349","0.36816406","-0.9423828","-0.0087890625","5.125","-0.78125","3.0625"
"1574875959767","350","0.359375","-0.9189453","0.005859375","2.4375","0.5625","2.90625"
"1574875959768","351","0.37402344","-0.9277344","0.0126953125","2.125","1.375","3.0"
"1574875959768","352","0.3671875","-0.92285156","-0.0068359375","2.4375","0.75","2.34375"
"1574875959768","353","0.37109375","-0.9326172","0.018554688","3.09375","-1.1875","2.40625"
"1574875959769","354","0.3359375","-0.9511719","0.037109375","-2.75","-3.59375","-2.0625"
"1574875959769","355","0.36621094","-0.9433594","0.0234375","-2.75","-1.875","-1.3125"
"1574875959769","356","0.37304688","-0.9267578","0.03125","-4.28125","-0.03125","-0.46875"
"1574875959769","357","0.36816406","-0.9169922","-0.00390625","-3.65625","-0.78125","-0.09375"
"1574875959770","358","0.3720703","-0.9267578","-0.02734375","-4.21875","0.8125","0.5"
"1574875959770","359","0.38671875","-0.921875","-0.016601562","-4.09375","-0.59375","-0.21875"
"1574875959972","360","0.38671875","-0.9248047","-0.01171875","-1.53125","-1.03125","-0.9375"
"1574875959973","361","0.38964844","-0.9238281","-0.018554688","-1.84375","-2.1875","-1.5"
"1574875959974","362","0.37890625","-0.92871094","-0.018554688","-1.65625","-1.5","-2.1875"
"1574875959974","363","0.4033203","-0.9160156","-0.029296875","-2.09375","1.125","-1.25"
"1574875959974","364","0.3984375","-0.9248047","-0.0078125","0.40625","-2.125","0.4375"
"1574875959974","365","0.359375","-0.9160156","-0.045898438","7.375","-7.3125","-2.0625"
"1574875959975","366","0.3720703","-0.90234375","-0.018554688","0.59375","-5.59375","-2.65625"
"1574875959975","367","0.3876953","-0.9169922","-0.022460938","0.1875","-0.90625","-3.9375"
"1574875959975","368","0.37304688","-0.9238281","-0.017578125","-0.375","0.6875","-4.625"
"1574875959975","369","0.40039062","-0.9140625","-0.030273438","-2.375","3.5625","-1.9375"
"1574875960170","370","0.38378906","-0.9140625","-0.0087890625","-0.5625","3.0","-2.46875"
"1574875960171","371","0.38671875","-0.8955078","-0.017578125","-2.21875","1.375","0.40625"
"1574875960171","372","0.39746094","-0.9355469","-0.0126953125","4.03125","4.59375","1.375"
"1574875960172","373","0.36523438","-0.91015625","0.0","2.375","2.59375","1.625"
"1574875960173","374","0.4013672","-0.91503906","-0.02734375","9.34375","4.59375","4.59375"
"1574875960173","375","0.38085938","-0.91503906","-0.0107421875","7.375","4.28125","4.0625"
"1574875960173","376","0.4091797","-0.91015625","-0.0126953125","11.53125","5.34375","6.375"
"1574875960173","377","0.38183594","-0.91308594","0.0107421875","10.90625","3.1875","5.40625"
"1574875960173","378","0.3564453","-0.92578125","0.024414062","6.09375","3.0625","5.03125"
"1574875960174","379","0.3623047","-0.92871094","0.041015625","2.6875","2.71875","4.0625"
"1574875960567","380","0.3466797","-0.9375","0.064453125","0.40625","2.03125","2.46875"
"1574875960567","381","0.33203125","-0.92871094","0.034179688","-3.78125","3.625","1.0625"
"1574875960568","382","0.3671875","-0.9111328","0.041015625","-2.5","6.78125","1.375"
"1574875960568","383","0.36621094","-0.94628906","0.03125","-0.25","-1.8125","-1.4375"
"1574875960568","384","0.33203125","-0.953125","0.045898438","-4.34375","1.4375","-2.0625"
"1574875960570","385","0.36035156","-0.9189453","0.037109375","-2.15625","0.8125","-3.34375"
"1574875960570","386","0.37304688","-0.93359375","0.03515625","-2.3125","-2.0","-0.9375"
"1574875960571","387","0.3798828","-0.9316406","0.0146484375","-3.25","-3.46875","-1.25"
"1574875960571","388","0.3779297","-0.92871094","0.0087890625","-6.40625","-5.96875","-2.125"
"1574875960571","389","0.3779297","-0.9199219","0.01171875","-2.21875","-7.125","-2.28125"
"1574875961359","390","0.375","-0.92089844","0.009765625","-4.15625","-10.28125","-2.71875"
"1574875961359","391","0.3779297","-0.9326172","0.0","-2.5625","-8.84375","-3.21875"
"1574875961359","392","0.36035156","-0.9199219","-9.765625E-4","-8.1875","-9.0625","-3.625"
"1574875961360","393","0.37109375","-0.92871094","-0.018554688","-5.6875","-9.0625","-2.78125"
"1574875961360","394","0.36328125","-0.93847656","-0.03125","-7.15625","-5.90625","-3.15625"
"1574875961360","395","0.3642578","-0.93066406","-0.02734375","-7.40625","-2.53125","-2.1875"
"1574875961360","396","0.37109375","-0.9199219","-0.040039062","-7.03125","1.90625","-1.4375"
"1574875961362","397","0.37304688","-0.92089844","-0.015625","-8.5625","2.40625","-0.40625"
"1574875961363","398","0.38183594","-0.91015625","-0.048828125","-9.53125","4.46875","-1.1875"
"1574875961363","399","0.40722656","-0.90722656","-0.068359375","-6.84375","3.75","0.15625"
"1574875961558","400","0.40527344","-0.9160156","-0.047851562","-1.65625","1.96875","1.375"
"1574875961558","401","0.38867188","-0.89941406","-0.045898438","-1.15625","0.375","1.78125"
"1574875961559","402","0.3876953","-0.9121094","-0.061523438","1.6875","0.5","2.84375"
"1574875961559","403","0.38085938","-0.9169922","-0.05078125","4.3125","0.625","2.96875"
"1574875961559","404","0.38378906","-0.90527344","-0.055664062","6.8125","0.75","3.9375"
"1574875961559","405","0.375","-0.93359375","-0.041015625","9.15625","1.0","4.71875"
"1574875961559","406","0.36816406","-0.9238281","-0.036132812","6.65625","1.125","4.90625"
"1574875961560","407","0.36816406","-0.9267578","-0.026367188","6.875","0.5625","4.78125"
"1574875961560","408","0.37402344","-0.93652344","-0.017578125","5.4375","-0.34375","3.375"
"1574875961561","409","0.35546875","-0.9433594","-9.765625E-4","5.1875","-2.53125","1.90625"
"1574875961759","410","0.36132812","-0.9511719","0.009765625","3.46875","-3.15625","0.03125"
"1574875961759","411","0.3251953","-0.9375","0.0068359375","-2.15625","-5.78125","-3.6875"
"1574875961760","412","0.33007812","-0.95703125","-0.017578125","-5.125","-2.78125","-5.03125"
"1574875961760","413","0.37402344","-0.92871094","-0.013671875","-9.71875","2.15625","-2.40625"
"1574875961760","414","0.37304688","-0.9160156","-0.043945312","-3.125","2.34375","-1.125"
"1574875961760","415","0.3828125","-0.93847656","-0.057617188","2.90625","2.78125","-0.34375"
"1574875961761","416","0.38378906","-0.93847656","-0.0048828125","0.96875","0.25","-1.1875"
"1574875961761","417","0.3828125","-0.91796875","-0.009765625","0.78125","-2.25","-2.34375"
"1574875961761","418","0.37402344","-0.92285156","-0.021484375","0.125","-3.09375","-2.59375"
"1574875961761","419","0.3701172","-0.92578125","-0.024414062","-4.09375","-1.125","-2.46875"
"1574875962158","420","0.38964844","-0.9140625","-0.02734375","-5.5625","-1.5","-2.21875"
"1574875962158","421","0.3671875","-0.91503906","-0.041015625","-3.0625","-1.5625","-2.125"
"1574875962159","422","0.38085938","-0.9238281","-0.034179688","-1.34375","-2.125","-1.8125"
"1574875962160","423","0.35546875","-0.9121094","-0.0390625","3.84375","0.3125","-1.25"
"1574875962160","424","0.3798828","-0.92089844","-0.051757812","1.03125","6.5625","-0.53125"
"1574875962160","425","0.39746094","-0.91015625","-0.051757812","4.6875","7.15625","0.8125"
"1574875962161","426","0.3642578","-0.92089844","-0.032226562","2.8125","6.0625","-0.40625"
"1574875962161","427","0.39453125","-0.9189453","-0.040039062","0.71875","8.0625","1.71875"
"1574875962161","428","0.3779297","-0.93847656","-0.029296875","-3.125","5.40625","0.8125"
"1574875962161","429","0.37109375","-0.9140625","-0.013671875","0.0","7.59375","1.625"
"1574875963348","430","0.3955078","-0.91308594","-0.048828125","5.0","9.1875","1.625"
"1574875963348","431","0.37109375","-0.9345703","-0.021484375","9.28125","3.5625","1.0625"
"1574875963348","432","0.37890625","-0.921875","-0.016601562","8.90625","4.34375","2.78125"
"1574875963349","433","0.38183594","-0.9296875","0.0048828125","9.28125","4.96875","3.6875"
"1574875963349","434","0.3671875","-0.9140625","0.0087890625","9.9375","2.875","4.59375"
"1574875963349","435","0.38085938","-0.9316406","0.024414062","7.5","3.125","5.46875"
"1574875963350","436","0.37304688","-0.9267578","0.0087890625","9.5","0.09375","4.40625"
"1574875963350","437","0.37304688","-0.9189453","0.020507812","12.6875","-0.03125","4.71875"
"1574875963350","438","0.3544922","-0.92285156","0.05078125","5.78125","-0.71875","3.4375"
"1574875963350","439","0.3486328","-0.9345703","0.05078125","4.4375","-2.0","1.3125"
"1574875963546","440","0.33691406","-0.94140625","0.056640625","3.21875","-1.4375","0.15625"
"1574875963547","441","0.31835938","-0.9560547","0.06640625","0.3125","0.3125","-1.3125"
"1574875963547","442","0.3203125","-0.9511719","0.06542969","-2.875","3.75","-2.90625"
"1574875963547","443","0.33496094","-0.9316406","0.072265625","-1.96875","2.34375","-1.8125"
"1574875963548","444","0.3544922","-0.92578125","0.056640625","0.3125","3.1875","-0.9375"
"1574875963548","445","0.36035156","-0.9267578","0.048828125","-0.4375","1.53125","-0.9375"
"1574875963548","446","0.37304688","-0.92285156","0.06347656","-1.78125","-1.625","-0.78125"
"1574875963549","447","0.36132812","-0.9160156","0.036132812","-2.8125","-3.59375","-1.625"
"1574875963549","448","0.35839844","-0.92871094","0.06347656","-3.96875","-4.0","-2.71875"
"1574875963550","449","0.36132812","-0.92578125","0.034179688","-6.28125","-4.0","-2.59375"
"1574875963743","450","0.36035156","-0.9316406","0.0126953125","-1.46875","-4.75","-2.1875"
"1574875963744","451","0.35253906","-0.9199219","0.01953125","-2.5625","-4.375","-0.84375"
"1574875963744","452","0.3623047","-0.93066406","0.0068359375","-1.71875","0.21875","-1.1875"
"1574875963744","453","0.36328125","-0.9091797","0.0078125","-2.09375","0.3125","-0.78125"
"1574875963745","454","0.37304688","-0.90625","0.0107421875","-5.5625","1.65625","-1.875"
"1574875963745","455","0.37597656","-0.92578125","9.765625E-4","-2.8125","1.1875","-2.71875"
"1574875963746","456","0.36523438","-0.9140625","-9.765625E-4","-2.9375","4.46875","-3.28125"
"1574875963747","457","0.38476562","-0.91796875","-0.001953125","-1.59375","3.3125","-1.1875"
"1574875963747","458","0.3798828","-0.90722656","0.0126953125","1.15625","3.0","-0.84375"
"1574875963747","459","0.37695312","-0.91503906","0.0","2.125","1.125","-0.15625"
"1574875963944","460","0.3671875","-0.93847656","0.01953125","-0.4375","1.71875","-0.34375"
"1574875963944","461","0.37597656","-0.93066406","0.016601562","-3.5625","1.5","0.6875"
"1574875963945","462","0.3779297","-0.90527344","0.03125","-1.21875","-0.53125","1.5625"
"1574875963945","463","0.36914062","-0.9267578","0.025390625","0.0625","-3.8125","2.34375"
"1574875963945","464","0.35839844","-0.953125","0.0234375","1.75","-3.09375","1.96875"
"1574875963945","465","0.33691406","-0.9433594","0.0390625","-1.15625","-3.9375","0.875"
"1574875963946","466","0.3564453","-0.9394531","0.021484375","-1.34375","-3.34375","0.34375"
"1574875963946","467","0.33691406","-0.91796875","0.03125","-4.53125","-3.6875","-1.1875"
"1574875963946","468","0.36621094","-0.9472656","0.013671875","2.4375","-2.0625","-1.9375"
"1574875963948","469","0.35058594","-0.94140625","0.016601562","-1.53125","0.21875","-1.75"
"1574875964144","470","0.38867188","-0.91308594","0.02734375","-0.0625","-2.90625","-0.65625"
"1574875964145","471","0.3798828","-0.9277344","0.0146484375","1.28125","-2.71875","-1.5"
"1574875964145","472","0.3564453","-0.91796875","0.020507812","-0.5","-3.09375","-2.53125"
"1574875964145","473","0.37890625","-0.92285156","0.005859375","-5.25","-1.9375","-2.84375"
"1574875964146","474","0.3779297","-0.91796875","-0.0029296875","-1.53125","-1.03125","-3.9375"
"1574875964146","475","0.36621094","-0.91015625","0.009765625","-2.03125","-2.96875","-4.1875"
"1574875964146","476","0.38476562","-0.91503906","-0.009765625","-1.96875","-3.34375","-3.46875"
"1574875964146","477","0.3701172","-0.9238281","0.00390625","-3.0","-2.375","-4.5"
"1574875964147","478","0.3701172","-0.921875","-0.018554688","-4.28125","-1.5","-3.75"
"1574875964147","479","0.39746094","-0.9169922","-0.0087890625","-3.0625","0.375","-2.53125"
"1574875964543","480","0.37304688","-0.9199219","-0.01953125","-2.03125","-0.84375","-3.34375"
"1574875964545","481","0.390625","-0.91015625","-0.017578125","-2.03125","-0.40625","-2.0"
"1574875964545","482","0.39941406","-0.88964844","-0.026367188","-0.375","-0.09375","-1.125"
"1574875964546","483","0.3828125","-0.9326172","-0.01171875","1.34375","2.21875","-0.21875"
"1574875964546","484","0.39453125","-0.90234375","-0.020507812","2.625","2.40625","0.8125"
"1574875964546","485","0.37304688","-0.89941406","0.013671875","2.75","7.59375","2.15625"
"1574875964546","486","0.39648438","-0.9560547","0.00390625","8.21875","10.75","2.84375"
"1574875964547","487","0.36816406","-0.9042969","-0.0126953125","11.09375","7.90625","3.5625"
"1574875964547","488","0.41601562","-0.92871094","-0.013671875","5.5","6.78125","5.21875"
"1574875964547","489","0.40234375","-0.9121094","0.0234375","2.4375","3.1875","4.71875"
"1574875964940","490","0.38867188","-0.90234375","0.0087890625","5.65625","-1.3125","5.28125"
"1574875964941","491","0.4033203","-0.9121094","0.018554688","4.8125","-3.28125","5.28125"
"1574875964941","492","0.3828125","-0.9121094","0.01953125","5.3125","-4.5625","4.96875"
"1574875964942","493","0.3720703","-0.92089844","0.0146484375","3.90625","-3.03125","5.09375"
"1574875964943","494","0.3671875","-0.9248047","0.026367188","4.3125","-2.53125","4.125"
"1574875964943","495","0.3720703","-0.94433594","0.037109375","4.875","-1.03125","2.96875"
"1574875964943","496","0.36132812","-0.9375","0.05859375","4.03125","-4.96875","0.5625"
"1574875964943","497","0.3330078","-0.9375","0.068359375","-2.625","-3.75","-1.4375"
"1574875964944","498","0.3388672","-0.92871094","0.055664062","-3.90625","-4.875","-1.625"
"1574875964944","499","0.3466797","-0.9238281","0.043945312","-0.25","-2.125","-2.53125"
"1574875965336","500","0.34960938","-0.93652344","0.041015625","1.46875","-1.625","-3.15625"
"1574875965337","501","0.36035156","-0.9248047","0.02734375","2.6875","-1.25","-2.71875"
"1574875965337","502","0.36523438","-0.92089844","0.043945312","-0.375","-0.03125","-2.1875"
"1574875965337","503","0.3671875","-0.9111328","0.02734375","1.03125","0.25","-1.4375"
"1574875965338","504","0.35839844","-0.9277344","0.059570312","1.75","-2.375","-1.375"
"1574875965338","505","0.37695312","-0.94433594","0.028320312","1.9375","-1.0625","-1.125"
"1574875965339","506","0.3544922","-0.92578125","0.036132812","2.125","-2.59375","-2.0625"
"1574875965339","507","0.35351562","-0.91796875","0.049804688","-0.6875","-2.71875","-1.9375"
"1574875965339","508","0.36132812","-0.9248047","0.045898438","-1.53125","-0.46875","-2.0"
"1574875965340","509","0.36328125","-0.91308594","0.033203125","-4.90625","0.25","-1.5625"
"1574875965934","510","0.3857422","-0.9082031","0.020507812","-5.0625","1.84375","-0.65625"
"1574875965934","511","0.40234375","-0.9160156","0.013671875","-1.90625","0.15625","-0.21875"
"1574875965934","512","0.37695312","-0.9199219","0.015625","1.09375","0.09375","-0.53125"
"1574875965935","513","0.38671875","-0.89746094","0.013671875","-1.65625","-1.375","0.40625"
"1574875965935","514","0.38476562","-0.92578125","0.021484375","1.46875","-2.0","0.21875"
"1574875965935","515","0.37109375","-0.9111328","0.028320312","-0.125","-0.71875","0.5625"
"1574875965935","516","0.38085938","-0.91308594","0.005859375","-0.0625","-0.34375","1.25"
"1574875965937","517","0.3720703","-0.92871094","0.013671875","-0.8125","0.75","1.0"
"1574875965937","518","0.3798828","-0.90625","0.024414062","-1.34375","1.1875","1.375"
"1574875965937","519","0.3828125","-0.9296875","0.026367188","1.03125","0.375","1.5625"
"1574875966132","520","0.37597656","-0.91503906","0.040039062","1.15625","-0.53125","1.5625"
"1574875966133","521","0.37402344","-0.9121094","0.013671875","1.46875","-1.8125","1.96875"
"1574875966133","522","0.37402344","-0.9423828","0.03515625","1.6875","-3.15625","0.8125"
"1574875966133","523","0.35546875","-0.9326172","0.021484375","6.71875","-2.25","-0.53125"
"1574875966134","524","0.33789062","-0.9199219","0.07128906","-1.90625","-5.96875","-1.4375"
"1574875966134","525","0.35839844","-0.9355469","0.049804688","0.40625","-4.5625","-2.40625"
"1574875966134","526","0.34277344","-0.92578125","0.045898438","-2.375","-2.71875","-1.8125"
"1574875966134","527","0.36621094","-0.92578125","0.02734375","-3.0","1.65625","-0.46875"
"1574875966134","528","0.3876953","-0.92285156","0.016601562","2.625","2.46875","0.5"
"1574875966136","529","0.37695312","-0.9111328","0.018554688","2.0","2.15625","0.15625"
"1574875966727","530","0.38964844","-0.9316406","0.029296875","-1.84375","-0.65625","-0.59375"
"1574875966728","531","0.37304688","-0.92089844","0.037109375","-5.375","-1.8125","-2.125"
"1574875966728","532","0.38476562","-0.91015625","0.02734375","-3.25","-4.625","-1.3125"
"1574875966728","533","0.38964844","-0.92285156","0.029296875","-3.71875","-4.96875","-0.71875"
"1574875966729","534","0.35253906","-0.9199219","0.0107421875","-7.03125","-5.78125","-3.15625"
"1574875966729","535","0.37402344","-0.91796875","-0.0048828125","-9.46875","-2.59375","-3.6875"
"1574875966729","536","0.3720703","-0.90722656","0.0","-4.40625","-1.9375","-3.34375"
"1574875966729","537","0.3828125","-0.9277344","-0.0068359375","-6.34375","-0.78125","-2.96875"
"1574875966730","538","0.41308594","-0.8984375","-0.0234375","-2.21875","-1.75","-1.375"
"1574875966730","539","0.35351562","-0.91308594","-0.0068359375","-1.65625","-4.5","-1.0625"
"1574875967720","540","0.3798828","-0.93066406","-0.024414062","-3.3125","0.25","-1.5625"
"1574875967722","541","0.38964844","-0.91503906","-0.028320312","-1.0","1.78125","0.09375"
"1574875967723","542","0.375","-0.90625","-0.032226562","0.90625","1.65625","0.8125"
"1574875967723","543","0.390625","-0.9394531","-0.001953125","0.125","2.84375","0.875"
"1574875967724","544","0.38964844","-0.9013672","-0.0126953125","2.6875","5.5625","2.90625"
"1574875967724","545","0.3857422","-0.9238281","9.765625E-4","1.28125","2.84375","2.09375"
"1574875967724","546","0.3798828","-0.9277344","9.765625E-4","3.65625","0.5625","2.15625"
"1574875967724","547","0.37304688","-0.9121094","0.0048828125","0.0625","-0.28125","1.0"
"1574875967725","548","0.37695312","-0.9326172","0.009765625","0.1875","-1.03125","0.4375"
"1574875967725","549","0.36621094","-0.9169922","-0.0029296875","1.28125","1.90625","1.5625"
"1574875967725","550","0.4033203","-0.921875","-0.021484375","7.9375","3.1875","2.96875"
"1574875967725","551","0.38378906","-0.91308594","0.0048828125","0.59375","0.3125","2.90625"
"1574875967726","552","0.36328125","-0.9394531","0.018554688","-1.40625","-0.09375","2.09375"
"1574875967726","553","0.38378906","-0.9248047","0.00390625","-0.9375","-1.625","0.625"
"1574875967726","554","0.37597656","-0.93359375","0.0029296875","0.78125","-3.28125","0.40625"
"1574875967728","555","0.36132812","-0.9394531","0.021484375","-2.09375","-6.21875","-1.1875"
"1574875967728","556","0.3486328","-0.9267578","0.017578125","-1.53125","-7.0","-1.375"
"1574875967729","557","0.35839844","-0.9248047","-0.0029296875","-2.28125","-4.9375","-1.0"
"1574875967729","558","0.3564453","-0.9394531","-0.0078125","0.40625","-1.125","0.03125"
"1574875967729","559","0.3671875","-0.9375","0.0029296875","-2.6875","-0.71875","-1.25"
"1574875967920","560","0.3935547","-0.9140625","-0.01953125","-1.65625","0.03125","-0.59375"
"1574875967921","561","0.38671875","-0.9199219","-0.0126953125","-2.09375","-2.59375","-0.84375"
"1574875967921","562","0.36914062","-0.92578125","-0.00390625","-7.28125","-3.59375","-2.46875"
"1574875967921","563","0.37304688","-0.9248047","-0.015625","-7.875","-3.09375","-2.96875"
"1574875967921","564","0.36914062","-0.92285156","-0.016601562","-5.5","-1.8125","-2.65625"
"1574875967922","565","0.38867188","-0.9140625","-0.030273438","-4.40625","-2.25","-1.625"
"1574875967923","566","0.3857422","-0.9091797","-0.022460938","-2.03125","-2.0","-0.53125"
"1574875967923","567","0.38671875","-0.9042969","-0.044921875","-6.28125","-2.0625","-2.59375"
"1574875967923","568","0.3935547","-0.9091797","-0.051757812","-1.28125","-3.53125","-1.8125"
"1574875967924","569","0.390625","-0.90722656","-0.046875","-1.0","-3.28125","-1.6875"
"1574875968317","570","0.3955078","-0.91015625","-0.047851562","1.40625","-3.03125","-1.125"
"1574875968318","571","0.40039062","-0.91308594","-0.056640625","4.03125","-2.1875","-0.21875"
"1574875968318","572","0.3828125","-0.9199219","-0.041992188","4.5","-1.1875","0.625"
"1574875968318","573","0.3935547","-0.9082031","-0.046875","5.96875","-1.1875","1.375"
"1574875968319","574","0.3798828","-0.9355469","-0.034179688","8.28125","-2.84375","2.28125"
"1574875968319","575","0.38183594","-0.9160156","-0.026367188","6.21875","-1.9375","2.59375"
"1574875968319","576","0.38476562","-0.9345703","-0.0146484375","4.5625","-3.34375","3.0"
"1574875968319","577","0.37695312","-0.91308594","-0.0146484375","3.09375","-3.46875","2.40625"
"1574875968320","578","0.36621094","-0.92285156","-0.020507812","3.15625","-3.6875","2.34375"
"1574875968320","579","0.37109375","-0.9267578","-0.013671875","3.46875","-1.9375","2.03125"
"1574875968717","580","0.3701172","-0.92089844","-0.018554688","3.15625","-1.1875","1.6875"
"1574875968717","581","0.3798828","-0.92578125","-0.0087890625","2.6875","-1.6875","1.375"
"1574875968718","582","0.36523438","-0.9511719","-0.0029296875","2.875","-2.0625","-0.09375"
"1574875968718","583","0.3232422","-0.9580078","0.022460938","-2.5","-1.75","-1.8125"
"1574875968718","584","0.3408203","-0.9501953","0.01953125","-9.21875","3.0","-2.78125"
"1574875968718","585","0.3798828","-0.9033203","-0.04296875","-6.0625","4.34375","-1.8125"
"1574875968718","586","0.3828125","-0.9238281","-0.040039062","0.96875","2.34375","-0.65625"
"1574875968719","587","0.36132812","-0.9345703","-0.030273438","-1.0","3.375","-1.625"
"1574875968719","588","0.4111328","-0.89941406","-0.013671875","-5.5625","2.28125","-0.71875"
"1574875968720","589","0.40429688","-0.9296875","-0.02734375","-5.75","-3.34375","-0.9375"
"1574875969114","590","0.3642578","-0.9423828","-0.017578125","-4.15625","-2.65625","-2.59375"
"1574875969115","591","0.37597656","-0.91503906","-0.02734375","-9.15625","-1.0625","-2.59375"
"1574875969115","592","0.37890625","-0.8964844","-0.030273438","-4.15625","-0.71875","-1.9375"
"1574875969115","593","0.3857422","-0.93847656","-0.044921875","0.1875","0.6875","-3.09375"
"1574875969115","594","0.36523438","-0.9091797","-0.048828125","-4.34375","-1.1875","-3.15625"
"1574875969116","595","0.40039062","-0.921875","-0.05859375","-2.09375","1.3125","-1.5625"
"1574875969116","596","0.40429688","-0.88671875","-0.0546875","0.84375","1.96875","-0.9375"
"1574875969116","597","0.3955078","-0.89941406","-0.057617188","0.90625","-0.21875","0.15625"
"1574875969117","598","0.4326172","-0.92578125","-0.040039062","5.125","-3.8125","-0.53125"
"1574875969117","599","0.36035156","-0.8808594","-0.055664062","-1.28125","-4.6875","0.625"
