"# PR data"
"# Start time: 20191127T183526"
"# Subject: lukasz"
"# Activity type: Wall push offs"
"# Correctness: Correct"
"# Notes: "
""
"timestamp","seq","accel_x","accel_y","accel_z","gyro_x","gyro_y","gyro_z"
"1574876127120","0","0.33203125","-0.9404297","0.028320312","-0.25","-1.25","0.21875"
"1574876127121","1","0.3330078","-0.9326172","0.032226562","-0.875","-2.25","0.09375"
"1574876127121","2","0.3330078","-0.93359375","0.025390625","-1.71875","-1.4375","-0.34375"
"1574876127122","3","0.33691406","-0.93847656","0.01953125","-0.6875","-0.90625","-0.15625"
"1574876127122","4","0.32714844","-0.9394531","0.022460938","0.65625","-0.71875","-0.53125"
"1574876127122","5","0.33691406","-0.9355469","0.0146484375","0.1875","0.4375","-0.21875"
"1574876127123","6","0.3408203","-0.9355469","0.017578125","0.25","0.5625","-0.21875"
"1574876127123","7","0.3388672","-0.93652344","0.024414062","0.53125","1.1875","-0.21875"
"1574876127123","8","0.33496094","-0.9394531","0.01953125","0.34375","1.71875","-0.59375"
"1574876127124","9","0.34472656","-0.9345703","0.001953125","1.03125","3.3125","-0.03125"
"1574876127518","10","0.3359375","-0.9355469","0.02734375","-1.90625","2.65625","0.21875"
"1574876127519","11","0.34960938","-0.9375","0.017578125","0.0625","4.0","-0.03125"
"1574876127520","12","0.3359375","-0.921875","0.0068359375","-2.75","4.0","-0.90625"
"1574876127520","13","0.3466797","-0.92871094","0.0029296875","-0.625","1.59375","-0.84375"
"1574876127520","14","0.34570312","-0.93359375","0.009765625","-1.96875","3.25","-1.4375"
"1574876127521","15","0.3466797","-0.9169922","-0.0107421875","-1.28125","1.96875","-1.1875"
"1574876127521","16","0.3515625","-0.9375","-0.001953125","-3.5625","3.0","-0.84375"
"1574876127521","17","0.35546875","-0.9189453","-0.030273438","-5.0625","5.6875","0.6875"
"1574876127521","18","0.3623047","-0.890625","-0.034179688","-7.75","4.21875","1.84375"
"1574876127522","19","0.3876953","-0.9169922","-0.044921875","4.4375","1.0","2.09375"
"1574876127915","20","0.3671875","-0.9248047","-0.018554688","8.125","4.46875","2.15625"
"1574876127915","21","0.359375","-0.9160156","9.765625E-4","18.4375","-2.375","4.53125"
"1574876127916","22","0.33496094","-0.91503906","-0.013671875","10.25","-1.625","4.1875"
"1574876127916","23","0.35546875","-0.9091797","0.009765625","11.34375","0.375","6.3125"
"1574876127916","24","0.34472656","-0.90625","0.016601562","21.40625","0.375","7.21875"
"1574876127918","25","0.3095703","-0.9375","0.057617188","18.25","4.0","7.46875"
"1574876127918","26","0.31835938","-0.9326172","0.056640625","18.84375","5.875","8.5"
"1574876127918","27","0.31835938","-0.91015625","0.07128906","14.59375","4.71875","9.71875"
"1574876127919","28","0.31347656","-0.9267578","0.08300781","16.84375","3.3125","9.65625"
"1574876127919","29","0.3076172","-0.9355469","0.09667969","17.875","3.875","9.84375"
"1574876128314","30","0.2705078","-0.92871094","0.115234375","14.9375","1.4375","10.34375"
"1574876128314","31","0.29296875","-0.93066406","0.14257812","16.03125","4.28125","11.125"
"1574876128315","32","0.2734375","-0.93652344","0.13085938","15.3125","3.8125","8.9375"
"1574876128315","33","0.28027344","-0.9267578","0.15625","19.53125","3.9375","11.4375"
"1574876128315","34","0.25976562","-0.9169922","0.15917969","19.78125","-0.34375","10.53125"
"1574876128315","35","0.234375","-0.92578125","0.19921875","17.6875","-5.03125","10.9375"
"1574876128315","36","0.2265625","-0.9189453","0.24121094","18.4375","-8.71875","12.96875"
"1574876128316","37","0.24023438","-0.94140625","0.20898438","16.34375","-5.90625","9.78125"
"1574876128316","38","0.21582031","-0.9589844","0.24707031","15.25","-6.3125","7.71875"
"1574876128316","39","0.17285156","-0.95410156","0.28515625","13.34375","-6.28125","8.4375"
"1574876128905","40","0.15527344","-0.9716797","0.3173828","23.0625","-2.53125","10.46875"
"1574876128906","41","0.15722656","-0.953125","0.390625","14.6875","1.84375","6.625"
"1574876128906","42","0.1796875","-0.9736328","0.2998047","12.125","5.6875","4.65625"
"1574876128906","43","0.16699219","-0.9404297","0.3466797","8.125","5.03125","3.1875"
"1574876128906","44","0.14550781","-0.921875","0.33691406","8.0625","3.8125","2.65625"
"1574876128907","45","0.16503906","-0.9267578","0.36816406","4.75","0.25","0.8125"
"1574876128907","46","0.14941406","-0.93652344","0.36132812","2.125","-4.96875","-1.125"
"1574876128907","47","0.15332031","-0.94628906","0.38964844","-1.15625","-6.15625","-2.59375"
"1574876128907","48","0.16015625","-0.95996094","0.3857422","-4.46875","-7.84375","-4.8125"
"1574876128909","49","0.15917969","-0.9580078","0.3779297","-5.5625","-7.71875","-4.5625"
"1574876129503","50","0.14257812","-0.9404297","0.38671875","-6.40625","-7.78125","-5.03125"
"1574876129503","51","0.14257812","-0.9501953","0.390625","-5.9375","-6.875","-5.46875"
"1574876129504","52","0.16601562","-0.9345703","0.36523438","-7.75","-4.3125","-6.03125"
"1574876129504","53","0.16796875","-0.93066406","0.3515625","-8.1875","-4.25","-6.4375"
"1574876129504","54","0.17480469","-0.91503906","0.32421875","-9.46875","-1.4375","-6.03125"
"1574876129505","55","0.18359375","-0.9433594","0.31054688","-13.375","-1.125","-7.0625"
"1574876129506","56","0.22363281","-0.91503906","0.2529297","-13.9375","1.375","-7.84375"
"1574876129506","57","0.23046875","-0.9160156","0.23144531","-15.375","2.40625","-7.90625"
"1574876129506","58","0.25585938","-0.92871094","0.20800781","-12.75","1.78125","-9.125"
"1574876129506","59","0.26660156","-0.9238281","0.19335938","-10.03125","-3.21875","-9.0"
"1574876129702","60","0.28808594","-0.93847656","0.21386719","-15.5625","-2.0","-8.71875"
"1574876129703","61","0.28125","-0.9716797","0.17480469","-14.65625","-5.28125","-9.5"
"1574876129704","62","0.2890625","-0.9326172","0.13183594","-16.65625","-3.9375","-10.09375"
"1574876129704","63","0.30566406","-0.89746094","0.115234375","-14.09375","-3.40625","-9.625"
"1574876129704","64","0.30566406","-0.89941406","0.09375","-16.65625","-8.03125","-9.6875"
"1574876129704","65","0.32421875","-0.9296875","0.06347656","-16.78125","-5.84375","-8.8125"
"1574876129705","66","0.33203125","-0.91796875","0.05078125","-16.65625","-4.25","-8.75"
"1574876129705","67","0.34179688","-0.91796875","0.04296875","-15.15625","-0.15625","-8.15625"
"1574876129705","68","0.34375","-0.9042969","0.0234375","-13.8125","-0.84375","-7.59375"
"1574876129705","69","0.34472656","-0.9199219","0.033203125","-15.09375","-1.3125","-7.125"
"1574876129902","70","0.3544922","-0.9121094","0.0068359375","-10.3125","1.125","-5.96875"
"1574876129902","71","0.359375","-0.9111328","0.03515625","-10.5","2.59375","-4.25"
"1574876129903","72","0.36132812","-0.9091797","-0.0029296875","-2.3125","1.3125","-2.96875"
"1574876129904","73","0.35253906","-0.9199219","0.0126953125","1.40625","1.53125","-1.75"
"1574876129904","74","0.3642578","-0.9082031","0.0234375","-1.78125","1.78125","-1.8125"
"1574876129905","75","0.3779297","-0.8955078","0.0068359375","0.78125","3.375","0.28125"
"1574876129905","76","0.37304688","-0.9140625","0.013671875","-1.15625","1.96875","-0.71875"
"1574876129905","77","0.3720703","-0.90527344","9.765625E-4","1.9375","0.75","0.875"
"1574876129905","78","0.359375","-0.9189453","0.0107421875","-0.875","2.28125","0.40625"
"1574876129906","79","0.33789062","-0.9082031","0.044921875","-1.28125","3.75","2.96875"
"1574876130695","80","0.34765625","-0.90722656","0.028320312","0.46875","8.25","2.96875"
"1574876130696","81","0.37304688","-0.9238281","0.01953125","0.96875","7.59375","5.6875"
"1574876130696","82","0.34765625","-0.9111328","0.017578125","5.0","6.84375","6.5"
"1574876130697","83","0.34570312","-0.9042969","0.047851562","5.53125","8.3125","7.21875"
"1574876130697","84","0.3251953","-0.9345703","0.07128906","4.21875","7.09375","8.5625"
"1574876130699","85","0.2939453","-0.95703125","0.09277344","2.25","8.5","7.15625"
"1574876130699","86","0.2783203","-0.9345703","0.09375","0.0","14.78125","7.90625"
"1574876130699","87","0.31933594","-0.9121094","0.055664062","8.90625","17.28125","9.375"
"1574876130700","88","0.30566406","-0.9140625","0.091796875","13.78125","12.96875","12.28125"
"1574876130700","89","0.28125","-0.9111328","0.12109375","19.46875","10.40625","12.71875"
"1574876131290","90","0.26757812","-0.9169922","0.13476562","18.4375","4.21875","13.5625"
"1574876131291","91","0.2607422","-0.95996094","0.15332031","26.125","0.8125","12.15625"
"1574876131291","92","0.23339844","-0.9316406","0.1953125","22.15625","-0.46875","11.875"
"1574876131291","93","0.22949219","-0.94433594","0.17773438","21.96875","-0.46875","10.59375"
"1574876131291","94","0.20214844","-0.9375","0.22070312","16.15625","-4.96875","9.65625"
"1574876131292","95","0.22558594","-0.9433594","0.21679688","17.375","-3.9375","9.1875"
"1574876131292","96","0.18554688","-0.94921875","0.2421875","14.40625","-9.75","8.875"
"1574876131295","97","0.19140625","-0.9345703","0.2890625","13.65625","-15.71875","10.28125"
"1574876131296","98","0.17675781","-0.9472656","0.27734375","9.09375","-12.0625","8.375"
"1574876131296","99","0.18261719","-0.9501953","0.33789062","11.15625","-2.0625","6.0625"
"1574876131296","100","0.16601562","-0.9707031","0.3310547","13.0625","-5.96875","5.59375"
"1574876131296","101","0.16113281","-0.94433594","0.3330078","14.34375","-4.4375","2.84375"
"1574876131297","102","0.14257812","-0.9355469","0.3857422","8.96875","-5.71875","2.84375"
"1574876131297","103","0.13183594","-0.953125","0.37109375","7.0625","-4.0","1.71875"
"1574876131298","104","0.12988281","-0.9277344","0.3544922","3.09375","-5.46875","-0.53125"
"1574876131298","105","0.14453125","-0.9433594","0.38671875","-0.0625","-4.0625","-1.25"
"1574876131299","106","0.16503906","-0.9736328","0.36914062","-3.5625","-2.84375","-2.21875"
"1574876131299","107","0.15625","-0.95703125","0.34765625","-3.125","-1.75","-3.75"
"1574876131299","108","0.15625","-0.94433594","0.359375","-5.0","-3.53125","-2.65625"
"1574876131299","109","0.17773438","-0.9501953","0.3310547","-5.4375","-0.28125","-4.5625"
"1574876131692","110","0.171875","-0.92285156","0.30664062","-5.8125","-4.75","-4.3125"
"1574876131692","111","0.1875","-0.92089844","0.30371094","-8.75","-4.3125","-5.46875"
"1574876131693","112","0.18359375","-0.93652344","0.27929688","-7.09375","-6.03125","-6.5"
"1574876131693","113","0.1953125","-0.9501953","0.28125","-10.4375","-4.3125","-7.40625"
"1574876131693","114","0.19824219","-0.94628906","0.26757812","-12.40625","-3.59375","-8.40625"
"1574876131693","115","0.21972656","-0.95214844","0.2705078","-13.4375","-2.1875","-8.9375"
"1574876131694","116","0.22851562","-0.9433594","0.22851562","-9.65625","-3.21875","-8.15625"
"1574876131694","117","0.22363281","-0.92578125","0.23535156","-11.25","-2.59375","-8.46875"
"1574876131694","118","0.25683594","-0.9316406","0.21289062","-12.53125","-2.65625","-8.75"
"1574876131694","119","0.26171875","-0.93652344","0.2109375","-14.96875","-4.1875","-8.9375"
"1574876131890","120","0.28125","-0.95996094","0.17089844","-12.09375","-5.59375","-8.53125"
"1574876131891","121","0.23828125","-0.9560547","0.19726562","-19.0","-6.6875","-9.4375"
"1574876131892","122","0.265625","-0.9238281","0.15234375","-17.90625","-4.5625","-9.1875"
"1574876131892","123","0.28027344","-0.9296875","0.14257812","-22.09375","-2.25","-10.46875"
"1574876131892","124","0.30664062","-0.9111328","0.08691406","-20.21875","-4.6875","-9.5625"
"1574876131892","125","0.3046875","-0.9189453","0.07421875","-20.21875","-7.84375","-9.25"
"1574876131893","126","0.33007812","-0.93847656","0.059570312","-19.21875","-5.59375","-9.5625"
"1574876131893","127","0.3173828","-0.9121094","0.045898438","-21.5","-8.40625","-10.09375"
"1574876131893","128","0.33789062","-0.91308594","0.005859375","-18.75","-6.75","-8.59375"
"1574876131893","129","0.3564453","-0.90527344","-0.015625","-16.65625","-5.21875","-8.46875"
"1574876132488","130","0.3515625","-0.8857422","-0.056640625","-12.65625","-1.25","-6.625"
"1574876132489","131","0.39257812","-0.88183594","-0.078125","-10.1875","0.5","-4.96875"
"1574876132489","132","0.41503906","-0.88378906","-0.09375","-2.8125","-0.90625","-4.0625"
"1574876132490","133","0.37890625","-0.9091797","-0.041992188","-3.5","-5.71875","-3.9375"
"1574876132490","134","0.37109375","-0.90722656","-0.059570312","-6.90625","-3.21875","-4.5625"
"1574876132490","135","0.39746094","-0.90527344","-0.09472656","-4.71875","-1.03125","-2.90625"
"1574876132491","136","0.41015625","-0.89746094","-0.083984375","0.53125","-3.6875","-1.125"
"1574876132491","137","0.37890625","-0.9199219","-0.064453125","-1.65625","-1.6875","-1.0625"
"1574876132491","138","0.36816406","-0.91308594","-0.05859375","-1.15625","-0.28125","1.90625"
"1574876132492","139","0.37695312","-0.921875","-0.05078125","-0.625","3.5625","2.46875"
"1574876132684","140","0.375","-0.90527344","-0.060546875","0.65625","4.125","5.15625"
"1574876132685","141","0.3828125","-0.8886719","-0.0625","8.84375","4.71875","4.71875"
"1574876132685","142","0.38183594","-0.88964844","-0.0546875","9.625","4.71875","6.75"
"1574876132685","143","0.37304688","-0.8935547","-0.044921875","13.53125","1.3125","8.5"
"1574876132685","144","0.3671875","-0.9121094","-0.03515625","15.875","-0.84375","10.03125"
"1574876132687","145","0.32226562","-0.92578125","0.017578125","17.9375","-1.5","10.65625"
"1574876132687","146","0.34277344","-0.9111328","0.01171875","24.90625","1.71875","10.59375"
"1574876132687","147","0.29492188","-0.9511719","0.06347656","25.875","1.53125","10.40625"
"1574876132688","148","0.2734375","-0.9716797","0.10058594","20.375","5.34375","6.25"
"1574876132688","149","0.2578125","-0.9433594","0.13867188","15.9375","9.84375","2.96875"
"1574876133082","150","0.30664062","-0.9091797","0.12207031","7.75","16.4375","5.75"
"1574876133082","151","0.29296875","-0.91308594","0.14648438","10.625","10.28125","8.75"
"1574876133082","152","0.28515625","-0.92089844","0.1484375","12.375","4.71875","8.375"
"1574876133083","153","0.2861328","-0.9277344","0.16601562","11.15625","2.46875","7.71875"
"1574876133083","154","0.25195312","-0.9267578","0.20214844","11.03125","-6.3125","8.5625"
"1574876133083","155","0.23925781","-0.9550781","0.18847656","14.15625","-4.1875","8.15625"
"1574876133083","156","0.20117188","-0.9658203","0.22460938","9.40625","-2.375","7.46875"
"1574876133084","157","0.16015625","-0.9609375","0.2919922","13.40625","-3.8125","8.875"
"1574876133085","158","0.19824219","-0.9794922","0.2861328","20.3125","1.59375","8.9375"
"1574876133085","159","0.23242188","-0.94628906","0.3154297","37.34375","7.21875","10.59375"
"1574876133678","160","0.19433594","-0.92871094","0.3173828","19.84375","7.65625","8.8125"
"1574876133679","161","0.18261719","-0.9404297","0.3623047","15.625","4.90625","7.28125"
"1574876133679","162","0.14746094","-0.92871094","0.3564453","10.4375","-0.40625","5.03125"
"1574876133679","163","0.15429688","-0.9267578","0.37109375","8.15625","-3.28125","2.96875"
"1574876133679","164","0.1796875","-0.953125","0.3544922","3.90625","-2.0625","0.6875"
"1574876133680","165","0.15234375","-0.98339844","0.37695312","-0.0625","-4.375","-2.21875"
"1574876133680","166","0.15136719","-0.96875","0.3857422","0.53125","-4.0625","-4.0"
"1574876133680","167","0.15625","-0.9580078","0.37402344","-3.125","-6.375","-5.03125"
"1574876133680","168","0.16699219","-0.95996094","0.359375","-6.40625","-4.5625","-6.9375"
"1574876133682","169","0.16796875","-0.9511719","0.35253906","-13.1875","-8.28125","-7.40625"
"1574876133879","170","0.17871094","-0.9316406","0.32128906","-14.46875","-2.40625","-8.65625"
"1574876133880","171","0.20898438","-0.9375","0.28125","-14.40625","-0.15625","-7.90625"
"1574876133880","172","0.20410156","-0.9033203","0.2861328","-19.40625","-1.875","-8.59375"
"1574876133880","173","0.21972656","-0.9277344","0.23339844","-16.0625","-0.28125","-10.15625"
"1574876133880","174","0.27734375","-0.93847656","0.2109375","-14.96875","0.5","-9.6875"
"1574876133881","175","0.25683594","-0.92285156","0.20605469","-15.75","-3.59375","-8.9375"
"1574876133881","176","0.28125","-0.9375","0.17578125","-10.5","-2.65625","-9.875"
"1574876133881","177","0.29101562","-0.9169922","0.1640625","-13.8125","-3.6875","-10.65625"
"1574876133881","178","0.28710938","-0.9199219","0.123046875","-14.0","-7.0","-10.65625"
"1574876133882","179","0.3076172","-0.9140625","0.103515625","-10.625","-5.21875","-10.90625"
"1574876134275","180","0.33398438","-0.9121094","0.078125","-10.75","-5.71875","-10.15625"
"1574876134279","181","0.32617188","-0.9404297","0.10546875","-11.0625","-6.625","-8.40625"
"1574876134279","182","0.34375","-0.93652344","0.060546875","-10.4375","-2.375","-7.65625"
"1574876134280","183","0.3359375","-0.9111328","0.05859375","-8.96875","-2.65625","-6.1875"
"1574876134280","184","0.34179688","-0.8847656","0.034179688","-9.03125","-0.53125","-5.90625"
"1574876134281","185","0.38085938","-0.9189453","0.016601562","-9.46875","-2.375","-5.09375"
"1574876134281","186","0.3486328","-0.9169922","0.021484375","-8.3125","-2.375","-4.84375"
"1574876134282","187","0.38085938","-0.9169922","0.033203125","-8.0625","-1.8125","-2.90625"
"1574876134282","188","0.36523438","-0.89453125","0.020507812","-6.46875","-2.59375","-2.0625"
"1574876134282","189","0.3798828","-0.9013672","0.01171875","-5.0","-2.59375","-0.40625"
"1574876134872","190","0.3798828","-0.8964844","-0.00390625","-1.90625","-1.25","0.625"
"1574876134873","191","0.36914062","-0.89746094","0.0","-0.5","-1.9375","1.6875"
"1574876134873","192","0.375","-0.9013672","-9.765625E-4","2.25","-3.59375","3.625"
"1574876134874","193","0.35058594","-0.90625","-0.0029296875","4.15625","-2.65625","3.0625"
"1574876134875","194","0.3515625","-0.91503906","0.0048828125","7.5625","-2.25","3.3125"
"1574876134875","195","0.34375","-0.9189453","0.013671875","4.5","2.28125","4.1875"
"1574876134875","196","0.328125","-0.89941406","0.041015625","4.75","3.25","5.28125"
"1574876134876","197","0.3701172","-0.9160156","0.028320312","4.75","5.40625","4.84375"
"1574876134876","198","0.34570312","-0.9082031","0.036132812","5.90625","5.21875","5.75"
"1574876134876","199","0.33398438","-0.921875","0.028320312","8.28125","5.21875","6.6875"
"1574876135069","200","0.33496094","-0.9091797","0.06542969","9.625","6.78125","7.53125"
"1574876135070","201","0.34960938","-0.9082031","0.072265625","11.28125","4.78125","7.34375"
"1574876135070","202","0.328125","-0.9326172","0.080078125","16.78125","-1.625","7.21875"
"1574876135070","203","0.29785156","-0.921875","0.10449219","20.3125","-3.53125","6.5625"
"1574876135070","204","0.3408203","-0.9267578","0.125","17.15625","0.21875","8.4375"
"1574876135071","205","0.26757812","-0.92089844","0.14746094","17.03125","-2.71875","6.0"
"1574876135072","206","0.3046875","-0.92871094","0.15527344","15.5625","-0.53125","7.15625"
"1574876135072","207","0.24121094","-0.9267578","0.18066406","9.15625","-4.96875","4.96875"
"1574876135072","208","0.25683594","-0.9433594","0.21679688","10.25","-8.71875","8.75"
"1574876135072","209","0.22558594","-0.93652344","0.23632812","15.3125","-4.75","9.84375"
"1574876135468","210","0.2421875","-0.9433594","0.23535156","20.3125","1.65625","8.5"
"1574876135468","211","0.19628906","-0.9394531","0.3251953","7.5625","0.625","6.6875"
"1574876135469","212","0.23339844","-0.9238281","0.29492188","10.5","5.34375","6.4375"
"1574876135469","213","0.22753906","-0.94433594","0.3173828","11.59375","5.03125","6.5"
"1574876135469","214","0.2109375","-0.9248047","0.31445312","13.125","1.5","5.53125"
"1574876135469","215","0.171875","-0.9160156","0.36523438","14.15625","7.03125","3.5"
"1574876135470","216","0.20410156","-0.9433594","0.33398438","16.03125","6.78125","4.46875"
"1574876135471","217","0.17089844","-0.9580078","0.37304688","14.28125","0.75","1.0625"
"1574876135471","218","0.16015625","-0.9580078","0.44628906","6.21875","1.1875","0.5625"
"1574876135472","219","0.19238281","-0.9589844","0.41308594","2.4375","0.25","0.09375"
"1574876135865","220","0.16503906","-0.9628906","0.40820312","-3.65625","-2.78125","0.5625"
"1574876135866","221","0.14746094","-0.95214844","0.39746094","-2.9375","0.75","-1.25"
"1574876135866","222","0.17089844","-0.9433594","0.3857422","-6.28125","2.21875","-2.1875"
"1574876135866","223","0.18554688","-0.93652344","0.35058594","-7.8125","2.28125","-4.84375"
"1574876135866","224","0.18261719","-0.9267578","0.32714844","-8.125","2.28125","-6.125"
"1574876135867","225","0.19824219","-0.9345703","0.31347656","-7.9375","0.8125","-5.96875"
"1574876135867","226","0.20117188","-0.93652344","0.29296875","-7.875","0.21875","-7.90625"
"1574876135867","227","0.2109375","-0.92285156","0.28808594","-8.5625","1.71875","-8.28125"
"1574876135868","228","0.23535156","-0.9345703","0.2685547","-9.28125","-0.28125","-7.59375"
"1574876135869","229","0.25097656","-0.9111328","0.25683594","-9.34375","1.78125","-7.78125"
"1574876136263","230","0.23925781","-0.91503906","0.25","-11.90625","-0.46875","-8.09375"
"1574876136264","231","0.27734375","-0.91308594","0.21972656","-13.3125","0.875","-8.875"
"1574876136264","232","0.26464844","-0.9667969","0.22460938","-13.5625","-1.9375","-8.59375"
"1574876136264","233","0.26953125","-0.9550781","0.19628906","-14.0","-0.96875","-10.09375"
"1574876136264","234","0.2890625","-0.9140625","0.16210938","-13.875","0.09375","-10.03125"
"1574876136265","235","0.3095703","-0.88964844","0.14453125","-16.3125","-1.25","-10.71875"
"1574876136265","236","0.31933594","-0.89453125","0.12109375","-20.5625","-4.1875","-10.96875"
"1574876136265","237","0.33496094","-0.9033203","0.07714844","-15.3125","-3.75","-9.6875"
"1574876136265","238","0.3544922","-0.9267578","0.11035156","-19.21875","-3.9375","-7.0625"
"1574876136266","239","0.33789062","-0.91503906","0.0703125","-13.8125","-9.4375","-8.75"
"1574876136860","240","0.3642578","-0.8925781","0.052734375","-9.90625","-7.71875","-5.40625"
"1574876136862","241","0.35253906","-0.9160156","0.061523438","-10.03125","-6.75","-7.78125"
"1574876136862","242","0.3515625","-0.8964844","0.0390625","-13.25","-7.3125","-6.6875"
"1574876136863","243","0.3779297","-0.89746094","0.0078125","-5.8125","-4.9375","-4.6875"
"1574876136863","244","0.32226562","-0.9033203","0.041992188","-14.34375","-5.71875","-5.71875"
"1574876136863","245","0.38085938","-0.9111328","-0.0048828125","-10.125","-0.09375","-3.09375"
"1574876136864","246","0.3466797","-0.9033203","0.0126953125","-8.90625","2.09375","-2.125"
"1574876136864","247","0.3857422","-0.91308594","0.0068359375","-4.09375","3.125","1.1875"
"1574876136864","248","0.35058594","-0.88378906","0.0234375","-3.78125","3.3125","1.4375"
"1574876136864","249","0.37695312","-0.9121094","-0.0146484375","2.5625","4.34375","4.0625"
"1574876137257","250","0.37597656","-0.91503906","-0.0029296875","3.09375","3.875","4.71875"
"1574876137257","251","0.36816406","-0.9091797","-0.005859375","5.375","2.53125","5.75"
"1574876137258","252","0.3466797","-0.9111328","0.02734375","6.8125","3.125","6.5625"
"1574876137259","253","0.36523438","-0.9121094","0.036132812","8.0","4.15625","7.21875"
"1574876137260","254","0.32421875","-0.9091797","0.032226562","10.625","2.15625","8.875"
"1574876137260","255","0.328125","-0.92089844","0.025390625","10.6875","4.0625","7.59375"
"1574876137260","256","0.35351562","-0.93066406","0.07421875","9.40625","4.71875","10.8125"
"1574876137260","257","0.2705078","-0.92578125","0.08105469","9.4375","5.03125","8.5625"
"1574876137261","258","0.3095703","-0.9296875","0.08984375","9.03125","8.1875","10.09375"
"1574876137261","259","0.3125","-0.9238281","0.095703125","9.75","4.84375","10.09375"
"1574876137850","260","0.30664062","-0.921875","0.11035156","11.03125","4.53125","10.59375"
"1574876137851","261","0.30664062","-0.9189453","0.111328125","14.46875","2.53125","12.125"
"1574876137851","262","0.23535156","-0.93359375","0.15722656","14.625","0.5625","10.40625"
"1574876137851","263","0.26660156","-0.94433594","0.15332031","13.25","0.9375","9.3125"
"1574876137851","264","0.23730469","-0.9433594","0.1953125","16.65625","-2.46875","9.90625"
"1574876137853","265","0.23242188","-0.9707031","0.21582031","11.78125","-2.375","8.4375"
"1574876137853","266","0.22753906","-0.9609375","0.23339844","11.96875","-8.21875","7.84375"
"1574876137853","267","0.21289062","-0.9375","0.29003906","10.78125","-4.96875","10.28125"
"1574876137854","268","0.19042969","-0.9658203","0.24121094","9.21875","-1.9375","4.25"
"1574876137854","269","0.22558594","-0.9082031","0.24902344","2.4375","-1.25","4.65625"
"1574876138052","270","0.2265625","-0.9296875","0.2421875","7.9375","-6.375","5.8125"
"1574876138052","271","0.16894531","-0.9345703","0.2919922","6.03125","-10.28125","3.125"
"1574876138053","272","0.16601562","-0.9736328","0.296875","5.5","-6.6875","3.3125"
"1574876138053","273","0.19238281","-0.96972656","0.2890625","6.09375","-1.8125","2.71875"
"1574876138053","274","0.20214844","-0.9550781","0.2607422","5.3125","-0.15625","1.78125"
"1574876138053","275","0.18652344","-0.9580078","0.2763672","5.96875","0.09375","0.6875"
"1574876138054","276","0.12988281","-0.9628906","0.32617188","1.625","-4.5625","0.8125"
"1574876138055","277","0.16796875","-0.9580078","0.34472656","2.875","-0.84375","0.4375"
"1574876138055","278","0.107421875","-0.98339844","0.3828125","-5.1875","-6.625","-3.5625"
"1574876138055","279","0.17089844","-0.99316406","0.328125","-9.15625","-4.125","-4.125"
"1574876138643","280","0.13964844","-1.0117188","0.34960938","-12.03125","-3.75","-4.625"
"1574876138644","281","0.19042969","-0.98339844","0.3095703","-8.1875","-1.875","-3.5"
"1574876138644","282","0.15722656","-0.9628906","0.2998047","-10.4375","-0.71875","-5.15625"
"1574876138644","283","0.19335938","-0.95214844","0.30371094","-13.9375","2.875","-6.4375"
"1574876138645","284","0.22363281","-0.9169922","0.22460938","-16.0625","3.4375","-8.40625"
"1574876138645","285","0.22949219","-0.9248047","0.20703125","-17.15625","-2.84375","-8.8125"
"1574876138645","286","0.21972656","-0.92578125","0.21289062","-11.0","-8.78125","-5.59375"
"1574876138645","287","0.23144531","-0.9511719","0.19042969","-12.15625","-2.84375","-8.03125"
"1574876138646","288","0.24121094","-0.94628906","0.15625","-9.71875","-1.625","-8.34375"
"1574876138648","289","0.27441406","-0.9628906","0.13378906","-11.40625","-0.28125","-8.8125"
"1574876138848","290","0.27246094","-0.94433594","0.13183594","-9.21875","0.21875","-9.0625"
"1574876138848","291","0.28125","-0.9501953","0.12597656","-12.53125","0.5625","-9.75"
"1574876138849","292","0.3017578","-0.9082031","0.072265625","-11.90625","-2.71875","-9.25"
"1574876138849","293","0.2939453","-0.90527344","0.078125","-10.5","0.21875","-11.625"
"1574876138849","294","0.34277344","-0.9238281","0.018554688","-10.4375","-1.03125","-10.71875"
"1574876138850","295","0.3330078","-0.9160156","0.0234375","-14.71875","-1.375","-10.28125"
"1574876138850","296","0.35351562","-0.9199219","0.0029296875","-9.34375","1.1875","-9.1875"
"1574876138850","297","0.3330078","-0.90527344","0.0068359375","-16.25","-4.9375","-7.84375"
"1574876138850","298","0.3623047","-0.9091797","-9.765625E-4","-11.96875","-5.84375","-5.71875"
"1574876138851","299","0.34765625","-0.9111328","-0.01171875","-8.8125","-6.15625","-5.03125"
"1574876139244","300","0.36523438","-0.9189453","-0.022460938","-6.21875","-3.65625","-4.3125"
"1574876139248","301","0.3515625","-0.91308594","-0.01953125","-4.59375","-5.21875","-1.875"
"1574876139249","302","0.3642578","-0.89746094","-0.030273438","-2.3125","-4.96875","-1.125"
"1574876139249","303","0.34472656","-0.9238281","-0.032226562","-1.84375","-3.15625","-2.21875"
"1574876139249","304","0.3408203","-0.9003906","-0.03125","-1.03125","-1.5","-0.84375"
"1574876139250","305","0.36621094","-0.9140625","-0.018554688","2.75","-0.03125","0.875"
"1574876139250","306","0.37597656","-0.91015625","-0.0126953125","2.5","0.9375","2.03125"
"1574876139250","307","0.3486328","-0.91015625","9.765625E-4","3.40625","-1.03125","2.90625"
"1574876139251","308","0.35253906","-0.92285156","-0.013671875","4.15625","-0.03125","3.6875"
"1574876139251","309","0.35058594","-0.9355469","-0.009765625","8.65625","1.3125","5.46875"
"1574876139641","310","0.33203125","-0.9316406","0.04296875","3.53125","1.0","5.59375"
"1574876139642","311","0.3232422","-0.92089844","0.0234375","5.59375","0.9375","7.46875"
"1574876139642","312","0.2939453","-0.94628906","0.06542969","2.25","2.875","4.65625"
"1574876139643","313","0.31835938","-0.9394531","0.030273438","1.46875","8.6875","6.1875"
"1574876139643","314","0.32714844","-0.9238281","0.056640625","0.78125","7.65625","6.96875"
"1574876139644","315","0.3251953","-0.9169922","0.03515625","10.84375","8.3125","9.125"
"1574876139644","316","0.3046875","-0.9375","0.07421875","10.0625","6.0","8.5625"
"1574876139644","317","0.30078125","-0.9267578","0.072265625","13.0","2.46875","9.4375"
"1574876139644","318","0.29296875","-0.94628906","0.08203125","11.03125","4.59375","9.0625"
"1574876139645","319","0.33007812","-0.92578125","0.06738281","20.0625","-1.0625","9.96875"
"1574876140038","320","0.24707031","-0.94921875","0.12988281","19.65625","-4.5","7.15625"
"1574876140039","321","0.2783203","-0.9501953","0.111328125","15.875","-3.09375","6.375"
"1574876140039","322","0.21289062","-0.93066406","0.15039062","11.28125","-11.09375","6.3125"
"1574876140039","323","0.2265625","-0.9453125","0.16894531","2.75","-8.84375","7.59375"
"1574876140039","324","0.23339844","-0.96875","0.18945312","8.15625","-8.875","9.4375"
"1574876140041","325","0.24804688","-0.94433594","0.17675781","8.53125","-2.0625","7.28125"
"1574876140041","326","0.22167969","-0.9824219","0.15234375","13.40625","1.71875","6.0"
"1574876140041","327","0.24023438","-0.9296875","0.17578125","8.65625","1.78125","4.90625"
"1574876140042","328","0.19824219","-0.9423828","0.19335938","14.75","-2.40625","5.6875"
"1574876140042","329","0.20117188","-0.93847656","0.21289062","14.6875","-4.1875","4.0"
"1574876140831","330","0.20019531","-0.9550781","0.20019531","17.5625","-8.40625","3.25"
"1574876140832","331","0.19726562","-0.96875","0.25976562","19.28125","-0.40625","2.59375"
"1574876140832","332","0.1328125","-0.9814453","0.28710938","17.875","7.71875","0.4375"
"1574876140832","333","0.22363281","-0.98046875","0.25390625","15.6875","9.46875","1.0625"
"1574876140833","334","0.16015625","-0.96875","0.3330078","6.34375","1.0","2.65625"
"1574876140833","335","0.16503906","-0.9423828","0.3564453","-4.46875","-7.59375","3.375"
"1574876140833","336","0.10546875","-0.95703125","0.36035156","0.71875","0.875","-0.53125"
"1574876140835","337","0.19140625","-0.96875","0.29785156","2.8125","5.5625","-1.3125"
"1574876140835","338","0.11621094","-0.97753906","0.4326172","-7.75","-4.5","-1.6875"
"1574876140835","339","0.16601562","-0.9736328","0.38183594","-9.40625","-4.6875","0.40625"
"1574876141031","340","0.16210938","-0.9873047","0.31152344","-8.5625","5.15625","-6.25"
"1574876141032","341","0.15527344","-0.9550781","0.3173828","-2.9375","6.0","-3.5"
"1574876141032","342","0.22460938","-0.9472656","0.24023438","-2.8125","13.4375","-7.1875"
"1574876141032","343","0.16601562","-0.8847656","0.32910156","-4.40625","-0.78125","-1.625"
"1574876141032","344","0.1875","-0.9033203","0.2529297","1.53125","4.71875","-2.0"
"1574876141033","345","0.1953125","-0.91503906","0.25195312","2.375","9.71875","-0.46875"
"1574876141033","346","0.19824219","-0.89746094","0.26171875","8.65625","8.8125","4.59375"
"1574876141033","347","0.19238281","-0.9082031","0.23339844","11.03125","15.84375","1.625"
"1574876141034","348","0.265625","-0.9404297","0.16113281","11.71875","16.125","6.125"
"1574876141035","349","0.33789062","-0.9716797","0.21972656","9.34375","1.375","3.5625"
"1574876141232","350","0.16601562","-0.97753906","0.22167969","4.375","-3.21875","1.71875"
"1574876141232","351","0.20703125","-0.90527344","0.23144531","4.6875","1.71875","-1.0"
"1574876141233","352","0.22363281","-0.9199219","0.1875","-8.625","-1.5625","-4.84375"
"1574876141233","353","0.2939453","-0.96191406","0.15722656","-10.25","-5.96875","-8.65625"
"1574876141233","354","0.20898438","-0.9248047","0.18457031","-15.75","-12.75","-10.84375"
"1574876141233","355","0.2685547","-0.93359375","0.15039062","-14.28125","-7.4375","-11.5"
"1574876141234","356","0.24121094","-0.9248047","0.14648438","-13.0625","-5.59375","-10.09375"
"1574876141234","357","0.27441406","-0.92089844","0.11425781","-15.09375","-3.6875","-9.75"
"1574876141234","358","0.32714844","-0.9511719","0.099609375","-17.03125","-1.5","-10.46875"
"1574876141234","359","0.26171875","-0.91796875","0.11816406","-17.40625","-2.53125","-7.84375"
"1574876141628","360","0.27539062","-0.9238281","0.09667969","-17.40625","0.03125","-7.96875"
"1574876141630","361","0.34179688","-0.9140625","0.068359375","-16.0625","1.71875","-6.9375"
"1574876141631","362","0.33203125","-0.88183594","0.06640625","-15.3125","-5.34375","-2.0"
"1574876141631","363","0.3671875","-0.9111328","0.0087890625","-14.21875","-10.59375","3.1875"
"1574876141632","364","0.32910156","-0.9824219","0.053710938","-0.125","-14.09375","0.6875"
"1574876141632","365","0.29882812","-0.9404297","0.061523438","-1.71875","-10.21875","1.0625"
"1574876141632","366","0.3359375","-0.9248047","0.0546875","0.65625","-10.46875","0.21875"
"1574876141632","367","0.3232422","-0.93652344","0.059570312","0.25","-16.75","-2.65625"
"1574876141633","368","0.29589844","-0.9189453","0.059570312","0.46875","-13.46875","0.03125"
"1574876141633","369","0.3076172","-0.8935547","0.078125","8.0","-11.46875","2.03125"
"1574876142027","370","0.26464844","-0.9326172","0.087890625","12.0625","-8.78125","3.0"
"1574876142028","371","0.2626953","-0.94628906","0.08496094","7.0","-2.1875","4.25"
"1574876142028","372","0.30664062","-0.9140625","0.107421875","9.40625","1.0625","6.0"
"1574876142029","373","0.2685547","-0.9199219","0.060546875","9.5625","0.03125","6.3125"
"1574876142029","374","0.33691406","-0.9433594","0.068359375","16.96875","-0.28125","7.15625"
"1574876142030","375","0.27539062","-0.93652344","0.10546875","10.0625","-6.625","5.03125"
"1574876142030","376","0.2607422","-0.92871094","0.15625","7.1875","-2.375","4.90625"
"1574876142031","377","0.2626953","-0.92871094","0.13476562","7.1875","-2.90625","4.40625"
"1574876142031","378","0.21875","-0.9296875","0.16796875","1.8125","-5.21875","5.59375"
"1574876142032","379","0.22753906","-0.93066406","0.19042969","3.53125","-4.625","3.3125"
"1574876142426","380","0.22167969","-0.953125","0.19042969","3.59375","0.9375","1.4375"
"1574876142426","381","0.23535156","-0.9277344","0.21484375","4.5","0.625","2.71875"
"1574876142426","382","0.21875","-0.94921875","0.24609375","6.71875","0.625","2.78125"
"1574876142427","383","0.19238281","-0.9560547","0.25976562","2.1875","0.5625","2.03125"
"1574876142427","384","0.22949219","-0.94628906","0.25585938","5.78125","0.6875","0.28125"
"1574876142429","385","0.17285156","-0.9794922","0.28515625","6.78125","-1.9375","0.5625"
"1574876142429","386","0.19433594","-0.96972656","0.265625","3.65625","6.78125","0.03125"
"1574876142429","387","0.18261719","-0.9589844","0.32226562","-8.0625","8.0625","-1.0625"
"1574876142430","388","0.1640625","-0.9511719","0.2890625","2.625","5.03125","-0.34375"
"1574876142430","389","0.18164062","-0.96875","0.31054688","-0.4375","5.625","-1.875"
"1574876143019","390","0.19726562","-0.9892578","0.30078125","-1.59375","3.1875","-2.34375"
"1574876143020","391","0.20019531","-0.9746094","0.29882812","-2.28125","1.65625","-2.71875"
"1574876143021","392","0.17675781","-0.9785156","0.29589844","0.125","0.8125","-1.3125"
"1574876143022","393","0.19921875","-0.9580078","0.2939453","-2.28125","1.0","-1.875"
"1574876143022","394","0.20410156","-0.9736328","0.27539062","-3.90625","0.21875","-2.46875"
"1574876143023","395","0.2109375","-0.9472656","0.26757812","-7.46875","-0.65625","-2.96875"
"1574876143023","396","0.18945312","-0.94433594","0.265625","-8.3125","-2.53125","-4.375"
"1574876143023","397","0.21386719","-0.94628906","0.22753906","-7.21875","-1.1875","-4.5625"
"1574876143024","398","0.21289062","-0.9580078","0.22167969","-10.25","-0.71875","-5.34375"
"1574876143024","399","0.21289062","-0.9501953","0.19824219","-11.90625","3.4375","-6.9375"
"1574876143218","400","0.24609375","-0.9482422","0.19433594","-15.875","6.625","-7.71875"
"1574876143218","401","0.24804688","-0.93652344","0.14746094","-14.65625","1.84375","-6.4375"
"1574876143219","402","0.2421875","-0.95214844","0.16699219","-16.78125","-0.28125","-7.78125"
"1574876143219","403","0.28125","-0.953125","0.11621094","-17.71875","-0.28125","-10.28125"
"1574876143219","404","0.27929688","-0.9482422","0.083984375","-19.59375","0.8125","-14.4375"
"1574876143219","405","0.3203125","-0.91796875","0.029296875","-18.25","-3.15625","-13.46875"
"1574876143220","406","0.33496094","-0.9248047","0.0234375","-16.375","-2.1875","-13.21875"
"1574876143220","407","0.3330078","-0.90527344","0.001953125","-15.4375","3.5","-9.1875"
"1574876143220","408","0.33496094","-0.88964844","-0.03515625","-17.03125","2.40625","-7.3125"
"1574876143221","409","0.38085938","-0.9169922","-0.033203125","-21.25","1.84375","-5.15625"
"1574876143617","410","0.3984375","-0.93359375","-0.07421875","-13.6875","1.0625","-5.96875"
"1574876143617","411","0.4033203","-0.9111328","-0.06933594","-15.28125","-3.40625","-6.3125"
"1574876143617","412","0.3935547","-0.90234375","-0.07324219","-3.65625","-9.375","-7.96875"
"1574876143618","413","0.35253906","-0.9316406","-0.06347656","-9.53125","-12.125","-7.71875"
"1574876143618","414","0.3779297","-0.91503906","-0.099609375","-5.4375","-9.9375","-5.53125"
"1574876143618","415","0.36035156","-0.8984375","-0.08886719","-5.8125","-6.375","-4.375"
"1574876143618","416","0.36328125","-0.9140625","-0.08691406","1.75","-4.5","-1.6875"
"1574876143618","417","0.35253906","-0.9033203","-0.057617188","-3.3125","-2.0","-0.28125"
"1574876143619","418","0.3701172","-0.9091797","-0.10253906","-0.6875","1.4375","0.6875"
"1574876143619","419","0.3623047","-0.90234375","-0.080078125","-2.4375","4.15625","0.21875"
"1574876144013","420","0.375","-0.9033203","-0.083984375","0.96875","2.875","3.4375"
"1574876144015","421","0.38867188","-0.90625","-0.07421875","7.125","5.875","4.125"
"1574876144016","422","0.37402344","-0.9160156","-0.08886719","7.625","5.34375","5.75"
"1574876144016","423","0.3720703","-0.890625","-0.07421875","13.71875","5.28125","7.59375"
"1574876144016","424","0.36621094","-0.8808594","-0.08203125","15.96875","5.5625","9.25"
"1574876144017","425","0.37402344","-0.8935547","-0.041992188","19.34375","7.15625","9.5"
"1574876144017","426","0.31640625","-0.8847656","-0.0107421875","12.03125","1.4375","9.65625"
"1574876144017","427","0.29101562","-0.92871094","0.026367188","12.3125","5.03125","12.96875"
"1574876144018","428","0.34765625","-0.96484375","0.01953125","17.5625","5.75","10.40625"
"1574876144018","429","0.27929688","-0.93066406","0.10058594","18.125","1.96875","9.1875"
"1574876145006","430","0.3076172","-0.9423828","0.08984375","26.3125","6.0625","12.15625"
"1574876145006","431","0.25878906","-0.94921875","0.15234375","23.96875","1.84375","9.84375"
"1574876145007","432","0.2607422","-0.9296875","0.14453125","21.96875","0.5625","10.71875"
"1574876145008","433","0.21484375","-0.94921875","0.2265625","20.0625","-4.875","10.34375"
"1574876145009","434","0.20996094","-0.9423828","0.22363281","13.3125","-2.0","9.78125"
"1574876145009","435","0.16699219","-0.9863281","0.23828125","7.9375","2.84375","5.46875"
"1574876145010","436","0.1796875","-0.9921875","0.2109375","0.65625","6.96875","3.8125"
"1574876145010","437","0.20410156","-0.9970703","0.2890625","3.03125","8.625","5.40625"
"1574876145010","438","0.13085938","-0.99121094","0.30664062","2.75","2.09375","6.375"
"1574876145010","439","0.25","-0.9628906","0.24316406","6.28125","4.34375","6.3125"
"1574876145204","440","0.23339844","-0.98339844","0.25097656","3.90625","1.125","1.90625"
"1574876145205","441","0.19042969","-0.9785156","0.28515625","-4.21875","-7.0","-0.9375"
"1574876145205","442","0.1484375","-0.96777344","0.26953125","-0.9375","-2.0","-3.9375"
"1574876145205","443","0.16699219","-0.96191406","0.28808594","-5.0","-2.90625","-3.9375"
"1574876145206","444","0.18066406","-0.9667969","0.24707031","-6.28125","-3.9375","-5.46875"
"1574876145207","445","0.1796875","-1.0058594","0.24121094","-6.34375","-1.9375","-5.65625"
"1574876145207","446","0.21191406","-1.0078125","0.234375","-7.15625","-1.3125","-4.8125"
"1574876145208","447","0.19921875","-0.9951172","0.25683594","-8.75","-2.25","-5.15625"
"1574876145208","448","0.22363281","-1.0029297","0.21386719","-9.90625","-1.875","-6.1875"
"1574876145208","449","0.21386719","-0.97753906","0.2109375","-16.625","-6.3125","-7.375"
"1574876145401","450","0.21191406","-0.9628906","0.17675781","-14.21875","-11.5","-7.0"
"1574876145401","451","0.2265625","-0.9404297","0.17285156","-12.9375","-8.65625","-4.5625"
"1574876145401","452","0.21679688","-0.96484375","0.13671875","-13.875","-3.75","-7.0"
"1574876145402","453","0.25683594","-0.96972656","0.119140625","-16.1875","-5.78125","-7.65625"
"1574876145402","454","0.22558594","-0.96484375","0.13183594","-19.0","-5.34375","-9.25"
"1574876145402","455","0.25878906","-0.96972656","0.08886719","-18.375","-2.96875","-9.0"
"1574876145403","456","0.26660156","-0.8925781","0.060546875","-12.09375","0.25","-7.90625"
"1574876145404","457","0.31835938","-0.9033203","0.07324219","3.65625","6.78125","-9.0"
"1574876145404","458","0.3125","-0.9345703","0.015625","2.5625","4.34375","-7.84375"
"1574876145404","459","0.3486328","-0.91015625","-0.015625","-6.0625","5.21875","-5.84375"
"1574876145603","460","0.3642578","-0.89746094","-0.06933594","-1.96875","-0.40625","-5.09375"
"1574876145605","461","0.34472656","-0.90722656","-0.0087890625","-7.03125","-1.125","-6.25"
"1574876145606","462","0.35742188","-0.8847656","-0.06347656","-10.5","6.0","-5.59375"
"1574876145606","463","0.41015625","-0.9091797","-0.061523438","-8.6875","4.125","-4.96875"
"1574876145606","464","0.34960938","-0.9316406","-0.064453125","-11.59375","0.5","-6.5625"
"1574876145606","465","0.37890625","-0.92871094","-0.0625","-11.90625","1.3125","-5.21875"
"1574876145606","466","0.39453125","-0.9169922","-0.087890625","-8.8125","2.40625","-4.625"
"1574876145607","467","0.38867188","-0.8935547","-0.061523438","-5.6875","-0.03125","-5.40625"
"1574876145607","468","0.37890625","-0.8935547","-0.068359375","-2.5","-3.75","-4.75"
"1574876145608","469","0.3828125","-0.9042969","-0.06542969","-1.28125","-4.125","-2.21875"
"1574876146002","470","0.3564453","-0.9111328","-0.068359375","-0.5625","-3.8125","-0.84375"
"1574876146002","471","0.3701172","-0.91503906","-0.060546875","0.84375","-2.0","1.5625"
"1574876146003","472","0.36914062","-0.9111328","-0.06640625","3.96875","-1.1875","1.90625"
"1574876146003","473","0.36914062","-0.9013672","-0.064453125","3.90625","-1.25","2.96875"
"1574876146003","474","0.37695312","-0.9013672","-0.06640625","7.5625","-1.875","4.3125"
"1574876146003","475","0.3623047","-0.9238281","-0.047851562","9.09375","-2.3125","4.90625"
"1574876146004","476","0.3486328","-0.9169922","-0.041992188","6.78125","-1.5","5.59375"
"1574876146004","477","0.34960938","-0.91015625","-0.036132812","11.96875","0.21875","6.4375"
"1574876146004","478","0.34765625","-0.9091797","-0.017578125","11.34375","-1.0625","7.28125"
"1574876146004","479","0.35058594","-0.9111328","-0.029296875","16.34375","1.90625","7.53125"
"1574876146400","480","0.3408203","-0.9013672","-0.0107421875","16.34375","0.15625","7.65625"
"1574876146401","481","0.31640625","-0.91503906","0.025390625","22.625","-3.46875","8.4375"
"1574876146402","482","0.28515625","-0.9355469","0.053710938","17.03125","-2.125","8.09375"
"1574876146402","483","0.2763672","-0.9433594","0.091796875","11.40625","-0.65625","8.5625"
"1574876146402","484","0.29589844","-0.953125","0.099609375","12.3125","3.8125","7.15625"
"1574876146402","485","0.25683594","-0.9609375","0.13769531","13.34375","1.4375","7.40625"
"1574876146403","486","0.26953125","-0.9472656","0.16601562","13.0","2.9375","7.71875"
"1574876146403","487","0.22851562","-0.95703125","0.18457031","10.5","1.3125","7.78125"
"1574876146403","488","0.24609375","-0.95703125","0.17578125","12.03125","0.03125","8.3125"
"1574876146404","489","0.22558594","-0.93359375","0.19140625","8.96875","-0.09375","8.5625"
"1574876146799","490","0.27148438","-0.9472656","0.16503906","20.5625","0.5","10.65625"
"1574876146799","491","0.21777344","-0.9736328","0.25097656","16.71875","-5.65625","11.0"
"1574876146799","492","0.18261719","-0.9873047","0.23828125","18.25","-2.78125","8.3125"
"1574876146800","493","0.18164062","-0.9560547","0.25097656","14.6875","-3.59375","8.625"
"1574876146801","494","0.19335938","-0.9873047","0.29003906","7.4375","-2.0","5.8125"
"1574876146801","495","0.20410156","-0.9609375","0.27246094","14.40625","-0.53125","3.5625"
"1574876146801","496","0.19042969","-0.9667969","0.27734375","7.1875","0.375","4.34375"
"1574876146801","497","0.19042969","-0.9482422","0.31152344","7.6875","0.6875","2.34375"
"1574876146802","498","0.16113281","-0.97753906","0.3359375","3.34375","2.28125","0.09375"
"1574876146802","499","0.17675781","-0.9707031","0.34375","-0.1875","1.125","-0.59375"
"1574876147199","500","0.19335938","-0.9794922","0.30371094","-0.5625","0.4375","-2.34375"
"1574876147199","501","0.16699219","-0.9746094","0.32421875","-5.9375","-0.90625","-3.34375"
"1574876147200","502","0.19238281","-0.97753906","0.28027344","-4.53125","0.09375","-4.375"
"1574876147200","503","0.21679688","-0.9550781","0.2548828","-6.71875","-2.53125","-4.3125"
"1574876147200","504","0.20117188","-0.9667969","0.26660156","-6.34375","-5.59375","-5.09375"
"1574876147201","505","0.18945312","-0.9638672","0.25683594","-10.03125","-2.65625","-6.09375"
"1574876147201","506","0.21484375","-0.9277344","0.19824219","-11.84375","-0.34375","-5.65625"
"1574876147202","507","0.22558594","-0.94628906","0.18945312","-9.46875","1.84375","-6.125"
"1574876147202","508","0.23242188","-0.9423828","0.20019531","-12.53125","-1.6875","-5.03125"
"1574876147202","509","0.234375","-0.9248047","0.18945312","-12.71875","-3.15625","-6.6875"
"1574876147591","510","0.24804688","-0.94628906","0.17773438","-13.75","-7.84375","-6.625"
"1574876147591","511","0.25097656","-0.9433594","0.15820312","-10.3125","-9.8125","-5.71875"
"1574876147591","512","0.24511719","-0.9482422","0.12597656","-6.34375","-5.59375","-5.84375"
"1574876147592","513","0.26464844","-0.91503906","0.14648438","-3.5625","-1.9375","-2.53125"
"1574876147592","514","0.25683594","-0.9111328","0.11621094","-4.46875","0.09375","-2.1875"
"1574876147592","515","0.26464844","-0.92871094","0.07910156","-13.5","5.28125","-0.78125"
"1574876147592","516","0.29589844","-0.9296875","0.07128906","-8.90625","1.71875","-4.5625"
"1574876147594","517","0.26757812","-0.93652344","0.0703125","-8.75","4.78125","-3.6875"
"1574876147594","518","0.2890625","-0.9248047","0.078125","-12.8125","5.5625","-4.375"
"1574876147594","519","0.3359375","-0.9609375","0.018554688","-13.125","9.125","-4.84375"
"1574876147990","520","0.34960938","-0.9482422","-0.00390625","-6.59375","4.0625","-4.5625"
"1574876147990","521","0.3232422","-0.91796875","0.016601562","-7.21875","5.875","-5.65625"
"1574876147991","522","0.3515625","-0.9042969","0.009765625","-6.1875","0.03125","-6.25"
"1574876147991","523","0.3330078","-0.9082031","0.0126953125","-5.6875","-6.5","-7.125"
"1574876147991","524","0.35546875","-0.92871094","-0.0087890625","0.53125","-8.78125","-7.3125"
"1574876147991","525","0.3544922","-0.9121094","-0.013671875","6.46875","-8.9375","-6.75"
"1574876147992","526","0.3515625","-0.91796875","-0.0126953125","7.5","-4.375","-5.03125"
"1574876147992","527","0.34472656","-0.9033203","0.026367188","4.3125","-5.59375","-3.09375"
"1574876147992","528","0.3408203","-0.90527344","0.0146484375","4.5625","-6.15625","-1.125"
"1574876147993","529","0.33691406","-0.9238281","0.021484375","1.59375","-3.34375","-0.53125"
"1574876148386","530","0.3544922","-0.9169922","0.01953125","3.15625","-4.3125","0.9375"
"1574876148387","531","0.31347656","-0.9189453","0.04296875","6.53125","-3.34375","1.78125"
"1574876148387","532","0.3408203","-0.92285156","0.038085938","7.875","2.09375","4.125"
"1574876148388","533","0.33496094","-0.9267578","0.05078125","8.28125","4.90625","5.34375"
"1574876148388","534","0.31933594","-0.9111328","0.049804688","11.71875","6.5","6.96875"
"1574876148388","535","0.3203125","-0.92285156","0.07128906","9.6875","8.75","8.15625"
"1574876148388","536","0.31347656","-0.9189453","0.07910156","13.96875","10.875","8.15625"
"1574876148389","537","0.30566406","-0.89746094","0.09375","14.75","8.125","10.15625"
"1574876148389","538","0.31445312","-0.9296875","0.11328125","15.875","8.4375","9.5"
"1574876148389","539","0.27734375","-0.9375","0.125","11.71875","7.78125","8.09375"
"1574876149178","540","0.27148438","-0.9140625","0.14355469","12.5","7.15625","8.3125"
"1574876149178","541","0.26757812","-0.9160156","0.15039062","13.25","7.78125","6.6875"
"1574876149179","542","0.2685547","-0.93359375","0.17871094","12.75","2.875","5.28125"
"1574876149179","543","0.23242188","-0.92578125","0.19433594","9.40625","-1.3125","4.3125"
"1574876149180","544","0.22753906","-0.93359375","0.234375","5.25","-4.0","4.90625"
"1574876149180","545","0.1640625","-0.93847656","0.23828125","8.59375","-7.375","2.59375"
"1574876149180","546","0.20019531","-0.9482422","0.26660156","4.15625","-2.71875","1.78125"
"1574876149181","547","0.18359375","-0.97265625","0.28027344","11.78125","-3.28125","4.65625"
"1574876149182","548","0.17578125","-0.9824219","0.30078125","9.6875","-5.84375","4.0625"
"1574876149182","549","0.20019531","-0.97265625","0.2783203","8.28125","-0.71875","6.3125"
"1574876149182","550","0.22460938","-0.98339844","0.33398438","11.78125","-2.0","3.875"
"1574876149182","551","0.13964844","-0.96484375","0.33789062","3.21875","-6.28125","0.6875"
"1574876149183","552","0.20410156","-0.9501953","0.3251953","4.75","-2.59375","1.25"
"1574876149183","553","0.18457031","-0.9375","0.31152344","2.125","-1.4375","0.03125"
"1574876149183","554","0.17089844","-0.95214844","0.34570312","-0.625","-6.625","-0.03125"
"1574876149184","555","0.17480469","-0.9199219","0.29589844","4.09375","-0.34375","0.5625"
"1574876149184","556","0.21386719","-0.984375","0.36523438","-4.28125","-1.4375","0.8125"
"1574876149184","557","0.21777344","-0.97265625","0.32226562","-1.21875","-0.40625","-1.0"
"1574876149184","558","0.16894531","-0.9736328","0.31835938","-8.3125","-4.6875","-4.3125"
"1574876149185","559","0.24414062","-0.9589844","0.32421875","-8.25","-1.875","-2.40625"
"1574876149578","560","0.19042969","-0.9355469","0.2548828","-10.4375","-6.15625","-5.09375"
"1574876149578","561","0.24707031","-0.93066406","0.25195312","-7.09375","-5.59375","-3.625"
"1574876149579","562","0.21289062","-0.92285156","0.24414062","-8.8125","-6.09375","-4.0625"
"1574876149579","563","0.22949219","-0.921875","0.22558594","-8.5","-2.96875","-6.25"
"1574876149579","564","0.24414062","-0.95996094","0.234375","-9.71875","-3.03125","-5.53125"
"1574876149580","565","0.24316406","-0.9628906","0.22753906","-15.15625","-2.59375","-6.5"
"1574876149580","566","0.21875","-0.9794922","0.2529297","-23.125","-6.28125","-9.0625"
"1574876149580","567","0.23242188","-0.92871094","0.23242188","-24.46875","-7.90625","-7.90625"
"1574876149581","568","0.2421875","-0.94433594","0.16601562","-13.1875","-6.6875","-9.9375"
"1574876149581","569","0.25976562","-0.95410156","0.18457031","-20.34375","-10.46875","-11.21875"
