"# PR data"
"# Start time: 20191120T171302"
"# Subject: andrius"
"# Activity type: Wall push offs"
"# Correctness: Incorrect"
"# Notes: "
""
"timestamp","seq","accel_x","accel_y","accel_z","gyro_x","gyro_y","gyro_z"
"1574269982327","0","0.21972656","-0.89746094","-0.0078125","-5.75","12.5625","-0.4375"
"1574269982327","1","0.21875","-0.8876953","0.013671875","-4.28125","4.75","-6.3125"
"1574269982327","2","0.234375","-0.89453125","0.018554688","-2.6875","-1.65625","-6.59375"
"1574269982328","3","0.1953125","-0.9091797","0.009765625","-1.59375","-6.1875","-6.90625"
"1574269982328","4","0.17871094","-0.90625","0.0107421875","0.15625","-4.21875","-8.0"
"1574269982328","5","0.22558594","-0.8886719","-0.005859375","1.09375","-3.375","-2.34375"
"1574269982328","6","0.20605469","-0.9042969","0.018554688","-3.0625","-3.75","-3.375"
"1574269982329","7","0.18261719","-0.90625","-0.0126953125","3.09375","0.34375","-1.53125"
"1574269982329","8","0.21484375","-0.90722656","0.01953125","-1.96875","-0.25","-0.5625"
"1574269982329","9","0.19824219","-0.9121094","0.0146484375","-0.125","0.71875","-1.96875"
"1574269983123","10","0.20117188","-0.9199219","0.013671875","2.1875","3.65625","0.09375"
"1574269983123","11","0.20800781","-0.90625","0.033203125","4.8125","5.34375","-0.3125"
"1574269983123","12","0.203125","-0.90722656","0.021484375","-0.625","0.03125","-2.34375"
"1574269983125","13","0.18847656","-0.9003906","0.01953125","-0.6875","1.5625","-3.375"
"1574269983125","14","0.234375","-0.9091797","0.05859375","-4.53125","0.21875","-0.4375"
"1574269983125","15","0.203125","-0.8935547","0.03125","-5.875","-3.5","-2.9375"
"1574269983126","16","0.19921875","-0.9042969","-0.0068359375","-1.65625","-1.53125","-2.34375"
"1574269983126","17","0.21972656","-0.8857422","0.034179688","-1.0625","-5.25","-2.6875"
"1574269983126","18","0.22167969","-0.8984375","9.765625E-4","-0.5","-5.9375","-3.90625"
"1574269983126","19","0.23339844","-0.8925781","0.0","5.28125","-10.75","-2.46875"
"1574269983318","20","0.25878906","-0.89453125","0.03515625","10.40625","-15.53125","-2.09375"
"1574269983318","21","0.22851562","-0.90234375","0.021484375","11.875","-17.40625","-0.875"
"1574269983318","22","0.20410156","-0.9296875","0.044921875","10.78125","-19.25","-1.84375"
"1574269983319","23","0.171875","-0.9277344","0.0546875","9.09375","-17.28125","-2.9375"
"1574269983319","24","0.18847656","-0.90234375","0.040039062","8.40625","-9.96875","-1.46875"
"1574269983319","25","0.203125","-0.91308594","0.0625","0.78125","-6.3125","0.46875"
"1574269983320","26","0.17578125","-0.91796875","0.049804688","-2.03125","-1.0625","1.6875"
"1574269983320","27","0.16992188","-0.9033203","0.044921875","-3.0625","5.34375","1.875"
"1574269983320","28","0.19921875","-0.9003906","0.038085938","-3.8125","7.5625","0.96875"
"1574269983320","29","0.22070312","-0.9111328","0.024414062","-7.28125","6.5","1.3125"
"1574269983518","30","0.21484375","-0.90625","0.048828125","-6.65625","7.5625","0.65625"
"1574269983519","31","0.19140625","-0.8984375","0.049804688","-6.65625","3.40625","-5.5"
"1574269983519","32","0.20410156","-0.92285156","0.017578125","0.0","2.65625","-4.03125"
"1574269983519","33","0.1875","-0.8886719","0.049804688","0.40625","4.1875","-4.28125"
"1574269983519","34","0.23144531","-0.9003906","0.03515625","-1.46875","6.875","-0.625"
"1574269983520","35","0.24023438","-0.91503906","0.026367188","0.40625","9.375","3.03125"
"1574269983520","36","0.20507812","-0.9013672","0.045898438","-0.625","4.5","0.90625"
"1574269983521","37","0.18457031","-0.9013672","0.041015625","-0.9375","3.9375","0.96875"
"1574269983522","38","0.19824219","-0.91503906","0.049804688","-1.71875","5.59375","-1.71875"
"1574269983522","39","0.21875","-0.9082031","0.038085938","-2.03125","3.71875","-1.34375"
"1574269983916","40","0.18945312","-0.9121094","0.0390625","-4.65625","2.3125","-3.6875"
"1574269983916","41","0.21289062","-0.91015625","0.04296875","-4.34375","4.75","-1.0625"
"1574269983916","42","0.17089844","-0.921875","0.048828125","-6.53125","4.9375","-3.75"
"1574269983917","43","0.19433594","-0.8964844","0.022460938","-7.21875","11.53125","-0.5625"
"1574269983917","44","0.21875","-0.9033203","0.033203125","-9.46875","12.1875","0.0"
"1574269983917","45","0.2109375","-0.9091797","0.015625","-5.4375","12.4375","0.71875"
"1574269983918","46","0.20019531","-0.8955078","0.005859375","-0.25","14.9375","-0.1875"
"1574269983918","47","0.23535156","-0.8886719","0.024414062","0.0","13.53125","0.0"
"1574269983918","48","0.24804688","-0.8886719","0.022460938","-1.3125","8.09375","-1.59375"
"1574269983919","49","0.24804688","-0.90625","-0.00390625","1.5625","6.46875","0.96875"
"1574269984513","50","0.22851562","-0.88964844","0.036132812","3.65625","1.15625","-0.5625"
"1574269984514","51","0.20410156","-0.89160156","0.020507812","6.9375","0.65625","0.03125"
"1574269984514","52","0.20703125","-0.90527344","0.025390625","6.34375","1.5","1.4375"
"1574269984514","53","0.2265625","-0.8857422","0.03515625","8.03125","6.03125","2.5625"
"1574269984514","54","0.20117188","-0.88183594","0.025390625","4.4375","3.21875","2.0625"
"1574269984515","55","0.19238281","-0.9082031","0.036132812","4.1875","9.6875","4.375"
"1574269984515","56","0.24121094","-0.9238281","0.038085938","2.0","13.40625","4.75"
"1574269984515","57","0.21679688","-0.8876953","0.038085938","3.90625","10.71875","5.78125"
"1574269984515","58","0.21289062","-0.9121094","0.10449219","-7.71875","10.96875","5.53125"
"1574269984516","59","0.27246094","-0.9375","0.032226562","-3.875","5.28125","8.03125"
"1574269984713","60","0.10839844","-0.8955078","0.08984375","16.40625","12.5","3.34375"
"1574269984714","61","0.11816406","-0.9169922","0.09667969","-8.0625","6.875","6.9375"
"1574269984714","62","0.1796875","-0.9111328","0.041992188","-6.65625","11.53125","1.75"
"1574269984715","63","0.23925781","-0.9375","0.06933594","4.125","7.25","11.71875"
"1574269984715","64","0.13085938","-0.8828125","0.0546875","12.375","7.625","5.90625"
"1574269984715","65","0.12011719","-0.92089844","0.08886719","9.5","7.5","5.40625"
"1574269984715","66","0.15917969","-0.9189453","0.07519531","18.28125","10.46875","8.84375"
"1574269984716","67","0.20800781","-0.8857422","0.12109375","0.0","8.59375","9.8125"
"1574269984716","68","0.13476562","-0.92285156","0.07519531","19.8125","8.03125","10.46875"
"1574269984716","69","0.038085938","-0.9169922","0.16503906","9.375","15.0","0.0"
"1574269985304","70","0.17773438","-0.9042969","0.12109375","-0.75","6.75","8.46875"
"1574269985305","71","0.103515625","-0.9580078","0.12207031","14.5","17.1875","4.3125"
"1574269985305","72","0.14257812","-0.8955078","0.13574219","2.1875","7.125","9.5625"
"1574269985306","73","0.1328125","-0.9140625","0.123046875","19.6875","13.03125","9.9375"
"1574269985306","74","0.19335938","-0.8964844","0.15527344","1.8125","10.71875","10.71875"
"1574269985306","75","0.037109375","-0.9404297","0.12695312","21.34375","11.28125","7.90625"
"1574269985307","76","0.061523438","-0.85253906","0.15136719","12.0625","15.4375","3.65625"
"1574269985307","77","0.13183594","-0.9453125","0.1953125","10.0625","5.125","12.75"
"1574269985307","78","0.14160156","-0.92089844","0.16992188","10.375","13.96875","8.21875"
"1574269985308","79","-0.00390625","-0.9091797","0.20019531","11.28125","2.5625","3.46875"
"1574269985506","80","0.055664062","-0.9140625","0.20800781","4.0","4.5625","9.5"
"1574269985506","81","0.05078125","-0.9433594","0.171875","9.25","12.5","0.15625"
"1574269985507","82","0.034179688","-0.9628906","0.2890625","6.5","-2.09375","2.25"
"1574269985507","83","0.001953125","-0.8984375","0.24902344","3.59375","-7.875","2.0625"
"1574269985507","84","-0.033203125","-0.95214844","0.21191406","4.5","-6.0625","-7.15625"
"1574269985508","85","-9.765625E-4","-0.9042969","0.30859375","1.28125","-8.4375","1.875"
"1574269985508","86","0.041015625","-0.8935547","0.24902344","4.8125","0.28125","-4.09375"
"1574269985508","87","0.043945312","-0.92871094","0.25097656","3.03125","2.71875","2.3125"
"1574269985509","88","0.025390625","-0.88964844","0.2626953","-1.65625","2.375","3.59375"
"1574269985509","89","0.0068359375","-0.9501953","0.26757812","-1.34375","5.1875","2.0"
"1574269986103","90","-0.030273438","-0.9140625","0.24902344","-2.40625","8.40625","-3.625"
"1574269986104","91","0.07714844","-0.9121094","0.25878906","-2.59375","1.75","-0.25"
"1574269986104","92","0.03515625","-0.92578125","0.25195312","-1.59375","4.1875","-8.375"
"1574269986104","93","0.028320312","-0.921875","0.2109375","2.4375","4.3125","-6.90625"
"1574269986104","94","0.056640625","-0.9042969","0.29101562","-17.65625","-0.3125","-9.90625"
"1574269986105","95","0.07128906","-0.95410156","0.21875","-5.875","-0.625","-8.75"
"1574269986105","96","0.033203125","-0.91015625","0.18457031","-8.0625","-0.0625","-16.3125"
"1574269986106","97","0.0546875","-0.9082031","0.21484375","-6.53125","7.1875","-9.34375"
"1574269986107","98","0.07128906","-0.94140625","0.18457031","-7.40625","-3.5625","-13.9375"
"1574269986107","99","0.16308594","-0.8857422","0.18847656","-9.71875","-0.0625","-10.40625"
"1574269986301","100","0.13769531","-0.8955078","0.20507812","-5.21875","-1.78125","-12.78125"
"1574269986301","101","0.12011719","-0.90234375","0.19726562","-8.5625","-3.1875","-9.34375"
"1574269986301","102","0.11621094","-0.9199219","0.19726562","-7.59375","-3.25","-10.6875"
"1574269986302","103","0.13183594","-0.90234375","0.17871094","-4.71875","-3.25","-17.34375"
"1574269986302","104","0.16503906","-0.90625","0.14941406","-3.875","-6.375","-10.09375"
"1574269986302","105","0.15722656","-0.9140625","0.18261719","-12.59375","-8.5","-15.9375"
"1574269986302","106","0.19042969","-0.8925781","0.16796875","-1.34375","-4.65625","-13.75"
"1574269986303","107","0.15332031","-0.93847656","0.1796875","-7.9375","-13.125","-14.34375"
"1574269986303","108","0.22558594","-0.8798828","0.119140625","-7.53125","-1.53125","-13.9375"
"1574269986304","109","0.2109375","-0.94628906","0.1640625","-8.5625","-9.40625","-8.6875"
"1574269986699","110","0.23730469","-0.8671875","0.16015625","-14.0","-4.84375","-14.65625"
"1574269986700","111","0.19628906","-0.9238281","0.13867188","-1.25","-4.90625","-9.78125"
"1574269986700","112","0.20019531","-0.859375","0.11425781","-3.90625","-4.84375","-13.75"
"1574269986700","113","0.23730469","-0.9199219","0.11035156","0.65625","4.4375","-5.21875"
"1574269986700","114","0.2890625","-0.8769531","0.14550781","-7.15625","0.09375","-5.3125"
"1574269986701","115","0.24414062","-0.90527344","0.14257812","0.21875","4.9375","-2.09375"
"1574269986701","116","0.22167969","-0.9003906","0.13085938","-1.71875","-2.03125","-6.4375"
"1574269986701","117","0.24316406","-0.87890625","0.13671875","-1.0625","7.75","0.46875"
"1574269986701","118","0.2763672","-0.8964844","0.13183594","-0.4375","-1.0","-0.5"
"1574269986702","119","0.2421875","-0.94140625","0.13964844","0.40625","-1.90625","-2.21875"
"1574269987296","120","0.24023438","-0.8720703","0.14160156","-0.5","-1.46875","-5.21875"
"1574269987297","121","0.24707031","-0.88964844","0.11035156","1.9375","-3.8125","1.875"
"1574269987298","122","0.25195312","-0.92089844","0.14941406","-5.09375","-2.9375","-5.03125"
"1574269987298","123","0.265625","-0.91503906","0.10058594","3.46875","-2.34375","6.28125"
"1574269987298","124","0.22070312","-0.89746094","0.16601562","-5.15625","-0.9375","-3.96875"
"1574269987299","125","0.26464844","-0.89453125","0.10546875","-1.53125","-2.6875","6.46875"
"1574269987299","126","0.24121094","-0.9111328","0.14355469","-5.15625","-2.53125","1.75"
"1574269987299","127","0.24316406","-0.890625","0.10644531","-2.03125","2.375","5.0"
"1574269987300","128","0.28027344","-0.90625","0.119140625","-2.75","-3.3125","11.03125"
"1574269987300","129","0.24023438","-0.8925781","0.12011719","-7.53125","-2.8125","7.375"
"1574269987493","130","0.19433594","-0.8925781","0.10644531","-0.5","-1.71875","7.90625"
"1574269987493","131","0.21289062","-0.92089844","0.125","-0.625","1.625","8.84375"
"1574269987493","132","0.25","-0.9169922","0.1328125","0.46875","2.65625","11.03125"
"1574269987494","133","0.2265625","-0.8779297","0.15527344","-4.34375","0.71875","13.28125"
"1574269987495","134","0.115234375","-0.9326172","0.119140625","4.625","-0.125","5.90625"
"1574269987495","135","0.15625","-0.9169922","0.12402344","4.8125","3.21875","7.6875"
"1574269987495","136","0.15234375","-0.9267578","0.16210938","8.71875","6.34375","6.21875"
"1574269987496","137","0.14746094","-0.8857422","0.15917969","5.125","6.03125","3.03125"
"1574269987496","138","0.12597656","-0.9316406","0.16113281","2.71875","13.96875","4.8125"
"1574269987496","139","0.17285156","-0.91308594","0.14746094","-1.53125","10.78125","7.25"
"1574269988091","140","0.15722656","-0.9003906","0.1484375","2.65625","10.0625","8.03125"
"1574269988091","141","0.14746094","-0.9189453","0.15429688","4.5625","8.03125","10.0625"
"1574269988091","142","0.115234375","-0.9121094","0.15332031","8.46875","6.5625","5.78125"
"1574269988092","143","0.13574219","-0.91015625","0.16796875","9.9375","8.59375","8.84375"
"1574269988092","144","0.12011719","-0.9082031","0.14160156","10.46875","8.71875","6.09375"
"1574269988093","145","0.08203125","-0.953125","0.19628906","11.53125","15.5","8.46875"
"1574269988094","146","0.16210938","-0.875","0.18847656","-3.6875","17.125","9.03125"
"1574269988094","147","0.08886719","-0.97265625","0.15429688","11.28125","4.125","9.5"
"1574269988094","148","0.059570312","-0.9082031","0.21875","6.34375","5.21875","1.5625"
"1574269988095","149","0.07910156","-0.8935547","0.19042969","1.21875","1.09375","3.34375"
"1574269988288","150","0.1171875","-0.9453125","0.19335938","-0.4375","-2.40625","3.40625"
"1574269988289","151","0.0068359375","-0.9140625","0.234375","-2.09375","-4.65625","-3.625"
"1574269988289","152","0.068359375","-0.87109375","0.19335938","-3.75","5.28125","3.46875"
"1574269988289","153","0.056640625","-0.96484375","0.19042969","-1.0","-3.3125","3.71875"
"1574269988290","154","0.095703125","-0.9296875","0.19628906","6.5625","13.65625","4.4375"
"1574269988290","155","0.018554688","-0.8798828","0.27148438","-4.90625","1.6875","4.3125"
"1574269988290","156","0.056640625","-0.9482422","0.22167969","-1.25","4.9375","2.65625"
"1574269988291","157","0.08691406","-0.9296875","0.24511719","1.625","3.40625","2.5625"
"1574269988292","158","-0.03515625","-0.9082031","0.25878906","-6.25","0.46875","-5.8125"
"1574269988292","159","0.047851562","-0.9628906","0.21777344","2.5625","0.21875","1.3125"
"1574269988686","160","-0.029296875","-0.92285156","0.25390625","-7.53125","7.1875","-11.5625"
"1574269988687","161","0.07519531","-0.9326172","0.20703125","-3.375","2.78125","-2.15625"
"1574269988687","162","0.049804688","-0.9189453","0.23339844","-5.5","2.90625","-7.34375"
"1574269988687","163","0.060546875","-0.9238281","0.20898438","-9.78125","3.34375","-7.59375"
"1574269988688","164","0.055664062","-0.92578125","0.19628906","-4.34375","-2.8125","-11.125"
"1574269988688","165","0.08691406","-0.9091797","0.19238281","-8.375","-4.21875","-8.8125"
"1574269988688","166","0.10058594","-0.91796875","0.19824219","-10.09375","-6.1875","-9.53125"
"1574269988688","167","0.06738281","-0.9345703","0.17578125","-10.5625","-8.6875","-8.5"
"1574269988689","168","0.1015625","-0.9160156","0.15917969","-18.21875","-4.90625","-12.28125"
"1574269988689","169","0.12695312","-0.9140625","0.14550781","-10.6875","-7.09375","-10.625"
"1574269989280","170","0.12890625","-0.92578125","0.16894531","-15.875","-6.25","-15.21875"
"1574269989281","171","0.14550781","-0.9082031","0.12207031","-11.71875","-8.0","-11.125"
"1574269989281","172","0.14550781","-0.91503906","0.11816406","-11.3125","-6.78125","-13.875"
"1574269989281","173","0.15625","-0.9082031","0.09472656","-5.03125","-4.15625","-7.78125"
"1574269989281","174","0.18554688","-0.91796875","0.11230469","-11.6875","-8.25","-9.15625"
"1574269989282","175","0.15917969","-0.9082031","0.08105469","0.71875","-2.59375","-6.53125"
"1574269989282","176","0.14941406","-0.87890625","0.091796875","-9.71875","-1.53125","-9.28125"
"1574269989282","177","0.20800781","-0.9121094","0.07714844","-3.1875","1.5625","-2.6875"
"1574269989283","178","0.19433594","-0.91796875","0.061523438","-1.34375","0.59375","-8.1875"
"1574269989283","179","0.20410156","-0.8828125","0.091796875","-0.8125","3.71875","-2.34375"
"1574269989480","180","0.19921875","-0.9169922","0.076171875","-0.1875","3.34375","-5.21875"
"1574269989482","181","0.19042969","-0.92089844","0.076171875","1.8125","8.46875","-4.09375"
"1574269989482","182","0.1953125","-0.9140625","0.111328125","1.375","10.1875","-6.78125"
"1574269989483","183","0.21484375","-0.890625","0.08691406","4.4375","9.6875","-2.875"
"1574269989483","184","0.24023438","-0.9375","0.107421875","7.625","3.34375","-7.28125"
"1574269989483","185","0.19921875","-0.8876953","0.09277344","5.21875","5.34375","-7.65625"
"1574269989484","186","0.17773438","-0.90234375","0.115234375","2.84375","2.5625","-9.0"
"1574269989484","187","0.23046875","-0.90625","0.10644531","-5.15625","3.34375","-10.5"
"1574269989484","188","0.19921875","-0.9296875","0.111328125","-4.34375","0.28125","-10.4375"
"1574269989484","189","0.25976562","-0.88183594","0.09082031","7.6875","7.5","-6.96875"
"1574269989878","190","0.20117188","-0.9345703","0.15625","1.375","4.25","-7.15625"
"1574269989878","191","0.21875","-0.8730469","0.10644531","0.65625","9.6875","-10.21875"
"1574269989878","192","0.2529297","-0.9189453","0.119140625","5.59375","9.03125","-2.09375"
"1574269989879","193","0.25195312","-0.8984375","0.111328125","6.46875","7.5","-5.375"
"1574269989880","194","0.22558594","-0.921875","0.12988281","13.28125","11.9375","-6.78125"
"1574269989880","195","0.22363281","-0.8671875","0.15332031","0.84375","7.90625","-6.65625"
"1574269989880","196","0.2861328","-0.8984375","0.1796875","5.59375","8.46875","-3.0"
"1574269989881","197","0.265625","-0.89453125","0.15625","-3.75","0.96875","-6.3125"
"1574269989881","198","0.265625","-0.90527344","0.12402344","3.65625","3.40625","-1.96875"
"1574269989881","199","0.26660156","-0.8720703","0.1640625","-3.125","1.28125","-3.25"
"1574269990277","200","0.28125","-0.9013672","0.15039062","-0.9375","1.09375","-1.84375"
"1574269990277","201","0.28320312","-0.8828125","0.15625","-5.625","-0.8125","1.5625"
"1574269990277","202","0.25878906","-0.921875","0.140625","-1.53125","-2.21875","1.625"
"1574269990278","203","0.24414062","-0.8769531","0.13867188","-9.0625","-2.21875","-0.5625"
"1574269990278","204","0.26953125","-0.9238281","0.123046875","-4.78125","-2.34375","3.71875"
"1574269990279","205","0.2626953","-0.890625","0.12890625","-7.09375","-0.25","0.21875"
"1574269990280","206","0.21972656","-0.9121094","0.13671875","-3.625","1.9375","0.03125"
"1574269990280","207","0.2626953","-0.89160156","0.12597656","0.09375","4.75","4.5625"
"1574269990280","208","0.22460938","-0.93359375","0.15722656","-4.90625","1.28125","-4.59375"
"1574269990281","209","0.23828125","-0.8544922","0.14648438","-8.875","1.28125","-5.875"
"1574269990674","210","0.2919922","-0.9316406","0.10644531","-7.8125","-7.15625","5.0"
"1574269990675","211","0.23925781","-0.91796875","0.11621094","-2.15625","-5.09375","-5.875"
"1574269990675","212","0.21289062","-0.875","0.125","-1.71875","1.28125","-4.65625"
"1574269990675","213","0.28125","-0.88671875","0.107421875","-5.4375","-1.34375","2.3125"
"1574269990676","214","0.30078125","-0.9140625","0.119140625","-5.6875","-5.375","-1.84375"
"1574269990676","215","0.22558594","-0.8808594","0.07910156","-1.65625","-4.46875","1.625"
"1574269990676","216","0.18847656","-0.9013672","0.09667969","0.0","0.53125","-1.0625"
"1574269990677","217","0.31347656","-0.890625","0.111328125","-2.28125","9.3125","5.78125"
"1574269990678","218","0.2607422","-0.9355469","0.10449219","0.90625","6.09375","2.0625"
"1574269990678","219","0.28515625","-0.8808594","0.09375","0.03125","6.46875","12.25"
"1574269991468","220","0.19726562","-0.8935547","0.12402344","-5.03125","4.75","5.0"
"1574269991469","221","0.23828125","-0.91015625","0.076171875","2.5","8.21875","8.28125"
"1574269991469","222","0.24023438","-0.8955078","0.09765625","6.75","-0.8125","6.6875"
"1574269991469","223","0.27539062","-0.89453125","0.103515625","9.03125","7.5","13.03125"
"1574269991470","224","0.14355469","-0.92089844","0.13476562","6.40625","-0.375","1.75"
"1574269991470","225","0.23046875","-0.89160156","0.11035156","17.1875","13.40625","10.46875"
"1574269991471","226","0.22558594","-0.9394531","0.12695312","10.0625","8.59375","15.71875"
"1574269991471","227","0.21875","-0.89941406","0.13671875","10.1875","13.28125","13.15625"
"1574269991472","228","0.0859375","-0.9238281","0.1953125","4.75","0.84375","3.90625"
"1574269991472","229","0.16113281","-0.8798828","0.13378906","11.15625","9.25","5.34375"
"1574269991862","230","0.20019531","-0.9501953","0.18457031","11.28125","12.25","9.125"
"1574269991862","231","0.21191406","-0.90527344","0.18945312","11.53125","4.5625","4.5625"
"1574269991864","232","0.16210938","-0.8955078","0.21582031","26.59375","19.09375","9.03125"
"1574269991864","233","0.091796875","-0.8886719","0.21875","10.84375","6.8125","1.375"
"1574269991864","234","0.076171875","-0.97265625","0.24609375","15.84375","8.03125","0.21875"
"1574269991865","235","0.18359375","-0.8779297","0.265625","10.3125","-2.59375","-1.96875"
"1574269991865","236","0.14746094","-0.9013672","0.265625","12.1875","2.3125","9.9375"
"1574269991865","237","0.13964844","-0.90234375","0.25390625","2.3125","-0.5","4.3125"
"1574269991865","238","0.06738281","-0.9248047","0.24804688","6.03125","-0.8125","-0.125"
"1574269991866","239","0.15039062","-0.87890625","0.25683594","8.03125","6.46875","9.5625"
"1574269991868","240","0.123046875","-0.93652344","0.25976562","11.40625","2.3125","6.5625"
"1574269991869","241","0.123046875","-0.8857422","0.28320312","9.6875","4.75","4.3125"
"1574269991870","242","0.09472656","-0.8876953","0.30664062","0.46875","5.53125","6.6875"
"1574269991870","243","0.15527344","-0.8935547","0.2841797","-2.625","6.875","9.5"
"1574269991870","244","0.109375","-0.9658203","0.28710938","-5.75","-1.1875","2.71875"
"1574269991871","245","0.13378906","-0.8623047","0.296875","-17.46875","0.40625","6.875"
"1574269991871","246","0.044921875","-0.9433594","0.24511719","4.6875","-8.8125","-1.78125"
"1574269991871","247","0.02734375","-0.93066406","0.21875","9.625","-6.90625","-3.25"
"1574269991871","248","0.12597656","-0.8886719","0.2998047","-3.96875","4.0","1.6875"
"1574269991872","249","0.09667969","-0.8935547","0.29882812","-1.96875","-1.65625","3.46875"
"1574269992264","250","0.028320312","-0.91796875","0.28222656","-6.25","3.15625","-1.125"
"1574269992264","251","0.06542969","-0.94433594","0.27441406","-8.8125","7.3125","6.875"
"1574269992264","252","0.08886719","-0.8955078","0.26660156","-5.875","12.5625","-1.59375"
"1574269992266","253","0.06933594","-0.91015625","0.31054688","-2.8125","2.375","-0.9375"
"1574269992266","254","0.09863281","-0.9033203","0.2421875","-1.78125","4.8125","0.65625"
"1574269992267","255","0.061523438","-0.92285156","0.27734375","0.46875","-2.03125","0.78125"
"1574269992267","256","0.032226562","-0.88671875","0.28710938","-2.875","4.625","-2.21875"
"1574269992267","257","0.048828125","-0.90722656","0.296875","-5.03125","0.34375","-1.40625"
"1574269992267","258","0.0703125","-0.9609375","0.24414062","-0.5625","0.40625","-0.4375"
"1574269992268","259","0.061523438","-0.9111328","0.3076172","-5.15625","2.1875","-2.75"
"1574269992662","260","0.043945312","-0.8935547","0.27539062","-8.1875","0.90625","-3.5625"
"1574269992662","261","0.076171875","-0.9326172","0.28320312","-2.53125","-2.03125","-4.03125"
"1574269992663","262","0.072265625","-0.89453125","0.2265625","-3.0","-0.5","-7.875"
"1574269992663","263","0.08691406","-0.89941406","0.27246094","-3.8125","1.4375","-5.625"
"1574269992663","264","0.08496094","-0.91015625","0.26464844","-3.0625","3.53125","-6.5"
"1574269992665","265","0.078125","-0.9003906","0.28222656","-12.96875","-0.4375","-9.96875"
"1574269992665","266","0.07714844","-0.93847656","0.23730469","-12.65625","-2.9375","-6.84375"
"1574269992665","267","0.10839844","-0.89160156","0.24414062","-15.875","2.84375","-11.90625"
"1574269992666","268","0.11621094","-0.9296875","0.22070312","-18.5625","1.5625","-8.5"
"1574269992666","269","0.11816406","-0.91308594","0.19335938","-12.59375","0.78125","-9.34375"
"1574269993059","270","0.12988281","-0.9501953","0.19628906","-13.375","-0.8125","-5.625"
"1574269993060","271","0.12597656","-0.8828125","0.17871094","-3.25","-1.84375","-9.0"
"1574269993060","272","0.115234375","-0.95996094","0.20019531","-13.625","-4.96875","-8.875"
"1574269993061","273","0.19824219","-0.8691406","0.16210938","-14.59375","2.65625","-6.4375"
"1574269993061","274","0.15039062","-0.99316406","0.16308594","-10.34375","-7.59375","-5.09375"
"1574269993061","275","0.16113281","-0.90625","0.12597656","-5.375","2.59375","-9.46875"
"1574269993061","276","0.18554688","-0.8964844","0.17578125","-6.78125","-2.6875","-3.4375"
"1574269993062","277","0.16992188","-0.92285156","0.14746094","-4.03125","-8.0625","-11.3125"
"1574269993062","278","0.2861328","-0.9042969","0.11328125","-5.75","-5.9375","2.90625"
"1574269993062","279","0.08691406","-0.94628906","0.1796875","2.59375","-11.6875","-11.1875"
"1574269993456","280","0.22460938","-0.8652344","0.11621094","-14.65625","-0.625","-3.375"
"1574269993457","281","0.15136719","-0.9472656","0.15234375","-1.78125","-8.0625","-5.21875"
"1574269993457","282","0.21777344","-0.8876953","0.09863281","-7.28125","0.84375","-7.21875"
"1574269993457","283","0.16601562","-0.8955078","0.13671875","-8.25","-0.375","-2.6875"
"1574269993457","284","0.21484375","-0.92285156","0.115234375","-4.96875","-0.625","-3.125"
"1574269993458","285","0.21386719","-0.8828125","0.115234375","-1.40625","2.59375","-3.5"
"1574269993458","286","0.19628906","-0.92285156","0.11425781","-6.125","-5.8125","1.21875"
"1574269993458","287","0.17480469","-0.92089844","0.109375","3.90625","4.6875","-5.25"
"1574269993459","288","0.19628906","-0.90722656","0.10253906","3.40625","0.90625","-0.875"
"1574269993460","289","0.20507812","-0.9091797","0.119140625","7.8125","10.71875","-4.09375"
"1574269994052","290","0.21289062","-0.91503906","0.13378906","0.65625","4.5625","-5.4375"
"1574269994053","291","0.16210938","-0.9267578","0.14941406","-5.5","4.8125","-9.125"
"1574269994053","292","0.18359375","-0.9277344","0.1484375","-4.96875","3.9375","-12.90625"
"1574269994053","293","0.21386719","-0.87597656","0.11816406","-7.28125","8.40625","-11.78125"
"1574269994053","294","0.2421875","-0.9013672","0.1328125","-16.0","9.3125","-11.1875"
"1574269994054","295","0.2919922","-0.9169922","0.072265625","-1.25","4.9375","-2.6875"
"1574269994054","296","0.2861328","-0.91015625","0.12011719","4.5625","0.78125","0.84375"
"1574269994054","297","0.25","-0.8857422","0.125","2.5","1.8125","-0.875"
"1574269994054","298","0.26660156","-0.8847656","0.10058594","1.4375","-1.1875","-1.90625"
"1574269994055","299","0.1875","-0.9501953","0.11816406","5.40625","-13.03125","-0.375"
"1574269994252","300","0.22265625","-0.87597656","0.11328125","6.15625","-6.1875","-5.15625"
"1574269994253","301","0.2626953","-0.8847656","0.12695312","3.40625","3.21875","-1.96875"
"1574269994254","302","0.26171875","-0.93066406","0.12890625","5.59375","-3.1875","0.03125"
"1574269994254","303","0.17578125","-0.9033203","0.13867188","5.96875","-2.28125","-3.5"
"1574269994254","304","0.23339844","-0.88964844","0.13671875","10.1875","13.03125","2.1875"
"1574269994255","305","0.23828125","-0.93066406","0.15332031","1.3125","3.40625","-1.96875"
"1574269994255","306","0.23144531","-0.8984375","0.16210938","10.1875","2.25","2.0"
"1574269994255","307","0.21777344","-0.89941406","0.17089844","9.125","4.3125","-2.28125"
"1574269994256","308","0.22558594","-0.9121094","0.16210938","5.65625","2.90625","-0.875"
"1574269994256","309","0.26171875","-0.90625","0.18066406","6.15625","4.5625","-1.125"
"1574269994848","310","0.2265625","-0.9003906","0.1875","4.1875","2.3125","-2.21875"
"1574269994848","311","0.234375","-0.90234375","0.18066406","3.53125","2.5","-0.3125"
"1574269994849","312","0.21386719","-0.89941406","0.1875","2.96875","4.1875","-3.875"
"1574269994849","313","0.24316406","-0.9003906","0.19238281","1.03125","5.125","-1.0625"
"1574269994850","314","0.22851562","-0.88183594","0.20410156","1.21875","1.875","-3.0625"
"1574269994850","315","0.23925781","-0.9189453","0.17578125","0.65625","3.90625","-1.40625"
"1574269994851","316","0.24414062","-0.8935547","0.20703125","-11.6875","7.1875","-2.625"
"1574269994851","317","0.23632812","-0.9091797","0.15136719","4.8125","11.9375","-3.625"
"1574269994851","318","0.26171875","-0.87597656","0.21582031","-2.875","14.3125","0.0"
"1574269994852","319","0.2890625","-0.8730469","0.16992188","-5.875","2.96875","0.09375"
"1574269995247","320","0.27246094","-0.94140625","0.171875","-1.71875","-3.5625","4.0625"
"1574269995248","321","0.22363281","-0.88183594","0.18457031","-6.375","-5.3125","-1.25"
"1574269995248","322","0.24511719","-0.8564453","0.18164062","-3.0","-1.0","3.40625"
"1574269995248","323","0.2939453","-0.9267578","0.15625","-8.5","-8.5","4.375"
"1574269995248","324","0.24804688","-0.89941406","0.14453125","-9.84375","-1.65625","4.8125"
"1574269995250","325","0.23242188","-0.9111328","0.16210938","-9.21875","1.375","9.25"
"1574269995251","326","0.26757812","-0.90722656","0.14257812","-7.21875","-2.40625","10.46875"
"1574269995251","327","0.1875","-0.90527344","0.14746094","1.03125","-4.40625","11.8125"
"1574269995251","328","0.13867188","-0.890625","0.15136719","2.125","4.6875","3.09375"
"1574269995251","329","0.23242188","-0.9140625","0.15917969","-4.71875","8.15625","8.34375"
"1574269995643","330","0.21289062","-0.94433594","0.16210938","3.21875","2.375","9.375"
"1574269995644","331","0.21386719","-0.8779297","0.13574219","-2.34375","9.1875","9.8125"
"1574269995644","332","0.17578125","-0.9267578","0.18457031","5.78125","8.15625","16.65625"
"1574269995644","333","0.10253906","-0.93847656","0.18554688","1.21875","12.625","5.125"
"1574269995644","334","0.14257812","-0.91308594","0.17675781","9.25","25.5","13.28125"
"1574269995645","335","0.17773438","-0.93847656","0.21386719","5.34375","11.40625","13.53125"
"1574269995645","336","0.078125","-0.8847656","0.19628906","-2.8125","4.5","2.5"
"1574269995646","337","0.08496094","-0.9404297","0.20019531","-6.0","0.46875","3.21875"
"1574269995647","338","0.13769531","-0.92285156","0.1875","-3.375","3.03125","5.90625"
"1574269995647","339","0.111328125","-0.91503906","0.19042969","-1.0625","3.9375","3.40625"
"1574269995841","340","0.09472656","-0.9091797","0.19726562","-8.4375","-0.1875","4.5625"
"1574269995842","341","0.09765625","-0.9169922","0.1796875","0.0","2.65625","3.59375"
"1574269995842","342","0.08300781","-0.90722656","0.19433594","-6.0","8.96875","-0.3125"
"1574269995842","343","0.14355469","-0.9121094","0.16015625","-1.96875","7.1875","6.46875"
"1574269995842","344","0.12011719","-0.93359375","0.18066406","6.15625","11.8125","2.84375"
"1574269995843","345","0.059570312","-0.89160156","0.16699219","6.09375","8.71875","0.03125"
"1574269995843","346","0.09277344","-0.94140625","0.20214844","0.78125","6.875","-1.78125"
"1574269995843","347","0.10839844","-0.9121094","0.19628906","4.0","9.03125","-2.03125"
"1574269995844","348","0.10839844","-0.88183594","0.17382812","-0.875","5.40625","3.53125"
"1574269995844","349","0.078125","-0.9316406","0.19726562","0.28125","9.9375","2.0"
"1574269996436","350","0.095703125","-0.9267578","0.19140625","-4.71875","4.3125","0.21875"
"1574269996437","351","0.12011719","-0.93652344","0.16699219","0.53125","2.375","2.65625"
"1574269996437","352","0.10253906","-0.9082031","0.18652344","-0.0625","3.53125","0.40625"
"1574269996437","353","0.08886719","-0.9042969","0.18359375","6.15625","1.09375","3.71875"
"1574269996438","354","0.0546875","-0.90625","0.18847656","4.5625","3.78125","-1.71875"
"1574269996438","355","0.091796875","-0.9033203","0.19824219","6.28125","4.6875","3.46875"
"1574269996438","356","0.103515625","-0.9199219","0.20800781","3.21875","2.3125","4.375"
"1574269996438","357","0.068359375","-0.90234375","0.1953125","4.8125","0.40625","2.96875"
"1574269996438","358","0.068359375","-0.9345703","0.22460938","2.84375","-2.09375","4.9375"
"1574269996439","359","0.0078125","-0.9082031","0.2109375","1.3125","3.21875","-5.875"
"1574269996836","360","0.043945312","-0.9501953","0.21582031","3.84375","-0.5","-1.25"
"1574269996838","361","0.076171875","-0.9033203","0.24414062","-3.6875","7.4375","-9.21875"
"1574269996838","362","0.09667969","-0.921875","0.18945312","5.53125","-2.40625","-1.53125"
"1574269996839","363","0.10058594","-0.9042969","0.21191406","7.96875","-4.96875","-2.53125"
"1574269996839","364","0.11230469","-0.89746094","0.20996094","9.9375","3.09375","3.46875"
"1574269996839","365","0.08691406","-0.90234375","0.24121094","4.875","-1.3125","-1.40625"
"1574269996840","366","0.08691406","-0.921875","0.23828125","-1.96875","2.59375","3.03125"
"1574269996840","367","-0.021484375","-0.9589844","0.27734375","-6.84375","-0.375","-11.5"
"1574269996840","368","0.11230469","-0.875","0.25683594","-10.5625","3.03125","-1.59375"
"1574269996841","369","0.07714844","-0.9423828","0.2626953","-14.3125","-3.75","-12.65625"
"1574269997033","370","0.07910156","-0.921875","0.19824219","-9.59375","3.9375","-11.3125"
"1574269997033","371","0.10253906","-0.9326172","0.24121094","-11.25","0.21875","-10.5625"
"1574269997033","372","0.12988281","-0.89941406","0.20703125","-6.53125","-1.0625","-9.34375"
"1574269997035","373","0.10449219","-0.9238281","0.20214844","-12.15625","-1.0","-8.8125"
"1574269997035","374","0.12597656","-0.89453125","0.18261719","-6.65625","3.9375","-3.75"
"1574269997035","375","0.091796875","-0.92871094","0.16992188","-1.90625","0.90625","-5.625"
"1574269997036","376","0.13867188","-0.8798828","0.16894531","-3.3125","6.09375","-4.15625"
"1574269997036","377","0.18164062","-0.90625","0.14941406","2.65625","6.21875","2.84375"
"1574269997036","378","0.1328125","-0.9453125","0.1796875","-4.03125","3.40625","-3.75"
"1574269997036","379","0.17382812","-0.90722656","0.17675781","-5.25","6.28125","-4.40625"
"1574269997430","380","0.12695312","-0.9248047","0.19726562","-11.0625","-3.25","-7.59375"
"1574269997431","381","0.13085938","-0.92578125","0.16503906","-2.28125","1.09375","-9.34375"
"1574269997431","382","0.15039062","-0.9404297","0.17578125","-10.875","-5.625","-11.6875"
"1574269997431","383","0.1953125","-0.890625","0.17089844","-9.78125","-4.90625","-12.28125"
"1574269997431","384","0.1640625","-0.92578125","0.16210938","-7.59375","-8.625","-12.34375"
"1574269997432","385","0.17382812","-0.9189453","0.13476562","-10.9375","-8.0625","-10.03125"
"1574269997433","386","0.16210938","-0.9111328","0.14550781","-4.03125","-0.25","-11.78125"
"1574269997433","387","0.19628906","-0.92871094","0.13378906","-2.21875","-7.46875","-4.21875"
"1574269997433","388","0.15625","-0.88378906","0.140625","4.375","6.8125","-9.96875"
"1574269997433","389","0.23144531","-0.9121094","0.16601562","-7.875","2.4375","-0.4375"
"1574269997829","390","0.17480469","-0.9091797","0.13964844","-2.75","-3.375","-6.375"
"1574269997830","391","0.1953125","-0.9082031","0.12011719","4.5625","4.0625","-2.21875"
"1574269997830","392","0.21875","-0.9277344","0.1640625","3.15625","-1.90625","2.0"
"1574269997830","393","0.21777344","-0.88964844","0.18164062","6.21875","-1.40625","-3.875"
"1574269997830","394","0.21875","-0.9140625","0.12792969","7.5","-6.4375","1.875"
"1574269997831","395","0.17382812","-0.9404297","0.171875","12.1875","-18.6875","-2.9375"
"1574269997831","396","0.21777344","-0.8828125","0.17578125","7.1875","-7.59375","-3.5625"
"1574269997832","397","0.22949219","-0.89453125","0.18945312","0.21875","-8.5625","-0.25"
"1574269997833","398","0.21972656","-0.890625","0.15429688","7.1875","-4.84375","-5.5"
"1574269997833","399","0.18554688","-0.92285156","0.16699219","-1.84375","-6.78125","-4.84375"
"1574269998622","400","0.26171875","-0.92871094","0.16992188","3.71875","-1.3125","-0.75"
"1574269998623","401","0.19628906","-0.8808594","0.19726562","1.4375","-10.5625","-5.25"
"1574269998624","402","0.20214844","-0.8876953","0.140625","2.96875","-2.28125","-4.90625"
"1574269998624","403","0.25390625","-0.921875","0.17773438","2.90625","3.34375","-2.21875"
"1574269998624","404","0.22558594","-0.8876953","0.16308594","2.59375","-2.75","-4.59375"
"1574269998624","405","0.22851562","-0.91503906","0.17089844","4.1875","0.0","-0.375"
"1574269998625","406","0.23828125","-0.89941406","0.16796875","5.34375","3.34375","-2.03125"
"1574269998625","407","0.22851562","-0.8935547","0.16503906","0.0","2.65625","0.34375"
"1574269998625","408","0.21191406","-0.9140625","0.17089844","4.0","4.75","-1.1875"
"1574269998627","409","0.22363281","-0.91503906","0.19335938","3.78125","3.71875","-2.28125"
"1574269998820","410","0.23144531","-0.8964844","0.19335938","4.5625","5.34375","-1.1875"
"1574269998820","411","0.25390625","-0.9189453","0.18457031","8.15625","1.6875","0.71875"
"1574269998821","412","0.203125","-0.9111328","0.20410156","3.46875","-0.875","-3.4375"
"1574269998821","413","0.22558594","-0.8769531","0.20898438","1.375","3.90625","0.21875"
"1574269998821","414","0.24902344","-0.9013672","0.20898438","-0.375","6.03125","-2.28125"
"1574269998821","415","0.234375","-0.9248047","0.20605469","-2.03125","-1.0625","-0.75"
"1574269998822","416","0.19433594","-0.87890625","0.22949219","-3.3125","-1.78125","-7.15625"
"1574269998822","417","0.21777344","-0.90234375","0.20703125","1.8125","6.03125","1.09375"
"1574269998822","418","0.23925781","-0.90527344","0.21191406","-1.46875","1.375","-3.96875"
"1574269998822","419","0.23339844","-0.8935547","0.20214844","-1.65625","2.0625","2.0"
"1574269999220","420","0.21484375","-0.8935547","0.21289062","-1.25","5.46875","0.40625"
"1574269999222","421","0.22851562","-0.890625","0.21386719","0.34375","5.125","2.1875"
"1574269999222","422","0.22851562","-0.8955078","0.19824219","-2.21875","5.71875","-0.1875"
"1574269999223","423","0.234375","-0.8964844","0.17871094","1.15625","9.5","0.03125"
"1574269999223","424","0.23828125","-0.9033203","0.20019531","0.0","11.28125","2.125"
"1574269999223","425","0.25976562","-0.90234375","0.203125","-1.25","9.09375","-0.1875"
"1574269999223","426","0.24121094","-0.9169922","0.20996094","-1.3125","3.59375","7.5625"
"1574269999224","427","0.23828125","-0.890625","0.20410156","-7.65625","10.40625","2.90625"
"1574269999224","428","0.3076172","-0.8925781","0.20996094","-6.0625","6.15625","21.21875"
"1574269999224","429","0.19140625","-0.8886719","0.21582031","-6.90625","-10.21875","1.5"
"1574269999418","430","0.13867188","-0.92578125","0.18359375","-0.875","-13.4375","9.25"
"1574269999418","431","0.17089844","-0.8857422","0.19824219","-0.9375","-5.75","3.78125"
"1574269999418","432","0.15625","-0.89941406","0.21191406","-1.3125","-4.46875","1.15625"
"1574269999419","433","0.1328125","-0.92871094","0.21679688","-5.03125","-3.96875","-1.53125"
"1574269999420","434","0.17578125","-0.90625","0.18359375","-2.75","7.4375","0.90625"
"1574269999420","435","0.1953125","-0.9326172","0.22851562","-7.09375","10.40625","5.78125"
"1574269999420","436","0.16699219","-0.8925781","0.18359375","-6.84375","9.3125","1.15625"
"1574269999421","437","0.18847656","-0.9248047","0.20117188","-4.65625","9.09375","8.03125"
"1574269999421","438","0.15625","-0.92578125","0.21777344","-0.8125","15.0","6.9375"
"1574269999421","439","0.1484375","-0.8925781","0.203125","-1.25","10.40625","4.9375"
"1574269999815","440","0.13378906","-0.92871094","0.18847656","3.53125","4.0625","8.03125"
"1574269999816","441","0.1328125","-0.8964844","0.21386719","-1.84375","2.59375","0.21875"
"1574269999816","442","0.125","-0.9296875","0.18457031","3.21875","1.8125","5.0"
"1574269999816","443","0.14257812","-0.8964844","0.22363281","-4.78125","1.75","-0.8125"
"1574269999817","444","0.10644531","-0.9404297","0.18164062","1.375","6.6875","4.4375"
"1574269999818","445","0.11621094","-0.91503906","0.24023438","-13.125","8.65625","-1.84375"
"1574269999818","446","0.10449219","-0.9003906","0.17871094","-8.6875","7.75","1.3125"
"1574269999819","447","0.13476562","-0.9560547","0.18457031","-11.5","3.40625","2.3125"
"1574269999819","448","0.13964844","-0.9091797","0.16308594","-1.65625","4.5","1.21875"
"1574269999819","449","0.12988281","-0.8798828","0.19042969","-9.59375","2.25","-0.875"
"1574270000214","450","0.1484375","-0.9111328","0.13574219","0.59375","-1.53125","4.3125"
"1574270000215","451","0.115234375","-0.9355469","0.17675781","-6.5","-1.1875","0.53125"
"1574270000215","452","0.15429688","-0.8964844","0.1640625","0.0","3.90625","5.90625"
"1574270000215","453","0.09472656","-0.9267578","0.15820312","2.1875","2.0625","6.5625"
"1574270000215","454","0.13964844","-0.89160156","0.1640625","3.59375","4.0","6.15625"
"1574270000216","455","0.08691406","-0.9482422","0.17382812","8.03125","3.53125","6.5625"
"1574270000216","456","0.06347656","-0.9033203","0.19628906","2.3125","6.46875","-0.3125"
"1574270000218","457","0.12207031","-0.89746094","0.18554688","-1.65625","2.96875","3.71875"
"1574270000218","458","0.07714844","-0.94433594","0.18359375","-0.9375","2.71875","1.09375"
"1574270000218","459","0.09863281","-0.89941406","0.18847656","-5.03125","4.5","0.65625"
"1574270000611","460","0.11816406","-0.9589844","0.16601562","4.1875","-0.3125","6.8125"
"1574270000611","461","0.08496094","-0.8769531","0.22851562","0.09375","-4.71875","-6.71875"
"1574270000611","462","0.11621094","-0.9140625","0.16308594","10.40625","-0.8125","2.65625"
"1574270000612","463","0.08300781","-0.9042969","0.20117188","3.78125","0.53125","-4.03125"
"1574270000612","464","0.060546875","-0.9375","0.21386719","7.25","3.09375","0.84375"
"1574270000612","465","0.09765625","-0.9140625","0.22363281","6.03125","0.40625","-1.84375"
"1574270000613","466","0.07421875","-0.9453125","0.25585938","0.21875","3.65625","-4.28125"
"1574270000613","467","0.061523438","-0.95214844","0.26367188","-16.8125","-4.78125","-11.3125"
"1574270000613","468","0.0048828125","-0.92871094","0.20410156","-6.375","-6.25","-16.875"
"1574270000614","469","0.087890625","-0.89746094","0.18457031","-9.40625","-0.375","-9.59375"
"1574270001008","470","0.18457031","-0.9160156","0.15332031","-4.90625","-3.3125","-5.5"
"1574270001008","471","0.140625","-0.9316406","0.15234375","2.0","-3.5","-1.78125"
"1574270001009","472","0.09472656","-0.8642578","0.15722656","4.25","2.25","-2.625"
"1574270001009","473","0.087890625","-0.94140625","0.20800781","2.90625","5.21875","-3.5625"
"1574270001009","474","0.16210938","-0.9423828","0.17285156","9.5","9.25","-1.25"
"1574270001009","475","0.083984375","-0.95410156","0.24707031","-4.15625","1.5","-7.71875"
"1574270001010","476","0.20800781","-0.8457031","0.20019531","-6.59375","9.625","-5.5625"
"1574270001010","477","0.12890625","-0.9609375","0.19238281","-8.3125","0.09375","-6.59375"
"1574270001010","478","0.111328125","-0.9248047","0.18359375","-7.40625","1.5625","-11.71875"
"1574270001010","479","0.18945312","-0.89453125","0.18457031","-1.125","4.75","-6.71875"
"1574270001407","480","0.16992188","-0.9033203","0.17285156","1.8125","2.65625","-9.65625"
"1574270001407","481","0.15917969","-0.92089844","0.19433594","-6.4375","0.59375","-9.15625"
"1574270001407","482","0.171875","-0.9121094","0.17285156","-2.34375","1.5","-6.84375"
"1574270001408","483","0.18847656","-0.9082031","0.1875","-0.4375","0.59375","-3.4375"
"1574270001408","484","0.18164062","-0.9082031","0.18066406","-5.6875","-0.1875","-2.40625"
"1574270001408","485","0.16601562","-0.8955078","0.1875","-8.5","0.03125","-9.34375"
"1574270001408","486","0.18945312","-0.91503906","0.15136719","-7.03125","1.9375","-4.96875"
"1574270001409","487","0.18261719","-0.92089844","0.16015625","-4.84375","-2.46875","-11.5"
"1574270001409","488","0.21972656","-0.8935547","0.14746094","0.0","5.21875","-2.21875"
"1574270001409","489","0.17578125","-0.90625","0.1875","-7.71875","2.59375","-8.625"
"1574270001804","490","0.22949219","-0.9169922","0.14941406","-7.8125","3.71875","-2.9375"
"1574270001805","491","0.19042969","-0.9267578","0.16894531","-9.0","2.0625","-8.3125"
"1574270001805","492","0.20214844","-0.8886719","0.13574219","-8.1875","1.9375","-11.4375"
"1574270001806","493","0.21386719","-0.91796875","0.16601562","-5.4375","4.0","-9.65625"
"1574270001806","494","0.24121094","-0.90234375","0.11230469","-7.875","3.46875","-11.71875"
"1574270001807","495","0.23925781","-0.9033203","0.13769531","-7.8125","0.59375","-5.5"
"1574270001807","496","0.28808594","-0.8730469","0.12792969","-7.09375","0.59375","-2.9375"
"1574270001807","497","0.25683594","-0.9238281","0.12402344","-8.25","-4.96875","-1.0"
"1574270001808","498","0.22558594","-0.89453125","0.11425781","-5.21875","-8.0625","-3.8125"
"1574270001808","499","0.24121094","-0.8955078","0.103515625","-7.46875","-5.21875","-1.59375"
"1574270002397","500","0.24414062","-0.90234375","0.09765625","-9.0","-6.25","-6.84375"
"1574270002398","501","0.24511719","-0.9082031","0.076171875","-2.15625","-2.40625","-4.90625"
"1574270002398","502","0.2421875","-0.9121094","0.087890625","-6.71875","-2.625","-4.71875"
"1574270002399","503","0.26171875","-0.88964844","0.111328125","-3.96875","0.21875","-1.40625"
"1574270002399","504","0.24902344","-0.8925781","0.083984375","-8.0","-1.3125","-2.40625"
"1574270002399","505","0.22949219","-0.9111328","0.068359375","-8.0","-3.375","-2.15625"
"1574270002400","506","0.23925781","-0.90527344","0.083984375","-1.90625","1.5625","-2.46875"
"1574270002400","507","0.2705078","-0.8847656","0.08203125","-2.34375","0.34375","-3.375"
"1574270002400","508","0.25","-0.9111328","0.07519531","-1.53125","-5.25","-1.125"
"1574270002401","509","0.23730469","-0.90234375","0.06542969","-2.09375","-0.9375","-4.21875"
"1574270002598","510","0.24804688","-0.8964844","0.08203125","-1.125","1.03125","0.53125"
"1574270002599","511","0.2578125","-0.90722656","0.07519531","0.34375","0.28125","-0.5625"
"1574270002599","512","0.23730469","-0.90625","0.076171875","0.28125","2.0625","0.15625"
"1574270002599","513","0.24609375","-0.90234375","0.076171875","1.3125","1.8125","-0.625"
"1574270002600","514","0.24609375","-0.90234375","0.08496094","2.84375","4.3125","1.75"
"1574270002600","515","0.24707031","-0.91308594","0.08984375","5.21875","2.78125","-1.3125"
"1574270002600","516","0.23828125","-0.8935547","0.09277344","5.34375","3.21875","0.03125"
"1574270002601","517","0.2548828","-0.9111328","0.10546875","7.5","5.65625","-0.25"
"1574270002602","518","0.24023438","-0.89941406","0.09472656","2.0","3.90625","-0.125"
"1574270002602","519","0.24316406","-0.90234375","0.08984375","1.3125","0.84375","-1.1875"
"1574270003196","520","0.2783203","-0.89941406","0.10058594","4.8125","6.15625","3.21875"
"1574270003197","521","0.22070312","-0.90625","0.12988281","2.90625","4.375","-2.9375"
"1574270003197","522","0.234375","-0.88964844","0.091796875","2.65625","8.03125","0.0"
"1574270003197","523","0.24707031","-0.9033203","0.11328125","2.1875","8.03125","-0.3125"
"1574270003197","524","0.2607422","-0.90527344","0.11328125","4.5625","9.9375","0.46875"
"1574270003198","525","0.25976562","-0.8925781","0.13476562","-0.8125","10.65625","0.78125"
"1574270003198","526","0.27734375","-0.9013672","0.109375","3.78125","9.5625","3.90625"
"1574270003198","527","0.25390625","-0.8984375","0.13476562","0.71875","7.25","3.90625"
"1574270003198","528","0.26660156","-0.90234375","0.10839844","-1.0","7.5","2.3125"
"1574270003200","529","0.22363281","-0.93847656","0.103515625","15.71875","10.46875","2.125"
"1574270003394","530","0.28125","-0.89160156","0.15820312","1.4375","7.8125","4.4375"
"1574270003395","531","0.2265625","-0.8828125","0.14453125","4.6875","4.8125","3.40625"
"1574270003395","532","0.22265625","-0.9013672","0.14746094","3.78125","2.5","2.5"
"1574270003395","533","0.19824219","-0.9189453","0.14648438","-1.90625","-0.0625","2.5625"
"1574270003395","534","0.25390625","-0.8964844","0.13964844","5.40625","4.5625","3.90625"
"1574270003395","535","0.25195312","-0.8925781","0.16015625","4.0","2.3125","6.5625"
"1574270003396","536","0.2421875","-0.9013672","0.140625","10.0","-1.65625","11.40625"
"1574270003396","537","0.14257812","-0.9238281","0.17675781","0.78125","5.65625","4.25"
"1574270003396","538","0.17578125","-0.8964844","0.16796875","5.90625","8.46875","1.09375"
"1574270003396","539","0.2265625","-0.90527344","0.19824219","2.0","8.71875","11.8125"
"1574270003792","540","0.21484375","-0.90527344","0.18945312","-3.5","4.8125","2.65625"
"1574270003792","541","0.16113281","-0.92285156","0.17480469","3.21875","2.0","6.6875"
"1574270003792","542","0.12890625","-0.9238281","0.20019531","2.25","-0.3125","2.125"
"1574270003793","543","0.21582031","-0.8828125","0.18164062","5.34375","6.46875","4.9375"
"1574270003793","544","0.125","-0.9345703","0.22070312","-1.46875","-1.0","-1.78125"
"1574270003793","545","0.18652344","-0.8935547","0.1640625","-3.5625","6.5","3.90625"
"1574270003794","546","0.21972656","-0.9082031","0.17480469","0.0","8.34375","11.03125"
"1574270003794","547","0.15625","-0.8984375","0.18554688","0.46875","-1.90625","6.03125"
"1574270003794","548","0.08886719","-0.9169922","0.19238281","3.90625","0.03125","-1.1875"
"1574270003794","549","0.19921875","-0.88671875","0.15039062","7.90625","4.75","4.9375"
"1574270004189","550","0.20507812","-0.89453125","0.17480469","4.4375","6.8125","8.84375"
"1574270004190","551","0.12792969","-0.9511719","0.203125","8.21875","-1.34375","5.0"
"1574270004190","552","0.15039062","-0.9013672","0.19335938","9.8125","11.03125","10.375"
"1574270004191","553","0.103515625","-0.9296875","0.22851562","6.28125","4.5625","2.375"
"1574270004191","554","0.140625","-0.8964844","0.23144531","0.03125","6.8125","3.78125"
"1574270004191","555","0.11816406","-0.9404297","0.1953125","0.0","4.125","2.4375"
"1574270004192","556","0.123046875","-0.9375","0.24707031","0.65625","0.90625","3.09375"
"1574270004192","557","0.08984375","-0.90234375","0.24511719","7.90625","1.625","3.03125"
"1574270004193","558","0.07519531","-0.89941406","0.25195312","3.34375","-3.96875","-3.875"
"1574270004193","559","0.072265625","-0.9121094","0.24511719","0.0","3.59375","-6.0"
"1574270004587","560","0.119140625","-0.921875","0.24316406","-1.59375","-1.53125","-2.9375"
"1574270004587","561","0.07714844","-0.93652344","0.26464844","0.84375","6.6875","-3.125"
"1574270004587","562","0.083984375","-0.9111328","0.22558594","-6.375","6.5","-5.875"
"1574270004588","563","0.1171875","-0.9248047","0.21679688","1.5625","2.125","0.65625"
"1574270004588","564","0.15332031","-0.8720703","0.2685547","-5.4375","7.625","0.71875"
"1574270004589","565","0.109375","-0.9033203","0.24804688","-2.75","3.59375","0.09375"
"1574270004589","566","0.123046875","-0.9189453","0.22949219","-1.125","3.59375","1.4375"
"1574270004590","567","0.115234375","-0.9394531","0.23144531","1.875","2.84375","-0.3125"
"1574270004590","568","0.115234375","-0.9267578","0.24804688","-0.1875","0.71875","-1.53125"
"1574270004590","569","0.087890625","-0.9091797","0.24414062","-1.53125","2.59375","-3.0"
"1574270005579","570","0.12597656","-0.91015625","0.22851562","-3.5625","2.125","-0.4375"
"1574270005579","571","0.15136719","-0.8925781","0.21191406","-0.25","2.25","2.71875"
"1574270005579","572","0.14355469","-0.9316406","0.21191406","1.75","-2.59375","3.78125"
"1574270005580","573","0.10253906","-0.89160156","0.25097656","4.3125","-0.4375","1.875"
"1574270005580","574","0.061523438","-0.890625","0.2548828","0.65625","2.0","-3.5"
"1574270005580","575","0.07128906","-0.93652344","0.22558594","0.46875","5.0625","-8.3125"
"1574270005580","576","0.15527344","-0.9873047","0.2529297","-4.71875","5.96875","-1.25"
"1574270005582","577","0.12890625","-0.8984375","0.24316406","-5.8125","1.5625","-8.5625"
"1574270005582","578","0.1171875","-0.8964844","0.23730469","-8.0625","2.59375","-3.5625"
"1574270005582","579","0.11621094","-0.91503906","0.22851562","-7.8125","0.78125","-8.8125"
"1574270005776","580","0.115234375","-0.921875","0.23339844","-5.625","-0.375","-8.625"
"1574270005776","581","0.12402344","-0.9013672","0.23339844","-7.28125","1.8125","-9.125"
"1574270005777","582","0.13867188","-0.9111328","0.22363281","-10.15625","1.8125","-8.6875"
"1574270005777","583","0.16699219","-0.8964844","0.18652344","-9.59375","-0.5","-6.71875"
"1574270005777","584","0.17089844","-0.93847656","0.17675781","-5.8125","-1.0625","-2.9375"
"1574270005777","585","0.15820312","-0.90527344","0.20507812","-3.5","-3.0625","-4.71875"
"1574270005777","586","0.13476562","-0.8935547","0.17773438","2.125","-5.25","-7.78125"
"1574270005778","587","0.15429688","-0.9589844","0.22167969","-2.59375","-4.71875","-8.0"
"1574270005778","588","0.21289062","-0.90527344","0.19824219","-12.15625","2.96875","-7.40625"
"1574270005779","589","0.171875","-0.89453125","0.16308594","-2.46875","-3.0625","-8.0"
"1574270005978","590","0.19238281","-0.89453125","0.18652344","-18.09375","2.125","-7.78125"
"1574270005978","591","0.22558594","-0.90625","0.16601562","-6.0625","-1.46875","-6.0"
"1574270005978","592","0.19042969","-0.9169922","0.16699219","-11.90625","-6.4375","-7.8125"
"1574270005978","593","0.20703125","-0.88964844","0.14550781","-6.65625","-0.9375","-5.25"
"1574270005979","594","0.20800781","-0.9111328","0.15722656","-9.59375","-3.90625","-7.8125"
"1574270005979","595","0.2109375","-0.9140625","0.13183594","-3.90625","-2.09375","-4.09375"
"1574270005979","596","0.21972656","-0.9091797","0.15625","-5.9375","-7.03125","-5.5"
"1574270005979","597","0.19433594","-0.89746094","0.11816406","2.0","-1.96875","-4.65625"
"1574270005980","598","0.1875","-0.9277344","0.15234375","4.9375","-2.8125","-3.0625"
"1574270005980","599","0.1953125","-0.89746094","0.15625","-3.1875","0.90625","-5.15625"
"1574270006376","600","0.18359375","-0.9355469","0.16992188","-3.625","1.5","-8.75"
"1574270006377","601","0.18945312","-0.8847656","0.14746094","-17.34375","-0.8125","-8.75"
"1574270006378","602","0.24707031","-0.8828125","0.1328125","-17.78125","3.9375","-5.6875"
"1574270006378","603","0.27441406","-0.921875","0.13183594","-12.84375","5.0625","-2.28125"
"1574270006379","604","0.2607422","-0.88183594","0.095703125","-9.0625","-2.03125","-1.59375"
"1574270006379","605","0.2421875","-0.87890625","0.09472656","-5.3125","-3.1875","-2.40625"
"1574270006379","606","0.27246094","-0.9082031","0.099609375","-0.375","-0.6875","-0.375"
"1574270006380","607","0.2578125","-0.8955078","0.09375","-2.59375","-5.5625","0.0"
"1574270006380","608","0.2265625","-0.87597656","0.091796875","-3.1875","-5.625","-2.28125"
"1574270006380","609","0.23535156","-0.92285156","0.07714844","-3.25","-0.75","-0.8125"
"1574270006970","610","0.2607422","-0.91015625","0.08984375","-0.5","-1.25","0.28125"
"1574270006971","611","0.22070312","-0.89941406","0.08886719","0.46875","1.15625","-1.0"
"1574270006971","612","0.2578125","-0.8925781","0.09277344","-4.09375","0.65625","-0.8125"
"1574270006972","613","0.23632812","-0.9267578","0.091796875","-1.25","0.65625","0.28125"
"1574270006972","614","0.25195312","-0.89941406","0.078125","-0.6875","1.8125","0.40625"
"1574270006973","615","0.22167969","-0.8925781","0.08300781","-5.3125","0.09375","-1.46875"
"1574270006973","616","0.23144531","-0.91015625","0.087890625","-1.46875","3.9375","-0.25"
"1574270006973","617","0.21777344","-0.9140625","0.09082031","3.40625","4.9375","-3.6875"
"1574270006973","618","0.23730469","-0.89941406","0.087890625","4.375","7.25","1.15625"
"1574270006974","619","0.23730469","-0.9013672","0.10839844","5.0625","8.46875","-1.46875"
"1574270007367","620","0.24414062","-0.9033203","0.103515625","2.90625","5.46875","-1.59375"
"1574270007367","621","0.24414062","-0.91015625","0.13085938","4.25","4.5625","0.96875"
"1574270007367","622","0.22265625","-0.89941406","0.111328125","-1.0","1.8125","-2.21875"
"1574270007368","623","0.24511719","-0.9091797","0.11035156","-0.5625","-1.84375","-2.34375"
"1574270007368","624","0.24414062","-0.9082031","0.11425781","1.875","0.78125","0.84375"
"1574270007369","625","0.21484375","-0.90527344","0.11621094","0.0","0.46875","-2.46875"
"1574270007370","626","0.24609375","-0.8955078","0.11425781","1.21875","4.9375","0.53125"
"1574270007370","627","0.22949219","-0.9111328","0.10644531","1.5625","2.125","-2.46875"
"1574270007370","628","0.21679688","-0.91015625","0.12011719","2.71875","2.65625","0.03125"
"1574270007371","629","0.24414062","-0.8984375","0.125","4.8125","6.5625","-1.125"
"1574270007961","630","0.23632812","-0.91015625","0.12695312","3.09375","3.71875","-0.75"
"1574270007962","631","0.24121094","-0.89941406","0.1171875","1.3125","5.125","0.28125"
"1574270007962","632","0.24121094","-0.88671875","0.140625","3.09375","12.375","4.6875"
"1574270007963","633","0.25585938","-0.89453125","0.14160156","1.03125","8.46875","2.5"
"1574270007963","634","0.20703125","-0.9355469","0.125","2.125","2.5","4.4375"
"1574270007963","635","0.234375","-0.875","0.12792969","6.03125","10.90625","3.09375"
"1574270007964","636","0.21777344","-0.8984375","0.16210938","0.15625","7.90625","4.1875"
"1574270007964","637","0.2421875","-0.91308594","0.13085938","0.28125","6.8125","3.09375"
"1574270007966","638","0.22753906","-0.9199219","0.15722656","3.21875","3.65625","4.0"
"1574270007966","639","0.24023438","-0.88183594","0.15136719","-0.5","3.84375","5.59375"
"1574270007966","640","0.21777344","-0.9140625","0.16210938","-1.46875","0.78125","4.5625"
"1574270007967","641","0.19824219","-0.8955078","0.13769531","-1.71875","1.28125","1.03125"
"1574270007967","642","0.18945312","-0.93652344","0.16992188","-2.6875","0.65625","5.90625"
"1574270007967","643","0.1796875","-0.9189453","0.15917969","-4.40625","3.15625","-1.65625"
"1574270007968","644","0.16992188","-0.9111328","0.18261719","-5.9375","3.15625","-1.0625"
"1574270007968","645","0.18261719","-0.91308594","0.15625","-12.65625","7.625","0.65625"
"1574270007968","646","0.21972656","-0.88183594","0.12988281","-8.5","1.4375","4.375"
"1574270007968","647","0.19824219","-0.90722656","0.12695312","-7.28125","-0.625","3.34375"
"1574270007969","648","0.18261719","-0.90527344","0.09375","-1.90625","0.96875","1.5625"
"1574270007969","649","0.21777344","-0.9091797","0.12988281","2.5625","2.4375","11.28125"
"1574270008363","650","0.15722656","-0.89941406","0.14355469","-0.625","-2.09375","2.84375"
"1574270008363","651","0.15039062","-0.9316406","0.11230469","3.84375","-0.875","8.21875"
"1574270008364","652","0.1328125","-0.9326172","0.12988281","1.625","4.4375","1.3125"
"1574270008364","653","0.19042969","-0.8964844","0.13671875","1.75","3.21875","4.6875"
"1574270008364","654","0.14941406","-0.93652344","0.14257812","-1.96875","4.3125","4.125"
"1574270008364","655","0.13574219","-0.8964844","0.12597656","-0.4375","4.6875","1.3125"
"1574270008365","656","0.13769531","-0.9394531","0.15136719","1.5","5.34375","8.84375"
"1574270008365","657","0.18066406","-0.91015625","0.16210938","-2.46875","6.5","6.34375"
"1574270008365","658","0.18261719","-0.9111328","0.140625","-0.875","-1.84375","8.21875"
"1574270008365","659","0.02734375","-0.9423828","0.13867188","2.3125","-3.8125","-8.4375"
"1574270008761","660","0.123046875","-0.88378906","0.12890625","0.0","4.0625","2.5"
"1574270008762","661","0.12988281","-0.9326172","0.18261719","-0.9375","4.375","-4.21875"
"1574270008763","662","0.15136719","-0.89941406","0.13378906","1.03125","2.4375","-3.3125"
"1574270008763","663","0.15429688","-0.9189453","0.140625","3.65625","-1.125","4.0625"
"1574270008763","664","0.14746094","-0.90722656","0.15820312","6.21875","0.28125","0.15625"
"1574270008764","665","0.13085938","-0.9140625","0.15136719","9.8125","1.09375","1.5625"
"1574270008764","666","0.13476562","-0.921875","0.18066406","6.5625","5.34375","-0.6875"
"1574270008764","667","0.14746094","-0.9111328","0.14648438","9.9375","7.8125","4.25"
"1574270008764","668","0.11816406","-0.9248047","0.16113281","10.1875","5.90625","3.34375"
"1574270008765","669","0.13183594","-0.890625","0.16699219","4.0","9.6875","5.53125"
"1574270009158","670","0.08203125","-0.94140625","0.19042969","1.21875","3.65625","-3.0625"
"1574270009158","671","0.140625","-0.92285156","0.1953125","4.0","7.90625","2.1875"
"1574270009159","672","0.12695312","-0.9121094","0.19238281","4.0","7.25","0.21875"
"1574270009160","673","0.15234375","-0.9121094","0.19433594","2.25","6.46875","2.71875"
"1574270009161","674","0.13378906","-0.92578125","0.18554688","3.59375","4.8125","3.34375"
"1574270009161","675","0.10058594","-0.90722656","0.20410156","-0.0625","-1.53125","1.21875"
"1574270009161","676","0.1015625","-0.9003906","0.20996094","2.3125","2.0","0.78125"
"1574270009162","677","0.08300781","-0.9345703","0.21679688","5.65625","0.34375","-0.375"
"1574270009162","678","0.078125","-0.9160156","0.22558594","0.03125","2.25","0.90625"
"1574270009162","679","0.08300781","-0.9238281","0.23144531","0.84375","6.5625","-2.21875"
"1574270009555","680","0.10839844","-0.92089844","0.23242188","-3.3125","6.625","-1.3125"
"1574270009555","681","0.06347656","-0.921875","0.27148438","-6.53125","5.1875","-6.5"
"1574270009556","682","0.10058594","-0.93847656","0.21484375","-2.75","7.75","-4.21875"
"1574270009556","683","0.08203125","-0.92285156","0.23242188","-5.5625","1.3125","-6.3125"
"1574270009556","684","0.072265625","-0.91796875","0.23242188","-8.875","0.09375","-10.9375"
"1574270009557","685","0.11328125","-0.9121094","0.21777344","-11.0","3.15625","-11.1875"
"1574270009557","686","0.11328125","-0.91503906","0.18359375","-12.15625","-3.125","-8.875"
"1574270009557","687","0.10546875","-0.9042969","0.18652344","-16.5","0.03125","-13.625"
"1574270009558","688","0.17382812","-0.9277344","0.16894531","-11.5625","1.5","-9.21875"
"1574270009558","689","0.18261719","-0.89746094","0.1640625","-10.28125","3.84375","-8.4375"
"1574270009952","690","0.203125","-0.9111328","0.1484375","-6.59375","-0.4375","-2.875"
"1574270009952","691","0.16894531","-0.8886719","0.13183594","-7.34375","-3.8125","-3.5625"
"1574270009952","692","0.22558594","-0.9082031","0.12597656","-3.3125","-2.34375","0.71875"
"1574270009953","693","0.16894531","-0.9003906","0.13378906","3.84375","-7.40625","-3.3125"
"1574270009954","694","0.1484375","-0.8857422","0.14257812","-4.78125","-3.3125","-4.46875"
"1574270009954","695","0.15332031","-0.92578125","0.14648438","-2.59375","-3.5","-5.5"
"1574270009954","696","0.19238281","-0.9453125","0.13476562","-10.09375","-6.96875","-8.0625"
"1574270009954","697","0.18554688","-0.8857422","0.12597656","-5.03125","-2.40625","-7.15625"
"1574270009955","698","0.17382812","-0.91796875","0.123046875","-11.5","-5.03125","-9.78125"
"1574270009955","699","0.21777344","-0.9003906","0.11328125","-10.21875","-0.6875","-8.8125"
"1574270010746","700","0.19628906","-0.9140625","0.091796875","-9.0625","-3.0625","-11.78125"
"1574270010746","701","0.234375","-0.9248047","0.09765625","-7.09375","1.4375","-9.0"
"1574270010747","702","0.18457031","-0.88671875","0.1171875","-7.71875","-1.53125","-12.84375"
"1574270010747","703","0.22460938","-0.9121094","0.0859375","-4.21875","3.59375","-7.53125"
"1574270010747","704","0.2626953","-0.92089844","0.111328125","-5.6875","0.78125","-5.9375"
"1574270010748","705","0.24609375","-0.88183594","0.08886719","-11.5625","-5.15625","-7.09375"
"1574270010748","706","0.20898438","-0.91308594","0.08105469","-5.15625","-1.25","-6.78125"
"1574270010748","707","0.23828125","-0.89746094","0.0859375","-5.875","-0.875","-5.6875"
"1574270010748","708","0.23730469","-0.9111328","0.09082031","-5.3125","-0.3125","-6.4375"
"1574270010750","709","0.24804688","-0.89160156","0.064453125","-0.5625","-0.0625","-3.875"
"1574270010943","710","0.265625","-0.8955078","0.080078125","-4.21875","1.03125","-5.5625"
"1574270010944","711","0.26757812","-0.8955078","0.055664062","-1.34375","0.34375","-1.84375"
"1574270010944","712","0.22265625","-0.89941406","0.06738281","4.0625","0.84375","-3.875"
"1574270010944","713","0.26953125","-0.88671875","0.072265625","9.03125","5.53125","-0.3125"
"1574270010945","714","0.2763672","-0.90722656","0.07128906","8.59375","3.21875","-1.25"
"1574270010945","715","0.29101562","-0.9003906","0.091796875","9.375","3.65625","3.59375"
"1574270010945","716","0.24902344","-0.8828125","0.09277344","5.125","2.1875","1.5625"
"1574270010945","717","0.2578125","-0.91796875","0.109375","7.6875","6.15625","8.28125"
"1574270010946","718","0.21875","-0.89941406","0.10839844","2.84375","2.71875","-1.125"
"1574270010946","719","0.26757812","-0.9042969","0.099609375","5.78125","4.6875","5.59375"
"1574270011738","720","0.23242188","-0.921875","0.12890625","3.65625","3.65625","0.34375"
"1574270011739","721","0.234375","-0.8984375","0.11328125","3.65625","3.03125","2.65625"
"1574270011740","722","0.2421875","-0.91015625","0.13769531","4.0","5.34375","1.15625"
"1574270011740","723","0.23242188","-0.9111328","0.125","4.125","-0.5","0.34375"
"1574270011741","724","0.22265625","-0.8935547","0.13867188","2.71875","3.90625","-0.375"
"1574270011741","725","0.25390625","-0.91503906","0.13574219","3.40625","1.3125","1.3125"
"1574270011741","726","0.20800781","-0.9033203","0.140625","2.4375","0.03125","-3.75"
"1574270011742","727","0.21777344","-0.89453125","0.12695312","5.78125","3.65625","0.46875"
"1574270011742","728","0.24414062","-0.91308594","0.15429688","4.1875","3.03125","-2.6875"
"1574270011742","729","0.23730469","-0.9140625","0.14746094","3.90625","0.53125","0.65625"
"1574270011743","730","0.20996094","-0.89746094","0.1484375","2.65625","2.84375","-1.125"
"1574270011743","731","0.22753906","-0.9013672","0.16796875","0.15625","3.90625","0.71875"
"1574270011743","732","0.23144531","-0.9111328","0.15234375","-0.875","2.65625","-2.8125"
"1574270011744","733","0.23632812","-0.90527344","0.14746094","0.15625","4.0625","0.71875"
"1574270011744","734","0.22851562","-0.8964844","0.15722656","1.15625","4.25","0.0"
"1574270011744","735","0.25","-0.90625","0.14941406","0.28125","5.34375","1.875"
"1574270011744","736","0.2421875","-0.89941406","0.15429688","0.28125","3.03125","2.78125"
"1574270011745","737","0.22460938","-0.8935547","0.16699219","0.03125","1.6875","3.03125"
"1574270011745","738","0.21875","-0.9091797","0.16015625","2.5","1.875","2.71875"
"1574270011745","739","0.234375","-0.90625","0.17382812","0.28125","1.75","1.875"
"1574270011939","740","0.21777344","-0.90527344","0.16113281","0.84375","0.28125","3.34375"
"1574270011939","741","0.20019531","-0.90527344","0.16894531","-0.75","1.5","0.34375"
"1574270011940","742","0.21484375","-0.8964844","0.16210938","0.53125","3.78125","2.71875"
"1574270011940","743","0.18652344","-0.9033203","0.17089844","0.0","1.3125","0.34375"
"1574270011940","744","0.22070312","-0.9003906","0.14453125","0.71875","6.46875","2.5625"
"1574270011941","745","0.22167969","-0.91503906","0.1796875","0.09375","5.53125","6.5625"
"1574270011941","746","0.20410156","-0.8955078","0.16894531","-0.75","2.59375","2.3125"
"1574270011941","747","0.18457031","-0.9199219","0.16015625","0.21875","1.75","6.03125"
"1574270011942","748","0.20996094","-0.9042969","0.17382812","4.0","6.34375","4.3125"
"1574270011942","749","0.171875","-0.9121094","0.18359375","-1.71875","0.59375","3.65625"
"1574270012735","750","0.19824219","-0.9042969","0.16503906","1.03125","4.6875","4.1875"
"1574270012736","751","0.1796875","-0.91308594","0.19238281","-1.125","2.96875","9.6875"
"1574270012736","752","0.18554688","-0.8984375","0.18359375","-4.21875","3.84375","3.03125"
"1574270012737","753","0.21679688","-0.8984375","0.14746094","-3.1875","5.96875","12.375"
"1574270012737","754","0.14160156","-0.9267578","0.15917969","0.40625","-0.375","6.34375"
"1574270012737","755","0.13867188","-0.9033203","0.16601562","0.90625","3.09375","2.25"
"1574270012737","756","0.14453125","-0.921875","0.19238281","1.3125","5.65625","8.46875"
"1574270012739","757","0.095703125","-0.9140625","0.18554688","-1.65625","1.4375","-4.46875"
"1574270012739","758","0.15917969","-0.9033203","0.15429688","3.03125","5.34375","4.0"
"1574270012740","759","0.1484375","-0.9355469","0.19042969","-0.8125","3.15625","3.46875"
"1574270012932","760","0.119140625","-0.9121094","0.18359375","2.5","4.25","2.90625"
"1574270012932","761","0.07519531","-0.92285156","0.19824219","-6.71875","-1.71875","-1.90625"
"1574270012932","762","0.15722656","-0.88964844","0.14550781","-3.125","4.125","2.96875"
"1574270012933","763","0.17675781","-0.9267578","0.17675781","-0.75","6.75","5.34375"
"1574270012933","764","0.13476562","-0.92285156","0.15722656","0.65625","1.09375","3.90625"
"1574270012933","765","0.119140625","-0.9121094","0.18457031","6.34375","5.78125","6.21875"
"1574270012934","766","0.11035156","-0.9199219","0.20605469","6.46875","0.84375","-1.46875"
"1574270012934","767","0.03125","-0.95996094","0.20605469","5.21875","5.0","-8.5"
"1574270012934","768","0.09082031","-0.9199219","0.18652344","8.84375","3.09375","-3.6875"
"1574270012935","769","0.13867188","-0.9160156","0.24316406","7.25","7.6875","0.09375"
"1574270013132","770","0.18261719","-0.8857422","0.23144531","2.5","6.03125","3.90625"
"1574270013132","771","0.08984375","-0.9296875","0.23632812","4.5625","1.4375","-3.1875"
"1574270013133","772","0.140625","-0.9238281","0.20996094","4.8125","6.5625","4.6875"
"1574270013133","773","0.12890625","-0.93359375","0.24707031","-1.0625","0.96875","-0.625"
"1574270013133","774","0.15136719","-0.88378906","0.22949219","2.125","-4.21875","4.25"
"1574270013133","775","0.0703125","-0.9296875","0.20507812","6.09375","2.3125","0.71875"
"1574270013134","776","0.103515625","-0.91308594","0.22753906","1.375","2.5625","0.46875"
"1574270013134","777","0.140625","-0.9238281","0.2548828","4.8125","4.875","2.65625"
"1574270013134","778","0.1328125","-0.8935547","0.25976562","6.5625","3.03125","1.5"
"1574270013134","779","0.13671875","-0.9160156","0.26757812","5.96875","-1.40625","4.125"
"1574270013529","780","0.068359375","-0.9277344","0.25878906","10.78125","-10.5625","-2.15625"
"1574270013530","781","0.11230469","-0.8701172","0.265625","13.71875","0.78125","3.78125"
"1574270013530","782","0.08203125","-0.89746094","0.29882812","1.75","3.59375","-4.59375"
"1574270013530","783","0.14257812","-0.9550781","0.25195312","-0.1875","5.71875","1.6875"
"1574270013531","784","0.12695312","-0.9121094","0.2685547","3.21875","5.0","-1.3125"
"1574270013531","785","0.08984375","-0.9169922","0.296875","3.59375","7.375","-0.75"
"1574270013531","786","0.125","-0.8730469","0.2939453","3.90625","6.15625","-2.21875"
"1574270013531","787","0.11621094","-0.92578125","0.296875","6.5625","2.96875","0.53125"
"1574270013532","788","0.115234375","-0.84765625","0.28710938","4.0","4.6875","-1.59375"
"1574270013532","789","0.087890625","-0.9091797","0.29296875","-1.25","0.90625","0.40625"
"1574270014124","790","0.083984375","-0.90722656","0.29882812","-3.90625","4.875","-5.4375"
"1574270014124","791","0.10253906","-0.9609375","0.31835938","-7.15625","0.96875","-1.40625"
"1574270014125","792","0.09082031","-0.8935547","0.26660156","-1.0625","3.71875","-3.96875"
"1574270014126","793","0.087890625","-0.8925781","0.29003906","-8.25","1.6875","-4.53125"
"1574270014127","794","0.06347656","-0.9111328","0.28027344","-3.625","5.59375","-7.65625"
"1574270014127","795","0.1015625","-0.8935547","0.30664062","-12.34375","12.4375","-8.875"
"1574270014127","796","0.19042969","-0.8964844","0.24609375","-6.84375","10.0","-0.75"
"1574270014128","797","0.119140625","-0.95703125","0.23535156","-3.125","-3.125","-4.46875"
"1574270014128","798","0.15429688","-0.85253906","0.2626953","-2.875","6.75","-3.125"
"1574270014128","799","0.09667969","-0.9199219","0.26171875","-6.375","-5.9375","-7.59375"
"1574270014325","800","0.18359375","-0.94140625","0.234375","-8.0625","-5.875","-4.15625"
"1574270014326","801","0.064453125","-0.91796875","0.27734375","-14.25","-1.40625","-19.0625"
"1574270014326","802","0.14453125","-0.8876953","0.3046875","-21.4375","7.75","-6.71875"
"1574270014326","803","0.125","-0.9277344","0.20117188","-17.84375","2.125","-11.84375"
"1574270014326","804","0.21191406","-0.9375","0.18847656","-18.9375","-0.3125","-8.5625"
"1574270014328","805","0.19042969","-0.87109375","0.19921875","-7.40625","-0.1875","-6.4375"
"1574270014329","806","0.19238281","-0.89746094","0.19824219","-9.21875","-1.71875","-6.5"
"1574270014329","807","0.16796875","-0.92285156","0.16503906","-6.53125","-6.1875","-6.84375"
"1574270014329","808","0.18847656","-0.9082031","0.23242188","-16.25","-1.1875","-6.84375"
"1574270014330","809","0.15136719","-0.9013672","0.1640625","-8.375","-2.28125","-10.34375"
"1574270015120","810","0.2578125","-0.95996094","0.18066406","-15.59375","-7.15625","-1.78125"
"1574270015120","811","0.19628906","-0.8613281","0.17382812","-7.53125","-3.90625","-11.625"
"1574270015120","812","0.18945312","-0.93066406","0.13867188","-14.59375","-6.84375","-6.90625"
"1574270015121","813","0.15234375","-0.91308594","0.16210938","-9.96875","2.125","-12.09375"
"1574270015121","814","0.21777344","-0.87597656","0.13867188","-11.25","-2.34375","-6.90625"
"1574270015121","815","0.2685547","-0.91308594","0.087890625","-3.1875","2.59375","1.375"
"1574270015122","816","0.24707031","-0.9082031","0.107421875","0.0","0.0","-2.59375"
"1574270015123","817","0.27734375","-0.88378906","0.123046875","-3.0","0.59375","4.875"
"1574270015123","818","0.21191406","-0.9248047","0.107421875","2.0625","-3.5","1.8125"
"1574270015124","819","0.17578125","-0.89746094","0.13378906","-3.90625","-0.0625","-2.6875"
"1574270015316","820","0.24023438","-0.9169922","0.13769531","-8.125","-0.625","1.09375"
"1574270015317","821","0.234375","-0.9121094","0.09667969","-7.15625","-4.03125","-5.15625"
"1574270015317","822","0.20019531","-0.90527344","0.107421875","-4.84375","-2.875","-10.34375"
"1574270015317","823","0.2626953","-0.89941406","0.080078125","-1.34375","1.4375","-2.28125"
"1574270015318","824","0.2607422","-0.8925781","0.119140625","-0.4375","-1.71875","-2.28125"
"1574270015318","825","0.2265625","-0.9082031","0.08300781","5.65625","1.6875","-2.625"
"1574270015318","826","0.19726562","-0.90234375","0.09375","-1.0","1.375","-2.8125"
"1574270015318","827","0.23046875","-0.9033203","0.1171875","7.25","9.25","-0.9375"
"1574270015319","828","0.25585938","-0.9042969","0.13085938","0.15625","3.09375","-0.75"
"1574270015320","829","0.23632812","-0.921875","0.13183594","-0.875","-2.40625","-2.09375"
"1574270015716","830","0.20996094","-0.91503906","0.12695312","5.53125","1.625","-3.3125"
"1574270015716","831","0.23242188","-0.8876953","0.13574219","0.78125","3.78125","-2.34375"
"1574270015716","832","0.2421875","-0.9238281","0.13085938","4.9375","2.0","-5.4375"
"1574270015717","833","0.25195312","-0.9042969","0.13378906","4.1875","2.0","-1.78125"
"1574270015717","834","0.22265625","-0.8964844","0.14550781","2.25","1.5","-2.40625"
"1574270015717","835","0.2265625","-0.90625","0.13085938","7.375","1.09375","-1.78125"
"1574270015717","836","0.23046875","-0.90722656","0.16015625","2.0","5.46875","-1.65625"
"1574270015718","837","0.25","-0.8847656","0.13671875","7.375","7.25","1.3125"
"1574270015718","838","0.23730469","-0.90722656","0.14160156","8.71875","14.375","1.03125"
"1574270015718","839","0.23632812","-0.90722656","0.15136719","1.625","16.84375","5.21875"
"1574270016111","840","0.22363281","-0.9033203","0.18945312","-5.03125","9.875","-0.6875"
"1574270016112","841","0.25195312","-0.890625","0.14746094","0.09375","-0.25","5.34375"
"1574270016112","842","0.19042969","-0.93359375","0.1640625","-5.375","1.375","-2.21875"
"1574270016112","843","0.22949219","-0.88671875","0.14941406","-3.0","5.71875","1.09375"
"1574270016112","844","0.22949219","-0.90625","0.18359375","-7.28125","-1.65625","0.28125"
"1574270016113","845","0.23046875","-0.91503906","0.11328125","-4.96875","-2.34375","-0.5625"
"1574270016113","846","0.24511719","-0.9082031","0.13964844","0.15625","5.125","3.71875"
"1574270016113","847","0.21582031","-0.91015625","0.15820312","-1.1875","2.96875","2.78125"
"1574270016113","848","0.20117188","-0.9042969","0.15917969","-1.90625","1.6875","0.28125"
"1574270016114","849","0.23046875","-0.90722656","0.15136719","-3.0625","5.0","4.0"
"1574270016510","850","0.22753906","-0.92578125","0.16015625","-8.0625","0.59375","2.125"
"1574270016510","851","0.19628906","-0.8808594","0.13671875","-6.71875","1.4375","-0.9375"
"1574270016511","852","0.22265625","-0.91796875","0.13867188","-7.21875","-0.8125","4.9375"
"1574270016512","853","0.20898438","-0.9111328","0.12402344","-2.8125","-1.65625","0.84375"
"1574270016512","854","0.19335938","-0.890625","0.13964844","-4.46875","-1.1875","4.0"
"1574270016512","855","0.16699219","-0.88671875","0.125","-11.96875","1.75","-0.9375"
"1574270016512","856","0.23828125","-0.91796875","0.10546875","-5.5","6.9375","7.5"
"1574270016513","857","0.2421875","-0.9248047","0.12011719","-1.0625","6.15625","11.9375"
"1574270016513","858","0.16113281","-0.91796875","0.095703125","3.90625","3.71875","6.6875"
"1574270016513","859","0.22265625","-0.91015625","0.12988281","13.84375","9.9375","16.78125"
"1574270016711","860","0.22070312","-0.9199219","0.17480469","-1.59375","-1.84375","12.1875"
"1574270016712","861","0.15722656","-0.92089844","0.12597656","8.96875","-10.15625","3.90625"
"1574270016712","862","0.12695312","-0.9189453","0.14550781","7.625","-2.09375","7.25"
"1574270016712","863","0.08984375","-0.9277344","0.171875","-0.1875","-2.03125","-4.34375"
"1574270016712","864","0.19042969","-0.9160156","0.1484375","12.75","4.8125","5.21875"
"1574270016714","865","0.12988281","-0.9160156","0.1875","3.46875","4.4375","4.5625"
"1574270016714","866","0.08691406","-0.9189453","0.16601562","10.1875","7.0","2.5625"
"1574270016714","867","0.08496094","-0.9160156","0.20410156","3.09375","5.78125","0.46875"
"1574270016715","868","0.16894531","-0.9042969","0.17578125","3.09375","5.21875","4.75"
"1574270016715","869","0.12011719","-0.92285156","0.18945312","-2.34375","4.3125","0.71875"
"1574270017304","870","0.14941406","-0.91308594","0.16113281","-5.3125","0.96875","5.78125"
"1574270017305","871","0.08984375","-0.90625","0.18945312","-3.625","1.3125","-0.5"
"1574270017305","872","0.12109375","-0.9160156","0.15332031","-2.40625","2.71875","-0.375"
"1574270017305","873","0.11230469","-0.9140625","0.17773438","-2.46875","2.90625","-3.1875"
"1574270017305","874","0.14160156","-0.9453125","0.14453125","9.375","10.71875","2.5625"
"1574270017306","875","0.14550781","-0.8955078","0.19238281","-3.625","9.625","3.40625"
"1574270017306","876","0.13671875","-0.9111328","0.15722656","6.15625","10.0625","5.125"
"1574270017307","877","0.09863281","-0.93652344","0.17773438","9.8125","7.6875","6.9375"
"1574270017308","878","0.12402344","-0.91308594","0.21875","-3.125","5.0","2.96875"
"1574270017308","879","0.107421875","-0.91015625","0.19335938","0.53125","3.34375","-0.8125"
"1574270017505","880","0.07421875","-0.92871094","0.171875","1.625","-0.625","-2.15625"
"1574270017505","881","0.107421875","-0.9189453","0.21191406","1.15625","0.09375","-3.4375"
"1574270017505","882","0.140625","-0.9013672","0.20996094","20.1875","2.4375","1.21875"
"1574270017506","883","0.08203125","-0.9296875","0.19921875","12.4375","-1.34375","2.375"
"1574270017506","884","0.12597656","-0.89160156","0.22265625","7.125","1.8125","5.21875"
"1574270017506","885","0.08105469","-0.9277344","0.2265625","5.125","0.0","2.65625"
"1574270017506","886","0.080078125","-0.9111328","0.22949219","3.71875","0.84375","4.9375"
"1574270017507","887","0.087890625","-0.9189453","0.25097656","-0.625","6.40625","-0.1875"
"1574270017507","888","0.08300781","-0.9033203","0.22851562","-3.6875","2.90625","1.4375"
"1574270017508","889","0.07714844","-0.93359375","0.23925781","1.75","6.34375","0.15625"
"1574270018099","890","0.12890625","-0.9082031","0.23535156","-3.75","2.65625","2.4375"
"1574270018099","891","0.07519531","-0.9082031","0.21289062","8.34375","6.03125","2.0625"
"1574270018100","892","0.06738281","-0.9345703","0.25585938","-0.1875","4.0625","0.0"
"1574270018100","893","0.046875","-0.90527344","0.28125","2.125","0.96875","-1.0"
"1574270018100","894","0.056640625","-0.9248047","0.28125","-6.90625","1.75","-4.09375"
"1574270018100","895","0.053710938","-0.9345703","0.25097656","-8.3125","3.03125","-5.75"
"1574270018101","896","0.06738281","-0.9277344","0.25097656","-6.84375","4.9375","-5.03125"
"1574270018101","897","0.1015625","-0.9140625","0.24511719","-4.78125","2.59375","-6.96875"
"1574270018101","898","0.08984375","-0.9003906","0.21386719","1.625","-3.6875","-0.6875"
"1574270018102","899","0.057617188","-0.91308594","0.24804688","-7.71875","5.40625","-8.75"
"1574270018301","900","0.11035156","-0.93359375","0.20996094","-3.125","-2.34375","-2.75"
"1574270018302","901","0.13769531","-0.87890625","0.21875","-4.78125","5.1875","-6.90625"
"1574270018303","902","0.1171875","-0.9277344","0.19140625","-5.875","-4.03125","-4.21875"
"1574270018303","903","0.119140625","-0.8935547","0.22558594","-7.71875","0.65625","-8.625"
"1574270018303","904","0.1328125","-0.9121094","0.20410156","-4.09375","-2.875","-3.8125"
"1574270018304","905","0.11328125","-0.91503906","0.1953125","-10.15625","-5.875","-6.59375"
"1574270018304","906","0.14746094","-0.9238281","0.19824219","-5.21875","-0.25","-5.25"
"1574270018306","907","0.13769531","-0.89453125","0.18652344","-4.65625","-3.3125","-6.4375"
"1574270018307","908","0.13964844","-0.93066406","0.17382812","-2.875","-0.625","-3.875"
"1574270018307","909","0.14648438","-0.9140625","0.17675781","-6.78125","0.03125","-8.625"
"1574270018698","910","0.16894531","-0.9003906","0.1875","-2.03125","4.6875","-4.15625"
"1574270018699","911","0.14257812","-0.91796875","0.16796875","-2.53125","-2.15625","-2.75"
"1574270018699","912","0.12695312","-0.9199219","0.19335938","-2.6875","5.84375","-6.4375"
"1574270018701","913","0.16894531","-0.89941406","0.16015625","-1.125","1.625","-0.1875"
"1574270018701","914","0.14355469","-0.93359375","0.18652344","-5.6875","0.96875","-4.78125"
"1574270018702","915","0.17773438","-0.89941406","0.16113281","-2.875","1.3125","-1.65625"
"1574270018702","916","0.11816406","-0.9277344","0.18359375","-5.5","-5.4375","-3.4375"
"1574270018702","917","0.14160156","-0.91308594","0.14355469","0.15625","0.53125","-7.21875"
"1574270018702","918","0.17773438","-0.9169922","0.18554688","-3.875","-4.46875","-5.21875"
"1574270018703","919","0.12988281","-0.9003906","0.16601562","-8.0","-4.03125","-10.34375"
"1574270019491","920","0.18554688","-0.93359375","0.16894531","-6.59375","-2.28125","-6.90625"
"1574270019491","921","0.16210938","-0.921875","0.16210938","-12.96875","-3.625","-11.375"
"1574270019492","922","0.18652344","-0.89746094","0.15332031","-11.71875","0.59375","-10.28125"
"1574270019492","923","0.20507812","-0.9277344","0.15429688","-17.34375","-2.6875","-11.5"
"1574270019493","924","0.18554688","-0.88378906","0.10839844","-9.0625","-0.1875","-14.0625"
"1574270019494","925","0.22167969","-0.8955078","0.12109375","-16.75","1.9375","-9.78125"
"1574270019494","926","0.26464844","-0.92285156","0.10839844","-8.0625","0.96875","-7.46875"
"1574270019494","927","0.20703125","-0.8720703","0.08691406","-5.09375","-0.75","-7.65625"
"1574270019495","928","0.24121094","-0.89160156","0.09863281","-6.5","2.90625","-3.875"
"1574270019495","929","0.2890625","-0.9082031","0.08691406","0.0","1.5625","0.03125"
"1574270019688","930","0.20605469","-0.8857422","0.0859375","-1.34375","-1.90625","0.15625"
"1574270019689","931","0.26171875","-0.90625","0.087890625","2.96875","3.34375","1.8125"
"1574270019689","932","0.21972656","-0.9199219","0.10253906","2.5625","0.09375","-0.4375"
"1574270019689","933","0.21582031","-0.89746094","0.091796875","4.0625","4.5625","1.3125"
"1574270019690","934","0.234375","-0.90527344","0.115234375","1.375","4.6875","3.46875"
"1574270019690","935","0.18652344","-0.9345703","0.119140625","4.5625","2.71875","-4.59375"
"1574270019690","936","0.21679688","-0.8964844","0.12792969","7.0","7.90625","3.21875"
"1574270019692","937","0.20996094","-0.9160156","0.12207031","7.5625","5.40625","-2.6875"
"1574270019692","938","0.2421875","-0.90722656","0.12890625","11.28125","6.09375","0.71875"
"1574270019692","939","0.23144531","-0.9082031","0.17480469","4.5625","3.78125","0.78125"
"1574270019890","940","0.20410156","-0.9042969","0.13964844","9.375","5.0625","0.09375"
"1574270019891","941","0.20214844","-0.9111328","0.16503906","4.875","5.53125","-1.40625"
"1574270019892","942","0.22558594","-0.9189453","0.16210938","3.03125","6.09375","0.65625"
"1574270019892","943","0.21875","-0.8925781","0.18164062","1.03125","3.71875","0.15625"
"1574270019893","944","0.21972656","-0.9042969","0.13964844","2.25","3.71875","-2.6875"
"1574270019893","945","0.25683594","-0.9296875","0.171875","2.71875","7.0","3.09375"
"1574270019893","946","0.23046875","-0.8886719","0.15917969","1.375","0.78125","-0.625"
"1574270019893","947","0.21777344","-0.90527344","0.17382812","4.0","0.21875","0.46875"
"1574270019894","948","0.21484375","-0.91015625","0.15527344","6.40625","-1.0","-1.25"
"1574270019895","949","0.19140625","-0.9111328","0.171875","9.5","-1.1875","1.5625"
"1574270020485","950","0.23535156","-0.8828125","0.18164062","8.15625","2.65625","-0.6875"
"1574270020485","951","0.20019531","-0.92089844","0.18066406","7.25","2.0","3.09375"
"1574270020485","952","0.18652344","-0.90625","0.203125","5.0","3.46875","-2.28125"
"1574270020486","953","0.21875","-0.9111328","0.22167969","1.5","12.875","6.34375"
"1574270020486","954","0.19824219","-0.89160156","0.21972656","-3.1875","5.0625","-1.90625"
"1574270020486","955","0.22851562","-0.9199219","0.19824219","1.5625","10.84375","8.15625"
"1574270020486","956","0.15332031","-0.90722656","0.21777344","-5.15625","0.84375","-4.53125"
"1574270020487","957","0.2109375","-0.8798828","0.20117188","-3.5625","5.40625","1.8125"
"1574270020487","958","0.2265625","-0.9199219","0.21386719","0.71875","0.34375","2.65625"
"1574270020487","959","0.17578125","-0.89160156","0.19042969","-4.40625","-4.84375","-1.78125"
"1574270020884","960","0.15820312","-0.9189453","0.19433594","-5.9375","0.78125","0.53125"
"1574270020886","961","0.21484375","-0.8886719","0.18066406","1.3125","8.90625","2.0625"
"1574270020886","962","0.1796875","-0.90722656","0.203125","-3.8125","6.625","3.59375"
"1574270020887","963","0.19824219","-0.9003906","0.17773438","-3.0","12.4375","4.875"
"1574270020887","964","0.20410156","-0.9199219","0.19433594","1.21875","13.03125","6.8125"
"1574270020887","965","0.20019531","-0.93066406","0.203125","-1.90625","6.8125","6.03125"
"1574270020887","966","0.18652344","-0.9033203","0.18847656","4.0625","10.71875","8.71875"
"1574270020888","967","0.15039062","-0.9238281","0.2421875","-4.96875","1.9375","4.0"
"1574270020888","968","0.15820312","-0.90234375","0.18945312","-6.125","0.46875","5.90625"
"1574270020888","969","0.15332031","-0.9111328","0.18652344","-4.15625","-2.03125","3.21875"
"1574270021082","970","0.119140625","-0.91308594","0.19042969","-8.8125","-3.875","-0.1875"
"1574270021083","971","0.16601562","-0.89941406","0.17480469","-6.5","0.34375","0.96875"
"1574270021083","972","0.14355469","-0.9267578","0.18945312","-1.84375","-2.03125","3.65625"
"1574270021085","973","0.123046875","-0.9082031","0.16894531","-1.0","-2.6875","0.34375"
"1574270021085","974","0.109375","-0.92089844","0.19140625","0.03125","-1.59375","-0.75"
"1574270021085","975","0.14746094","-0.9169922","0.19140625","2.0","2.71875","3.03125"
"1574270021085","976","0.12597656","-0.91308594","0.20996094","3.40625","5.46875","2.71875"
"1574270021086","977","0.16015625","-0.9277344","0.19433594","1.8125","6.46875","11.71875"
"1574270021086","978","0.0703125","-0.9248047","0.23046875","-0.5","2.84375","6.46875"
"1574270021086","979","0.06933594","-0.90527344","0.19042969","-2.46875","5.1875","5.59375"
"1574270021481","980","0.119140625","-0.9375","0.23828125","-0.6875","2.59375","7.5"
"1574270021481","981","0.13574219","-0.91015625","0.1875","8.28125","6.6875","5.21875"
"1574270021482","982","0.09082031","-0.90527344","0.2109375","1.6875","2.65625","2.0"
"1574270021482","983","0.095703125","-0.91503906","0.2109375","2.0","7.5","3.90625"
"1574270021482","984","0.10644531","-0.9326172","0.17871094","6.46875","3.90625","4.6875"
"1574270021483","985","0.0859375","-0.9472656","0.23535156","5.78125","9.6875","2.96875"
"1574270021483","986","0.17382812","-0.89746094","0.19628906","-3.25","1.3125","7.8125"
"1574270021483","987","0.051757812","-0.9355469","0.20019531","8.65625","-2.75","-2.9375"
"1574270021484","988","0.06640625","-0.89746094","0.23632812","4.3125","5.125","-2.46875"
"1574270021484","989","0.09375","-0.9267578","0.2421875","2.84375","2.375","-1.1875"
"1574270021878","990","0.13183594","-0.92089844","0.21386719","1.8125","4.6875","0.0"
"1574270021878","991","0.064453125","-0.91503906","0.21875","-0.8125","-0.4375","-3.5625"
"1574270021879","992","0.107421875","-0.8925781","0.24023438","-0.375","6.21875","0.46875"
"1574270021879","993","0.08496094","-0.9111328","0.23632812","0.03125","5.0","-3.375"
"1574270021879","994","0.11425781","-0.9169922","0.23535156","-4.40625","0.96875","2.375"
"1574270021880","995","0.07128906","-0.921875","0.24023438","-6.59375","1.03125","-3.25"
"1574270021880","996","0.08496094","-0.9160156","0.22851562","0.0","-0.5","-1.65625"
"1574270021881","997","0.064453125","-0.9121094","0.22558594","-1.53125","0.65625","-1.84375"
"1574270021882","998","0.09667969","-0.91015625","0.23242188","-0.6875","1.625","0.0"
"1574270021882","999","0.064453125","-0.9169922","0.2607422","-2.34375","1.6875","-2.40625"
"1574270022275","1000","0.07421875","-0.92871094","0.23925781","-4.46875","-0.0625","-0.75"
"1574270022276","1001","0.059570312","-0.9189453","0.25097656","-4.03125","2.0","-3.5625"
"1574270022276","1002","0.06542969","-0.91796875","0.24902344","-5.75","1.3125","-3.25"
"1574270022276","1003","0.08886719","-0.9248047","0.23925781","-5.3125","1.9375","-2.75"
"1574270022277","1004","0.08984375","-0.91015625","0.22460938","-3.375","1.15625","-3.0"
"1574270022277","1005","0.064453125","-0.91796875","0.2421875","-9.28125","-0.1875","-7.34375"
"1574270022277","1006","0.115234375","-0.92285156","0.20410156","-6.53125","0.0","-3.0625"
"1574270022278","1007","0.07910156","-0.9189453","0.18847656","-0.375","0.46875","-5.625"
"1574270022278","1008","0.12402344","-0.90722656","0.2109375","-4.03125","5.1875","-0.9375"
"1574270022279","1009","0.125","-0.92871094","0.19726562","-5.6875","2.78125","-2.75"
"1574270022673","1010","0.12988281","-0.93066406","0.16503906","-8.5","0.90625","-5.21875"
"1574270022673","1011","0.11230469","-0.91503906","0.1875","-2.03125","2.78125","-1.90625"
"1574270022674","1012","0.10253906","-0.92089844","0.18457031","-4.34375","-1.71875","-7.03125"
"1574270022674","1013","0.14648438","-0.9003906","0.16015625","-1.78125","2.59375","-5.15625"
"1574270022674","1014","0.1640625","-0.97558594","0.20019531","-2.6875","-4.71875","-1.125"
"1574270022674","1015","0.045898438","-0.8808594","0.17285156","-5.5625","-3.4375","-16.125"
"1574270022675","1016","0.12695312","-0.8828125","0.18554688","-18.25","3.65625","-7.875"
"1574270022675","1017","0.18359375","-0.9160156","0.15429688","-6.25","3.65625","-6.5"
"1574270022675","1018","0.15820312","-0.9277344","0.15234375","-3.75","2.0625","-7.15625"
"1574270022675","1019","0.14941406","-0.87109375","0.16015625","-3.875","0.09375","-3.75"
"1574270023069","1020","0.1640625","-0.9433594","0.17480469","-1.59375","-2.09375","-6.59375"
"1574270023070","1021","0.16894531","-0.9033203","0.15234375","-4.71875","0.21875","-7.15625"
"1574270023070","1022","0.140625","-0.92578125","0.13378906","3.84375","-4.84375","-7.65625"
"1574270023071","1023","0.16308594","-0.9033203","0.16503906","1.03125","5.0625","-8.375"
"1574270023071","1024","0.18359375","-0.921875","0.17285156","-5.4375","-3.0625","-9.15625"
"1574270023071","1025","0.2265625","-0.8769531","0.15625","-8.6875","1.4375","-3.8125"
"1574270023072","1026","0.17675781","-0.94628906","0.15917969","-8.5625","-3.3125","-2.03125"
"1574270023072","1027","0.18261719","-0.8935547","0.13671875","-6.0","2.65625","-2.625"
"1574270023073","1028","0.23144531","-0.9033203","0.15820312","-8.875","-1.3125","-2.46875"
"1574270023073","1029","0.18847656","-0.9296875","0.11816406","-6.59375","-9.59375","-4.96875"
"1574270023468","1030","0.15625","-0.90722656","0.16210938","-5.9375","-1.96875","-10.625"
"1574270023468","1031","0.22167969","-0.8769531","0.13574219","-10.75","-4.09375","-5.25"
"1574270023469","1032","0.23535156","-0.9433594","0.11425781","-11.3125","-10.40625","-9.21875"
"1574270023469","1033","0.18359375","-0.89941406","0.09667969","-3.3125","-6.59375","-9.34375"
"1574270023470","1034","0.21777344","-0.89453125","0.10839844","-10.03125","-7.15625","-6.90625"
"1574270023470","1035","0.22851562","-0.90234375","0.095703125","-2.6875","-5.15625","-8.25"
"1574270023471","1036","0.2109375","-0.88964844","0.068359375","-1.125","-5.09375","-7.21875"
"1574270023471","1037","0.23339844","-0.9199219","0.072265625","4.5625","2.78125","-5.03125"
"1574270023471","1038","0.2607422","-0.8964844","0.09667969","3.46875","1.5625","0.03125"
"1574270023472","1039","0.1796875","-0.8935547","0.0859375","8.46875","5.78125","-1.53125"
