"# PR data"
"# Start time: 20191120T171028"
"# Subject: andrius"
"# Activity type: Bicep curl"
"# Correctness: Incorrect"
"# Notes: "
""
"timestamp","seq","accel_x","accel_y","accel_z","gyro_x","gyro_y","gyro_z"
"1574269828892","0","0.15722656","-0.91503906","0.20117188","-19.71875","23.84375","12.375"
"1574269828892","1","0.23632812","-0.9433594","0.15722656","-23.8125","24.03125","5.34375"
"1574269828892","2","0.29882812","-0.88964844","0.18945312","-7.875","23.125","4.0625"
"1574269828893","3","0.21972656","-0.8984375","0.15429688","-7.15625","10.53125","2.78125"
"1574269828893","4","0.14160156","-0.9082031","0.15820312","-7.71875","8.78125","2.3125"
"1574269828893","5","0.20019531","-0.8730469","0.15039062","-9.21875","18.65625","1.21875"
"1574269828893","6","0.2529297","-0.9736328","0.18164062","-9.53125","-5.15625","-3.0625"
"1574269828893","7","0.17285156","-0.8798828","0.115234375","-3.25","-5.6875","-6.71875"
"1574269828894","8","0.22363281","-0.8886719","0.13671875","-4.53125","0.03125","0.21875"
"1574269828894","9","0.20410156","-0.9296875","0.12792969","-8.0625","-8.8125","-9.34375"
"1574269829288","10","0.17773438","-0.9160156","0.13476562","-2.75","-5.75","-5.9375"
"1574269829288","11","0.17675781","-0.90234375","0.123046875","-10.40625","0.59375","-5.375"
"1574269829288","12","0.19140625","-0.9140625","0.1328125","-5.9375","3.84375","-2.8125"
"1574269829289","13","0.22070312","-0.9111328","0.125","-5.15625","2.90625","-2.9375"
"1574269829289","14","0.20898438","-0.90722656","0.11425781","-5.09375","4.6875","-1.40625"
"1574269829289","15","0.19628906","-0.90527344","0.12988281","-0.9375","4.3125","-0.8125"
"1574269829290","16","0.21484375","-0.90722656","0.12890625","-2.15625","4.875","-0.25"
"1574269829290","17","0.21679688","-0.91015625","0.1171875","-1.59375","3.28125","0.03125"
"1574269829290","18","0.22363281","-0.90722656","0.12792969","-1.1875","2.3125","-0.5"
"1574269829290","19","0.20605469","-0.9091797","0.11621094","-0.5","-0.0625","-0.1875"
"1574269829685","20","0.21972656","-0.9042969","0.10449219","-0.125","2.59375","-0.6875"
"1574269829686","21","0.20996094","-0.9160156","0.125","-3.125","-1.34375","0.53125"
"1574269829686","22","0.20898438","-0.90722656","0.12890625","-5.09375","1.09375","-1.0"
"1574269829686","23","0.21777344","-0.9140625","0.09667969","-2.21875","1.75","-0.25"
"1574269829686","24","0.20898438","-0.9082031","0.115234375","-3.0625","0.71875","0.03125"
"1574269829687","25","0.19335938","-0.90234375","0.11035156","-1.0625","1.3125","-2.875"
"1574269829688","26","0.21972656","-0.9111328","0.12597656","-3.4375","4.5","0.0"
"1574269829688","27","0.21875","-0.9296875","0.1328125","3.71875","2.375","-1.0"
"1574269829688","28","0.23535156","-0.9169922","0.1328125","2.59375","-3.90625","2.0"
"1574269829689","29","0.15332031","-0.8808594","0.08496094","9.5","0.21875","-3.4375"
"1574269830083","30","0.22949219","-0.94433594","0.13964844","4.375","-0.125","2.3125"
"1574269830084","31","0.2109375","-0.87890625","0.14160156","0.21875","-4.46875","-3.875"
"1574269830084","32","0.18847656","-0.8925781","0.13085938","-1.125","-1.25","-2.28125"
"1574269830084","33","0.20507812","-0.93359375","0.11425781","-1.59375","-2.40625","-1.84375"
"1574269830085","34","0.23730469","-0.9082031","0.14160156","5.125","4.75","2.125"
"1574269830085","35","0.20605469","-0.9042969","0.14941406","10.3125","-2.75","-0.8125"
"1574269830085","36","0.19921875","-0.91503906","0.14355469","14.625","7.8125","0.53125"
"1574269830086","37","0.21972656","-0.9082031","0.1484375","17.4375","2.71875","-1.1875"
"1574269830087","38","0.21875","-0.90234375","0.1796875","10.59375","2.96875","0.21875"
"1574269830087","39","0.19238281","-0.93847656","0.13085938","21.21875","-1.3125","-3.25"
"1574269830481","40","0.18652344","-0.89160156","0.21386719","11.875","-4.34375","-4.03125"
"1574269830481","41","0.22753906","-0.9003906","0.19628906","9.9375","2.78125","-2.40625"
"1574269830482","42","0.26660156","-0.9199219","0.19628906","8.53125","-4.21875","0.0"
"1574269830482","43","0.18164062","-0.8925781","0.21386719","9.75","-2.15625","-5.21875"
"1574269830482","44","0.21777344","-0.9003906","0.234375","11.28125","0.78125","4.75"
"1574269830482","45","0.21679688","-0.89941406","0.23535156","14.75","0.96875","-1.25"
"1574269830483","46","0.23046875","-0.89160156","0.23535156","4.4375","5.65625","7.375"
"1574269830483","47","0.18457031","-0.9121094","0.27441406","-8.5","-4.21875","-3.3125"
"1574269830483","48","0.16503906","-0.9033203","0.20214844","13.28125","3.53125","-1.1875"
"1574269830485","49","0.2421875","-0.89941406","0.2841797","-12.09375","2.5","2.1875"
"1574269831076","50","0.21191406","-0.89453125","0.22851562","3.40625","10.1875","-1.0625"
"1574269831077","51","0.19238281","-0.9111328","0.234375","-3.0625","-2.8125","-1.59375"
"1574269831077","52","0.23925781","-0.9042969","0.24902344","-8.4375","2.59375","1.21875"
"1574269831077","53","0.21484375","-0.89746094","0.27148438","-8.1875","-4.65625","-5.25"
"1574269831078","54","0.20507812","-0.9082031","0.19628906","-2.15625","5.1875","-3.25"
"1574269831078","55","0.20507812","-0.890625","0.22753906","-0.375","1.3125","1.5"
"1574269831078","56","0.26953125","-0.9267578","0.23535156","2.0","8.15625","0.40625"
"1574269831078","57","0.15039062","-0.8984375","0.24609375","3.15625","-2.21875","-6.1875"
"1574269831078","58","0.23242188","-0.90234375","0.23828125","-2.625","4.5","1.875"
"1574269831079","59","0.20800781","-0.90722656","0.21972656","-4.96875","3.84375","-7.03125"
"1574269831277","60","0.24023438","-0.9091797","0.23632812","-8.25","2.71875","0.46875"
"1574269831278","61","0.20019531","-0.8857422","0.22070312","-5.3125","5.84375","-2.625"
"1574269831279","62","0.23144531","-0.8984375","0.21875","-7.78125","2.0625","2.5"
"1574269831279","63","0.22460938","-0.90625","0.21582031","-3.3125","6.28125","-2.8125"
"1574269831279","64","0.21289062","-0.89746094","0.21484375","-1.90625","-2.75","-0.5"
"1574269831280","65","0.20996094","-0.8984375","0.22070312","0.09375","4.125","-5.3125"
"1574269831280","66","0.20507812","-0.9013672","0.21679688","-3.4375","-1.1875","-2.40625"
"1574269831280","67","0.21777344","-0.89746094","0.20507812","-1.59375","5.40625","-2.09375"
"1574269831280","68","0.21777344","-0.9033203","0.20605469","-4.15625","4.6875","-1.59375"
"1574269831281","69","0.2265625","-0.9042969","0.22460938","-7.53125","2.65625","2.0"
"1574269831674","70","0.22070312","-0.8984375","0.19824219","-7.09375","5.84375","2.78125"
"1574269831675","71","0.16796875","-0.92089844","0.22753906","-4.78125","-0.5625","-1.53125"
"1574269831675","72","0.23535156","-0.8955078","0.18945312","-4.84375","6.75","0.90625"
"1574269831676","73","0.19824219","-0.9033203","0.20605469","-3.3125","-2.875","-2.53125"
"1574269831677","74","0.2109375","-0.92285156","0.1875","-0.125","2.125","-2.9375"
"1574269831677","75","0.20703125","-0.8984375","0.21777344","-1.46875","-1.84375","-1.0625"
"1574269831677","76","0.23242188","-0.88964844","0.20117188","-4.34375","6.75","1.5"
"1574269831677","77","0.19726562","-0.9345703","0.20117188","-6.375","-1.59375","0.0"
"1574269831678","78","0.21679688","-0.8847656","0.20019531","-8.0625","7.84375","2.1875"
"1574269831678","79","0.18945312","-0.9248047","0.19042969","-3.1875","-1.3125","-2.53125"
"1574269832071","80","0.21777344","-0.8984375","0.171875","-2.625","5.84375","-1.0625"
"1574269832072","81","0.20507812","-0.8935547","0.20898438","-3.6875","-2.9375","-2.6875"
"1574269832072","82","0.22167969","-0.92871094","0.17089844","0.03125","4.5625","-0.375"
"1574269832072","83","0.19726562","-0.8847656","0.16992188","-4.65625","-2.75","-3.125"
"1574269832072","84","0.203125","-0.9111328","0.21484375","-5.75","0.28125","-0.5"
"1574269832074","85","0.21777344","-0.90234375","0.15234375","-4.46875","3.84375","-0.6875"
"1574269832074","86","0.1953125","-0.92285156","0.19042969","-2.6875","2.375","-0.9375"
"1574269832075","87","0.23535156","-0.88964844","0.16113281","-3.5625","3.9375","-0.375"
"1574269832075","88","0.20605469","-0.9169922","0.18164062","-0.9375","1.375","-0.375"
"1574269832075","89","0.2109375","-0.89160156","0.16503906","-2.59375","2.25","-1.3125"
"1574269832469","90","0.2265625","-0.9199219","0.1953125","-2.625","0.34375","-1.53125"
"1574269832470","91","0.22460938","-0.89746094","0.15136719","-1.34375","2.65625","-1.53125"
"1574269832470","92","0.20605469","-0.9140625","0.203125","-2.21875","-1.46875","-3.5625"
"1574269832470","93","0.1953125","-0.9189453","0.16699219","1.375","1.15625","-3.3125"
"1574269832470","94","0.22070312","-0.9013672","0.15234375","2.65625","3.03125","-3.75"
"1574269832471","95","0.24414062","-0.8925781","0.19726562","-5.21875","2.59375","0.46875"
"1574269832471","96","0.18945312","-0.9111328","0.17089844","-2.59375","-0.6875","-3.625"
"1574269832472","97","0.24023438","-0.90234375","0.15820312","-4.34375","7.84375","0.71875"
"1574269832472","98","0.21582031","-0.89941406","0.18554688","-5.25","3.9375","-1.84375"
"1574269832473","99","0.234375","-0.92578125","0.15136719","-0.9375","-0.9375","-2.46875"
"1574269832865","100","0.20703125","-0.890625","0.17382812","0.28125","-0.75","-3.96875"
"1574269832866","101","0.24804688","-0.9013672","0.16894531","-1.96875","4.3125","0.46875"
"1574269832866","102","0.22949219","-0.9140625","0.16308594","-2.53125","-0.4375","-1.125"
"1574269832866","103","0.20898438","-0.91308594","0.16699219","-2.34375","-0.5625","-1.71875"
"1574269832867","104","0.22070312","-0.8984375","0.17675781","-4.34375","-0.5625","-1.84375"
"1574269832867","105","0.22949219","-0.9199219","0.16601562","-4.09375","-3.0","-2.40625"
"1574269832867","106","0.20996094","-0.8964844","0.16210938","-7.53125","-1.125","-5.25"
"1574269832867","107","0.21289062","-0.9140625","0.15820312","-6.71875","-3.5625","-5.9375"
"1574269832868","108","0.21484375","-0.8847656","0.13964844","-4.15625","3.71875","-5.6875"
"1574269832869","109","0.25097656","-0.9169922","0.14941406","-12.03125","-1.3125","-3.5"
"1574269833460","110","0.24804688","-0.8876953","0.13964844","-13.5625","0.28125","-3.0625"
"1574269833460","111","0.25195312","-0.90722656","0.13574219","-16.875","-5.4375","-0.4375"
"1574269833461","112","0.23242188","-0.8886719","0.09375","-8.125","-0.0625","-2.34375"
"1574269833461","113","0.25390625","-0.90234375","0.10644531","-9.28125","-1.125","-0.8125"
"1574269833461","114","0.24121094","-0.890625","0.0859375","-6.84375","2.375","-2.46875"
"1574269833461","115","0.2578125","-0.9091797","0.07324219","-2.21875","4.8125","0.40625"
"1574269833462","116","0.20605469","-0.9277344","0.12207031","-3.6875","9.4375","-3.0"
"1574269833462","117","0.25097656","-0.8857422","0.087890625","-7.46875","5.59375","-3.875"
"1574269833462","118","0.296875","-0.9140625","0.0625","-4.15625","9.875","5.0"
"1574269833462","119","0.2548828","-0.92089844","0.11230469","-4.96875","-1.125","2.125"
"1574269833662","120","0.2109375","-0.87109375","0.09277344","0.78125","0.65625","-0.4375"
"1574269833662","121","0.23632812","-0.92871094","0.09863281","-5.03125","1.5625","-0.75"
"1574269833663","122","0.2548828","-0.9160156","0.07324219","-0.625","-0.9375","-0.125"
"1574269833663","123","0.22363281","-0.89453125","0.095703125","1.09375","1.5625","0.71875"
"1574269833663","124","0.23046875","-0.8984375","0.078125","-2.09375","1.15625","1.09375"
"1574269833663","125","0.25","-0.91308594","0.087890625","-1.46875","1.03125","2.5"
"1574269833664","126","0.234375","-0.9033203","0.08300781","-1.59375","-1.0625","2.5"
"1574269833664","127","0.22363281","-0.90722656","0.09375","0.28125","0.09375","1.625"
"1574269833664","128","0.23046875","-0.9042969","0.095703125","-2.6875","-3.0","0.15625"
"1574269833664","129","0.22460938","-0.9091797","0.083984375","0.65625","-1.125","-0.1875"
"1574269834059","130","0.21777344","-0.90722656","0.09082031","1.5625","1.375","0.09375"
"1574269834060","131","0.21679688","-0.91015625","0.087890625","3.21875","0.78125","1.3125"
"1574269834060","132","0.21972656","-0.90722656","0.119140625","-0.625","3.03125","2.0625"
"1574269834061","133","0.21484375","-0.90625","0.08984375","2.65625","3.34375","0.34375"
"1574269834061","134","0.20605469","-0.9140625","0.09472656","0.53125","2.78125","-0.5625"
"1574269834061","135","0.21972656","-0.9082031","0.12011719","5.53125","5.0","-2.875"
"1574269834062","136","0.24511719","-0.89941406","0.09375","2.0","5.78125","-3.96875"
"1574269834062","137","0.18457031","-0.9091797","0.103515625","14.15625","5.40625","-4.65625"
"1574269834062","138","0.24023438","-0.91015625","0.11816406","5.34375","5.0","-2.53125"
"1574269834062","139","0.21191406","-0.9042969","0.13769531","0.21875","4.4375","-5.6875"
"1574269834456","140","0.23730469","-0.90722656","0.12597656","2.71875","6.21875","-2.40625"
"1574269834456","141","0.22753906","-0.9091797","0.115234375","-5.09375","5.1875","-1.96875"
"1574269834457","142","0.25390625","-0.9042969","0.13378906","-4.65625","3.40625","0.46875"
"1574269834457","143","0.1875","-0.8935547","0.11328125","0.28125","7.375","-4.34375"
"1574269834457","144","0.2578125","-0.93066406","0.109375","4.9375","7.5625","2.3125"
"1574269834458","145","0.22949219","-0.8798828","0.14257812","4.9375","7.5","-1.59375"
"1574269834458","146","0.23046875","-0.9091797","0.12792969","4.75","3.21875","-1.0"
"1574269834459","147","0.24707031","-0.9189453","0.1328125","-3.96875","0.84375","-1.3125"
"1574269834459","148","0.2265625","-0.89746094","0.14453125","-3.6875","0.59375","-2.8125"
"1574269834459","149","0.23730469","-0.89941406","0.13085938","-0.8125","4.1875","-0.875"
"1574269834853","150","0.22363281","-0.92578125","0.12109375","-0.1875","4.25","-0.75"
"1574269834854","151","0.22460938","-0.89746094","0.12988281","1.375","5.0625","0.65625"
"1574269834854","152","0.2548828","-0.9082031","0.14746094","-0.1875","5.0","1.375"
"1574269834854","153","0.203125","-0.8955078","0.14160156","-0.0625","-1.46875","-3.625"
"1574269834854","154","0.24902344","-0.91015625","0.14160156","-5.15625","2.125","0.0"
"1574269834855","155","0.23632812","-0.91308594","0.12695312","-4.40625","-1.1875","-4.59375"
"1574269834855","156","0.22558594","-0.890625","0.13378906","-1.125","2.25","1.09375"
"1574269834856","157","0.20605469","-0.9248047","0.12695312","-0.75","0.71875","-1.0625"
"1574269834856","158","0.24804688","-0.890625","0.12890625","-2.75","0.59375","1.75"
"1574269834857","159","0.23144531","-0.8984375","0.14550781","-4.46875","0.15625","-0.8125"
"1574269835252","160","0.23144531","-0.91796875","0.125","-4.28125","0.46875","-1.3125"
"1574269835252","161","0.24121094","-0.91503906","0.12207031","-1.90625","1.15625","-1.125"
"1574269835252","162","0.20019531","-0.8847656","0.11621094","3.65625","0.40625","-3.125"
"1574269835253","163","0.25683594","-0.9121094","0.12597656","-1.78125","6.03125","-1.25"
"1574269835253","164","0.2265625","-0.9121094","0.12988281","-4.90625","-1.84375","-1.59375"
"1574269835253","165","0.21972656","-0.90625","0.12402344","-0.5625","6.8125","-0.4375"
"1574269835253","166","0.2265625","-0.921875","0.12109375","2.1875","0.28125","-1.40625"
"1574269835254","167","0.24414062","-0.8779297","0.12695312","1.625","3.21875","-2.21875"
"1574269835254","168","0.2578125","-0.92285156","0.12207031","-1.46875","3.03125","0.21875"
"1574269835255","169","0.23144531","-0.9091797","0.09667969","9.125","2.78125","0.0"
"1574269835649","170","0.21582031","-0.88964844","0.1875","-6.0625","-3.0625","-0.9375"
"1574269835650","171","0.24414062","-0.91015625","0.115234375","3.21875","3.09375","-1.90625"
"1574269835650","172","0.25976562","-0.9140625","0.12890625","-5.4375","-0.375","0.0"
"1574269835650","173","0.23242188","-0.8964844","0.14160156","2.65625","-0.8125","-0.125"
"1574269835651","174","0.23144531","-0.9013672","0.12792969","0.59375","-3.6875","0.96875"
"1574269835651","175","0.22949219","-0.9082031","0.13769531","-2.875","1.5","-0.5625"
"1574269835651","176","0.20898438","-0.9042969","0.13476562","0.09375","-0.8125","-1.34375"
"1574269835651","177","0.24414062","-0.89746094","0.13476562","2.1875","5.90625","0.03125"
"1574269835652","178","0.2578125","-0.9345703","0.140625","-4.40625","-2.46875","0.28125"
"1574269835652","179","0.18945312","-0.8779297","0.13867188","0.78125","1.09375","-4.15625"
"1574269836047","180","0.21777344","-0.90722656","0.1328125","-1.1875","1.03125","-1.71875"
"1574269836048","181","0.2607422","-0.9082031","0.115234375","1.09375","8.59375","-0.4375"
"1574269836049","182","0.22949219","-0.9033203","0.13964844","-2.9375","-2.03125","-0.3125"
"1574269836049","183","0.24023438","-0.90625","0.13574219","0.71875","4.3125","-0.5"
"1574269836050","184","0.22558594","-0.9091797","0.13867188","2.0","1.15625","-0.6875"
"1574269836050","185","0.23632812","-0.91308594","0.12207031","-1.84375","-3.5625","-2.15625"
"1574269836050","186","0.23144531","-0.9082031","0.13671875","-3.5","-1.96875","-4.15625"
"1574269836051","187","0.22949219","-0.89746094","0.140625","-6.3125","-0.3125","-0.3125"
"1574269836051","188","0.24804688","-0.91503906","0.12988281","-9.84375","-3.0","0.96875"
"1574269836051","189","0.22070312","-0.9091797","0.115234375","-18.8125","-6.96875","3.40625"
"1574269836640","190","0.22363281","-0.90722656","0.12109375","-5.6875","0.28125","2.125"
"1574269836641","191","0.25","-0.89160156","0.083984375","-2.8125","-1.34375","1.3125"
"1574269836641","192","0.23535156","-0.9091797","0.107421875","-2.875","-2.34375","-0.125"
"1574269836642","193","0.21679688","-0.9042969","0.09277344","1.3125","1.09375","0.53125"
"1574269836642","194","0.234375","-0.9042969","0.12597656","-6.0625","3.53125","-0.125"
"1574269836643","195","0.22851562","-0.90527344","0.08691406","-2.34375","2.65625","-1.71875"
"1574269836643","196","0.21582031","-0.9091797","0.123046875","-3.75","1.28125","0.15625"
"1574269836643","197","0.21484375","-0.90722656","0.09082031","-1.0625","3.15625","0.28125"
"1574269836643","198","0.22753906","-0.90722656","0.09863281","2.84375","4.125","-1.3125"
"1574269836644","199","0.2265625","-0.90625","0.099609375","-0.0625","2.5","-1.25"
"1574269836842","200","0.21777344","-0.91015625","0.103515625","0.71875","4.5625","-0.75"
"1574269836842","201","0.20996094","-0.91015625","0.10449219","2.96875","4.9375","-1.90625"
"1574269836842","202","0.234375","-0.9082031","0.115234375","2.0625","5.90625","0.21875"
"1574269836843","203","0.2265625","-0.90722656","0.099609375","6.21875","8.90625","-1.90625"
"1574269836843","204","0.23144531","-0.9121094","0.115234375","2.0","8.46875","-1.25"
"1574269836843","205","0.22363281","-0.9033203","0.11816406","3.40625","5.21875","-1.84375"
"1574269836843","206","0.22949219","-0.9091797","0.119140625","1.5","7.625","-1.25"
"1574269836844","207","0.20996094","-0.91308594","0.1171875","2.96875","4.0","-2.03125"
"1574269836844","208","0.24121094","-0.9013672","0.1328125","-1.46875","7.96875","-0.8125"
"1574269836844","209","0.22460938","-0.90527344","0.119140625","0.0","5.125","-1.71875"
"1574269837436","210","0.2265625","-0.92285156","0.12109375","0.0","7.625","-1.84375"
"1574269837437","211","0.20898438","-0.8857422","0.12695312","-4.09375","0.78125","-3.875"
"1574269837437","212","0.23046875","-0.9091797","0.12695312","2.71875","6.875","-1.53125"
"1574269837437","213","0.23242188","-0.9189453","0.13085938","-3.625","0.65625","-3.4375"
"1574269837438","214","0.22558594","-0.88671875","0.12207031","0.65625","1.03125","-2.625"
"1574269837438","215","0.23339844","-0.9169922","0.13183594","0.15625","4.1875","0.03125"
"1574269837438","216","0.22949219","-0.9013672","0.13769531","-3.375","2.78125","-1.71875"
"1574269837439","217","0.22070312","-0.91503906","0.12988281","0.96875","4.9375","-0.5"
"1574269837440","218","0.234375","-0.9042969","0.125","1.3125","2.65625","-1.1875"
"1574269837440","219","0.22851562","-0.8955078","0.13671875","0.09375","4.6875","-1.65625"
"1574269837635","220","0.23730469","-0.9140625","0.12988281","0.0","2.3125","-0.4375"
"1574269837636","221","0.234375","-0.8964844","0.14257812","-0.375","3.28125","-0.875"
"1574269837636","222","0.21972656","-0.9042969","0.13964844","-0.5","2.90625","-1.0625"
"1574269837636","223","0.22753906","-0.90527344","0.13378906","1.03125","2.78125","-1.1875"
"1574269837636","224","0.24023438","-0.9082031","0.13183594","2.125","2.0625","-0.25"
"1574269837637","225","0.23339844","-0.890625","0.14160156","-3.8125","2.125","0.34375"
"1574269837637","226","0.23046875","-0.90234375","0.123046875","-4.15625","-0.625","0.96875"
"1574269837637","227","0.23730469","-0.90625","0.12988281","-1.46875","-0.5625","-0.8125"
"1574269837637","228","0.2265625","-0.8984375","0.13574219","-1.65625","0.40625","0.84375"
"1574269837639","229","0.22460938","-0.92089844","0.13183594","-0.5625","1.5","-0.875"
"1574269838231","230","0.23925781","-0.9013672","0.12207031","-0.5","-2.21875","0.90625"
"1574269838231","231","0.21386719","-0.90527344","0.13085938","4.0","0.34375","-0.125"
"1574269838232","232","0.22753906","-0.90625","0.14550781","-0.3125","0.71875","-1.125"
"1574269838232","233","0.24121094","-0.90722656","0.14257812","-1.53125","-1.1875","0.71875"
"1574269838232","234","0.22167969","-0.91308594","0.1328125","-2.8125","-1.53125","-2.34375"
"1574269838233","235","0.22167969","-0.8955078","0.12695312","-2.53125","0.78125","-0.75"
"1574269838233","236","0.22265625","-0.92578125","0.13476562","-3.1875","-0.625","-2.21875"
"1574269838233","237","0.19433594","-0.89941406","0.12695312","-1.25","-0.0625","-4.28125"
"1574269838233","238","0.2109375","-0.8964844","0.13574219","-3.75","3.28125","-3.0625"
"1574269838234","239","0.2685547","-0.9482422","0.13476562","-6.0","0.71875","-0.75"
"1574269838430","240","0.2265625","-0.8964844","0.119140625","-5.21875","-3.1875","-2.40625"
"1574269838431","241","0.19921875","-0.90234375","0.11816406","-14.65625","-1.40625","-5.9375"
"1574269838432","242","0.21386719","-0.890625","0.111328125","-1.71875","-1.40625","-2.6875"
"1574269838432","243","0.2763672","-0.88378906","0.06347656","-4.09375","4.125","-0.6875"
"1574269838432","244","0.28710938","-0.9091797","0.11328125","-5.375","1.28125","0.90625"
"1574269838432","245","0.25097656","-0.9013672","0.09277344","-4.78125","2.3125","0.15625"
"1574269838432","246","0.20800781","-0.9013672","0.08886719","-1.0","0.46875","-1.1875"
"1574269838433","247","0.24316406","-0.9082031","0.12792969","-9.96875","4.8125","0.65625"
"1574269838433","248","0.25390625","-0.90625","0.07714844","-5.4375","1.75","-0.1875"
"1574269838433","249","0.26953125","-0.8935547","0.078125","-0.75","2.4375","-1.84375"
"1574269838828","250","0.23339844","-0.9160156","0.07910156","2.84375","3.90625","-1.1875"
"1574269838829","251","0.22265625","-0.90527344","0.087890625","2.5","4.3125","0.28125"
"1574269838829","252","0.23828125","-0.90527344","0.09765625","-0.75","5.59375","-0.6875"
"1574269838831","253","0.25390625","-0.921875","0.099609375","1.15625","5.125","0.90625"
"1574269838832","254","0.22265625","-0.90625","0.12011719","-2.625","2.84375","-0.375"
"1574269838832","255","0.22753906","-0.9160156","0.1015625","-0.3125","1.4375","-0.8125"
"1574269838832","256","0.23535156","-0.9091797","0.10253906","-2.875","-0.3125","0.15625"
"1574269838832","257","0.24316406","-0.8935547","0.10644531","0.96875","-1.90625","-1.40625"
"1574269838833","258","0.24121094","-0.89941406","0.10546875","0.90625","-2.875","-1.65625"
"1574269838833","259","0.22167969","-0.90625","0.11328125","2.375","-1.46875","-2.09375"
"1574269839227","260","0.21289062","-0.90527344","0.107421875","2.375","-0.375","-2.34375"
"1574269839227","261","0.22363281","-0.9121094","0.111328125","-0.625","4.5","-1.34375"
"1574269839227","262","0.23535156","-0.9189453","0.099609375","2.1875","6.5625","-0.75"
"1574269839228","263","0.22460938","-0.9082031","0.11035156","2.84375","6.9375","-2.28125"
"1574269839228","264","0.22753906","-0.90234375","0.10449219","5.53125","11.8125","-0.625"
"1574269839229","265","0.22851562","-0.9121094","0.125","-3.8125","5.84375","-3.3125"
"1574269839230","266","0.24804688","-0.90234375","0.103515625","-0.0625","3.84375","-2.9375"
"1574269839230","267","0.24511719","-0.89941406","0.11425781","0.71875","7.25","-1.1875"
"1574269839230","268","0.25","-0.90625","0.119140625","-0.5625","5.1875","-1.90625"
"1574269839231","269","0.25195312","-0.8955078","0.11425781","-2.75","4.0625","0.0"
"1574269839624","270","0.2265625","-0.9013672","0.115234375","0.03125","3.90625","-1.0625"
"1574269839625","271","0.24609375","-0.9082031","0.1171875","0.34375","5.46875","-1.53125"
"1574269839625","272","0.25","-0.9003906","0.12207031","-0.0625","2.375","-1.53125"
"1574269839625","273","0.24511719","-0.89941406","0.12011719","2.0","1.3125","-2.9375"
"1574269839626","274","0.23242188","-0.89941406","0.123046875","1.3125","2.5","-1.34375"
"1574269839626","275","0.25","-0.91308594","0.12695312","5.46875","2.65625","-1.125"
"1574269839626","276","0.23730469","-0.9042969","0.14160156","2.5","2.65625","-1.53125"
"1574269839627","277","0.234375","-0.9003906","0.13476562","0.03125","5.78125","-2.09375"
"1574269839628","278","0.2421875","-0.9082031","0.13574219","-0.9375","6.625","-1.125"
"1574269839628","279","0.2578125","-0.91015625","0.12597656","-0.625","3.9375","-2.8125"
"1574269840022","280","0.25","-0.89941406","0.13085938","-1.46875","1.5","-0.9375"
"1574269840022","281","0.24316406","-0.8964844","0.12402344","0.96875","4.6875","-1.65625"
"1574269840023","282","0.2578125","-0.91015625","0.14746094","-0.25","3.71875","0.0"
"1574269840023","283","0.24121094","-0.91308594","0.13574219","-4.71875","2.5","-0.5625"
"1574269840023","284","0.24023438","-0.9013672","0.13085938","-2.34375","1.28125","0.46875"
"1574269840023","285","0.25683594","-0.9042969","0.1484375","-4.03125","1.09375","-0.625"
"1574269840024","286","0.23730469","-0.9121094","0.125","-4.78125","-1.1875","-1.40625"
"1574269840024","287","0.24316406","-0.91503906","0.12109375","-1.3125","-0.6875","-1.34375"
"1574269840024","288","0.24609375","-0.9013672","0.12792969","-0.375","-2.75","-1.71875"
"1574269840025","289","0.23242188","-0.90234375","0.12792969","-2.59375","-1.1875","-2.21875"
"1574269840418","290","0.23632812","-0.9042969","0.13183594","-2.34375","-0.0625","-1.3125"
"1574269840418","291","0.25390625","-0.9121094","0.115234375","-4.40625","-0.1875","-0.625"
"1574269840418","292","0.22265625","-0.9013672","0.12402344","-3.625","2.375","-2.15625"
"1574269840419","293","0.2734375","-0.9013672","0.11328125","-5.6875","3.28125","0.03125"
"1574269840419","294","0.23828125","-0.8955078","0.1171875","-6.125","-0.6875","-1.65625"
"1574269840419","295","0.23535156","-0.91308594","0.10644531","-0.6875","-0.4375","-2.46875"
"1574269840419","296","0.26660156","-0.9082031","0.1015625","2.65625","2.125","-2.875"
"1574269840419","297","0.25195312","-0.8964844","0.12597656","-2.21875","-1.125","-1.25"
"1574269840420","298","0.25683594","-0.9033203","0.0859375","-0.125","1.6875","0.53125"
"1574269840420","299","0.25390625","-0.9091797","0.11230469","-2.59375","-3.625","1.03125"
"1574269840815","300","0.25878906","-0.8828125","0.12402344","-2.59375","-1.78125","1.875"
"1574269840817","301","0.19824219","-0.91503906","0.111328125","4.25","-1.65625","-2.875"
"1574269840817","302","0.2734375","-0.9267578","0.06542969","2.96875","6.8125","3.65625"
"1574269840817","303","0.26953125","-0.8857422","0.15722656","-9.71875","0.46875","0.53125"
"1574269840817","304","0.23242188","-0.90625","0.09082031","-5.8125","0.34375","0.46875"
"1574269840818","305","0.23242188","-0.9140625","0.10546875","-10.8125","-2.75","-1.71875"
"1574269840818","306","0.2734375","-0.890625","0.095703125","2.375","-0.625","-1.59375"
"1574269840818","307","0.2548828","-0.8925781","0.11230469","-6.84375","-1.71875","-1.96875"
"1574269840818","308","0.25097656","-0.90234375","0.0859375","0.59375","-1.78125","-0.625"
"1574269840818","309","0.234375","-0.88964844","0.11328125","-2.09375","0.15625","-0.625"
"1574269841214","310","0.24511719","-0.9091797","0.07421875","2.71875","2.90625","2.0625"
"1574269841214","311","0.24414062","-0.91308594","0.107421875","-2.625","-0.0625","-1.34375"
"1574269841215","312","0.234375","-0.90234375","0.09375","5.0","3.21875","-0.4375"
"1574269841216","313","0.2607422","-0.89941406","0.119140625","-4.21875","0.78125","-1.25"
"1574269841216","314","0.23925781","-0.9140625","0.09375","0.03125","4.25","0.0"
"1574269841217","315","0.24414062","-0.9003906","0.07910156","1.6875","1.21875","-0.375"
"1574269841217","316","0.22753906","-0.9140625","0.11621094","3.21875","3.78125","-1.78125"
"1574269841217","317","0.23632812","-0.890625","0.10253906","2.96875","7.5","-2.625"
"1574269841217","318","0.25390625","-0.921875","0.08691406","9.125","4.4375","-0.6875"
"1574269841218","319","0.23242188","-0.8935547","0.14160156","4.0","5.21875","-3.75"
"1574269841612","320","0.2548828","-0.9033203","0.11621094","5.40625","5.90625","0.15625"
"1574269841612","321","0.2529297","-0.90722656","0.1328125","0.28125","7.25","0.40625"
"1574269841612","322","0.23730469","-0.89941406","0.123046875","0.28125","7.125","0.53125"
"1574269841613","323","0.23730469","-0.9111328","0.13183594","2.65625","6.46875","1.09375"
"1574269841613","324","0.24902344","-0.9013672","0.13378906","0.46875","1.625","0.0"
"1574269841614","325","0.234375","-0.9091797","0.13378906","0.90625","4.5625","-1.71875"
"1574269841615","326","0.24804688","-0.90234375","0.1484375","-2.53125","2.0625","-1.40625"
"1574269841615","327","0.24023438","-0.91796875","0.12988281","3.21875","6.46875","-0.6875"
"1574269841615","328","0.21777344","-0.90234375","0.14355469","2.96875","3.78125","-2.40625"
"1574269841615","329","0.25","-0.89746094","0.15136719","-1.0625","5.28125","0.71875"
"1574269842008","330","0.24316406","-0.921875","0.13769531","2.84375","3.40625","-1.3125"
"1574269842008","331","0.24609375","-0.8964844","0.14746094","-4.65625","4.5","0.0"
"1574269842008","332","0.23535156","-0.8984375","0.12890625","2.90625","4.1875","0.65625"
"1574269842008","333","0.24121094","-0.91796875","0.15527344","-0.625","4.375","-0.5625"
"1574269842009","334","0.2421875","-0.8857422","0.15722656","-2.28125","3.46875","-1.46875"
"1574269842009","335","0.24316406","-0.92578125","0.14453125","1.75","2.90625","1.375"
"1574269842009","336","0.2265625","-0.9033203","0.15527344","-1.125","0.78125","-3.4375"
"1574269842010","337","0.22167969","-0.890625","0.15332031","-0.625","-0.625","-0.3125"
"1574269842011","338","0.23925781","-0.92285156","0.140625","-0.75","4.0","-0.375"
"1574269842011","339","0.22851562","-0.8955078","0.15722656","-3.96875","-2.40625","-0.25"
"1574269842407","340","0.23730469","-0.89453125","0.14941406","0.71875","2.5","0.65625"
"1574269842407","341","0.22558594","-0.9199219","0.14941406","-3.375","0.09375","-0.375"
"1574269842407","342","0.22949219","-0.8955078","0.14160156","2.90625","1.75","-0.5625"
"1574269842408","343","0.24023438","-0.9082031","0.15136719","-3.375","-0.75","-0.25"
"1574269842408","344","0.2529297","-0.91503906","0.14550781","0.65625","-1.3125","0.09375"
"1574269842408","345","0.22363281","-0.89453125","0.13867188","-4.46875","1.09375","-0.3125"
"1574269842408","346","0.25195312","-0.91503906","0.14453125","-4.15625","0.46875","1.5625"
"1574269842409","347","0.22949219","-0.9082031","0.13671875","-4.59375","0.09375","-0.5"
"1574269842409","348","0.22460938","-0.8984375","0.12792969","-2.21875","-0.9375","-2.03125"
"1574269842410","349","0.23339844","-0.9091797","0.14160156","-4.21875","2.375","-0.875"
"1574269842804","350","0.26171875","-0.9013672","0.14648438","-8.1875","-0.5625","0.46875"
"1574269842805","351","0.21484375","-0.9169922","0.109375","-0.8125","-4.40625","-1.0"
"1574269842805","352","0.21875","-0.8808594","0.13574219","-5.15625","0.03125","-0.5625"
"1574269842805","353","0.23144531","-0.92578125","0.12011719","-2.6875","1.9375","0.0"
"1574269842805","354","0.27246094","-0.8935547","0.12988281","-5.4375","-1.0625","-0.875"
"1574269842806","355","0.19335938","-0.91796875","0.11035156","0.15625","1.3125","-1.0625"
"1574269842806","356","0.24609375","-0.89453125","0.12402344","-5.8125","1.75","-0.875"
"1574269842806","357","0.23632812","-0.89746094","0.12207031","-2.46875","2.59375","0.0"
"1574269842806","358","0.24804688","-0.9277344","0.10546875","-5.6875","1.28125","0.09375"
"1574269842807","359","0.203125","-0.89453125","0.12109375","-3.625","-0.25","-2.21875"
"1574269843399","360","0.23828125","-0.9121094","0.099609375","-3.3125","3.15625","-1.84375"
"1574269843399","361","0.24121094","-0.9160156","0.111328125","-5.4375","1.15625","-1.96875"
"1574269843400","362","0.234375","-0.9033203","0.1015625","-3.625","2.71875","-0.8125"
"1574269843400","363","0.20800781","-0.9013672","0.11425781","-4.96875","-0.0625","-2.875"
"1574269843401","364","0.24609375","-0.90722656","0.08105469","-1.53125","3.84375","0.0"
"1574269843401","365","0.23730469","-0.90625","0.109375","-2.21875","1.375","-1.65625"
"1574269843402","366","0.23535156","-0.89160156","0.099609375","-2.6875","2.3125","-1.0625"
"1574269843402","367","0.22753906","-0.9238281","0.087890625","-1.25","1.8125","-0.1875"
"1574269843402","368","0.22558594","-0.9091797","0.10449219","1.625","2.25","-2.6875"
"1574269843403","369","0.25","-0.8847656","0.095703125","-0.75","2.78125","-1.53125"
"1574269843599","370","0.23144531","-0.9199219","0.09082031","4.0625","7.125","-1.84375"
"1574269843599","371","0.24902344","-0.9121094","0.115234375","1.3125","7.375","-1.125"
"1574269843600","372","0.2529297","-0.8857422","0.11328125","1.5625","2.65625","-1.125"
"1574269843600","373","0.20507812","-0.91503906","0.1015625","1.75","4.6875","-1.71875"
"1574269843600","374","0.24902344","-0.9082031","0.10253906","-0.3125","8.09375","-1.71875"
"1574269843601","375","0.25683594","-0.8876953","0.1328125","-0.75","3.9375","-2.6875"
"1574269843601","376","0.2265625","-0.9121094","0.103515625","-1.78125","4.0","-1.25"
"1574269843601","377","0.20410156","-0.92578125","0.1171875","1.875","4.25","-4.09375"
"1574269843602","378","0.2734375","-0.8720703","0.10839844","-2.875","6.625","0.28125"
"1574269843602","379","0.24804688","-0.9042969","0.11035156","-5.5","3.28125","0.53125"
"1574269843997","380","0.24121094","-0.9248047","0.11230469","1.03125","10.0625","1.625"
"1574269843997","381","0.21386719","-0.91503906","0.12988281","-9.15625","-1.59375","-0.5"
"1574269843998","382","0.2109375","-0.89453125","0.12207031","-4.53125","2.3125","-3.875"
"1574269843998","383","0.25195312","-0.9140625","0.109375","-7.53125","6.40625","-3.5"
"1574269843998","384","0.23242188","-0.91308594","0.10449219","-5.4375","-0.5625","-7.28125"
"1574269844000","385","0.2265625","-0.89941406","0.10449219","-5.375","-0.375","-6.53125"
"1574269844000","386","0.26367188","-0.9003906","0.09082031","-5.75","-1.59375","-5.03125"
"1574269844000","387","0.21777344","-0.9091797","0.09667969","0.78125","-3.90625","-8.0"
"1574269844000","388","0.25878906","-0.859375","0.09082031","1.875","0.46875","-6.125"
"1574269844001","389","0.27734375","-0.9169922","0.07324219","5.34375","0.15625","-1.84375"
"1574269844591","390","0.23144531","-0.8652344","0.09667969","3.90625","4.5625","-3.125"
"1574269844591","391","0.35253906","-0.8808594","0.0859375","-4.15625","9.09375","8.15625"
"1574269844592","392","0.20214844","-0.94140625","0.07714844","3.21875","4.0","-3.125"
"1574269844592","393","0.27929688","-0.875","0.091796875","1.875","12.375","7.125"
"1574269844592","394","0.25976562","-0.91503906","0.103515625","-1.84375","9.75","2.84375"
"1574269844592","395","0.27246094","-0.9160156","0.07324219","-0.3125","8.53125","2.65625"
"1574269844593","396","0.27246094","-0.90722656","0.11425781","-4.21875","6.5","4.125"
"1574269844594","397","0.24316406","-0.88378906","0.11621094","-8.0","2.71875","0.96875"
"1574269844594","398","0.23925781","-0.9248047","0.08886719","-6.78125","0.71875","1.625"
"1574269844595","399","0.2626953","-0.9033203","0.08203125","-4.90625","-2.53125","0.09375"
"1574269844790","400","0.22851562","-0.9121094","0.10253906","-4.34375","-5.15625","-2.03125"
"1574269844791","401","0.234375","-0.91015625","0.091796875","-0.6875","-5.6875","-0.8125"
"1574269844791","402","0.234375","-0.89941406","0.107421875","-2.875","-4.96875","-1.0625"
"1574269844791","403","0.24804688","-0.9013672","0.08984375","-6.4375","-5.21875","0.09375"
"1574269844791","404","0.23242188","-0.91503906","0.08886719","-1.96875","-5.15625","0.53125"
"1574269844792","405","0.21875","-0.89453125","0.080078125","-0.9375","-3.375","-0.5"
"1574269844792","406","0.22070312","-0.92285156","0.07421875","1.3125","-0.625","-0.5625"
"1574269844792","407","0.25683594","-0.90527344","0.08496094","0.84375","2.90625","-0.5625"
"1574269844792","408","0.22753906","-0.9042969","0.09863281","-3.3125","0.84375","-1.25"
"1574269844794","409","0.23925781","-0.90625","0.08496094","-2.40625","6.21875","-0.1875"
"1574269845191","410","0.234375","-0.90722656","0.07519531","-3.25","3.40625","-2.28125"
"1574269845192","411","0.25","-0.90722656","0.0859375","0.46875","8.15625","-2.03125"
"1574269845192","412","0.26367188","-0.8984375","0.09765625","-1.78125","2.96875","-3.625"
"1574269845192","413","0.28808594","-0.90625","0.087890625","0.28125","-0.3125","-1.3125"
"1574269845192","414","0.25878906","-0.9121094","0.087890625","5.78125","1.8125","1.09375"
"1574269845193","415","0.22558594","-0.890625","0.095703125","3.09375","0.0","-1.65625"
"1574269845193","416","0.2421875","-0.9082031","0.08691406","2.65625","2.78125","0.65625"
"1574269845193","417","0.24609375","-0.9140625","0.095703125","7.0625","-3.375","-1.46875"
"1574269845193","418","0.234375","-0.9013672","0.08886719","7.0625","-0.875","0.0"
"1574269845194","419","0.22460938","-0.9013672","0.12695312","3.34375","1.5625","-1.1875"
"1574269845588","420","0.22949219","-0.91503906","0.09667969","3.34375","5.0","-1.65625"
"1574269845590","421","0.21191406","-0.91796875","0.123046875","2.65625","5.40625","-1.40625"
"1574269845591","422","0.24511719","-0.8984375","0.1171875","2.96875","9.8125","-1.84375"
"1574269845591","423","0.24316406","-0.9091797","0.1171875","2.5625","8.15625","-2.03125"
"1574269845591","424","0.25878906","-0.8876953","0.11621094","-1.78125","10.125","-0.25"
"1574269845591","425","0.24511719","-0.9042969","0.12695312","3.21875","5.21875","-2.03125"
"1574269845592","426","0.2578125","-0.8828125","0.11328125","0.65625","7.25","-2.09375"
"1574269845592","427","0.22753906","-0.92285156","0.14648438","-0.6875","1.375","-2.9375"
"1574269845592","428","0.2265625","-0.890625","0.13867188","-3.96875","0.65625","-3.8125"
"1574269845593","429","0.2626953","-0.9082031","0.10253906","-4.78125","1.28125","-0.4375"
"1574269845983","430","0.24121094","-0.9033203","0.125","-6.71875","-1.96875","-1.65625"
"1574269845984","431","0.22753906","-0.9042969","0.11425781","-4.28125","1.03125","-0.875"
"1574269845984","432","0.25585938","-0.90625","0.10839844","-8.0","0.40625","1.03125"
"1574269845985","433","0.2529297","-0.9003906","0.12402344","-11.84375","1.375","1.3125"
"1574269845985","434","0.26464844","-0.91015625","0.10253906","-14.3125","-9.21875","-0.5"
"1574269845985","435","0.19824219","-0.9042969","0.047851562","2.375","-2.09375","-2.625"
"1574269845986","436","0.2421875","-0.9082031","0.099609375","-1.65625","-3.25","-0.125"
"1574269845986","437","0.22949219","-0.8828125","0.09863281","1.3125","2.25","-3.375"
"1574269845986","438","0.2548828","-0.9160156","0.08300781","-2.8125","0.21875","0.90625"
"1574269845986","439","0.23828125","-0.9091797","0.080078125","-4.53125","1.3125","-1.3125"
"1574269846381","440","0.24902344","-0.8964844","0.1015625","-2.46875","1.4375","0.0"
"1574269846382","441","0.24511719","-0.88671875","0.076171875","-7.71875","1.8125","-3.875"
"1574269846382","442","0.2626953","-0.92578125","0.09765625","-5.6875","1.15625","-1.96875"
"1574269846382","443","0.23242188","-0.8857422","0.06640625","-1.46875","2.84375","-4.21875"
"1574269846382","444","0.29003906","-0.88964844","0.087890625","-7.09375","0.28125","0.0"
"1574269846383","445","0.234375","-0.9082031","0.064453125","3.46875","1.5625","-4.21875"
"1574269846383","446","0.2529297","-0.9091797","0.08105469","4.25","2.5625","-0.4375"
"1574269846383","447","0.26757812","-0.8935547","0.0859375","2.65625","3.21875","-1.59375"
"1574269846384","448","0.25390625","-0.9042969","0.08105469","8.34375","5.34375","-1.90625"
"1574269846384","449","0.24707031","-0.8964844","0.1015625","0.34375","-0.4375","-0.5625"
"1574269846779","450","0.265625","-0.9013672","0.09472656","3.71875","2.0","0.15625"
"1574269846780","451","0.25585938","-0.90722656","0.09765625","6.5","-0.5","-0.8125"
"1574269846780","452","0.2578125","-0.8984375","0.0859375","2.78125","1.8125","-0.5625"
"1574269846780","453","0.23828125","-0.90722656","0.11621094","-1.53125","2.78125","-0.25"
"1574269846780","454","0.2529297","-0.9091797","0.099609375","0.71875","8.03125","-0.25"
"1574269846781","455","0.234375","-0.88964844","0.099609375","2.65625","3.34375","0.40625"
"1574269846781","456","0.24707031","-0.9199219","0.103515625","1.5","2.78125","-2.28125"
"1574269846783","457","0.24023438","-0.88964844","0.099609375","7.5","5.59375","-2.03125"
"1574269846783","458","0.25390625","-0.8964844","0.1328125","-0.625","3.28125","-3.625"
"1574269846784","459","0.27148438","-0.9013672","0.125","0.03125","2.375","-1.0625"
"1574269847177","460","0.26464844","-0.90722656","0.10449219","2.0","5.0625","-1.65625"
"1574269847177","461","0.24316406","-0.9013672","0.13183594","-0.25","-0.8125","-0.3125"
"1574269847178","462","0.25","-0.8964844","0.13964844","0.15625","-0.6875","-0.5625"
"1574269847178","463","0.2705078","-0.9033203","0.11035156","-2.75","4.0","0.28125"
"1574269847178","464","0.22851562","-0.8886719","0.099609375","0.28125","-1.78125","0.53125"
"1574269847178","465","0.23339844","-0.88964844","0.11425781","2.84375","7.125","-0.8125"
"1574269847179","466","0.27148438","-0.93359375","0.1328125","-1.1875","2.59375","1.15625"
"1574269847179","467","0.24511719","-0.8798828","0.1328125","-0.0625","1.625","-1.25"
"1574269847179","468","0.25097656","-0.91015625","0.09765625","-4.65625","5.40625","2.96875"
"1574269847181","469","0.2705078","-0.9189453","0.13964844","-6.3125","-0.3125","-0.5"
"1574269847573","470","0.23046875","-0.88378906","0.10644531","2.96875","0.0","0.0"
"1574269847573","471","0.24609375","-0.92871094","0.11816406","-3.96875","-1.65625","-1.125"
"1574269847573","472","0.25390625","-0.90234375","0.09765625","3.65625","1.03125","-0.75"
"1574269847573","473","0.28222656","-0.8984375","0.16113281","-9.34375","-5.03125","3.34375"
"1574269847574","474","0.2265625","-0.90625","0.083984375","-2.46875","-8.1875","3.53125"
"1574269847574","475","0.22949219","-0.90234375","0.12597656","-10.75","-5.03125","-2.03125"
"1574269847574","476","0.22363281","-0.9003906","0.078125","-0.125","-1.3125","1.875"
"1574269847574","477","0.22167969","-0.90527344","0.07714844","0.21875","3.78125","-3.875"
"1574269847575","478","0.24121094","-0.9042969","0.11230469","-1.125","2.3125","-0.625"
"1574269847575","479","0.2265625","-0.9042969","0.11425781","0.21875","5.59375","-2.40625"
"1574269848565","480","0.25878906","-0.91503906","0.10644531","-3.375","5.84375","-0.8125"
"1574269848566","481","0.2548828","-0.8955078","0.107421875","-4.03125","3.28125","-0.4375"
"1574269848567","482","0.23046875","-0.9042969","0.09472656","-3.25","4.625","-3.1875"
"1574269848567","483","0.26171875","-0.9003906","0.10839844","-7.53125","1.28125","-1.65625"
"1574269848567","484","0.25","-0.9033203","0.08496094","-4.84375","3.59375","-1.84375"
"1574269848568","485","0.24902344","-0.9140625","0.09277344","-6.59375","1.5625","-0.625"
"1574269848568","486","0.25","-0.90234375","0.09277344","-4.53125","0.84375","-1.46875"
"1574269848568","487","0.2578125","-0.9013672","0.07910156","-6.375","-0.5","-2.875"
"1574269848568","488","0.25878906","-0.9091797","0.111328125","-5.3125","2.59375","-0.4375"
"1574269848569","489","0.22070312","-0.90722656","0.05078125","0.0","2.0625","-3.4375"
"1574269848762","490","0.24804688","-0.89746094","0.087890625","-1.65625","-1.46875","-2.875"
"1574269848762","491","0.23925781","-0.8857422","0.08300781","0.09375","3.21875","-0.3125"
"1574269848763","492","0.26171875","-0.9277344","0.08886719","-5.25","1.5","0.90625"
"1574269848764","493","0.2529297","-0.90625","0.07519531","0.65625","1.21875","0.96875"
"1574269848764","494","0.23828125","-0.8857422","0.078125","-0.75","3.53125","0.46875"
"1574269848765","495","0.25683594","-0.9013672","0.07128906","1.09375","-0.1875","0.90625"
"1574269848765","496","0.24707031","-0.9140625","0.07714844","3.90625","3.53125","-2.09375"
"1574269848765","497","0.21679688","-0.89453125","0.095703125","4.0625","3.34375","-1.78125"
"1574269848766","498","0.26171875","-0.90234375","0.083984375","7.125","6.5625","-1.125"
"1574269848766","499","0.25390625","-0.8984375","0.103515625","1.4375","4.25","-0.5"
"1574269848962","500","0.23828125","-0.90527344","0.09472656","7.0","6.8125","0.65625"
"1574269848963","501","0.21875","-0.9003906","0.10644531","3.71875","5.34375","-1.25"
"1574269848963","502","0.24023438","-0.9082031","0.12011719","3.34375","5.90625","-0.9375"
"1574269848963","503","0.25390625","-0.91308594","0.09765625","4.0","6.46875","0.0"
"1574269848964","504","0.23046875","-0.8857422","0.125","-0.6875","1.5","-1.0625"
"1574269848965","505","0.23828125","-0.9189453","0.109375","-4.46875","4.1875","-0.8125"
"1574269848965","506","0.26464844","-0.9042969","0.11816406","-3.0","2.96875","-0.375"
"1574269848966","507","0.21289062","-0.8925781","0.11035156","-1.3125","1.5625","-3.0"
"1574269848966","508","0.25195312","-0.89941406","0.09863281","-0.9375","4.375","-1.53125"
"1574269848966","509","0.25390625","-0.9111328","0.115234375","0.46875","1.3125","-2.03125"
"1574269849164","510","0.21679688","-0.8984375","0.12695312","3.34375","4.0","-2.625"
"1574269849164","511","0.24511719","-0.91015625","0.12207031","-0.25","3.9375","-0.6875"
"1574269849165","512","0.24707031","-0.90234375","0.12890625","-1.34375","3.15625","-2.46875"
"1574269849165","513","0.22363281","-0.91015625","0.1328125","-1.78125","3.84375","-3.5625"
"1574269849165","514","0.25097656","-0.890625","0.10839844","-3.125","1.6875","-2.09375"
"1574269849165","515","0.23339844","-0.9140625","0.11621094","-1.65625","0.78125","-6.3125"
"1574269849166","516","0.27539062","-0.8984375","0.12402344","-3.125","0.0","-2.75"
"1574269849167","517","0.22753906","-0.8925781","0.119140625","1.5","-1.65625","-5.375"
"1574269849167","518","0.25","-0.8886719","0.091796875","-7.34375","0.0","-3.0"
"1574269849167","519","0.2783203","-0.90722656","0.08496094","-4.90625","2.25","-2.09375"
"1574269849760","520","0.27246094","-0.87402344","0.09375","-0.625","1.5625","-0.875"
"1574269849760","521","0.20019531","-0.91503906","0.09375","0.40625","4.5625","-4.21875"
"1574269849761","522","0.28710938","-0.8808594","0.11035156","-2.8125","15.90625","1.09375"
"1574269849761","523","0.30273438","-0.9199219","0.103515625","-2.9375","9.3125","3.46875"
"1574269849761","524","0.26464844","-0.89453125","0.09765625","-4.46875","10.3125","1.03125"
"1574269849761","525","0.27734375","-0.9326172","0.1015625","-9.71875","7.3125","6.5625"
"1574269849762","526","0.22363281","-0.9091797","0.10449219","-1.40625","3.28125","0.0"
"1574269849762","527","0.25683594","-0.8779297","0.09667969","-2.59375","7.84375","4.4375"
"1574269849762","528","0.2890625","-0.90722656","0.11816406","-12.21875","3.71875","6.46875"
"1574269849764","529","0.25585938","-0.9121094","0.1171875","-9.78125","-5.5","6.5625"
"1574269849958","530","0.2421875","-0.91308594","0.07910156","-5.5","-10.6875","4.5625"
"1574269849958","531","0.23828125","-0.90234375","0.091796875","-4.59375","-12.59375","0.96875"
"1574269849958","532","0.22460938","-0.89746094","0.087890625","-2.46875","-14.65625","-0.9375"
"1574269849958","533","0.20996094","-0.91308594","0.083984375","0.59375","-11.71875","-1.96875"
"1574269849959","534","0.21484375","-0.90722656","0.0859375","0.34375","-5.5","-3.0625"
"1574269849959","535","0.21484375","-0.9003906","0.076171875","0.03125","-2.03125","-3.3125"
"1574269849959","536","0.22363281","-0.9160156","0.07714844","2.5","3.21875","-0.875"
"1574269849960","537","0.20605469","-0.9160156","0.076171875","-0.125","5.53125","-1.0625"
"1574269849960","538","0.234375","-0.90527344","0.080078125","3.46875","9.25","-2.59375"
"1574269849960","539","0.24609375","-0.8984375","0.08691406","2.375","10.84375","-1.90625"
"1574269850357","540","0.23144531","-0.9082031","0.0859375","3.03125","11.15625","-2.53125"
"1574269850358","541","0.2578125","-0.91308594","0.095703125","-0.0625","11.46875","-1.84375"
"1574269850359","542","0.2529297","-0.88671875","0.087890625","1.15625","7.8125","-3.75"
"1574269850359","543","0.26757812","-0.89453125","0.09082031","1.4375","6.6875","-3.0"
"1574269850359","544","0.265625","-0.90625","0.11230469","2.71875","4.5625","-2.03125"
"1574269850360","545","0.26171875","-0.9013672","0.099609375","4.3125","0.21875","-1.71875"
"1574269850360","546","0.20898438","-0.9013672","0.111328125","4.875","-1.1875","-3.0625"
"1574269850360","547","0.25195312","-0.90722656","0.11621094","1.5","2.4375","-0.6875"
"1574269850360","548","0.23925781","-0.8955078","0.1171875","2.0625","0.46875","-2.625"
"1574269850361","549","0.24511719","-0.90527344","0.09765625","0.53125","1.5","-1.53125"
"1574269850754","550","0.23632812","-0.9169922","0.11621094","-0.3125","1.6875","-1.78125"
"1574269850755","551","0.23144531","-0.89941406","0.13085938","-0.25","0.46875","-1.96875"
"1574269850755","552","0.23046875","-0.89746094","0.10546875","0.15625","5.34375","-0.1875"
"1574269850756","553","0.26367188","-0.921875","0.12988281","-6.84375","2.125","-0.4375"
"1574269850757","554","0.22167969","-0.89160156","0.1171875","-5.09375","4.0","-1.71875"
"1574269850757","555","0.25878906","-0.9121094","0.087890625","-2.625","2.84375","2.1875"
"1574269850757","556","0.23632812","-0.8925781","0.12695312","-6.59375","2.59375","-1.40625"
"1574269850758","557","0.24902344","-0.9121094","0.09277344","-2.875","0.59375","-0.375"
"1574269850758","558","0.25097656","-0.9091797","0.09277344","-4.59375","2.78125","0.40625"
"1574269850758","559","0.2421875","-0.88964844","0.1015625","-0.4375","1.15625","-1.53125"
"1574269851152","560","0.25195312","-0.9091797","0.091796875","-3.5625","1.75","-1.125"
"1574269851152","561","0.23144531","-0.9013672","0.10644531","-4.09375","3.9375","-2.15625"
"1574269851152","562","0.234375","-0.89160156","0.09277344","-3.75","2.84375","-1.96875"
"1574269851153","563","0.25976562","-0.9189453","0.08203125","-4.09375","3.15625","-1.125"
"1574269851153","564","0.2685547","-0.89746094","0.099609375","-3.75","1.03125","-0.8125"
"1574269851154","565","0.23828125","-0.8964844","0.087890625","-5.15625","0.59375","-1.0625"
"1574269851155","566","0.24707031","-0.90625","0.083984375","-6.65625","-0.9375","-2.03125"
"1574269851155","567","0.26464844","-0.9111328","0.08105469","-3.8125","-2.625","-3.0"
"1574269851155","568","0.24707031","-0.8886719","0.0625","-4.34375","-2.875","-3.0625"
"1574269851155","569","0.265625","-0.9013672","0.08203125","-5.9375","-0.625","-0.9375"
"1574269851548","570","0.23535156","-0.91503906","0.06542969","-2.28125","-1.0","-2.40625"
"1574269851548","571","0.27734375","-0.8955078","0.060546875","-5.21875","-0.9375","0.84375"
"1574269851548","572","0.25195312","-0.9042969","0.07324219","-4.03125","-2.59375","-0.75"
"1574269851549","573","0.24609375","-0.9013672","0.05859375","-3.625","-3.125","-1.59375"
"1574269851549","574","0.24609375","-0.90625","0.06738281","-2.09375","-2.03125","-1.40625"
"1574269851549","575","0.24023438","-0.8935547","0.049804688","4.3125","1.5625","-3.25"
"1574269851549","576","0.24609375","-0.91015625","0.07910156","0.65625","0.53125","-2.53125"
"1574269851550","577","0.25683594","-0.890625","0.068359375","2.5","3.40625","0.0"
"1574269851550","578","0.23535156","-0.9140625","0.06933594","1.75","5.0","-0.3125"
"1574269851551","579","0.25683594","-0.89453125","0.06640625","5.125","6.03125","1.5"
"1574269851945","580","0.25","-0.9082031","0.083984375","-0.75","4.6875","-0.1875"
"1574269851946","581","0.25585938","-0.89941406","0.07128906","0.46875","6.6875","-0.125"
"1574269851946","582","0.24121094","-0.9003906","0.08203125","-0.1875","7.96875","-1.71875"
"1574269851946","583","0.2705078","-0.9033203","0.083984375","-1.65625","7.96875","0.15625"
"1574269851946","584","0.24609375","-0.9042969","0.07714844","-1.34375","5.71875","-1.125"
"1574269851946","585","0.2578125","-0.90722656","0.07910156","2.25","4.6875","0.78125"
"1574269851947","586","0.2685547","-0.8857422","0.091796875","-6.90625","0.59375","-0.5"
"1574269851947","587","0.2529297","-0.90625","0.07519531","-3.0","-0.9375","1.3125"
"1574269851947","588","0.24804688","-0.90527344","0.078125","-0.8125","0.21875","0.15625"
"1574269851948","589","0.22167969","-0.8964844","0.07128906","-0.3125","0.90625","-1.46875"
"1574269852344","590","0.25097656","-0.91015625","0.08496094","3.21875","3.59375","-0.375"
"1574269852345","591","0.23730469","-0.8984375","0.076171875","3.59375","2.0","-1.53125"
"1574269852345","592","0.25097656","-0.89160156","0.08691406","2.3125","4.6875","0.0"
"1574269852345","593","0.25683594","-0.91015625","0.10253906","-0.4375","3.71875","-0.9375"
"1574269852345","594","0.24511719","-0.9013672","0.083984375","-0.125","2.5","0.65625"
"1574269852346","595","0.24023438","-0.9003906","0.08691406","0.28125","2.125","-0.625"
"1574269852346","596","0.25097656","-0.90722656","0.09277344","1.75","0.40625","0.0"
"1574269852346","597","0.23730469","-0.9013672","0.10058594","-1.0","2.5","-0.75"
"1574269852346","598","0.2578125","-0.91308594","0.07519531","2.71875","1.5625","-0.6875"
"1574269852347","599","0.234375","-0.9082031","0.10839844","4.125","-1.78125","-2.8125"
"1574269852936","600","0.2578125","-0.89453125","0.09375","2.5","0.34375","-1.0625"
"1574269852937","601","0.23828125","-0.90527344","0.09765625","4.0625","-1.0","-3.375"
"1574269852937","602","0.23925781","-0.8935547","0.115234375","-6.5","-1.34375","-1.0"
"1574269852938","603","0.25976562","-0.9121094","0.091796875","-6.375","1.28125","0.0"
"1574269852938","604","0.22460938","-0.89453125","0.08984375","0.0","1.5","-0.8125"
"1574269852938","605","0.24023438","-0.89941406","0.10253906","-3.90625","3.34375","0.65625"
"1574269852938","606","0.25390625","-0.92285156","0.09667969","1.5625","3.65625","0.34375"
"1574269852939","607","0.2578125","-0.8886719","0.095703125","0.0","2.65625","0.65625"
"1574269852939","608","0.23632812","-0.90527344","0.091796875","-0.4375","-0.375","0.21875"
"1574269852939","609","0.2548828","-0.91015625","0.10449219","-1.46875","2.71875","-0.625"
"1574269853139","610","0.24707031","-0.89746094","0.10058594","-2.6875","-2.625","0.53125"
"1574269853140","611","0.25","-0.9091797","0.095703125","-1.3125","-1.3125","0.15625"
"1574269853140","612","0.22363281","-0.9033203","0.091796875","-0.9375","-0.3125","-0.6875"
"1574269853141","613","0.24804688","-0.90625","0.09082031","1.03125","0.09375","0.21875"
"1574269853142","614","0.22558594","-0.9003906","0.1015625","-2.09375","1.6875","-0.5625"
"1574269853142","615","0.23828125","-0.90527344","0.09277344","-0.3125","3.28125","-0.125"
"1574269853142","616","0.24023438","-0.90625","0.08984375","-3.625","-1.1875","-1.1875"
"1574269853142","617","0.25390625","-0.90722656","0.1015625","0.53125","2.3125","-0.625"
"1574269853143","618","0.22851562","-0.89746094","0.091796875","-3.1875","-0.625","-2.59375"
"1574269853143","619","0.25097656","-0.90234375","0.07910156","-3.625","-2.09375","-1.46875"
"1574269853735","620","0.22949219","-0.9091797","0.09082031","-0.875","0.34375","-1.90625"
"1574269853736","621","0.25","-0.9111328","0.08496094","-0.25","0.65625","0.03125"
"1574269853736","622","0.2626953","-0.9013672","0.09375","1.625","2.84375","1.5"
"1574269853736","623","0.23535156","-0.8984375","0.08984375","-1.34375","1.625","-1.78125"
"1574269853737","624","0.23046875","-0.8935547","0.08984375","-3.25","1.3125","0.40625"
"1574269853738","625","0.25390625","-0.9199219","0.076171875","0.28125","3.71875","-1.0"
"1574269853738","626","0.22753906","-0.8935547","0.09472656","1.3125","-0.1875","-1.46875"
"1574269853739","627","0.24707031","-0.89941406","0.08203125","4.0","6.09375","0.84375"
"1574269853739","628","0.2421875","-0.9111328","0.09765625","2.65625","1.3125","-1.46875"
"1574269853739","629","0.2109375","-0.89453125","0.091796875","6.34375","7.5","-2.46875"
"1574269853933","630","0.2626953","-0.9091797","0.10644531","-1.3125","5.59375","1.625"
"1574269853933","631","0.25195312","-0.921875","0.103515625","-0.1875","6.15625","0.28125"
"1574269853933","632","0.19921875","-0.8798828","0.091796875","-1.1875","4.75","-1.96875"
"1574269853934","633","0.265625","-0.9248047","0.11035156","-0.1875","6.28125","2.4375"
"1574269853934","634","0.23828125","-0.91015625","0.10546875","-2.9375","2.1875","-3.5"
"1574269853934","635","0.21484375","-0.8876953","0.091796875","0.15625","4.3125","-1.84375"
"1574269853934","636","0.24511719","-0.9033203","0.10839844","-2.03125","4.375","-0.9375"
"1574269853935","637","0.22265625","-0.9199219","0.103515625","0.15625","5.78125","-3.5625"
"1574269853936","638","0.24023438","-0.8886719","0.109375","-1.40625","8.28125","0.0"
"1574269853936","639","0.24707031","-0.9091797","0.10058594","1.8125","6.46875","0.46875"
"1574269854332","640","0.24511719","-0.921875","0.11230469","-3.0625","4.625","-1.25"
"1574269854332","641","0.22265625","-0.8935547","0.12011719","-2.6875","0.84375","-1.78125"
"1574269854333","642","0.23730469","-0.89746094","0.11230469","-0.5","5.28125","-2.28125"
"1574269854333","643","0.24316406","-0.92285156","0.09765625","-1.84375","3.15625","-3.25"
"1574269854333","644","0.26660156","-0.88964844","0.11035156","-0.25","2.25","-1.78125"
"1574269854333","645","0.23632812","-0.90625","0.12011719","-2.9375","1.5625","-1.1875"
"1574269854334","646","0.25","-0.9111328","0.115234375","-5.8125","1.375","-1.3125"
"1574269854334","647","0.23242188","-0.9013672","0.13183594","-7.53125","-1.0","-3.625"
"1574269854334","648","0.25097656","-0.90722656","0.09277344","-5.625","-0.0625","-2.59375"
"1574269854336","649","0.24023438","-0.90234375","0.08984375","-6.65625","-0.875","-4.96875"
"1574269854729","650","0.25585938","-0.9003906","0.064453125","-2.21875","-1.0","-1.78125"
"1574269854730","651","0.28808594","-0.88964844","0.095703125","-8.0","4.875","2.71875"
"1574269854730","652","0.23730469","-0.91796875","0.07714844","0.96875","1.21875","0.53125"
"1574269854730","653","0.28222656","-0.91308594","0.083984375","-3.6875","-1.53125","6.03125"
"1574269854731","654","0.26953125","-0.8925781","0.11816406","-15.59375","-9.0","-0.125"
"1574269854731","655","0.19824219","-0.8671875","0.032226562","-2.40625","-3.90625","-3.875"
"1574269854731","656","0.23339844","-0.9628906","0.01953125","-4.03125","-1.78125","-1.78125"
"1574269854731","657","0.23730469","-0.86621094","0.078125","5.34375","5.0","-2.875"
"1574269854731","658","0.25683594","-0.875","0.10058594","-4.65625","10.65625","2.5625"
"1574269854732","659","0.22558594","-0.9404297","0.064453125","-8.0625","7.3125","2.125"
"1574269855126","660","0.23828125","-0.9111328","0.0625","1.375","10.375","1.6875"
"1574269855127","661","0.27929688","-0.8779297","0.068359375","-1.59375","6.625","-0.5625"
"1574269855128","662","0.23730469","-0.9189453","0.08496094","-1.34375","3.15625","-2.28125"
"1574269855128","663","0.22851562","-0.89941406","0.049804688","0.78125","5.21875","-1.84375"
"1574269855128","664","0.23632812","-0.9042969","0.083984375","-2.875","4.0","-3.1875"
"1574269855128","665","0.24902344","-0.8955078","0.07714844","-3.0625","2.1875","-1.125"
"1574269855129","666","0.25097656","-0.8955078","0.08203125","-1.40625","-0.5625","-0.3125"
"1574269855129","667","0.24804688","-0.9003906","0.076171875","-2.75","-1.1875","1.15625"
"1574269855129","668","0.25976562","-0.90625","0.07714844","-4.21875","-3.3125","1.6875"
"1574269855129","669","0.2421875","-0.91796875","0.06542969","2.59375","-6.90625","1.5625"
"1574269855720","670","0.23632812","-0.9013672","0.07324219","1.5625","-8.9375","1.625"
"1574269855721","671","0.23144531","-0.9042969","0.059570312","7.0625","-9.59375","-1.3125"
"1574269855721","672","0.22558594","-0.89941406","0.08496094","9.3125","-2.8125","-1.59375"
"1574269855722","673","0.21386719","-0.9091797","0.07519531","10.1875","0.65625","-0.1875"
"1574269855722","674","0.23046875","-0.91015625","0.08105469","10.59375","1.875","-1.1875"
"1574269855723","675","0.21582031","-0.8984375","0.10644531","9.125","4.0625","-0.75"
"1574269855723","676","0.21972656","-0.9042969","0.10644531","6.9375","7.90625","-0.6875"
"1574269855723","677","0.23730469","-0.91503906","0.11425781","4.5625","3.90625","-1.1875"
"1574269855724","678","0.23632812","-0.9003906","0.09863281","6.8125","5.59375","-1.71875"
"1574269855724","679","0.23046875","-0.90625","0.13183594","5.65625","3.53125","-0.5625"
"1574269856118","680","0.23535156","-0.90722656","0.12597656","2.84375","3.21875","-1.84375"
"1574269856118","681","0.24023438","-0.9091797","0.11328125","11.28125","3.90625","1.375"
"1574269856119","682","0.23144531","-0.9042969","0.15039062","4.8125","7.5625","0.46875"
"1574269856119","683","0.22460938","-0.8935547","0.140625","5.78125","7.5625","-1.0625"
"1574269856119","684","0.24023438","-0.9199219","0.13476562","7.625","6.6875","0.15625"
"1574269856120","685","0.22558594","-0.8984375","0.15917969","2.5625","7.25","-2.09375"
"1574269856121","686","0.2421875","-0.9003906","0.16015625","2.125","5.90625","-1.84375"
"1574269856121","687","0.24023438","-0.91015625","0.15234375","3.21875","4.1875","-1.46875"
"1574269856121","688","0.23242188","-0.9042969","0.17382812","3.09375","4.3125","-1.0"
"1574269856122","689","0.2421875","-0.90527344","0.15917969","4.6875","4.0625","-0.125"
"1574269856517","690","0.24414062","-0.91308594","0.16113281","5.34375","0.90625","-0.375"
"1574269856518","691","0.22558594","-0.8984375","0.17675781","1.5625","1.09375","0.53125"
"1574269856518","692","0.23242188","-0.91503906","0.1796875","1.09375","-0.4375","0.53125"
"1574269856518","693","0.23632812","-0.90722656","0.1640625","1.03125","-0.75","0.96875"
"1574269856518","694","0.23046875","-0.91308594","0.18945312","2.84375","-0.625","1.3125"
"1574269856519","695","0.22558594","-0.8955078","0.18261719","-2.46875","-1.0625","-1.0625"
"1574269856520","696","0.22265625","-0.91796875","0.17285156","2.78125","-0.3125","2.0"
"1574269856521","697","0.22460938","-0.89453125","0.18457031","1.15625","1.4375","-0.75"
"1574269856522","698","0.22070312","-0.9042969","0.19042969","-0.5","0.03125","0.0"
"1574269856522","699","0.22558594","-0.91015625","0.1796875","2.1875","2.65625","-0.75"
"1574269857114","700","0.22167969","-0.9042969","0.18945312","2.5","2.5625","-0.5625"
"1574269857115","701","0.22265625","-0.9013672","0.1953125","0.09375","2.25","-0.875"
"1574269857115","702","0.22851562","-0.90527344","0.1875","2.96875","2.65625","-0.375"
"1574269857115","703","0.21972656","-0.90625","0.19238281","3.03125","0.65625","-0.6875"
"1574269857115","704","0.23535156","-0.9082031","0.19726562","2.84375","1.03125","-0.6875"
"1574269857116","705","0.23828125","-0.9003906","0.203125","1.875","3.40625","-0.3125"
"1574269857116","706","0.22070312","-0.9111328","0.19726562","4.0","1.3125","-1.0"
"1574269857116","707","0.23242188","-0.9033203","0.21386719","1.5625","1.21875","0.09375"
"1574269857116","708","0.22363281","-0.8984375","0.20605469","1.625","0.90625","0.0"
"1574269857118","709","0.23339844","-0.9091797","0.20898438","2.25","3.34375","0.53125"
"1574269857311","710","0.21289062","-0.90625","0.21582031","-0.625","0.40625","-0.75"
"1574269857312","711","0.23046875","-0.9082031","0.20019531","1.21875","0.65625","0.78125"
"1574269857312","712","0.22167969","-0.8955078","0.21777344","2.0","3.40625","-0.875"
"1574269857312","713","0.21386719","-0.9082031","0.21582031","2.0","2.5","-1.125"
"1574269857313","714","0.23242188","-0.9111328","0.21875","3.90625","4.875","0.40625"
"1574269857313","715","0.23535156","-0.9033203","0.21679688","0.03125","2.96875","-0.75"
"1574269857313","716","0.20800781","-0.9169922","0.22949219","3.53125","-0.6875","-2.59375"
"1574269857313","717","0.20800781","-0.9013672","0.22558594","-1.46875","5.1875","-3.875"
"1574269857313","718","0.20703125","-0.8955078","0.20605469","2.5","5.0","-1.0"
"1574269857314","719","0.25683594","-0.9091797","0.20214844","-0.5625","12.3125","-1.78125"
"1574269857711","720","0.21679688","-0.9082031","0.2529297","-4.21875","4.0","-0.625"
"1574269857712","721","0.22363281","-0.89453125","0.21875","-0.5","4.625","-1.78125"
"1574269857713","722","0.24707031","-0.9033203","0.22167969","-2.03125","2.25","0.03125"
"1574269857713","723","0.22851562","-0.90234375","0.20996094","-4.40625","-0.625","-2.53125"
"1574269857713","724","0.23046875","-0.9082031","0.23242188","-0.125","-0.1875","1.3125"
"1574269857713","725","0.21386719","-0.90234375","0.21386719","-1.3125","-0.875","-1.3125"
"1574269857714","726","0.22460938","-0.90722656","0.22167969","-0.25","-2.34375","0.78125"
"1574269857714","727","0.22265625","-0.89941406","0.21972656","-1.125","3.40625","0.71875"
"1574269857714","728","0.20996094","-0.9199219","0.23828125","1.6875","-1.84375","-1.40625"
"1574269857714","729","0.23339844","-0.8964844","0.22851562","4.0","2.375","0.21875"
"1574269858108","730","0.21972656","-0.89160156","0.20800781","3.53125","2.125","-1.59375"
"1574269858108","731","0.21777344","-0.91796875","0.23730469","1.6875","3.65625","0.21875"
"1574269858108","732","0.19921875","-0.8984375","0.23242188","1.875","1.875","-0.875"
"1574269858109","733","0.21679688","-0.89746094","0.22949219","4.5625","3.71875","1.3125"
"1574269858110","734","0.21484375","-0.9121094","0.25","4.0","5.46875","0.09375"
"1574269858110","735","0.234375","-0.90625","0.24414062","2.5","2.90625","1.6875"
"1574269858110","736","0.2109375","-0.89746094","0.24023438","3.65625","0.15625","1.03125"
"1574269858111","737","0.22070312","-0.9013672","0.24511719","5.59375","2.0","-0.4375"
"1574269858111","738","0.20410156","-0.91015625","0.2421875","5.84375","-2.6875","0.0"
"1574269858111","739","0.21484375","-0.88378906","0.25976562","6.28125","4.9375","0.53125"
"1574269858505","740","0.203125","-0.9082031","0.25390625","4.125","-0.1875","-0.5625"
"1574269858506","741","0.23144531","-0.9013672","0.2685547","2.65625","2.71875","2.0"
"1574269858506","742","0.17871094","-0.9003906","0.2734375","1.5625","2.65625","-4.40625"
"1574269858506","743","0.22265625","-0.89941406","0.265625","1.5625","7.125","1.3125"
"1574269858506","744","0.22851562","-0.9042969","0.2685547","1.3125","3.34375","-1.90625"
"1574269858507","745","0.20117188","-0.8886719","0.25585938","0.90625","-0.125","0.46875"
"1574269858508","746","0.20019531","-0.89941406","0.28125","1.09375","2.5625","-0.8125"
"1574269858508","747","0.22265625","-0.90625","0.2685547","3.03125","0.78125","-0.125"
"1574269858508","748","0.19726562","-0.90234375","0.28710938","2.96875","-3.6875","-0.5625"
"1574269858509","749","0.18261719","-0.88183594","0.26660156","5.125","1.8125","-0.9375"
"1574269858903","750","0.22851562","-0.9033203","0.29589844","1.5625","5.53125","3.09375"
"1574269858903","751","0.21191406","-0.8984375","0.28027344","0.84375","2.125","-0.875"
"1574269858903","752","0.19726562","-0.890625","0.27734375","-1.34375","4.5","-0.125"
"1574269858904","753","0.2265625","-0.9013672","0.29785156","-3.6875","3.9375","0.09375"
"1574269858904","754","0.19238281","-0.8798828","0.27441406","-3.875","4.25","-1.78125"
"1574269858904","755","0.22070312","-0.90527344","0.28515625","-2.875","4.625","-1.3125"
"1574269858904","756","0.18945312","-0.9033203","0.27148438","-3.125","-2.625","-3.5"
"1574269858906","757","0.2109375","-0.9003906","0.2763672","-0.1875","4.9375","-0.3125"
"1574269858907","758","0.22851562","-0.8925781","0.29101562","-1.53125","0.96875","-2.03125"
"1574269858907","759","0.20898438","-0.90722656","0.27929688","-2.625","-1.25","0.53125"
"1574269859300","760","0.20605469","-0.9003906","0.2939453","-0.6875","0.15625","0.0"
"1574269859300","761","0.20996094","-0.88378906","0.28222656","0.21875","2.90625","0.09375"
"1574269859300","762","0.18554688","-0.9042969","0.25976562","-1.0","0.59375","-0.5625"
"1574269859301","763","0.23339844","-0.8984375","0.27148438","-1.78125","5.0625","0.28125"
"1574269859301","764","0.1875","-0.8798828","0.28125","-3.5625","-0.875","-0.5"
"1574269859301","765","0.20898438","-0.91308594","0.26171875","-1.59375","6.75","0.78125"
"1574269859301","766","0.19824219","-0.8984375","0.2763672","-2.875","1.09375","-2.28125"
"1574269859302","767","0.203125","-0.89746094","0.28125","-1.96875","2.5","-1.3125"
"1574269859302","768","0.19433594","-0.9033203","0.27734375","-1.34375","3.28125","-2.59375"
"1574269859303","769","0.19628906","-0.9082031","0.2861328","-4.40625","2.59375","-1.1875"
"1574269859698","770","0.22851562","-0.890625","0.26953125","-2.53125","7.1875","-1.40625"
"1574269859698","771","0.22167969","-0.9160156","0.27539062","-3.6875","0.84375","-1.96875"
"1574269859699","772","0.18359375","-0.87597656","0.27929688","-4.28125","0.59375","-3.0"
"1574269859699","773","0.23339844","-0.89941406","0.25195312","-0.6875","1.9375","0.46875"
"1574269859699","774","0.19824219","-0.9033203","0.26953125","-2.15625","-2.625","-3.90625"
"1574269859700","775","0.19042969","-0.8847656","0.27148438","1.3125","3.34375","-1.53125"
"1574269859700","776","0.22167969","-0.91796875","0.2783203","1.75","3.71875","-2.15625"
"1574269859700","777","0.21191406","-0.89453125","0.28027344","1.8125","4.9375","-3.875"
"1574269859700","778","0.21875","-0.88964844","0.26660156","-2.28125","3.46875","-1.0625"
"1574269859701","779","0.21777344","-0.89453125","0.2607422","-2.40625","1.375","0.40625"
"1574269860097","780","0.21191406","-0.90527344","0.27734375","-4.59375","0.90625","-1.53125"
"1574269860098","781","0.20605469","-0.89746094","0.2705078","-4.90625","0.65625","-1.65625"
"1574269860099","782","0.22558594","-0.8955078","0.27246094","-3.1875","1.9375","-0.5625"
"1574269860099","783","0.18945312","-0.9160156","0.25585938","-2.75","1.15625","-3.5"
"1574269860100","784","0.21972656","-0.8828125","0.2685547","-3.0625","5.28125","-4.34375"
"1574269860100","785","0.23339844","-0.91308594","0.2861328","-5.5625","-4.21875","-2.53125"
"1574269860100","786","0.19824219","-0.8857422","0.2607422","-9.71875","-3.6875","-4.71875"
"1574269860100","787","0.1953125","-0.8701172","0.2421875","-9.84375","-0.375","-5.75"
"1574269860101","788","0.2529297","-0.9189453","0.22363281","-8.625","3.34375","-3.875"
"1574269860101","789","0.23535156","-0.8955078","0.22265625","-10.03125","0.0","-3.96875"
"1574269860492","790","0.21679688","-0.8466797","0.21582031","-10.5625","0.96875","-3.125"
"1574269860492","791","0.28027344","-0.89160156","0.21972656","-13.3125","11.75","2.3125"
"1574269860493","792","0.20703125","-0.93847656","0.19140625","-2.625","1.9375","-4.96875"
"1574269860494","793","0.234375","-0.8964844","0.23144531","-2.34375","5.46875","-2.59375"
"1574269860494","794","0.22167969","-0.87402344","0.22167969","0.0","14.5","-4.09375"
"1574269860494","795","0.24902344","-0.9169922","0.1953125","2.0","9.8125","-3.75"
"1574269860495","796","0.27539062","-0.9375","0.21777344","-1.1875","12.1875","1.3125"
"1574269860495","797","0.26367188","-0.8808594","0.22558594","-4.28125","10.40625","1.8125"
"1574269860495","798","0.20898438","-0.91308594","0.21679688","1.3125","9.03125","0.65625"
"1574269860495","799","0.22363281","-0.9121094","0.20019531","1.3125","7.25","-0.75"
"1574269861088","800","0.27246094","-0.92089844","0.21679688","0.96875","6.03125","0.46875"
"1574269861088","801","0.23339844","-0.9033203","0.23046875","-0.5625","1.5625","-3.5625"
"1574269861089","802","0.24902344","-0.8964844","0.23144531","-4.59375","1.28125","1.375"
"1574269861089","803","0.22460938","-0.9042969","0.23925781","-3.4375","-4.03125","-0.375"
"1574269861089","804","0.23144531","-0.89746094","0.21484375","-2.28125","-2.6875","1.75"
"1574269861090","805","0.20996094","-0.88964844","0.22949219","-5.625","-5.3125","0.84375"
"1574269861090","806","0.23730469","-0.9189453","0.21777344","1.15625","-2.75","3.09375"
"1574269861090","807","0.203125","-0.9003906","0.23535156","-5.6875","-3.5625","0.90625"
"1574269861090","808","0.20898438","-0.91015625","0.21191406","-2.59375","-3.625","0.90625"
"1574269861091","809","0.21777344","-0.9003906","0.21679688","-1.1875","-0.0625","-0.875"
"1574269861482","810","0.20214844","-0.9042969","0.21386719","-3.0","-0.625","0.21875"
"1574269861482","811","0.21191406","-0.9140625","0.20605469","-6.1875","2.375","-3.3125"
"1574269861483","812","0.22851562","-0.91015625","0.1875","-5.15625","0.71875","-3.375"
"1574269861483","813","0.20800781","-0.89941406","0.20507812","-7.28125","1.9375","-3.90625"
"1574269861483","814","0.24414062","-0.9003906","0.19433594","-4.59375","6.15625","-0.8125"
"1574269861484","815","0.234375","-0.8925781","0.19238281","-7.65625","5.40625","-2.40625"
"1574269861484","816","0.21386719","-0.90625","0.18066406","-8.5","0.0","-2.9375"
"1574269861485","817","0.23730469","-0.9140625","0.18847656","-6.125","-0.0625","-1.59375"
"1574269861485","818","0.23046875","-0.8964844","0.17382812","-4.59375","2.78125","-4.90625"
"1574269861485","819","0.23828125","-0.8886719","0.17773438","-6.375","1.28125","-2.59375"
"1574269861685","820","0.25195312","-0.9169922","0.17285156","-5.3125","2.0625","-1.96875"
"1574269861686","821","0.23046875","-0.9121094","0.16503906","-4.46875","1.375","-1.1875"
"1574269861686","822","0.22851562","-0.8984375","0.17675781","-4.09375","-2.15625","-0.875"
"1574269861686","823","0.23730469","-0.90234375","0.17382812","-1.71875","5.1875","-1.34375"
"1574269861687","824","0.22070312","-0.91015625","0.16992188","-5.25","1.375","-3.125"
"1574269861687","825","0.23242188","-0.8984375","0.17480469","-9.84375","5.0","-2.875"
"1574269861687","826","0.25097656","-0.9091797","0.15625","-9.21875","5.0625","0.53125"
"1574269861688","827","0.22949219","-0.9140625","0.1640625","-10.75","2.71875","-0.75"
"1574269861688","828","0.23242188","-0.89746094","0.13964844","-4.59375","2.375","-0.5"
"1574269861689","829","0.24609375","-0.90625","0.15234375","-4.21875","1.09375","-1.59375"
"1574269862281","830","0.24511719","-0.90625","0.14160156","-4.78125","0.96875","-2.21875"
"1574269862282","831","0.21679688","-0.9091797","0.1328125","-4.21875","0.59375","-3.3125"
"1574269862282","832","0.24023438","-0.9199219","0.10644531","0.53125","2.90625","-2.15625"
"1574269862282","833","0.23144531","-0.87402344","0.17089844","-9.90625","2.90625","-1.84375"
"1574269862282","834","0.25097656","-0.90722656","0.12792969","-5.21875","0.40625","-0.5"
"1574269862283","835","0.23046875","-0.9277344","0.13378906","-2.6875","0.71875","-1.40625"
"1574269862283","836","0.27148438","-0.8828125","0.140625","-5.875","-1.1875","1.3125"
"1574269862283","837","0.24804688","-0.9013672","0.13378906","-3.90625","-2.59375","1.3125"
"1574269862283","838","0.24804688","-0.9199219","0.1171875","-2.9375","0.21875","3.03125"
"1574269862284","839","0.23046875","-0.91503906","0.12207031","-4.34375","-6.1875","0.96875"
"1574269862479","840","0.20898438","-0.88964844","0.12011719","-0.625","1.03125","-1.25"
"1574269862480","841","0.23046875","-0.91015625","0.12011719","-7.8125","-1.34375","-0.75"
"1574269862483","842","0.23339844","-0.9111328","0.10546875","-9.71875","-2.28125","-2.15625"
"1574269862483","843","0.234375","-0.8984375","0.095703125","-6.5","-0.1875","-2.9375"
"1574269862484","844","0.22265625","-0.9003906","0.091796875","-6.0625","-1.34375","-3.3125"
"1574269862484","845","0.24023438","-0.91015625","0.09667969","-3.375","2.84375","-2.46875"
"1574269862484","846","0.23925781","-0.8964844","0.095703125","-3.4375","2.84375","-2.46875"
"1574269862485","847","0.23730469","-0.9003906","0.091796875","-6.125","3.65625","-2.03125"
"1574269862485","848","0.2421875","-0.90234375","0.08886719","-4.53125","2.4375","-1.84375"
"1574269862485","849","0.24707031","-0.9121094","0.08203125","-2.875","3.71875","-2.28125"
"1574269862878","850","0.23632812","-0.89453125","0.080078125","0.53125","3.65625","-1.65625"
"1574269862878","851","0.24902344","-0.9033203","0.08300781","-1.125","4.625","-1.3125"
"1574269862879","852","0.25390625","-0.9111328","0.08691406","-1.34375","2.0","-1.53125"
"1574269862880","853","0.23730469","-0.90527344","0.0703125","2.5625","2.5625","-2.46875"
"1574269862880","854","0.25","-0.8984375","0.08691406","0.96875","2.65625","-1.34375"
"1574269862881","855","0.24316406","-0.90234375","0.091796875","-0.4375","1.4375","-1.40625"
"1574269862881","856","0.25","-0.90722656","0.07714844","2.4375","3.46875","-0.75"
"1574269862881","857","0.2548828","-0.89941406","0.107421875","-0.375","1.5625","0.0"
"1574269862881","858","0.21875","-0.9121094","0.091796875","1.15625","1.3125","-1.0625"
"1574269862882","859","0.27148438","-0.89453125","0.087890625","1.375","0.65625","0.71875"
"1574269863276","860","0.23828125","-0.9033203","0.11816406","-0.0625","1.28125","-1.1875"
"1574269863277","861","0.23339844","-0.90234375","0.078125","7.3125","-0.125","0.78125"
"1574269863277","862","0.234375","-0.9042969","0.11621094","1.5625","1.3125","-0.375"
"1574269863277","863","0.23925781","-0.89941406","0.10839844","4.25","3.09375","-0.5625"
"1574269863277","864","0.24707031","-0.89941406","0.10839844","4.25","5.0","-0.1875"
"1574269863279","865","0.24121094","-0.9140625","0.119140625","2.1875","6.15625","-0.875"
"1574269863279","866","0.25390625","-0.90625","0.11035156","4.9375","4.6875","-1.25"
"1574269863280","867","0.23730469","-0.90234375","0.13574219","-0.9375","4.1875","-0.5"
"1574269863280","868","0.23828125","-0.89941406","0.10546875","1.375","2.71875","-1.0"
"1574269863280","869","0.2626953","-0.9121094","0.123046875","3.65625","3.34375","-0.6875"
"1574269863673","870","0.24707031","-0.89941406","0.13574219","1.3125","3.78125","-0.8125"
"1574269863674","871","0.23632812","-0.9091797","0.12402344","-0.375","0.65625","-1.3125"
"1574269863674","872","0.24316406","-0.8925781","0.12792969","2.1875","3.78125","-1.0"
"1574269863674","873","0.24511719","-0.9169922","0.12402344","0.15625","3.34375","-1.78125"
"1574269863675","874","0.25683594","-0.90625","0.12597656","-0.875","1.8125","-0.1875"
"1574269863675","875","0.24511719","-0.89746094","0.13183594","1.6875","1.375","0.90625"
"1574269863675","876","0.22949219","-0.8964844","0.140625","-0.8125","-1.53125","-1.1875"
"1574269863677","877","0.22363281","-0.9111328","0.140625","1.5625","-0.3125","0.0"
"1574269863677","878","0.24902344","-0.91015625","0.14453125","-1.53125","1.625","-0.6875"
"1574269863677","879","0.22949219","-0.91015625","0.13183594","0.65625","0.0","-0.75"
"1574269864070","880","0.23730469","-0.89941406","0.14355469","-2.53125","2.65625","-2.625"
"1574269864070","881","0.2548828","-0.9033203","0.13183594","-3.4375","0.28125","-0.3125"
"1574269864070","882","0.23046875","-0.90625","0.13378906","-4.21875","4.25","-2.15625"
"1574269864070","883","0.23730469","-0.9003906","0.12207031","-2.28125","2.0625","-0.75"
"1574269864071","884","0.25585938","-0.9111328","0.12890625","-2.28125","4.375","-2.34375"
"1574269864071","885","0.21972656","-0.9082031","0.12988281","-2.53125","1.15625","-2.9375"
"1574269864071","886","0.23828125","-0.89746094","0.12890625","-2.8125","2.65625","-3.0"
"1574269864071","887","0.24023438","-0.8955078","0.13183594","-3.25","6.625","-3.5625"
"1574269864072","888","0.2763672","-0.90722656","0.11230469","-7.34375","4.0625","-2.28125"
"1574269864073","889","0.2607422","-0.9013672","0.12109375","-6.25","1.9375","-1.125"
"1574269864467","890","0.25976562","-0.8935547","0.107421875","-2.03125","0.09375","-0.125"
"1574269864467","891","0.2578125","-0.91796875","0.12109375","0.59375","-1.0","-1.0625"
"1574269864468","892","0.2607422","-0.89160156","0.1171875","2.25","-0.8125","-0.75"
"1574269864468","893","0.25","-0.9111328","0.115234375","-0.9375","-0.1875","0.09375"
"1574269864468","894","0.23144531","-0.89453125","0.12988281","0.09375","1.75","-1.1875"
"1574269864469","895","0.24707031","-0.9013672","0.12207031","-0.75","2.0","0.65625"
"1574269864469","896","0.24511719","-0.90527344","0.11816406","-2.625","4.0","0.0"
"1574269864469","897","0.24804688","-0.90722656","0.12109375","-0.75","1.4375","0.03125"
"1574269864470","898","0.2529297","-0.89746094","0.12011719","-2.40625","2.3125","-0.875"
"1574269864470","899","0.23339844","-0.90527344","0.123046875","-1.65625","1.5625","-1.1875"
"1574269864865","900","0.2548828","-0.9091797","0.12695312","-0.8125","3.15625","-1.46875"
"1574269864867","901","0.23535156","-0.90625","0.11425781","-2.53125","1.5","-2.46875"
"1574269864867","902","0.25878906","-0.9091797","0.123046875","1.09375","4.0","-0.5"
"1574269864868","903","0.24414062","-0.88671875","0.12207031","-5.03125","2.59375","-1.40625"
"1574269864868","904","0.26464844","-0.9082031","0.11230469","-6.5","-0.25","0.96875"
"1574269864868","905","0.22558594","-0.92089844","0.10449219","-1.96875","1.15625","-1.25"
"1574269864868","906","0.23828125","-0.88964844","0.11425781","-1.0625","2.0","-0.75"
"1574269864869","907","0.2548828","-0.90722656","0.111328125","1.09375","4.75","0.15625"
"1574269864869","908","0.23730469","-0.9082031","0.11425781","4.1875","5.78125","0.09375"
"1574269864869","909","0.22949219","-0.9003906","0.123046875","2.90625","6.09375","-0.625"
"1574269865263","910","0.2578125","-0.9003906","0.12597656","1.15625","7.375","0.21875"
"1574269865263","911","0.23535156","-0.90527344","0.111328125","3.21875","5.46875","-0.1875"
"1574269865264","912","0.2529297","-0.90625","0.13183594","0.28125","4.9375","0.84375"
"1574269865265","913","0.24414062","-0.90722656","0.13378906","2.84375","3.21875","0.21875"
"1574269865265","914","0.23632812","-0.90722656","0.1328125","1.03125","4.3125","-1.125"
"1574269865266","915","0.23339844","-0.91015625","0.12890625","1.875","5.0","-1.3125"
"1574269865266","916","0.2529297","-0.9003906","0.12402344","2.25","4.375","-0.1875"
"1574269865267","917","0.24902344","-0.91503906","0.14648438","4.4375","0.46875","0.65625"
"1574269865267","918","0.21484375","-0.8955078","0.14355469","1.3125","0.90625","-1.96875"
"1574269865267","919","0.24804688","-0.89941406","0.13085938","4.8125","-1.25","2.1875"
"1574269865660","920","0.24804688","-0.90722656","0.15625","7.625","3.09375","-0.5625"
"1574269865660","921","0.22949219","-0.91796875","0.13867188","6.5","-2.9375","-0.6875"
"1574269865661","922","0.21875","-0.9111328","0.16699219","17.75","3.21875","-0.5"
"1574269865661","923","0.25683594","-0.8935547","0.18066406","7.25","2.0625","1.21875"
"1574269865661","924","0.24023438","-0.8964844","0.1875","3.9375","-1.25","3.34375"
"1574269865663","925","0.20800781","-0.9140625","0.16894531","-2.09375","0.34375","-1.0625"
"1574269865663","926","0.22949219","-0.9042969","0.18261719","-3.4375","0.90625","1.4375"
"1574269865663","927","0.24707031","-0.89941406","0.17675781","-8.0","0.21875","-0.3125"
"1574269865664","928","0.21386719","-0.9111328","0.15234375","-4.40625","-0.375","-1.3125"
"1574269865664","929","0.24804688","-0.9091797","0.17578125","-2.75","4.875","2.25"
"1574269866255","930","0.25","-0.9169922","0.18164062","-2.15625","-0.4375","2.5625"
"1574269866255","931","0.19921875","-0.87890625","0.14355469","2.1875","0.78125","-1.125"
"1574269866256","932","0.22363281","-0.8984375","0.18652344","-6.71875","4.625","0.28125"
"1574269866256","933","0.23828125","-0.9238281","0.16308594","-3.875","-0.9375","-2.8125"
"1574269866256","934","0.23730469","-0.9013672","0.15429688","-3.3125","-2.21875","-0.75"
"1574269866256","935","0.21386719","-0.8808594","0.15527344","-2.28125","0.28125","-3.0625"
"1574269866256","936","0.23730469","-0.9160156","0.16113281","-1.53125","1.5","-0.125"
"1574269866258","937","0.234375","-0.9199219","0.15429688","1.625","2.90625","1.3125"
"1574269866258","938","0.2421875","-0.88378906","0.15625","1.3125","5.0625","0.71875"
"1574269866259","939","0.20605469","-0.9121094","0.16796875","-2.46875","1.9375","-0.4375"
"1574269866454","940","0.22265625","-0.92871094","0.16015625","-1.53125","3.03125","-2.03125"
"1574269866455","941","0.23339844","-0.8769531","0.17089844","-1.40625","1.5","-1.1875"
"1574269866455","942","0.23730469","-0.9189453","0.15332031","-2.6875","2.5","-1.3125"
"1574269866455","943","0.23730469","-0.90527344","0.15722656","-4.34375","-0.5","0.0"
"1574269866459","944","0.22851562","-0.8984375","0.14648438","0.90625","1.09375","-2.28125"
"1574269866459","945","0.22167969","-0.9160156","0.16503906","-1.25","0.65625","-2.21875"
"1574269866459","946","0.23242188","-0.8984375","0.15625","-1.125","3.46875","-1.71875"
"1574269866460","947","0.2265625","-0.9121094","0.16992188","-0.5625","2.71875","-1.71875"
"1574269866460","948","0.23535156","-0.90625","0.14941406","-2.9375","-0.75","-1.96875"
"1574269866460","949","0.23339844","-0.9033203","0.1640625","-4.40625","-1.34375","1.625"
"1574269866853","950","0.21679688","-0.9189453","0.17382812","-3.6875","-0.0625","-2.15625"
"1574269866854","951","0.21386719","-0.9042969","0.16308594","-6.0625","-1.3125","-3.75"
"1574269866854","952","0.20996094","-0.8935547","0.15820312","-6.25","0.0","-6.0625"
"1574269866854","953","0.25097656","-0.92285156","0.1484375","-10.09375","2.1875","-5.75"
"1574269866854","954","0.26953125","-0.890625","0.140625","-11.25","-4.15625","-6.125"
"1574269866854","955","0.19628906","-0.8925781","0.1171875","-5.3125","-2.8125","-8.6875"
"1574269866855","956","0.2919922","-0.9091797","0.119140625","-11.5625","2.96875","-4.03125"
"1574269866855","957","0.28320312","-0.8955078","0.12988281","-8.25","-4.90625","-4.65625"
"1574269866855","958","0.26367188","-0.8720703","0.09667969","-10.6875","-0.5625","-3.5"
"1574269866855","959","0.25","-0.8779297","0.05859375","-7.28125","-3.75","-2.34375"
"1574269867249","960","0.24023438","-0.9267578","0.07910156","3.21875","4.0625","-3.6875"
"1574269867250","961","0.20117188","-0.8623047","0.076171875","8.90625","15.96875","-8.4375"
"1574269867251","962","0.33789062","-0.9082031","0.12597656","0.84375","22.625","7.5625"
"1574269867251","963","0.25390625","-0.9248047","0.12792969","-8.125","14.5625","3.34375"
"1574269867251","964","0.21582031","-0.89160156","0.11230469","-7.8125","19.625","3.71875"
"1574269867252","965","0.2626953","-0.9296875","0.11621094","-6.0625","16.21875","5.125"
"1574269867252","966","0.2890625","-0.9082031","0.11425781","-3.0625","6.21875","1.09375"
"1574269867252","967","0.2734375","-0.8964844","0.10058594","-0.125","-2.21875","-0.6875"
"1574269867252","968","0.26660156","-0.9003906","0.10058594","-0.4375","-3.625","2.78125"
"1574269867253","969","0.26171875","-0.90625","0.119140625","-0.1875","-5.875","2.71875"
"1574269867844","970","0.22558594","-0.9140625","0.1171875","-0.9375","-5.25","2.1875"
"1574269867844","971","0.24023438","-0.9140625","0.11621094","0.40625","-3.96875","1.6875"
"1574269867845","972","0.23144531","-0.89941406","0.125","-2.875","-3.8125","0.0"
"1574269867846","973","0.21484375","-0.9140625","0.11328125","-3.3125","-3.1875","-0.5"
"1574269867847","974","0.24609375","-0.90722656","0.10253906","-3.125","-3.75","-2.40625"
"1574269867847","975","0.24414062","-0.9003906","0.10839844","-2.34375","-3.6875","-1.96875"
"1574269867847","976","0.22363281","-0.90625","0.10546875","-0.9375","-1.34375","-2.46875"
"1574269867848","977","0.24121094","-0.9082031","0.10449219","-1.59375","0.84375","-1.96875"
"1574269867848","978","0.23925781","-0.9042969","0.099609375","-0.0625","1.375","-1.1875"
"1574269867848","979","0.22949219","-0.8925781","0.091796875","1.3125","2.65625","-1.59375"
"1574269868045","980","0.23632812","-0.91015625","0.10839844","-1.0","4.25","0.65625"
"1574269868046","981","0.24414062","-0.89746094","0.109375","-3.0","4.3125","-1.34375"
"1574269868046","982","0.24511719","-0.9042969","0.0859375","1.875","3.40625","0.0"
"1574269868046","983","0.23046875","-0.9082031","0.11425781","0.90625","5.59375","-1.59375"
"1574269868046","984","0.23828125","-0.88964844","0.109375","1.5625","4.875","-2.46875"
"1574269868048","985","0.25585938","-0.9140625","0.107421875","1.5","4.8125","-1.40625"
"1574269868048","986","0.234375","-0.9091797","0.11425781","1.8125","6.03125","-3.625"
"1574269868048","987","0.2548828","-0.8876953","0.115234375","0.71875","5.90625","-2.15625"
"1574269868048","988","0.25195312","-0.9140625","0.109375","-1.59375","5.53125","-0.5"
"1574269868049","989","0.234375","-0.90527344","0.11425781","1.09375","5.46875","-0.625"
"1574269868443","990","0.24707031","-0.89746094","0.11816406","1.21875","3.59375","-0.9375"
"1574269868444","991","0.24121094","-0.9091797","0.12011719","-0.1875","4.0625","-0.375"
"1574269868444","992","0.23339844","-0.9111328","0.12402344","0.65625","3.90625","-1.40625"
"1574269868444","993","0.24316406","-0.9013672","0.12207031","1.3125","3.34375","-1.40625"
"1574269868444","994","0.24609375","-0.90625","0.12011719","0.0","4.375","-2.53125"
"1574269868445","995","0.24511719","-0.9160156","0.13476562","0.28125","3.53125","-2.75"
"1574269868445","996","0.24023438","-0.89746094","0.12207031","0.96875","4.6875","-3.4375"
"1574269868446","997","0.2578125","-0.9042969","0.13183594","-0.875","5.1875","-0.6875"
"1574269868447","998","0.24316406","-0.9082031","0.1328125","-7.34375","5.28125","-2.34375"
"1574269868447","999","0.26367188","-0.9042969","0.09667969","-1.71875","2.96875","0.21875"
"1574269868840","1000","0.25878906","-0.9003906","0.12792969","-3.375","-1.90625","1.375"
"1574269868841","1001","0.23535156","-0.8857422","0.12792969","-1.53125","-0.25","-1.46875"
"1574269868841","1002","0.2734375","-0.91308594","0.107421875","-0.9375","1.3125","0.46875"
"1574269868841","1003","0.25390625","-0.9082031","0.12207031","-2.59375","-0.5","-0.75"
"1574269868841","1004","0.24414062","-0.890625","0.13183594","-3.0","1.625","0.0"
"1574269868842","1005","0.25878906","-0.9296875","0.11425781","-2.34375","5.96875","2.90625"
"1574269868842","1006","0.24511719","-0.9042969","0.12792969","-0.9375","0.96875","1.03125"
"1574269868842","1007","0.22949219","-0.8798828","0.125","-3.0625","-3.125","-2.53125"
"1574269868843","1008","0.23242188","-0.92089844","0.115234375","-3.0","-1.78125","-2.625"
"1574269868844","1009","0.22753906","-0.90722656","0.11816406","-1.40625","-3.96875","-4.21875"
"1574269869238","1010","0.24511719","-0.8925781","0.11621094","-5.3125","-1.125","-3.96875"
"1574269869238","1011","0.234375","-0.90722656","0.09765625","-5.6875","2.25","-3.5"
"1574269869239","1012","0.2421875","-0.9003906","0.107421875","-4.90625","2.59375","-1.78125"
"1574269869239","1013","0.25097656","-0.9042969","0.09765625","-2.03125","5.46875","-2.21875"
"1574269869239","1014","0.265625","-0.9111328","0.115234375","-1.1875","2.78125","-2.59375"
"1574269869239","1015","0.25683594","-0.9003906","0.09667969","-4.71875","2.78125","-3.3125"
"1574269869240","1016","0.27148438","-0.9003906","0.09667969","-0.875","1.6875","-3.125"
"1574269869240","1017","0.2548828","-0.89453125","0.09667969","-1.25","1.3125","-2.03125"
"1574269869240","1018","0.25585938","-0.9042969","0.087890625","-1.25","1.03125","-1.71875"
"1574269869240","1019","0.2734375","-0.90234375","0.09667969","0.59375","-0.25","-1.1875"
"1574269869634","1020","0.26367188","-0.8925781","0.09375","0.78125","1.21875","-0.75"
"1574269869635","1021","0.25","-0.89746094","0.099609375","-0.25","0.09375","-0.9375"
"1574269869636","1022","0.2705078","-0.9003906","0.099609375","-0.875","1.8125","-0.25"
"1574269869636","1023","0.24609375","-0.8984375","0.09667969","-0.1875","1.09375","-0.3125"
"1574269869636","1024","0.2578125","-0.9082031","0.10058594","0.40625","3.03125","0.0"
"1574269869636","1025","0.25390625","-0.9003906","0.10449219","-0.4375","0.65625","-0.6875"
"1574269869637","1026","0.25683594","-0.8955078","0.10546875","0.15625","2.125","-0.25"
"1574269869637","1027","0.26367188","-0.9082031","0.099609375","-0.6875","1.03125","-0.125"
"1574269869637","1028","0.265625","-0.9033203","0.10839844","0.0","1.3125","0.28125"
"1574269869637","1029","0.23828125","-0.890625","0.107421875","-1.0625","0.0","0.0"
"1574269870032","1030","0.265625","-0.9091797","0.09765625","0.78125","3.40625","1.3125"
"1574269870032","1031","0.24707031","-0.9091797","0.10839844","-2.21875","0.65625","-0.3125"
"1574269870032","1032","0.25976562","-0.88671875","0.103515625","-2.625","0.84375","0.65625"
"1574269870033","1033","0.24902344","-0.9169922","0.095703125","-2.15625","2.25","-1.25"
"1574269870034","1034","0.25097656","-0.8964844","0.10839844","-2.28125","0.59375","0.0"
"1574269870034","1035","0.24902344","-0.9042969","0.09472656","-1.1875","1.28125","-1.1875"
"1574269870034","1036","0.24023438","-0.9082031","0.099609375","0.53125","2.0625","-1.125"
"1574269870034","1037","0.25976562","-0.89453125","0.09863281","-0.875","1.09375","-0.6875"
"1574269870035","1038","0.23535156","-0.9111328","0.10546875","0.71875","2.125","-1.34375"
"1574269870035","1039","0.2626953","-0.90625","0.099609375","-1.65625","1.75","0.15625"
"1574269870432","1040","0.2421875","-0.9013672","0.10546875","-0.875","0.96875","-0.75"
"1574269870432","1041","0.24804688","-0.91308594","0.09472656","-0.4375","1.8125","-0.25"
"1574269870433","1042","0.22949219","-0.9003906","0.12207031","-1.84375","4.3125","-2.28125"
"1574269870433","1043","0.2783203","-0.88964844","0.09082031","-2.875","6.875","1.03125"
"1574269870433","1044","0.25976562","-0.9160156","0.09277344","-2.21875","2.90625","0.65625"
"1574269870434","1045","0.22460938","-0.90234375","0.11230469","2.71875","3.34375","-1.78125"
"1574269870435","1046","0.2548828","-0.9082031","0.099609375","3.90625","3.21875","-0.4375"
"1574269870435","1047","0.27539062","-0.9013672","0.12207031","1.8125","2.96875","-1.46875"
"1574269870435","1048","0.23925781","-0.89941406","0.11035156","-3.0625","1.4375","-1.59375"
"1574269870436","1049","0.2578125","-0.9091797","0.09765625","-2.59375","1.625","1.5625"
"1574269870828","1050","0.23535156","-0.90234375","0.11328125","1.09375","2.78125","-1.65625"
"1574269870829","1051","0.24804688","-0.89941406","0.11035156","0.15625","0.34375","0.34375"
"1574269870829","1052","0.2607422","-0.9121094","0.11035156","0.28125","3.46875","-0.6875"
"1574269870829","1053","0.234375","-0.90625","0.1171875","2.4375","-0.125","-1.46875"
"1574269870829","1054","0.22363281","-0.8925781","0.11621094","1.21875","3.34375","-1.59375"
"1574269870830","1055","0.26757812","-0.9199219","0.12988281","-1.40625","3.65625","0.40625"
"1574269870830","1056","0.24511719","-0.90234375","0.109375","-1.59375","2.59375","-0.9375"
"1574269870831","1057","0.22851562","-0.8964844","0.12792969","-1.40625","1.28125","-0.625"
"1574269870832","1058","0.25976562","-0.91308594","0.10644531","-3.375","1.8125","0.09375"
"1574269870832","1059","0.25976562","-0.890625","0.11230469","-1.78125","2.0625","-0.375"
"1574269871224","1060","0.22558594","-0.91015625","0.11230469","-0.75","0.21875","-2.09375"
"1574269871225","1061","0.24707031","-0.90625","0.12597656","-2.59375","2.59375","-0.875"
"1574269871225","1062","0.25097656","-0.8955078","0.10839844","-1.59375","4.125","-0.3125"
"1574269871225","1063","0.25195312","-0.91796875","0.111328125","-2.03125","4.1875","0.03125"
"1574269871225","1064","0.25","-0.90234375","0.10546875","-5.8125","1.9375","-0.5625"
"1574269871226","1065","0.25976562","-0.88671875","0.099609375","-7.34375","0.84375","-0.25"
"1574269871226","1066","0.24609375","-0.9326172","0.09863281","-3.75","2.3125","-1.34375"
"1574269871226","1067","0.23339844","-0.9013672","0.10253906","0.21875","-1.25","-2.625"
"1574269871226","1068","0.24609375","-0.8886719","0.11035156","-0.6875","4.125","-1.0625"
"1574269871228","1069","0.2529297","-0.9326172","0.09277344","-0.9375","1.9375","-1.59375"
"1574269871622","1070","0.2529297","-0.88964844","0.109375","-2.875","0.28125","-0.9375"
"1574269871622","1071","0.24316406","-0.890625","0.10546875","-4.09375","1.8125","-0.1875"
"1574269871622","1072","0.23925781","-0.92285156","0.09863281","-3.625","1.375","-1.0"
"1574269871623","1073","0.25683594","-0.8955078","0.1015625","-2.53125","0.28125","-1.78125"
"1574269871623","1074","0.23925781","-0.9013672","0.08886719","-2.75","-0.1875","-1.59375"
"1574269871623","1075","0.25097656","-0.9013672","0.095703125","-3.25","1.4375","-0.4375"
"1574269871623","1076","0.25390625","-0.8984375","0.0859375","-2.34375","1.28125","-0.1875"
"1574269871624","1077","0.23632812","-0.9003906","0.08984375","-2.8125","1.15625","0.09375"
"1574269871624","1078","0.24023438","-0.8964844","0.072265625","1.21875","3.90625","-0.625"
"1574269871624","1079","0.24804688","-0.90722656","0.103515625","-0.3125","1.09375","0.03125"
"1574269872019","1080","0.25585938","-0.9013672","0.091796875","-1.84375","2.59375","-1.78125"
"1574269872020","1081","0.25","-0.89746094","0.08105469","-1.25","0.65625","-0.75"
"1574269872020","1082","0.23925781","-0.91308594","0.091796875","-3.5","1.8125","-0.6875"
"1574269872021","1083","0.2421875","-0.8955078","0.0703125","-3.4375","1.6875","-1.0"
"1574269872021","1084","0.25097656","-0.90625","0.083984375","-2.34375","1.75","-0.875"
"1574269872021","1085","0.23046875","-0.9013672","0.09082031","0.0","3.21875","-2.21875"
"1574269872021","1086","0.24902344","-0.8925781","0.095703125","-2.28125","2.4375","-0.3125"
"1574269872022","1087","0.22949219","-0.91796875","0.08496094","-1.1875","1.3125","-1.40625"
"1574269872022","1088","0.24316406","-0.89453125","0.09472656","-0.8125","3.28125","-1.34375"
"1574269872022","1089","0.24414062","-0.9189453","0.09375","-2.03125","1.09375","-1.125"
"1574269872418","1090","0.23339844","-0.90722656","0.08886719","-1.65625","2.59375","-3.4375"
"1574269872418","1091","0.24804688","-0.8964844","0.08300781","-2.15625","3.28125","-1.40625"
"1574269872419","1092","0.24316406","-0.9189453","0.08984375","-1.34375","3.40625","-5.25"
"1574269872420","1093","0.2607422","-0.88671875","0.08203125","-2.875","1.8125","-3.96875"
"1574269872421","1094","0.26757812","-0.9238281","0.10253906","-4.03125","1.375","-4.03125"
"1574269872421","1095","0.25878906","-0.875","0.078125","-8.4375","-2.6875","-6.5"
"1574269872421","1096","0.23046875","-0.90527344","0.060546875","-6.53125","-1.78125","-8.25"
"1574269872421","1097","0.27929688","-0.88378906","0.06933594","0.46875","3.21875","-6.53125"
"1574269872422","1098","0.29589844","-0.89160156","0.07421875","-2.59375","1.9375","-3.0625"
"1574269872422","1099","0.2783203","-0.8828125","0.038085938","1.6875","6.03125","-1.96875"
"1574269872815","1100","0.26660156","-0.90625","0.045898438","6.5625","5.90625","1.3125"
"1574269872816","1101","0.24316406","-0.87597656","0.06347656","7.125","15.5","-3.0625"
"1574269872816","1102","0.3173828","-0.8828125","0.0546875","1.15625","23.78125","6.21875"
"1574269872816","1103","0.26757812","-0.9423828","0.06640625","2.78125","17.75","8.21875"
"1574269872817","1104","0.25097656","-0.8769531","0.08886719","4.125","20.25","7.8125"
"1574269872818","1105","0.32226562","-0.8769531","0.13964844","1.21875","20.25","6.9375"
"1574269872818","1106","0.3046875","-0.9326172","0.15039062","-5.625","0.28125","4.0"
"1574269872819","1107","0.23632812","-0.9140625","0.10546875","0.09375","-13.125","-0.875"
"1574269872819","1108","0.25097656","-0.8730469","0.09082031","2.65625","-12.53125","-3.4375"
"1574269872819","1109","0.26953125","-0.9042969","0.12207031","5.34375","-8.625","-0.25"
"1574269873607","1110","0.21875","-0.9121094","0.12402344","3.53125","-13.25","-1.125"
"1574269873608","1111","0.22949219","-0.8925781","0.10839844","4.25","-8.125","-1.0625"
"1574269873608","1112","0.23730469","-0.9042969","0.12011719","0.21875","-3.6875","0.71875"
"1574269873608","1113","0.21875","-0.921875","0.11816406","0.09375","-0.6875","0.65625"
"1574269873609","1114","0.2265625","-0.9189453","0.11621094","-1.34375","1.3125","-0.3125"
"1574269873609","1115","0.23730469","-0.9091797","0.10449219","-1.90625","2.78125","-0.9375"
"1574269873610","1116","0.24414062","-0.90722656","0.10449219","-1.3125","1.4375","-2.40625"
"1574269873611","1117","0.2529297","-0.8964844","0.10644531","-0.1875","1.9375","-2.46875"
"1574269873611","1118","0.24316406","-0.9091797","0.11425781","-1.53125","2.0","-1.34375"
"1574269873612","1119","0.23632812","-0.90234375","0.11621094","-1.90625","2.125","-2.75"
"1574269873806","1120","0.24902344","-0.89941406","0.09765625","-2.9375","2.59375","-2.21875"
"1574269873806","1121","0.27148438","-0.8984375","0.10449219","-5.75","2.78125","-0.5625"
"1574269873807","1122","0.24707031","-0.9042969","0.10253906","-4.15625","2.25","-1.0625"
"1574269873807","1123","0.234375","-0.8935547","0.10058594","-3.125","2.375","-1.96875"
"1574269873807","1124","0.27246094","-0.89453125","0.09765625","-2.34375","4.5","0.03125"
"1574269873807","1125","0.25195312","-0.9121094","0.09863281","-3.125","1.4375","-2.15625"
"1574269873808","1126","0.24609375","-0.8984375","0.08886719","-3.0625","2.78125","-2.40625"
"1574269873808","1127","0.26953125","-0.8925781","0.09082031","-2.21875","4.0","0.71875"
"1574269873808","1128","0.2548828","-0.9003906","0.09863281","-3.125","2.59375","-1.46875"
"1574269873810","1129","0.24023438","-0.90625","0.08691406","0.34375","2.65625","-0.625"
"1574269874006","1130","0.2578125","-0.8984375","0.09472656","1.3125","2.0625","-0.6875"
"1574269874007","1131","0.25","-0.91015625","0.09082031","4.875","2.5","-2.8125"
"1574269874007","1132","0.25195312","-0.9003906","0.10253906","7.25","6.9375","1.3125"
"1574269874007","1133","0.2529297","-0.91015625","0.107421875","4.3125","6.21875","2.0"
"1574269874007","1134","0.24316406","-0.9082031","0.10644531","4.4375","4.0","0.84375"
"1574269874008","1135","0.2529297","-0.9082031","0.13378906","3.34375","2.5625","0.78125"
"1574269874008","1136","0.24023438","-0.8955078","0.13085938","-1.59375","0.84375","-0.5625"
"1574269874008","1137","0.2265625","-0.9013672","0.11621094","-0.1875","1.9375","-1.59375"
"1574269874008","1138","0.24707031","-0.91308594","0.12890625","-4.46875","-0.75","-0.8125"
"1574269874009","1139","0.25195312","-0.90234375","0.11425781","-3.0625","4.75","0.0"
"1574269874406","1140","0.265625","-0.9042969","0.12792969","-8.1875","-0.25","0.09375"
"1574269874407","1141","0.23535156","-0.8964844","0.103515625","-5.4375","-4.21875","1.5625"
"1574269874408","1142","0.22265625","-0.9013672","0.09667969","2.375","-2.53125","-1.0"
"1574269874408","1143","0.24511719","-0.8964844","0.11035156","-0.5625","-2.40625","-1.84375"
"1574269874408","1144","0.24609375","-0.91015625","0.09667969","1.15625","3.21875","0.28125"
"1574269874408","1145","0.22460938","-0.9042969","0.10644531","0.03125","3.78125","-0.25"
"1574269874409","1146","0.2421875","-0.88964844","0.1015625","0.03125","7.8125","-0.3125"
"1574269874409","1147","0.26367188","-0.9013672","0.115234375","-4.71875","7.3125","-1.40625"
"1574269874409","1148","0.25195312","-0.9091797","0.10546875","-0.9375","6.28125","-1.53125"
"1574269874410","1149","0.25390625","-0.9003906","0.10449219","0.84375","-0.625","-1.1875"
"1574269874803","1150","0.24414062","-0.9121094","0.13476562","-0.9375","-0.875","-4.03125"
"1574269874804","1151","0.234375","-0.9140625","0.09472656","1.9375","-1.84375","-3.125"
"1574269874804","1152","0.2265625","-0.89453125","0.11816406","3.90625","2.0","-3.90625"
"1574269874806","1153","0.23535156","-0.8984375","0.111328125","-0.125","3.40625","-1.65625"
"1574269874806","1154","0.2529297","-0.90722656","0.11328125","-0.3125","6.5","-2.40625"
"1574269874806","1155","0.24707031","-0.9033203","0.125","-1.90625","3.84375","-1.3125"
"1574269874807","1156","0.265625","-0.9003906","0.119140625","-4.84375","2.25","-1.1875"
"1574269874807","1157","0.27246094","-0.89941406","0.10449219","-3.125","1.28125","-0.625"
"1574269874807","1158","0.22851562","-0.90722656","0.11425781","-1.1875","-1.71875","-1.125"
"1574269874807","1159","0.26660156","-0.89160156","0.09863281","-1.65625","-1.125","-0.125"
"1574269875201","1160","0.22949219","-0.91308594","0.10546875","-0.5625","0.40625","-1.90625"
"1574269875202","1161","0.2607422","-0.9091797","0.099609375","-0.375","3.15625","0.96875"
"1574269875202","1162","0.24609375","-0.9042969","0.11425781","-3.875","0.96875","0.09375"
"1574269875202","1163","0.26367188","-0.8876953","0.1171875","-3.875","1.9375","1.625"
"1574269875203","1164","0.24707031","-0.91308594","0.099609375","-2.875","-1.3125","0.46875"
"1574269875204","1165","0.24023438","-0.9082031","0.11425781","-2.8125","0.59375","-0.125"
"1574269875204","1166","0.24316406","-0.88671875","0.08496094","1.4375","2.0625","-1.0"
"1574269875205","1167","0.23632812","-0.90625","0.11035156","-1.84375","3.03125","-1.53125"
"1574269875205","1168","0.2734375","-0.90527344","0.10058594","-3.375","2.0","1.6875"
"1574269875205","1169","0.23339844","-0.8964844","0.09863281","-0.9375","2.0625","-0.3125"
"1574269875597","1170","0.23632812","-0.91015625","0.10449219","-1.65625","1.4375","0.21875"
"1574269875598","1171","0.25","-0.8964844","0.09765625","-1.0","1.5","-1.25"
"1574269875598","1172","0.25585938","-0.9140625","0.1015625","-0.875","0.15625","-1.46875"
"1574269875598","1173","0.22265625","-0.8964844","0.091796875","1.09375","1.09375","-2.8125"
"1574269875598","1174","0.2578125","-0.8935547","0.12011719","-3.0625","5.71875","-2.03125"
"1574269875599","1175","0.25097656","-0.9140625","0.08300781","0.03125","5.125","1.3125"
"1574269875599","1176","0.25683594","-0.9042969","0.091796875","2.5625","4.125","0.0"
"1574269875599","1177","0.23046875","-0.9111328","0.11035156","3.78125","2.375","-3.4375"
"1574269875599","1178","0.25878906","-0.9013672","0.11425781","5.0625","1.6875","-2.03125"
"1574269875600","1179","0.22363281","-0.90625","0.11425781","2.84375","0.46875","-3.875"
"1574269875995","1180","0.24707031","-0.9013672","0.107421875","0.0","4.8125","-1.125"
"1574269875996","1181","0.24023438","-0.90625","0.111328125","2.65625","4.5625","-0.5"
"1574269875996","1182","0.24902344","-0.90527344","0.111328125","2.90625","4.9375","1.21875"
"1574269875996","1183","0.24902344","-0.88964844","0.12890625","-2.15625","1.6875","0.46875"
"1574269875996","1184","0.2607422","-0.91503906","0.10546875","2.25","3.90625","0.78125"
"1574269875997","1185","0.25585938","-0.9111328","0.123046875","-0.8125","1.9375","-1.46875"
"1574269875997","1186","0.23339844","-0.8935547","0.12597656","-5.9375","-0.5625","-1.65625"
"1574269875997","1187","0.23632812","-0.90722656","0.099609375","-0.0625","3.84375","-1.25"
"1574269875997","1188","0.26171875","-0.8964844","0.1328125","-3.5","2.25","-0.5"
"1574269875998","1189","0.25390625","-0.90527344","0.1171875","-6.375","0.84375","0.15625"
"1574269876590","1190","0.2548828","-0.9042969","0.09765625","-5.21875","-0.25","-0.1875"
"1574269876590","1191","0.22167969","-0.88964844","0.12011719","-3.625","2.375","-3.3125"
"1574269876591","1192","0.25390625","-0.9199219","0.099609375","-3.8125","2.78125","-2.09375"
"1574269876591","1193","0.26367188","-0.9013672","0.099609375","-2.875","0.96875","-1.0625"
"1574269876591","1194","0.22070312","-0.8828125","0.107421875","-2.09375","0.78125","-2.8125"
"1574269876591","1195","0.25195312","-0.92089844","0.10058594","-1.25","-0.8125","1.5"
"1574269876591","1196","0.23730469","-0.8984375","0.103515625","0.15625","4.375","-3.375"
"1574269876592","1197","0.24707031","-0.8857422","0.10839844","-0.9375","3.71875","-0.4375"
"1574269876592","1198","0.2705078","-0.93066406","0.1015625","-3.3125","3.71875","-0.5625"
"1574269876592","1199","0.23730469","-0.8984375","0.11328125","-2.03125","4.9375","-2.15625"
"1574269876790","1200","0.265625","-0.8984375","0.099609375","-0.875","0.84375","2.78125"
"1574269876791","1201","0.22949219","-0.9033203","0.10253906","-5.8125","-0.0625","-2.875"
"1574269876791","1202","0.27539062","-0.90234375","0.09472656","-1.71875","0.0","1.5"
"1574269876792","1203","0.26757812","-0.90234375","0.095703125","-1.65625","-1.71875","0.46875"
"1574269876792","1204","0.22460938","-0.89941406","0.11621094","1.5","-0.875","0.90625"
"1574269876792","1205","0.2529297","-0.90722656","0.083984375","0.21875","-0.125","2.0"
"1574269876792","1206","0.2578125","-0.8876953","0.10644531","0.15625","0.21875","0.03125"
"1574269876793","1207","0.22167969","-0.90625","0.107421875","-1.0625","-0.75","0.78125"
"1574269876793","1208","0.2421875","-0.91796875","0.10058594","0.96875","0.84375","0.40625"
"1574269876793","1209","0.21875","-0.8886719","0.1015625","1.28125","-0.4375","-1.90625"
"1574269877188","1210","0.2548828","-0.9169922","0.11230469","-1.90625","-0.3125","0.65625"
"1574269877188","1211","0.21777344","-0.91796875","0.10546875","0.59375","-0.375","-1.125"
"1574269877188","1212","0.20605469","-0.89453125","0.080078125","7.5","0.71875","-1.90625"
"1574269877189","1213","0.2626953","-0.90234375","0.12597656","1.6875","5.53125","2.0"
"1574269877190","1214","0.25195312","-0.9003906","0.11328125","7.5625","5.0625","-1.34375"
"1574269877190","1215","0.24902344","-0.8984375","0.115234375","10.71875","6.21875","1.03125"
"1574269877190","1216","0.2265625","-0.9033203","0.14453125","6.6875","4.125","0.15625"
"1574269877191","1217","0.23925781","-0.9082031","0.14355469","10.0","-1.1875","-1.90625"
"1574269877191","1218","0.24316406","-0.9189453","0.12207031","6.03125","1.09375","2.125"
"1574269877191","1219","0.21484375","-0.8925781","0.171875","-1.46875","1.09375","3.46875"
"1574269877584","1220","0.21875","-0.9091797","0.15136719","3.21875","2.84375","0.65625"
"1574269877584","1221","0.2578125","-0.91015625","0.14550781","-1.90625","3.59375","3.09375"
"1574269877585","1222","0.20214844","-0.8876953","0.15332031","0.96875","4.375","0.84375"
"1574269877585","1223","0.23144531","-0.9169922","0.14941406","2.375","5.78125","1.15625"
"1574269877585","1224","0.22753906","-0.91308594","0.15917969","4.9375","1.375","-1.0625"
"1574269877586","1225","0.21972656","-0.89746094","0.15039062","7.5","0.65625","-1.0625"
"1574269877586","1226","0.21191406","-0.90722656","0.17285156","2.1875","2.65625","-1.59375"
"1574269877587","1227","0.24023438","-0.91015625","0.16210938","4.125","2.3125","0.28125"
"1574269877587","1228","0.21875","-0.91796875","0.15820312","14.28125","1.3125","0.84375"
"1574269877587","1229","0.18261719","-0.9091797","0.18554688","9.6875","6.8125","-0.375"
"1574269877982","1230","0.23535156","-0.9013672","0.18652344","15.1875","7.5","2.71875"
"1574269877982","1231","0.25878906","-0.9121094","0.22949219","7.5","6.5625","2.78125"
"1574269877983","1232","0.19921875","-0.88964844","0.19726562","2.5","0.40625","0.21875"
"1574269877983","1233","0.21875","-0.88964844","0.21386719","-4.59375","0.59375","-0.1875"
"1574269877983","1234","0.21777344","-0.92578125","0.19335938","2.25","0.53125","-1.78125"
"1574269877983","1235","0.20703125","-0.9121094","0.21191406","-0.0625","1.8125","-4.15625"
"1574269877984","1236","0.23046875","-0.88183594","0.20410156","-6.96875","1.15625","-2.59375"
"1574269877985","1237","0.21679688","-0.9160156","0.18847656","-7.09375","0.28125","-4.09375"
"1574269877985","1238","0.20605469","-0.9140625","0.19726562","-7.40625","0.84375","-3.8125"
"1574269877986","1239","0.20898438","-0.89746094","0.1953125","-3.5","3.53125","-3.125"
"1574269878574","1240","0.20605469","-0.91015625","0.20019531","-4.90625","6.09375","-5.03125"
"1574269878575","1241","0.22070312","-0.9033203","0.20117188","-4.84375","4.625","-4.78125"
"1574269878575","1242","0.20605469","-0.9013672","0.18261719","-6.25","7.625","-7.65625"
"1574269878575","1243","0.23730469","-0.9042969","0.19042969","-6.25","8.78125","-8.0"
"1574269878576","1244","0.2548828","-0.9033203","0.17773438","-9.46875","6.9375","-8.5"
"1574269878576","1245","0.23535156","-0.8964844","0.18261719","-12.03125","3.9375","-8.625"
"1574269878576","1246","0.2685547","-0.89453125","0.15429688","-13.4375","0.59375","-7.34375"
"1574269878576","1247","0.28515625","-0.9091797","0.14550781","-9.21875","0.84375","-5.5625"
"1574269878577","1248","0.27539062","-0.8847656","0.14453125","-14.71875","0.09375","-9.46875"
"1574269878577","1249","0.28320312","-0.87890625","0.09863281","-10.4375","-3.3125","-1.25"
"1574269878779","1250","0.26367188","-0.90527344","0.12207031","-11.375","4.375","-0.875"
"1574269878779","1251","0.28808594","-0.8925781","0.1015625","-7.21875","3.40625","1.625"
"1574269878780","1252","0.22363281","-0.87597656","0.08496094","1.5625","6.03125","-1.34375"
"1574269878780","1253","0.32226562","-0.921875","0.11328125","-6.25","16.59375","9.25"
"1574269878780","1254","0.27148438","-0.87890625","0.11621094","-9.65625","8.15625","3.59375"
"1574269878781","1255","0.2578125","-0.9091797","0.10253906","-5.75","8.96875","6.5625"
"1574269878781","1256","0.2529297","-0.94628906","0.11425781","-7.9375","1.625","4.4375"
"1574269878781","1257","0.2529297","-0.8828125","0.13671875","-3.90625","-2.53125","1.21875"
"1574269878781","1258","0.25878906","-0.89746094","0.12597656","-7.8125","-8.0625","1.09375"
"1574269878782","1259","0.25","-0.921875","0.09277344","-8.9375","-12.65625","1.6875"
"1574269879570","1260","0.23144531","-0.89160156","0.099609375","-4.46875","-11.90625","0.34375"
"1574269879571","1261","0.21386719","-0.90234375","0.10449219","-3.5","-10.4375","0.90625"
"1574269879571","1262","0.23339844","-0.90234375","0.08691406","1.15625","-5.6875","0.03125"
"1574269879571","1263","0.21582031","-0.9189453","0.09472656","-1.46875","-8.1875","0.03125"
"1574269879571","1264","0.19726562","-0.9033203","0.09277344","-2.09375","-1.84375","-0.25"
"1574269879572","1265","0.22363281","-0.9160156","0.06640625","2.0","-2.875","0.65625"
"1574269879572","1266","0.2265625","-0.9082031","0.09277344","0.46875","2.65625","-0.625"
"1574269879572","1267","0.22851562","-0.91308594","0.095703125","-1.0","3.84375","1.03125"
"1574269879572","1268","0.21582031","-0.90625","0.068359375","-1.0625","4.9375","1.09375"
"1574269879573","1269","0.22949219","-0.8984375","0.0859375","-3.3125","5.96875","-0.8125"
"1574269879967","1270","0.2529297","-0.9189453","0.08886719","-2.40625","5.96875","-0.25"
"1574269879968","1271","0.24121094","-0.9013672","0.08691406","-1.46875","4.375","-3.125"
"1574269879968","1272","0.23828125","-0.8964844","0.08105469","-2.9375","3.40625","-2.6875"
"1574269879970","1273","0.24511719","-0.90234375","0.07910156","-3.375","2.59375","-3.3125"
"1574269879970","1274","0.24414062","-0.90625","0.08203125","-0.6875","0.46875","-3.5"
"1574269879970","1275","0.23925781","-0.89941406","0.07910156","0.21875","1.21875","-3.0"
"1574269879971","1276","0.25195312","-0.9082031","0.087890625","-1.0","2.375","-1.96875"
"1574269879971","1277","0.22363281","-0.890625","0.07128906","1.625","1.5","-2.21875"
"1574269879971","1278","0.24707031","-0.93066406","0.068359375","16.34375","2.65625","2.65625"
"1574269879971","1279","0.22265625","-0.9082031","0.13183594","-1.59375","4.1875","-0.9375"
"1574269880564","1280","0.22265625","-0.8876953","0.1015625","3.53125","4.25","-2.46875"
"1574269880564","1281","0.24023438","-0.92578125","0.08105469","2.5625","7.90625","-0.9375"
"1574269880565","1282","0.23242188","-0.8925781","0.123046875","-1.125","8.78125","-5.15625"
"1574269880565","1283","0.23730469","-0.91308594","0.115234375","4.125","4.9375","-2.21875"
"1574269880565","1284","0.24316406","-0.90722656","0.111328125","3.59375","8.03125","-2.09375"
"1574269880567","1285","0.2529297","-0.90625","0.111328125","2.25","9.125","-1.59375"
"1574269880567","1286","0.23242188","-0.9248047","0.11035156","4.0625","4.75","-1.0"
"1574269880568","1287","0.23535156","-0.87890625","0.1171875","-4.09375","9.4375","-2.9375"
"1574269880568","1288","0.26464844","-0.90527344","0.12597656","-2.59375","3.15625","-3.4375"
"1574269880568","1289","0.23925781","-0.9169922","0.10644531","2.65625","1.375","-2.40625"
"1574269880763","1290","0.2548828","-0.8955078","0.125","0.65625","0.96875","-1.65625"
"1574269880763","1291","0.26660156","-0.890625","0.13476562","-0.3125","-1.53125","-1.40625"
"1574269880763","1292","0.25","-0.91015625","0.12207031","0.96875","-2.34375","-0.125"
"1574269880764","1293","0.2421875","-0.9033203","0.12207031","3.40625","-1.25","1.4375"
"1574269880764","1294","0.23828125","-0.9042969","0.13378906","-2.34375","-5.4375","-0.5"
"1574269880764","1295","0.23535156","-0.9033203","0.11621094","-1.125","-2.9375","0.09375"
"1574269880764","1296","0.23339844","-0.92089844","0.09863281","0.03125","0.65625","-1.40625"
"1574269880766","1297","0.24121094","-0.8886719","0.12011719","-10.75","0.59375","-2.15625"
"1574269880767","1298","0.23535156","-0.89160156","0.125","3.21875","5.40625","-1.78125"
"1574269880767","1299","0.26757812","-0.9189453","0.11035156","-1.34375","6.75","-1.40625"
"1574269880960","1300","0.25097656","-0.89160156","0.11425781","-0.6875","2.25","-1.0"
"1574269880960","1301","0.2626953","-0.8876953","0.12988281","-1.25","1.4375","-1.1875"
"1574269880960","1302","0.26171875","-0.91015625","0.111328125","-0.4375","1.8125","-1.1875"
"1574269880961","1303","0.25","-0.8964844","0.12597656","-0.5","-0.25","-0.8125"
"1574269880961","1304","0.25","-0.89453125","0.123046875","0.40625","-0.3125","-1.125"
"1574269880961","1305","0.25878906","-0.91015625","0.123046875","0.09375","0.46875","0.15625"
"1574269880970","1306","0.2529297","-0.9033203","0.12597656","0.46875","-0.9375","-0.5625"
"1574269880970","1307","0.23242188","-0.8984375","0.12695312","-0.8125","-2.8125","-1.0"
"1574269880971","1308","0.24316406","-0.91015625","0.12402344","1.09375","2.5625","0.40625"
"1574269880971","1309","0.23144531","-0.91503906","0.10449219","-2.09375","-0.1875","-1.34375"
"1574269881162","1310","0.234375","-0.9189453","0.12695312","-0.375","1.625","0.03125"
"1574269881162","1311","0.265625","-0.87402344","0.13183594","-5.625","2.90625","-1.3125"
"1574269881162","1312","0.22167969","-0.9121094","0.11816406","-2.03125","2.96875","-0.3125"
"1574269881163","1313","0.26367188","-0.91308594","0.08984375","-1.96875","9.4375","0.71875"
"1574269881163","1314","0.2421875","-0.8798828","0.12988281","-5.6875","4.3125","-1.125"
"1574269881163","1315","0.25878906","-0.9111328","0.12109375","-1.34375","3.9375","-1.34375"
"1574269881163","1316","0.2734375","-0.9091797","0.111328125","-3.25","3.15625","-1.53125"
"1574269881163","1317","0.2421875","-0.8964844","0.12890625","-1.90625","0.21875","-2.34375"
"1574269881164","1318","0.23828125","-0.90722656","0.12695312","-0.5","0.15625","-2.09375"
"1574269881164","1319","0.25390625","-0.9033203","0.10839844","-3.375","0.59375","-2.09375"
"1574269881560","1320","0.24511719","-0.91015625","0.1015625","-2.40625","0.28125","-0.6875"
"1574269881560","1321","0.22949219","-0.9111328","0.11328125","-4.71875","-0.1875","-2.28125"
"1574269881560","1322","0.24316406","-0.89746094","0.083984375","2.4375","2.78125","-1.84375"
"1574269881561","1323","0.26464844","-0.9199219","0.11328125","2.125","-0.75","-1.3125"
"1574269881561","1324","0.23535156","-0.89941406","0.107421875","-0.3125","0.40625","-2.15625"
"1574269881561","1325","0.25195312","-0.90234375","0.09863281","3.21875","0.15625","-0.3125"
"1574269881561","1326","0.2548828","-0.9082031","0.1328125","2.0625","3.40625","-1.25"
"1574269881562","1327","0.2529297","-0.89941406","0.10644531","3.59375","2.3125","0.0"
"1574269881562","1328","0.2548828","-0.8955078","0.12695312","3.78125","5.34375","-0.875"
"1574269881562","1329","0.24707031","-0.89160156","0.12402344","2.0625","4.875","0.71875"
"1574269881958","1330","0.25683594","-0.90722656","0.125","1.5","4.8125","0.90625"
"1574269881958","1331","0.2626953","-0.9003906","0.12402344","0.21875","5.65625","0.65625"
"1574269881959","1332","0.23535156","-0.9003906","0.13378906","1.8125","2.375","-0.5625"
"1574269881960","1333","0.25097656","-0.9003906","0.12988281","0.84375","4.75","-0.375"
"1574269881961","1334","0.25878906","-0.8964844","0.13183594","0.96875","2.5625","0.03125"
"1574269881961","1335","0.26757812","-0.9189453","0.12792969","-1.59375","-1.25","1.75"
"1574269881961","1336","0.23632812","-0.8955078","0.13769531","-3.3125","-3.96875","2.125"
"1574269881961","1337","0.22265625","-0.90527344","0.12597656","3.53125","2.125","0.71875"
