"# PR data"
"# Start time: 20191120T170251"
"# Subject: andrius"
"# Activity type: Walking"
"# Correctness: Incorrect"
"# Notes: "
""
"timestamp","seq","accel_x","accel_y","accel_z","gyro_x","gyro_y","gyro_z"
"1574269371567","0","0.20214844","-0.98339844","0.061523438","-1.46875","-5.75","-6.125"
"1574269371567","1","0.21582031","-0.89160156","0.07324219","-5.3125","-2.6875","-2.40625"
"1574269371568","2","0.22753906","-0.8720703","0.10449219","-1.3125","-3.375","-2.46875"
"1574269371568","3","0.22460938","-0.9189453","0.08886719","1.8125","2.78125","-1.46875"
"1574269371568","4","0.23339844","-0.90625","0.1015625","-1.34375","3.84375","-2.28125"
"1574269371569","5","0.21679688","-0.90234375","0.10253906","3.90625","0.90625","-1.3125"
"1574269371569","6","0.203125","-0.8876953","0.07714844","5.78125","4.4375","0.28125"
"1574269371573","7","0.23046875","-0.9248047","0.09863281","12.0625","0.40625","0.65625"
"1574269371574","8","0.25976562","-0.8876953","0.16015625","7.25","7.25","1.6875"
"1574269371574","9","0.21289062","-0.8876953","0.10546875","25.4375","0.90625","-1.53125"
"1574269371965","10","0.24707031","-0.9013672","0.12792969","30.625","0.65625","0.78125"
"1574269371965","11","0.2861328","-0.93066406","0.13867188","17.125","-9.46875","-2.28125"
"1574269371966","12","0.27734375","-0.95410156","0.16699219","3.15625","-9.84375","-10.6875"
"1574269371967","13","0.21875","-0.89941406","0.16210938","3.65625","-6.1875","-9.21875"
"1574269371967","14","0.203125","-0.85839844","0.18359375","-9.15625","-6.90625","-8.875"
"1574269371968","15","0.2685547","-0.8964844","0.14160156","-14.90625","-2.9375","-8.375"
"1574269371968","16","0.27929688","-0.93652344","0.12402344","-8.625","-4.71875","-5.875"
"1574269371968","17","0.25195312","-0.8730469","0.14648438","-4.59375","-6.125","-9.0"
"1574269371968","18","0.28320312","-0.8857422","0.17285156","3.9375","-10.09375","-2.75"
"1574269371969","19","0.2763672","-0.953125","0.109375","0.46875","-15.6875","1.3125"
"1574269372362","20","0.29296875","-0.9013672","0.15136719","-5.3125","-14.1875","2.5"
"1574269372362","21","0.2548828","-0.9199219","0.14550781","-14.1875","-28.15625","14.15625"
"1574269372362","22","0.17871094","-0.8623047","0.09863281","-17.21875","-10.21875","10.71875"
"1574269372363","23","0.22851562","-0.8496094","0.12792969","-27.125","-7.28125","21.59375"
"1574269372363","24","0.23925781","-0.88671875","0.1484375","-11.84375","-6.96875","16.09375"
"1574269372364","25","0.016601562","-0.8847656","0.080078125","17.0625","14.875","12.625"
"1574269372364","26","0.27539062","-1.0205078","0.076171875","9.8125","19.53125","19.9375"
"1574269372364","27","0.390625","-1.046875","0.095703125","9.375","28.1875","2.90625"
"1574269372365","28","0.103515625","-0.9121094","0.095703125","2.0","28.78125","-1.78125"
"1574269372365","29","0.107421875","-0.8417969","0.10644531","-11.125","35.03125","-4.21875"
"1574269372759","30","0.24804688","-0.8339844","0.18066406","-3.90625","31.34375","0.65625"
"1574269372759","31","0.1953125","-0.8564453","0.15136719","3.03125","27.875","0.96875"
"1574269372760","32","0.20019531","-0.96875","0.103515625","0.65625","27.6875","0.53125"
"1574269372760","33","0.25097656","-0.9482422","0.09667969","3.78125","26.53125","-6.84375"
"1574269372760","34","0.25976562","-0.8798828","0.119140625","4.0","18.71875","-6.5"
"1574269372760","35","0.19824219","-0.87402344","0.13964844","1.8125","16.65625","-11.1875"
"1574269372761","36","0.13574219","-0.9082031","0.14257812","6.6875","21.15625","-12.40625"
"1574269372762","37","0.23632812","-0.9042969","0.17675781","4.4375","19.15625","-16.3125"
"1574269372762","38","0.28710938","-0.9121094","0.14355469","20.1875","16.53125","-24.3125"
"1574269372762","39","0.2548828","-0.9003906","0.15234375","25.0625","8.15625","-24.6875"
"1574269373158","40","0.26660156","-0.9345703","0.16992188","10.84375","3.03125","-16.6875"
"1574269373158","41","0.27441406","-0.9082031","0.20214844","17.1875","5.40625","-22.28125"
"1574269373159","42","0.25976562","-0.85546875","0.23046875","11.9375","5.0","-12.46875"
"1574269373159","43","0.29296875","-0.8613281","0.21679688","13.15625","11.8125","-6.0"
"1574269373159","44","0.328125","-0.8808594","0.23632812","12.875","7.625","-3.25"
"1574269373159","45","0.3203125","-0.8984375","0.2421875","16.34375","5.0625","-3.0"
"1574269373160","46","0.32910156","-0.9033203","0.27148438","17.4375","3.46875","-1.3125"
"1574269373160","47","0.30273438","-0.88378906","0.28710938","3.90625","0.71875","2.65625"
"1574269373160","48","0.28515625","-0.89746094","0.25878906","11.75","-0.6875","4.0"
"1574269373162","49","0.38867188","-0.88671875","0.26953125","10.40625","-5.21875","6.6875"
"1574269373555","50","0.30566406","-0.8496094","0.29785156","5.96875","-8.9375","12.25"
"1574269373555","51","0.27929688","-0.8798828","0.29492188","16.03125","-5.03125","12.0625"
"1574269373556","52","0.31152344","-0.8779297","0.3154297","1.625","-7.53125","15.0625"
"1574269373556","53","0.26757812","-0.8417969","0.28125","19.34375","-7.78125","9.6875"
"1574269373556","54","0.25390625","-0.87402344","0.32617188","37.8125","-7.59375","25.5625"
"1574269373557","55","0.2578125","-0.765625","0.38183594","20.8125","-3.0","22.75"
"1574269373557","56","0.20703125","-0.875","0.37597656","40.6875","-3.0","26.28125"
"1574269373557","57","0.2548828","-0.9667969","0.38964844","30.1875","5.125","21.84375"
"1574269373557","58","0.23046875","-0.9189453","0.3984375","16.53125","7.5625","18.40625"
"1574269373558","59","0.12109375","-0.84375","0.4189453","15.96875","17.6875","25.375"
"1574269373955","60","0.14648438","-0.85058594","0.43066406","12.375","19.15625","28.71875"
"1574269373956","61","0.15039062","-0.8642578","0.43359375","28.71875","24.875","34.15625"
"1574269373956","62","0.12890625","-0.8574219","0.48339844","20.3125","29.15625","43.0625"
"1574269373956","63","0.09765625","-0.86328125","0.47460938","3.90625","33.75","48.5625"
"1574269373957","64","0.026367188","-0.796875","0.48828125","7.125","40.875","57.78125"
"1574269373957","65","0.0029296875","-0.85058594","0.5283203","7.5625","58.46875","66.8125"
"1574269373957","66","-0.12695312","-0.9296875","0.5527344","-1.84375","65.28125","71.15625"
"1574269373958","67","-0.22558594","-0.93066406","0.32617188","-8.8125","58.03125","88.1875"
"1574269373958","68","0.001953125","-0.9238281","0.32714844","-77.34375","71.9375","85.25"
"1574269373958","69","-0.03515625","-0.8535156","0.42285156","-31.21875","62.25","23.1875"
"1574269374350","70","-0.52441406","-0.7890625","0.37597656","-3.8125","32.15625","69.375"
"1574269374350","71","-0.4501953","-0.7441406","0.2998047","-39.25","41.25","54.71875"
"1574269374351","72","-0.3798828","-0.8623047","0.3095703","-15.75","38.6875","42.90625"
"1574269374357","73","-0.47460938","-0.6748047","0.22851562","-3.5625","29.78125","35.5625"
"1574269374358","74","-0.5332031","-0.7841797","0.14257812","-21.4375","16.03125","26.40625"
"1574269374358","75","-0.47753906","-0.76953125","0.23925781","-31.8125","31.125","6.5625"
"1574269374358","76","-0.49316406","-0.7167969","0.17871094","-20.40625","11.09375","3.09375"
"1574269374358","77","-0.53027344","-0.7871094","0.21484375","-22.0","13.21875","-10.9375"
"1574269374359","78","-0.4951172","-0.7832031","0.15136719","-13.25","-4.53125","-6.375"
"1574269374359","79","-0.3671875","-0.71484375","0.1953125","-22.78125","0.71875","-27.0"
"1574269374948","80","-0.56347656","-0.7324219","0.16503906","-22.15625","-14.65625","-18.75"
"1574269374948","81","-0.49804688","-0.67089844","0.17480469","-15.40625","0.46875","-17.46875"
"1574269374949","82","-0.5029297","-0.7050781","0.16308594","-19.0625","4.25","-17.78125"
"1574269374949","83","-0.45214844","-0.75683594","0.123046875","-22.59375","2.1875","-19.53125"
"1574269374950","84","-0.3564453","-0.78222656","0.13671875","-19.65625","1.5625","-31.3125"
"1574269374950","85","-0.40722656","-0.8144531","0.09375","-7.28125","-0.9375","-28.6875"
"1574269374950","86","-0.38183594","-0.7421875","0.12109375","-8.0","-6.53125","-21.625"
"1574269374951","87","-0.2939453","-0.8144531","0.12402344","0.34375","-10.8125","-24.78125"
"1574269374951","88","-0.38183594","-0.79785156","0.13183594","-8.875","-8.8125","-21.625"
"1574269374951","89","-0.35351562","-0.7919922","0.0859375","-13.375","-10.625","-15.9375"
"1574269375343","90","-0.22265625","-0.85058594","0.0546875","-12.03125","-13.125","-18.09375"
"1574269375344","91","-0.20605469","-0.8330078","0.11035156","-6.71875","-10.875","-25.71875"
"1574269375344","92","-0.359375","-0.85058594","0.10058594","1.03125","-16.125","-20.875"
"1574269375344","93","-0.22851562","-0.80859375","0.068359375","-0.0625","-29.4375","-9.78125"
"1574269375344","94","-0.1484375","-0.8183594","0.123046875","-6.96875","-25.59375","-8.625"
"1574269375345","95","-0.28515625","-0.8574219","0.087890625","5.28125","-28.65625","-13.625"
"1574269375345","96","-0.21875","-0.82910156","0.111328125","4.0","-34.0","-9.46875"
"1574269375345","97","-0.19921875","-0.83496094","0.13574219","7.1875","-28.6875","-14.71875"
"1574269375346","98","-0.19238281","-0.8486328","0.12890625","8.40625","-35.78125","-18.8125"
"1574269375346","99","-0.22363281","-0.8652344","0.13574219","12.5625","-34.375","-20.71875"
"1574269375741","100","-0.1796875","-0.85058594","0.15332031","22.875","-31.875","-13.0625"
"1574269375742","101","-0.21289062","-0.8828125","0.17675781","24.09375","-27.0625","-9.96875"
"1574269375742","102","-0.20019531","-0.8779297","0.18457031","30.0625","-26.9375","-6.5"
"1574269375742","103","-0.203125","-0.83984375","0.2109375","37.71875","-19.53125","-4.96875"
"1574269375743","104","-0.20703125","-0.8671875","0.19824219","38.9375","-18.09375","-4.34375"
"1574269375743","105","-0.08984375","-0.85839844","0.17578125","57.84375","-27.25","-3.1875"
"1574269375743","106","-0.056640625","-0.7949219","0.27929688","58.875","-18.375","-7.875"
"1574269375743","107","-0.103515625","-0.8388672","0.29492188","68.28125","-30.03125","-8.4375"
"1574269375744","108","-0.046875","-0.8691406","0.4560547","33.4375","-10.34375","-12.59375"
"1574269375745","109","-0.23828125","-0.8701172","0.6279297","124.625","8.03125","9.5"
"1574269376335","110","-0.3857422","-0.8076172","0.7363281","120.84375","2.65625","19.625"
"1574269376336","111","-0.19726562","-0.7392578","0.6611328","102.65625","-8.3125","11.40625"
"1574269376336","112","-0.23144531","-0.69433594","0.79296875","18.65625","30.25","-12.21875"
"1574269376336","113","-0.25585938","-0.76171875","0.89746094","80.4375","14.21875","-10.875"
"1574269376336","114","-0.087890625","-0.61621094","0.8417969","72.75","0.15625","-14.125"
"1574269376337","115","-0.14453125","-0.57128906","0.8808594","19.09375","8.15625","-19.71875"
"1574269376337","116","-0.21582031","-0.61035156","0.94628906","18.65625","7.8125","-25.34375"
"1574269376337","117","-0.109375","-0.60839844","0.9042969","13.34375","-3.375","-30.21875"
"1574269376337","118","-0.08105469","-0.57910156","0.89160156","-11.4375","-2.59375","-31.25"
"1574269376338","119","-0.10644531","-0.6542969","0.8798828","-21.5625","-3.5625","-31.875"
"1574269376535","120","-0.037109375","-0.66015625","0.8486328","-19.59375","-13.875","-34.5625"
"1574269376536","121","-0.016601562","-0.66503906","0.82128906","-18.875","-22.90625","-37.1875"
"1574269376536","122","-0.036132812","-0.6142578","0.796875","-28.53125","-27.1875","-38.40625"
"1574269376536","123","-0.56933594","-1.2158203","0.18066406","-23.21875","-27.59375","-43.34375"
"1574269376536","124","0.05078125","-0.51660156","0.8261719","-11.0625","-19.375","-51.21875"
"1574269376537","125","0.072265625","-0.63671875","0.78808594","-27.59375","-28.59375","-40.53125"
"1574269376537","126","0.12011719","-0.63378906","0.78027344","-19.84375","-26.0625","-40.59375"
"1574269376537","127","0.10058594","-0.64453125","0.7919922","-15.15625","-10.6875","-36.46875"
"1574269376537","128","0.05078125","-0.5810547","0.7685547","-10.4375","0.28125","-41.875"
"1574269376538","129","0.057617188","-0.67578125","0.73535156","6.9375","18.96875","-42.8125"
"1574269376933","130","0.17773438","-0.6689453","0.7626953","-3.4375","19.875","-51.28125"
"1574269376934","131","0.13378906","-0.62597656","0.7705078","21.09375","31.96875","-53.40625"
"1574269376934","132","0.15625","-0.61621094","0.7529297","17.1875","37.09375","-51.34375"
"1574269376935","133","0.18457031","-0.58203125","0.81933594","23.0","60.78125","-56.78125"
"1574269376936","134","0.21582031","-0.6201172","0.8330078","21.53125","59.90625","-53.53125"
"1574269376936","135","0.234375","-0.5986328","0.8300781","20.625","64.3125","-55.4375"
"1574269376937","136","0.26367188","-0.5517578","0.83984375","9.25","61.5625","-47.8125"
"1574269376937","137","0.2841797","-0.61621094","0.8808594","19.21875","60.28125","-41.75"
"1574269376937","138","0.29492188","-0.61328125","0.87402344","11.59375","57.0625","-41.03125"
"1574269376937","139","0.27734375","-0.6308594","0.9277344","-9.46875","57.65625","-27.84375"
"1574269377332","140","0.28320312","-0.6582031","0.88671875","-6.1875","50.8125","-25.34375"
"1574269377332","141","0.29296875","-0.61621094","0.84375","-17.90625","45.28125","-22.46875"
"1574269377332","142","0.19433594","-0.54296875","0.8486328","-20.21875","45.5625","-7.46875"
"1574269377333","143","0.16308594","-0.62109375","0.79589844","-17.90625","52.71875","4.1875"
"1574269377333","144","0.125","-0.6455078","0.7949219","-24.75","48.8125","2.65625"
"1574269377334","145","0.28710938","-0.6972656","0.76953125","-23.15625","42.78125","12.75"
"1574269377335","146","0.14257812","-0.7236328","0.76660156","-25.40625","46.5","13.40625"
"1574269377335","147","0.076171875","-0.6767578","0.72753906","-40.90625","45.9375","25.8125"
"1574269377335","148","0.020507812","-0.7207031","0.7080078","-26.875","64.625","35.25"
"1574269377336","149","-0.038085938","-0.86035156","0.6640625","-44.875","72.96875","40.8125"
"1574269377729","150","-0.099609375","-0.82128906","0.6044922","-75.46875","68.28125","50.9375"
"1574269377729","151","-0.10546875","-0.859375","0.65527344","-80.15625","68.65625","55.28125"
"1574269377729","152","-0.10253906","-0.85546875","0.5058594","-101.625","39.15625","84.59375"
"1574269377730","153","-0.19726562","-0.61816406","0.5566406","-115.5625","52.84375","117.78125"
"1574269377730","154","-0.12792969","-0.7558594","0.6152344","-81.0","39.0625","79.9375"
"1574269377730","155","-0.52441406","-0.6484375","0.7285156","-42.0","54.5","34.09375"
"1574269377730","156","-0.8203125","-0.84765625","0.41210938","-49.46875","15.0","77.8125"
"1574269377731","157","-0.3408203","-0.6904297","0.4716797","-42.0625","25.8125","47.65625"
"1574269377732","158","-0.40429688","-0.6503906","0.4326172","-31.6875","9.75","8.28125"
"1574269377732","159","-0.5566406","-0.6816406","0.4404297","-40.59375","5.53125","13.15625"
"1574269378322","160","-0.51953125","-0.6972656","0.4658203","-12.46875","-3.75","-3.5"
"1574269378323","161","-0.4814453","-0.6464844","0.36621094","-13.625","-21.4375","-13.8125"
"1574269378323","162","-0.5839844","-0.74609375","0.2529297","-37.6875","-27.0","-14.84375"
"1574269378323","163","-0.4296875","-0.7626953","0.31640625","-44.875","-42.875","-25.71875"
"1574269378324","164","-0.43164062","-0.77246094","0.31054688","-43.53125","-56.59375","-36.21875"
"1574269378324","165","-0.3955078","-0.7441406","0.29882812","-55.0625","-71.125","-40.53125"
"1574269378324","166","-0.37109375","-0.7949219","0.29882812","-61.0625","-77.40625","-43.59375"
"1574269378324","167","-0.3642578","-0.84277344","0.25878906","-68.1875","-92.25","-42.9375"
"1574269378324","168","-0.26171875","-0.76953125","0.30566406","-56.28125","-89.6875","-49.21875"
"1574269378326","169","-0.24511719","-0.7763672","0.26464844","-62.09375","-97.125","-34.3125"
"1574269378523","170","-0.3076172","-0.8691406","0.23535156","-51.96875","-99.3125","-32.1875"
"1574269378523","171","-0.22851562","-0.7441406","0.23535156","-36.21875","-89.84375","-37.84375"
"1574269378523","172","-0.24902344","-0.74902344","0.23730469","-47.125","-88.09375","-18.5"
"1574269378524","173","-0.2783203","-0.8515625","0.19335938","-37.0","-73.0","-29.6875"
"1574269378524","174","-0.19335938","-0.8144531","0.14453125","-23.4375","-64.65625","-29.5625"
"1574269378524","175","-0.13085938","-0.8613281","0.16894531","-25.46875","-42.96875","-24.625"
"1574269378524","176","-0.15136719","-0.8535156","0.21484375","-11.25","-43.84375","-36.9375"
"1574269378525","177","-0.13476562","-0.8339844","0.17480469","11.21875","-41.9375","-32.84375"
"1574269378525","178","-0.13964844","-0.93359375","0.15722656","6.5","-33.03125","-17.59375"
"1574269378525","179","-0.046875","-0.7988281","0.15917969","38.6875","-22.15625","-22.96875"
"1574269379122","180","0.19628906","-0.79003906","0.16308594","26.53125","-19.84375","1.03125"
"1574269379123","181","-0.037109375","-1.0","0.13085938","34.65625","-26.0625","-15.03125"
"1574269379124","182","0.016601562","-0.87597656","0.22753906","66.9375","-17.84375","-0.875"
"1574269379124","183","0.052734375","-0.7919922","0.25585938","48.8125","-13.1875","7.125"
"1574269379124","184","0.032226562","-0.9003906","0.2626953","48.15625","-23.03125","-4.46875"
"1574269379124","185","-0.08886719","-0.92871094","0.4404297","48.625","-4.78125","-2.59375"
"1574269379125","186","-0.12695312","-0.9003906","0.4189453","86.46875","24.46875","-2.15625"
"1574269379125","187","-0.26464844","-0.96191406","0.6279297","51.5625","35.5625","17.875"
"1574269379125","188","-0.12695312","-0.98046875","0.5283203","61.03125","32.15625","-7.15625"
"1574269379125","189","0.12402344","-0.85546875","0.5751953","54.3125","7.5","-15.75"
"1574269379319","190","0.12695312","-0.85058594","0.73339844","43.4375","-12.53125","-10.625"
"1574269379320","191","-0.020507812","-0.7685547","0.7792969","76.09375","-24.78125","-34.0625"
"1574269379320","192","-0.22167969","-0.7402344","0.74902344","48.375","-35.21875","-16.9375"
"1574269379321","193","-0.046875","-0.63671875","0.78515625","10.65625","-27.25","-20.59375"
"1574269379322","194","-0.0087890625","-0.6816406","0.76171875","7.625","-10.6875","-26.5"
"1574269379322","195","-0.10546875","-0.7919922","0.7480469","-20.78125","-5.09375","-24.90625"
"1574269379322","196","0.028320312","-0.72753906","0.7529297","-32.96875","-8.4375","-27.40625"
"1574269379323","197","0.07910156","-0.67089844","0.70703125","-22.21875","-13.25","-25.84375"
"1574269379323","198","0.046875","-0.70996094","0.68652344","-32.71875","-11.125","-19.1875"
"1574269379323","199","0.0390625","-0.75390625","0.67578125","-32.3125","0.59375","-16.25"
"1574269379718","200","0.06738281","-0.74316406","0.66796875","-21.75","12.4375","-14.96875"
"1574269379719","201","0.13769531","-0.71972656","0.6621094","-25.34375","21.28125","-14.3125"
"1574269379719","202","0.09472656","-0.7363281","0.6142578","-22.34375","22.5625","-19.0625"
"1574269379719","203","0.08203125","-0.75683594","0.5830078","-19.90625","23.0625","-20.84375"
"1574269379720","204","0.14355469","-0.75683594","0.5996094","-20.875","29.65625","-19.71875"
"1574269379721","205","0.19824219","-0.78027344","0.58496094","-10.9375","29.03125","-25.09375"
"1574269379721","206","0.19921875","-0.77246094","0.49121094","-7.21875","24.34375","-20.03125"
"1574269379722","207","0.1953125","-0.80859375","0.53027344","-45.1875","34.28125","-11.0"
"1574269379722","208","0.2607422","-0.8720703","0.53515625","-15.21875","23.53125","-19.90625"
"1574269379722","209","0.30273438","-0.8076172","0.5205078","-14.65625","13.90625","-13.8125"
"1574269380114","210","0.203125","-0.86035156","0.47070312","-37.1875","21.78125","-3.8125"
"1574269380114","211","0.19726562","-0.9355469","0.4873047","-31.5","20.3125","1.75"
"1574269380114","212","0.20996094","-0.8730469","0.44433594","-32.125","28.84375","8.90625"
"1574269380114","213","0.17285156","-0.8671875","0.42578125","-39.8125","42.03125","15.1875"
"1574269380115","214","0.20410156","-0.8574219","0.3984375","-38.53125","38.375","21.03125"
"1574269380115","215","0.20898438","-0.8544922","0.4248047","-28.875","49.3125","32.6875"
"1574269380115","216","0.103515625","-0.87402344","0.31152344","-37.84375","43.0","55.53125"
"1574269380116","217","0.06738281","-0.8203125","0.42285156","-45.125","53.34375","63.78125"
"1574269380116","218","-0.1171875","-0.99121094","0.21972656","-47.125","30.5625","69.375"
"1574269380117","219","0.001953125","-0.87402344","0.31933594","-13.0625","39.84375","56.8125"
"1574269380510","220","-0.0107421875","-0.7705078","0.4013672","-5.9375","18.46875","51.0"
"1574269380511","221","-0.37109375","-0.85058594","0.28710938","-7.46875","5.0625","69.0"
"1574269380511","222","-0.44433594","-0.9501953","0.1796875","-37.75","32.625","73.96875"
"1574269380511","223","-0.29785156","-0.86328125","0.29589844","-31.25","35.25","69.3125"
"1574269380511","224","-0.40527344","-0.8955078","0.21679688","-14.3125","25.4375","55.71875"
"1574269380511","225","-0.5917969","-0.8544922","0.18847656","-38.03125","25.25","62.84375"
"1574269380512","226","-0.51171875","-0.84472656","0.14648438","-44.8125","14.3125","54.0625"
"1574269380512","227","-0.4580078","-0.82128906","0.1171875","-35.0625","13.46875","23.78125"
"1574269380512","228","-0.44726562","-0.79296875","0.11328125","-35.40625","-4.09375","12.875"
"1574269380513","229","-0.43066406","-0.75","0.13964844","-32.0625","-4.59375","-8.0625"
"1574269380908","230","-0.4892578","-0.77441406","0.10644531","-24.6875","-5.6875","-20.78125"
"1574269380908","231","-0.4658203","-0.74316406","0.09082031","-24.6875","-6.4375","-25.90625"
"1574269380908","232","-0.40234375","-0.7294922","0.08691406","-23.28125","-9.71875","-35.34375"
"1574269380909","233","-0.37109375","-0.7734375","0.078125","-12.71875","-7.21875","-41.875"
"1574269380909","234","-0.421875","-0.81152344","0.026367188","-2.875","-11.6875","-51.53125"
"1574269380909","235","-0.3017578","-0.7753906","0.09863281","-3.375","-8.625","-54.59375"
"1574269380910","236","-0.25097656","-0.82128906","0.057617188","-7.40625","-17.28125","-54.09375"
"1574269380910","237","-0.2939453","-0.84375","-0.005859375","-9.78125","-17.71875","-54.875"
"1574269380910","238","-0.16601562","-0.84375","0.022460938","-17.78125","-12.15625","-52.875"
"1574269380910","239","-0.1171875","-0.81347656","0.033203125","-17.21875","-17.21875","-58.5"
"1574269381307","240","-0.16308594","-0.8330078","-9.765625E-4","-28.65625","-12.71875","-57.8125"
"1574269381308","241","-0.13671875","-0.859375","0.0146484375","-29.125","-9.21875","-52.75"
"1574269381309","242","-0.041015625","-0.88378906","-0.02734375","-22.0","-11.71875","-46.28125"
"1574269381309","243","0.001953125","-0.91796875","-0.060546875","-20.34375","-15.28125","-43.40625"
"1574269381310","244","0.02734375","-0.9033203","-0.09277344","-17.65625","-24.0625","-39.03125"
"1574269381310","245","0.083984375","-0.8671875","-0.037109375","-15.21875","-22.71875","-39.5625"
"1574269381310","246","0.1328125","-0.83984375","-0.10644531","-20.03125","-33.65625","-37.625"
"1574269381310","247","0.109375","-0.87109375","-0.11230469","-21.375","-40.375","-36.6875"
"1574269381311","248","0.05859375","-0.83984375","-0.123046875","-20.40625","-43.53125","-27.125"
"1574269381311","249","0.12597656","-0.8417969","-0.15234375","-13.75","-37.90625","-19.96875"
"1574269381900","250","0.14550781","-0.8203125","-0.1953125","1.8125","-42.1875","-13.625"
"1574269381900","251","0.13183594","-0.8017578","-0.14257812","10.40625","-46.59375","-9.15625"
"1574269381901","252","0.06738281","-0.796875","-0.17773438","19.5625","-35.34375","-9.65625"
"1574269381902","253","0.091796875","-0.79003906","-0.13964844","31.46875","-30.34375","-4.21875"
"1574269381902","254","0.16308594","-0.8095703","-0.1328125","41.1875","-26.0625","-6.71875"
"1574269381902","255","0.17382812","-0.79296875","-0.103515625","47.96875","-28.15625","-11.71875"
"1574269381903","256","0.24707031","-0.95703125","0.07324219","34.46875","-13.75","-19.59375"
"1574269381903","257","-0.05859375","-1.3857422","-0.03125","38.3125","-33.71875","-17.65625"
"1574269381903","258","0.06933594","-1.1787109","0.047851562","49.25","-9.125","0.96875"
"1574269381903","259","0.20605469","-0.8310547","0.09375","85.375","-6.71875","-6.125"
"1574269382100","260","0.1484375","-0.6767578","0.31835938","14.21875","-24.5","-24.84375"
"1574269382101","261","-0.05078125","-1.0332031","0.28027344","16.34375","-34.25","-21.125"
"1574269382101","262","0.07324219","-1.0605469","0.34570312","62.1875","5.21875","-13.125"
"1574269382101","263","0.045898438","-0.76464844","0.4375","63.03125","-7.15625","-32.25"
"1574269382102","264","0.15332031","-0.8564453","0.3984375","4.25","-23.28125","-24.4375"
"1574269382104","265","0.19140625","-1.0751953","0.33984375","22.125","-1.53125","-17.65625"
"1574269382104","266","0.09667969","-0.8935547","0.4013672","22.75","4.75","-26.125"
"1574269382104","267","0.15527344","-0.7988281","0.4404297","-3.3125","-1.59375","-11.71875"
"1574269382105","268","0.13378906","-0.8339844","0.41503906","1.6875","1.875","-7.78125"
"1574269382105","269","0.18164062","-0.87597656","0.39257812","6.6875","12.9375","-9.96875"
"1574269382499","270","0.18652344","-0.8154297","0.42871094","11.9375","19.625","-6.78125"
"1574269382499","271","0.15820312","-0.85839844","0.3779297","16.90625","33.5","-4.03125"
"1574269382500","272","0.22460938","-0.9111328","0.38183594","15.4375","45.46875","-0.5"
"1574269382500","273","0.25097656","-0.84375","0.3955078","10.59375","45.625","-6.78125"
"1574269382500","274","0.20410156","-0.88183594","0.48632812","38.4375","35.15625","-2.875"
"1574269382500","275","0.16992188","-0.9169922","0.37597656","39.0","44.34375","1.6875"
"1574269382501","276","0.16601562","-0.8457031","0.43066406","17.625","60.21875","-11.375"
"1574269382501","277","0.29101562","-0.8535156","0.4814453","-6.71875","61.25","0.40625"
"1574269382501","278","0.27441406","-0.9785156","0.4453125","-38.34375","58.46875","-5.6875"
"1574269382502","279","0.15820312","-0.9121094","0.34277344","-32.84375","58.21875","2.0"
"1574269382895","280","0.14550781","-0.71484375","0.38476562","-38.09375","72.625","2.84375"
"1574269382896","281","0.3857422","-0.86621094","0.38867188","-72.15625","68.84375","4.5625"
"1574269382896","282","0.171875","-0.96875","0.24609375","-32.96875","68.34375","4.0"
"1574269382896","283","0.24023438","-0.80078125","0.36914062","-49.28125","72.4375","2.5"
"1574269382896","284","0.33398438","-1.0410156","0.25878906","-67.46875","42.46875","9.9375"
"1574269382897","285","0.13574219","-1.0673828","0.23046875","-46.875","36.125","5.90625"
"1574269382897","286","0.12597656","-0.86035156","0.2109375","-47.5","-3.375","9.5"
"1574269382897","287","0.14160156","-0.8144531","0.23828125","-34.125","7.5625","13.84375"
"1574269382898","288","0.041015625","-0.98046875","0.22070312","-35.65625","17.4375","21.28125"
"1574269382898","289","-0.12890625","-1.0478516","0.125","-42.0","36.71875","20.96875"
"1574269383295","290","0.032226562","-0.99121094","0.14257812","-46.65625","18.21875","29.09375"
"1574269383295","291","-0.11328125","-0.8730469","0.087890625","-26.0625","37.03125","19.46875"
"1574269383296","292","-0.033203125","-0.8261719","0.06933594","-16.0625","29.84375","18.53125"
"1574269383296","293","0.005859375","-0.8261719","0.041992188","-18.15625","19.15625","7.5"
"1574269383296","294","-0.0546875","-0.8798828","-0.005859375","-4.59375","10.78125","-1.40625"
"1574269383296","295","-0.0146484375","-0.86328125","0.061523438","-6.0","9.09375","-1.65625"
"1574269383297","296","-0.051757812","-0.93847656","-0.0068359375","-7.46875","8.65625","-1.46875"
"1574269383297","297","-0.028320312","-0.88964844","0.005859375","-5.21875","7.4375","-5.5625"
"1574269383297","298","0.0078125","-0.8808594","-0.0068359375","-5.8125","-0.875","-9.125"
"1574269383297","299","0.005859375","-0.88671875","-0.015625","-2.875","-6.25","-10.40625"
"1574269383693","300","0.0390625","-0.8720703","-0.0107421875","-0.5","-16.125","-11.0"
"1574269383694","301","0.013671875","-0.89746094","-0.020507812","-1.90625","-26.6875","-11.375"
"1574269383694","302","0.030273438","-0.87597656","-0.0048828125","0.0","-32.5","-6.84375"
"1574269383694","303","0.06542969","-0.9013672","-0.00390625","2.375","-42.625","-7.78125"
"1574269383694","304","0.08300781","-0.93652344","-0.0048828125","2.0","-48.34375","-7.59375"
"1574269383695","305","0.07714844","-0.9111328","0.00390625","-2.875","-60.75","-4.71875"
"1574269383695","306","0.041992188","-0.8623047","0.03515625","-1.1875","-69.65625","-5.75"
"1574269383695","307","0.020507812","-0.8925781","-0.00390625","-7.78125","-61.0","-1.78125"
"1574269383695","308","0.013671875","-0.8720703","-0.017578125","-15.15625","-60.0625","-5.15625"
"1574269383696","309","0.051757812","-0.8623047","-0.12207031","-16.375","-58.5625","-9.78125"
"1574269384090","310","0.083984375","-0.82421875","-0.064453125","-6.5","-62.03125","-5.21875"
"1574269384090","311","0.044921875","-0.77441406","-0.06933594","8.84375","-68.8125","-10.03125"
"1574269384090","312","0.053710938","-0.7763672","-0.06640625","16.09375","-75.40625","-18.875"
"1574269384092","313","0.0146484375","-0.74121094","-0.0146484375","31.25","-64.96875","-25.84375"
"1574269384092","314","0.125","-0.8310547","0.0078125","33.1875","-62.9375","-34.0"
"1574269384093","315","0.046875","-1.3798828","0.35058594","42.40625","-54.875","-34.75"
"1574269384093","316","0.00390625","-1.0957031","0.09277344","68.53125","-36.625","-5.6875"
"1574269384093","317","0.38378906","-0.9042969","0.29003906","46.0","-20.28125","11.28125"
"1574269384093","318","-0.024414062","-0.93066406","0.33203125","25.25","-78.875","-25.78125"
"1574269384094","319","-0.20996094","-1.0566406","0.18261719","24.53125","-57.3125","-8.875"
"1574269384487","320","0.04296875","-0.9091797","0.39648438","49.53125","10.375","5.59375"
"1574269384488","321","0.15039062","-0.74121094","0.4326172","44.84375","0.90625","-25.90625"
"1574269384488","322","0.16796875","-1.0029297","0.3017578","4.5","-35.28125","-21.4375"
"1574269384488","323","0.053710938","-0.98535156","0.38476562","31.0","-0.8125","-13.6875"
"1574269384489","324","0.07714844","-0.7910156","0.4345703","22.25","5.125","-22.84375"
"1574269384489","325","0.16601562","-0.8964844","0.3857422","1.15625","7.6875","-20.21875"
"1574269384489","326","0.23339844","-0.9501953","0.41796875","16.15625","16.21875","-21.6875"
"1574269384490","327","0.17285156","-0.8378906","0.46875","13.96875","13.0","-17.15625"
"1574269384490","328","0.045898438","-0.8798828","0.3408203","-9.46875","27.03125","-9.40625"
"1574269384490","329","0.2529297","-0.94433594","0.43945312","-28.15625","46.5625","6.15625"
"1574269385081","330","0.328125","-0.83691406","0.43359375","-10.5","25.375","-3.96875"
"1574269385081","331","0.14941406","-0.7324219","0.38671875","-4.34375","28.78125","-3.875"
"1574269385081","332","0.27148438","-0.8095703","0.40820312","-17.15625","28.71875","-2.875"
"1574269385082","333","0.21386719","-0.8613281","0.37695312","0.65625","35.3125","-8.9375"
"1574269385082","334","0.11328125","-0.93066406","0.36914062","5.21875","48.6875","-10.9375"
"1574269385082","335","0.13769531","-0.8935547","0.33691406","9.125","60.59375","-6.84375"
"1574269385082","336","0.22949219","-0.91308594","0.34375","-11.625","65.84375","-5.9375"
"1574269385083","337","0.21289062","-0.8769531","0.38671875","-1.3125","61.75","-6.1875"
"1574269385083","338","0.23925781","-0.8779297","0.32617188","-15.09375","56.125","-7.21875"
"1574269385083","339","0.16308594","-0.8623047","0.3486328","-7.34375","65.59375","2.71875"
"1574269385281","340","0.23339844","-0.85253906","0.35058594","-19.25","66.21875","-0.125"
"1574269385282","341","0.3095703","-0.88964844","0.328125","-12.09375","65.78125","3.90625"
"1574269385282","342","0.27148438","-0.8730469","0.3203125","-25.59375","56.75","5.125"
"1574269385282","343","0.23144531","-0.87597656","0.2529297","-36.9375","55.21875","7.625"
"1574269385282","344","0.18457031","-0.8769531","0.29101562","-40.59375","59.1875","20.4375"
"1574269385283","345","0.23535156","-0.9033203","0.4248047","-50.84375","61.9375","18.34375"
"1574269385283","346","-0.07519531","-1.1689453","0.046875","-77.46875","-19.53125","30.25"
"1574269385283","347","-0.18847656","-0.86621094","0.18359375","-73.25","66.5","41.0625"
"1574269385283","348","0.12109375","-1.0722656","0.18847656","-54.53125","20.5625","39.34375"
"1574269385285","349","-0.13769531","-1.140625","0.12792969","-5.75","30.6875","2.71875"
"1574269385679","350","-0.3466797","-0.9589844","0.046875","-19.3125","33.25","18.125"
"1574269385679","351","0.018554688","-0.7939453","0.1484375","-16.9375","52.34375","25.6875"
"1574269385679","352","0.015625","-0.76660156","0.12207031","-18.4375","27.375","-5.375"
"1574269385680","353","-0.1796875","-0.9003906","0.001953125","-9.21875","22.75","10.1875"
"1574269385680","354","-0.0087890625","-0.83691406","0.030273438","-12.53125","32.09375","-2.03125"
"1574269385681","355","0.013671875","-0.8017578","0.051757812","-5.5625","15.0","-13.3125"
"1574269385681","356","-0.07421875","-0.8701172","0.025390625","1.875","3.65625","-9.90625"
"1574269385681","357","-0.10253906","-0.87597656","-0.03125","-5.15625","9.1875","-16.625"
"1574269385681","358","0.015625","-0.8876953","-0.016601562","0.15625","9.125","-18.25"
"1574269385682","359","0.057617188","-0.9082031","0.04296875","1.4375","-8.4375","-25.84375"
"1574269386075","360","0.0068359375","-0.88378906","0.0078125","5.84375","-20.03125","-34.375"
"1574269386076","361","0.048828125","-0.91503906","0.0107421875","-2.03125","-20.28125","-27.84375"
"1574269386077","362","0.07421875","-0.88378906","0.018554688","-0.3125","-26.8125","-27.46875"
"1574269386077","363","0.076171875","-0.8691406","-0.00390625","-8.25","-32.90625","-30.21875"
"1574269386077","364","0.099609375","-0.9355469","0.060546875","-5.75","-37.375","-24.625"
"1574269386077","365","0.040039062","-0.8496094","-0.0078125","-7.09375","-42.8125","-22.34375"
"1574269386078","366","0.083984375","-0.92285156","9.765625E-4","-2.46875","-36.875","-16.75"
"1574269386078","367","0.13964844","-0.8984375","-0.021484375","4.5","-42.875","-13.6875"
"1574269386078","368","0.10546875","-0.9394531","-0.0107421875","1.28125","-50.90625","-10.28125"
"1574269386078","369","0.1640625","-0.9482422","0.040039062","8.84375","-48.1875","-8.75"
"1574269386473","370","0.109375","-0.95214844","-0.036132812","15.90625","-59.03125","-7.03125"
"1574269386473","371","0.109375","-0.9267578","0.0546875","8.09375","-45.59375","-3.375"
"1574269386473","372","0.12402344","-0.91308594","-0.0068359375","21.65625","-48.84375","-4.90625"
"1574269386474","373","0.13574219","-0.875","0.025390625","19.09375","-42.3125","-2.21875"
"1574269386475","374","0.13574219","-0.88378906","0.037109375","22.125","-47.0625","-0.6875"
"1574269386475","375","0.10839844","-0.8564453","0.0146484375","26.28125","-36.75","-6.0"
"1574269386475","376","0.13671875","-0.8457031","0.047851562","25.5625","-34.0","-1.40625"
"1574269386475","377","0.10839844","-0.8261719","0.0703125","24.9375","-24.84375","-7.09375"
"1574269386476","378","0.10644531","-0.8173828","0.109375","39.15625","-16.0625","7.0"
"1574269386476","379","0.13769531","-0.7158203","-9.765625E-4","35.4375","-4.40625","-2.28125"
"1574269386872","380","0.22070312","-0.7167969","0.08984375","29.21875","-8.0","-12.46875"
"1574269386872","381","0.22949219","-0.7392578","0.10644531","37.28125","-28.6875","-17.21875"
"1574269386872","382","0.3544922","-1.078125","0.6640625","17.5625","-41.6875","-29.1875"
"1574269386872","383","-0.2939453","-1.4345703","0.14355469","68.78125","-25.65625","-19.0625"
"1574269386873","384","0.23925781","-1.1123047","0.45117188","149.8125","105.09375","-5.625"
"1574269386874","385","0.53808594","-0.9824219","0.54589844","-46.65625","-39.6875","-12.40625"
"1574269386874","386","0.068359375","-1.0214844","0.53222656","39.28125","-77.90625","-4.46875"
"1574269386874","387","-0.21386719","-0.6542969","0.41503906","73.65625","30.5625","-18.9375"
"1574269386875","388","0.25097656","-0.7832031","0.54296875","-6.78125","24.40625","-18.21875"
"1574269386875","389","0.38378906","-0.90527344","0.5517578","-0.4375","-16.5625","-9.40625"
"1574269387664","390","0.14648438","-0.90722656","0.44140625","13.0","-6.84375","-26.25"
"1574269387664","391","0.16308594","-0.90234375","0.5136719","-13.3125","-3.90625","-13.125"
"1574269387665","392","0.2998047","-0.8203125","0.5175781","-22.53125","-12.03125","-14.0625"
"1574269387665","393","0.20019531","-0.8613281","0.48828125","-16.5","-19.1875","-18.09375"
"1574269387665","394","0.19238281","-0.82421875","0.39941406","-6.53125","-4.71875","-10.09375"
"1574269387665","395","0.328125","-0.796875","0.44335938","-24.1875","-5.8125","-3.1875"
"1574269387666","396","0.2578125","-0.80859375","0.40722656","-21.75","-5.09375","1.03125"
"1574269387667","397","0.24023438","-0.83496094","0.40039062","-10.625","7.84375","5.34375"
"1574269387668","398","0.23046875","-0.8515625","0.390625","-12.03125","18.90625","8.03125"
"1574269387668","399","0.22460938","-0.8515625","0.33496094","8.34375","30.75","14.09375"
"1574269387862","400","0.30078125","-0.88671875","0.37597656","0.90625","41.3125","12.5"
"1574269387863","401","0.27539062","-0.9238281","0.36132812","-6.25","35.3125","13.84375"
"1574269387863","402","0.19726562","-0.8857422","0.3408203","-7.40625","41.625","12.9375"
"1574269387863","403","0.23828125","-0.8613281","0.3876953","-9.0625","52.90625","15.71875"
"1574269387864","404","0.1875","-0.8574219","0.36035156","-8.9375","54.5625","14.9375"
"1574269387864","405","0.19042969","-0.86328125","0.33007812","-1.25","64.0625","12.9375"
"1574269387864","406","0.23046875","-0.87402344","0.3623047","-18.3125","61.03125","14.21875"
"1574269387865","407","0.18261719","-0.9160156","0.31054688","-9.40625","60.71875","10.25"
"1574269387865","408","0.21386719","-0.8671875","0.31347656","-15.625","58.53125","10.90625"
"1574269387866","409","0.20605469","-0.8798828","0.30859375","-24.75","56.75","12.9375"
"1574269388064","410","0.16503906","-0.7998047","0.30273438","-29.4375","57.28125","16.09375"
"1574269388064","411","0.08496094","-0.81347656","0.2626953","-38.59375","62.1875","32.21875"
"1574269388065","412","0.06640625","-0.99316406","0.43652344","-41.40625","83.46875","42.40625"
"1574269388065","413","-0.12207031","-1.1601562","0.2578125","-11.78125","57.25","57.71875"
"1574269388065","414","-0.119140625","-0.7578125","0.040039062","-48.28125","50.9375","92.9375"
"1574269388066","415","-0.14355469","-0.765625","0.4453125","-58.90625","69.125","99.59375"
"1574269388066","416","-0.6044922","-0.93847656","0.24023438","9.25","61.15625","67.3125"
"1574269388066","417","-0.37890625","-0.9814453","0.048828125","-28.34375","41.125","104.125"
"1574269388066","418","-0.21484375","-0.9345703","0.13574219","-23.34375","57.78125","65.34375"
"1574269388067","419","-0.36816406","-0.7607422","0.20703125","-2.8125","38.625","26.59375"
"1574269388461","420","-0.53027344","-0.84765625","0.07910156","13.84375","13.15625","34.03125"
"1574269388461","421","-0.37402344","-0.7597656","0.052734375","-8.8125","23.1875","21.59375"
"1574269388461","422","-0.40527344","-0.81152344","0.11816406","1.3125","25.3125","-12.46875"
"1574269388462","423","-0.47070312","-0.78125","0.068359375","11.59375","2.0","-7.15625"
"1574269388462","424","-0.3779297","-0.7685547","0.078125","-3.875","3.28125","-16.625"
"1574269388462","425","-0.38378906","-0.8095703","0.064453125","-5.21875","2.59375","-27.53125"
"1574269388462","426","-0.3720703","-0.78222656","0.07519531","-4.59375","-2.75","-34.375"
"1574269388463","427","-0.31640625","-0.78808594","0.076171875","-6.59375","-8.8125","-33.53125"
"1574269388463","428","-0.33398438","-0.84277344","0.0390625","-1.25","-10.8125","-42.875"
"1574269388463","429","-0.28808594","-0.8339844","0.07324219","-6.59375","-6.65625","-40.84375"
"1574269388859","430","-0.23046875","-0.82910156","0.07324219","-0.3125","-13.5","-43.53125"
"1574269388860","431","-0.19726562","-0.8330078","0.07324219","2.5","-19.96875","-42.96875"
"1574269388860","432","-0.24804688","-0.8173828","0.05859375","2.84375","-21.375","-44.6875"
"1574269388860","433","-0.18066406","-0.86035156","0.06933594","2.3125","-15.59375","-37.5"
"1574269388861","434","-0.13085938","-0.8613281","0.08984375","3.28125","-13.6875","-34.8125"
"1574269388861","435","-0.14648438","-0.8828125","0.107421875","9.1875","-10.40625","-33.40625"
"1574269388861","436","-0.09375","-0.8769531","0.10449219","12.6875","-13.3125","-30.21875"
"1574269388862","437","-0.076171875","-0.86621094","0.091796875","16.21875","-17.65625","-27.3125"
"1574269388862","438","-0.049804688","-0.88183594","0.109375","18.21875","-18.5","-24.0625"
"1574269388862","439","-0.0390625","-0.8564453","0.140625","10.53125","-20.84375","-19.25"
"1574269389257","440","-0.057617188","-0.859375","0.14160156","19.53125","-19.375","-15.09375"
"1574269389257","441","-0.068359375","-0.8496094","0.15039062","25.0","-11.25","-11.125"
"1574269389258","442","-0.03515625","-0.8564453","0.17675781","32.34375","-6.96875","-6.5"
"1574269389258","443","0.0146484375","-0.83984375","0.1875","38.375","-9.40625","-3.125"
"1574269389258","444","-0.0234375","-0.9277344","0.19824219","58.625","-13.8125","-2.53125"
"1574269389259","445","-0.052734375","-0.86328125","0.25976562","55.65625","-7.15625","5.59375"
"1574269389260","446","-0.08886719","-0.8935547","0.22363281","54.78125","11.40625","2.375"
"1574269389261","447","0.0146484375","-0.91796875","0.24511719","74.15625","15.0625","3.71875"
"1574269389261","448","0.09863281","-0.7480469","0.296875","78.21875","13.96875","7.6875"
"1574269389261","449","0.02734375","-0.6845703","0.31347656","75.96875","-0.4375","-1.96875"
"1574269389654","450","0.051757812","-0.71875","0.28222656","61.5625","-7.46875","12.375"
"1574269389655","451","0.018554688","-0.59765625","0.7919922","35.09375","18.65625","7.90625"
"1574269389655","452","-0.32617188","-0.87402344","0.7216797","87.5","18.84375","9.375"
"1574269389655","453","-0.022460938","-0.9433594","0.8984375","194.375","5.0","22.3125"
"1574269389656","454","0.026367188","-0.58984375","1.1064453","67.6875","-2.28125","15.3125"
"1574269389656","455","-0.52734375","-0.8769531","0.9814453","77.1875","15.0","17.875"
"1574269389656","456","-0.20996094","-0.83984375","1.2626953","56.0625","26.96875","23.90625"
"1574269389658","457","-0.034179688","-0.7314453","1.0849609","66.5","11.15625","-33.34375"
"1574269389658","458","-0.08984375","-0.7392578","1.109375","-15.875","-25.90625","-18.4375"
"1574269389658","459","-0.18652344","-0.5830078","0.98535156","-8.375","-18.09375","-22.53125"
"1574269390050","460","-0.043945312","-0.5517578","0.9091797","-24.90625","-15.875","-26.75"
"1574269390051","461","-0.0029296875","-0.5175781","0.8623047","-43.21875","-31.75","-24.25"
"1574269390051","462","-0.046875","-0.546875","0.8105469","-51.90625","-29.1875","-24.375"
"1574269390051","463","0.055664062","-0.5107422","0.7919922","-44.75","-32.90625","-26.03125"
"1574269390051","464","0.05859375","-0.5439453","0.7705078","-67.71875","-42.3125","-22.125"
"1574269390052","465","0.028320312","-0.5908203","0.7050781","-76.25","-37.375","-13.25"
"1574269390052","466","0.09472656","-0.6425781","0.734375","-71.4375","-28.03125","-12.28125"
"1574269390052","467","0.064453125","-0.6933594","0.69140625","-76.625","-30.21875","-10.34375"
"1574269390052","468","0.033203125","-0.7558594","0.62109375","-66.1875","-18.75","-11.125"
"1574269390053","469","0.1640625","-0.78222656","0.6513672","-64.28125","-10.03125","-15.59375"
"1574269390845","470","0.1796875","-0.7939453","0.57128906","-67.71875","-22.21875","-10.09375"
"1574269390846","471","0.07910156","-0.7871094","0.4609375","-69.15625","-16.0","-4.84375"
"1574269390846","472","0.111328125","-0.8203125","0.4453125","-59.40625","10.96875","-4.53125"
"1574269390846","473","0.22363281","-0.85253906","0.4482422","-50.25","20.125","-7.40625"
"1574269390847","474","0.20117188","-0.8417969","0.36914062","-35.71875","19.53125","-7.9375"
"1574269390847","475","0.13671875","-0.81933594","0.36914062","-37.84375","25.3125","0.65625"
"1574269390847","476","0.12792969","-0.87109375","0.30078125","-22.0","43.0","6.28125"
"1574269390847","477","0.23046875","-0.84277344","0.3408203","-18.875","47.59375","3.34375"
"1574269390848","478","0.2626953","-0.8642578","0.28027344","-14.46875","44.59375","6.46875"
"1574269390848","479","0.17285156","-0.86816406","0.3017578","-17.59375","43.5625","9.5"
"1574269391041","480","0.14648438","-0.8339844","0.24511719","-15.09375","40.5625","17.0625"
"1574269391043","481","0.18554688","-0.93847656","0.23632812","-11.125","49.4375","28.625"
"1574269391043","482","0.17382812","-0.8691406","0.26367188","-18.3125","49.78125","29.84375"
"1574269391043","483","0.08886719","-0.87597656","0.21875","-32.1875","53.625","39.71875"
"1574269391044","484","0.09472656","-1.0419922","0.43847656","-40.3125","54.625","55.71875"
"1574269391044","485","-0.13085938","-0.9980469","-0.103515625","-37.0625","25.375","83.53125"
"1574269391044","486","-0.20214844","-0.8808594","0.33984375","-60.625","50.28125","98.625"
"1574269391044","487","-0.45410156","-1.1494141","0.28710938","-16.0","28.375","112.40625"
"1574269391045","488","-0.29785156","-0.9951172","0.16210938","-23.28125","55.71875","77.4375"
"1574269391045","489","-0.359375","-1.0244141","0.17871094","-18.3125","35.15625","43.4375"
"1574269391244","490","-0.34472656","-0.86035156","0.12597656","-3.375","36.3125","9.125"
"1574269391244","491","-0.13867188","-0.7578125","0.20800781","5.0625","32.21875","-9.21875"
"1574269391244","492","-0.28222656","-0.6484375","0.13476562","-1.25","5.53125","-29.3125"
"1574269391247","493","-0.4140625","-0.70214844","0.061523438","-8.4375","18.84375","-36.03125"
"1574269391247","494","-0.32617188","-0.7451172","0.09863281","-1.0","30.0625","-31.6875"
"1574269391247","495","-0.24707031","-0.75097656","0.07714844","-4.15625","33.5625","-33.40625"
"1574269391248","496","-0.2529297","-0.8046875","0.057617188","5.125","21.78125","-44.03125"
"1574269391248","497","-0.22949219","-0.82128906","0.047851562","4.0625","19.40625","-39.9375"
"1574269391248","498","-0.21191406","-0.8535156","0.030273438","3.21875","11.53125","-38.15625"
"1574269391248","499","-0.15625","-0.8925781","0.001953125","-0.625","11.34375","-34.9375"
"1574269391643","500","-0.07128906","-0.8613281","0.034179688","1.21875","1.8125","-31.5"
"1574269391643","501","-0.12207031","-0.86328125","-0.040039062","-1.53125","-3.90625","-26.4375"
"1574269391644","502","-0.07519531","-0.890625","0.02734375","2.125","2.25","-17.71875"
"1574269391644","503","-0.11425781","-0.8623047","-0.01953125","3.84375","-1.53125","-19.1875"
"1574269391644","504","-0.078125","-0.84765625","0.00390625","8.71875","12.0625","-12.78125"
"1574269391645","505","-0.02734375","-0.8535156","0.00390625","15.1875","5.90625","-13.03125"
"1574269391646","506","-0.045898438","-0.8339844","-0.022460938","18.40625","3.21875","-12.21875"
"1574269391646","507","-0.024414062","-0.7988281","-0.00390625","32.875","0.65625","-11.78125"
"1574269391646","508","0.02734375","-0.81152344","-0.0029296875","20.0","4.25","-16.875"
"1574269391647","509","0.12597656","-0.92578125","0.015625","32.75","13.84375","-15.6875"
"1574269392237","510","0.16992188","-1.1855469","0.54296875","23.3125","5.59375","-30.03125"
"1574269392238","511","-0.35742188","-1.4365234","0.01171875","82.5","-12.34375","-43.46875"
"1574269392238","512","0.32226562","-1.0546875","0.39746094","76.8125","-24.1875","-17.90625"
"1574269392239","513","0.083984375","-0.74609375","0.4091797","21.96875","-52.3125","-73.0625"
"1574269392239","514","-0.16503906","-0.8828125","0.19335938","-31.4375","-62.875","-59.15625"
"1574269392239","515","0.12695312","-0.8769531","0.50878906","4.625","-12.46875","-44.28125"
"1574269392240","516","0.080078125","-0.6923828","0.45410156","7.0625","-11.5625","-55.625"
"1574269392240","517","0.040039062","-0.9033203","0.23632812","-29.8125","-0.75","-31.25"
"1574269392240","518","0.19238281","-0.9892578","0.3515625","-12.90625","46.3125","-21.0625"
"1574269392241","519","0.21289062","-0.84765625","0.3828125","-14.125","38.0625","-27.25"
"1574269392436","520","0.14648438","-0.84277344","0.296875","-18.9375","47.03125","-16.96875"
"1574269392437","521","0.171875","-0.9091797","0.32714844","-12.84375","66.5625","-11.0"
"1574269392437","522","0.19628906","-0.8496094","0.3466797","-10.875","78.65625","-9.65625"
"1574269392437","523","0.18359375","-0.85839844","0.31347656","-6.1875","96.34375","-1.0"
"1574269392438","524","0.23730469","-0.90234375","0.32714844","-6.0","101.78125","-1.0625"
"1574269392438","525","0.2705078","-0.8828125","0.34765625","-4.09375","105.34375","-0.625"
"1574269392438","526","0.22265625","-0.890625","0.31445312","1.21875","109.0625","2.96875"
"1574269392438","527","0.28320312","-0.8857422","0.35839844","-1.0625","116.4375","0.46875"
"1574269392439","528","0.24316406","-0.87109375","0.34570312","-0.875","110.15625","0.15625"
"1574269392439","529","0.28808594","-0.88964844","0.3486328","5.40625","114.5","-0.5"
"1574269392833","530","0.3125","-0.8857422","0.3671875","-2.46875","100.9375","-1.78125"
"1574269392834","531","0.27148438","-0.8769531","0.30371094","-3.3125","92.28125","-0.4375"
"1574269392834","532","0.2548828","-0.8613281","0.3359375","-1.46875","98.5","1.6875"
"1574269392834","533","0.3046875","-0.8339844","0.35058594","-9.59375","88.4375","3.59375"
"1574269392835","534","0.20214844","-0.89941406","0.29492188","-19.78125","76.78125","5.0625"
"1574269392835","535","0.1328125","-0.9433594","0.2529297","-25.59375","82.4375","16.28125"
"1574269392835","536","0.17675781","-0.9238281","0.42773438","-37.25","92.75","25.8125"
"1574269392835","537","-0.04296875","-1.0429688","0.20703125","-60.125","49.3125","42.90625"
"1574269392836","538","-0.3046875","-1.0292969","0.17382812","-65.3125","86.40625","58.40625"
"1574269392836","539","-0.09082031","-1.1728516","0.20898438","-20.71875","87.375","35.9375"
"1574269393232","540","-0.015625","-1.1005859","0.19042969","-3.0625","58.09375","7.125"
"1574269393233","541","-0.1875","-0.79296875","0.26660156","-7.78125","53.09375","8.46875"
"1574269393234","542","-0.29003906","-0.7138672","0.22460938","-14.96875","72.1875","13.28125"
"1574269393234","543","-0.09863281","-0.78027344","0.20996094","-17.65625","93.375","4.6875"
"1574269393234","544","0.005859375","-0.78808594","0.171875","-15.6875","67.90625","-7.40625"
"1574269393235","545","-0.18164062","-0.8222656","0.14648438","-14.3125","60.96875","-15.9375"
"1574269393235","546","-0.16503906","-0.87402344","0.08886719","-11.125","69.875","-7.53125"
"1574269393235","547","-0.0126953125","-0.8886719","0.10253906","-3.875","65.53125","-10.34375"
"1574269393235","548","-0.018554688","-0.86035156","0.024414062","3.21875","48.25","-12.53125"
"1574269393236","549","-0.08496094","-0.86816406","0.052734375","-4.71875","44.0","-12.53125"
"1574269394221","550","-0.0625","-0.8886719","-0.0126953125","2.0625","41.90625","-9.0625"
"1574269394222","551","-0.0029296875","-0.890625","-0.00390625","6.21875","40.625","-7.9375"
"1574269394222","552","-0.041015625","-0.8701172","0.05859375","9.5625","28.78125","-7.9375"
"1574269394224","553","-0.07714844","-0.9042969","-0.049804688","13.65625","36.53125","-5.8125"
"1574269394224","554","0.041992188","-0.8925781","0.03515625","11.59375","37.03125","-4.65625"
"1574269394225","555","0.028320312","-0.8574219","0.01171875","15.5625","27.6875","-10.5"
"1574269394225","556","0.043945312","-0.8769531","-0.00390625","20.84375","29.28125","-9.46875"
"1574269394225","557","0.06933594","-0.86328125","0.0078125","26.90625","20.4375","-9.78125"
"1574269394226","558","0.111328125","-0.8095703","0.043945312","29.09375","10.1875","-14.1875"
"1574269394226","559","0.14648438","-0.8828125","-0.00390625","33.1875","2.125","-19.71875"
"1574269394228","560","0.23730469","-0.88183594","0.043945312","34.96875","-13.6875","-28.34375"
"1574269394228","561","0.29101562","-1.1298828","0.49804688","-5.75","-28.03125","-39.0625"
"1574269394229","562","-0.4267578","-1.5166016","0.07910156","26.90625","-26.5625","-39.8125"
"1574269394229","563","0.0546875","-0.9589844","0.18847656","55.03125","7.25","-1.53125"
"1574269394229","564","0.35546875","-0.578125","0.3984375","7.5","4.0","-44.5"
"1574269394230","565","0.10449219","-0.93847656","0.28125","-25.46875","-51.21875","-43.15625"
"1574269394230","566","-0.107421875","-0.97558594","0.31445312","4.5","-8.875","-25.34375"
"1574269394230","567","0.123046875","-0.78808594","0.38085938","7.8125","23.59375","-29.8125"
"1574269394230","568","0.21679688","-0.85058594","0.2998047","-11.96875","-3.0","-21.625"
"1574269394231","569","0.10058594","-0.953125","0.3251953","6.03125","17.3125","-15.46875"
"1574269394423","570","0.14941406","-0.8925781","0.31835938","10.59375","17.1875","-9.125"
"1574269394424","571","0.17382812","-0.8535156","0.34375","2.96875","33.84375","-3.0625"
"1574269394424","572","0.21289062","-0.91308594","0.34277344","12.0625","28.78125","-4.53125"
"1574269394424","573","0.18164062","-0.8779297","0.3203125","5.0625","31.59375","-6.5"
"1574269394424","574","0.18652344","-0.86816406","0.38085938","11.40625","41.90625","0.0"
"1574269394425","575","0.19824219","-0.8671875","0.37890625","8.15625","41.25","-4.34375"
"1574269394425","576","0.21289062","-0.88183594","0.36914062","9.5","49.0625","-4.78125"
"1574269394425","577","0.25","-0.8935547","0.37402344","5.78125","43.6875","-4.09375"
"1574269394425","578","0.2265625","-0.86035156","0.37695312","4.1875","47.59375","-5.9375"
"1574269394426","579","0.24121094","-0.890625","0.41308594","3.03125","49.125","2.78125"
"1574269394821","580","0.19042969","-0.8564453","0.37402344","-4.46875","44.46875","-2.875"
"1574269394822","581","0.23046875","-0.8652344","0.39746094","2.5625","55.15625","7.6875"
"1574269394822","582","0.2265625","-0.8808594","0.38476562","-3.96875","45.28125","7.6875"
"1574269394823","583","0.17871094","-0.8544922","0.38476562","-5.4375","59.3125","8.21875"
"1574269394823","584","0.23535156","-0.9042969","0.36035156","-0.5","60.96875","15.3125"
"1574269394823","585","0.21582031","-0.8886719","0.35546875","-14.34375","62.84375","16.34375"
"1574269394823","586","0.22265625","-0.8964844","0.37695312","-20.71875","63.40625","17.375"
"1574269394824","587","0.2265625","-0.890625","0.33984375","-22.90625","57.125","17.6875"
"1574269394824","588","0.19335938","-0.8457031","0.32910156","-24.84375","60.15625","19.625"
"1574269394825","589","0.22265625","-0.84765625","0.39257812","-40.90625","54.96875","16.90625"
"1574269395415","590","-0.0703125","-1.2617188","0.18359375","-46.53125","-8.75","30.0625"
"1574269395416","591","-0.35058594","-1.1455078","0.053710938","-34.875","76.875","70.34375"
"1574269395416","592","0.13183594","-1.1435547","0.32128906","-33.03125","55.34375","20.125"
"1574269395416","593","0.017578125","-0.90234375","0.30664062","27.03125","19.9375","1.6875"
"1574269395416","594","-0.4951172","-0.5888672","0.030273438","2.84375","39.84375","13.96875"
"1574269395417","595","-0.083984375","-0.74316406","0.20605469","-32.65625","76.40625","5.21875"
"1574269395417","596","0.095703125","-0.74316406","0.22363281","-4.90625","42.03125","-19.4375"
"1574269395417","597","-0.30664062","-0.83691406","0.08496094","-14.84375","24.9375","-12.15625"
"1574269395417","598","-0.08105469","-0.99121094","0.09082031","-24.0","50.59375","-12.78125"
"1574269395418","599","0.059570312","-0.9248047","0.1328125","-3.1875","30.5","-20.78125"
"1574269395615","600","-0.09082031","-0.87597656","0.036132812","-11.6875","7.4375","-21.875"
"1574269395616","601","-0.029296875","-0.9042969","0.047851562","-22.34375","3.9375","-9.15625"
"1574269395616","602","-0.034179688","-0.8828125","0.07128906","-29.1875","-1.71875","-7.09375"
"1574269395616","603","-0.026367188","-0.9082031","0.016601562","-20.34375","-14.59375","-1.0625"
"1574269395616","604","-0.047851562","-0.8769531","0.05078125","-19.4375","-20.28125","1.3125"
"1574269395617","605","-0.08105469","-0.90625","-0.018554688","-11.6875","-20.34375","-0.75"
"1574269395617","606","-0.0546875","-0.921875","-0.036132812","-10.5","-12.34375","2.375"
"1574269395617","607","-0.0087890625","-0.88964844","0.07128906","-6.375","-23.34375","6.8125"
"1574269395617","608","-0.06542969","-0.8779297","-0.06542969","-6.4375","-28.6875","9.375"
"1574269395618","609","0.0","-0.90234375","-0.021484375","-9.84375","-26.5625","11.15625"
"1574269396409","610","-0.078125","-0.87109375","-0.013671875","-2.875","-29.375","11.71875"
"1574269396410","611","-0.12109375","-0.8496094","-0.051757812","0.96875","-22.53125","10.59375"
"1574269396410","612","-0.0390625","-0.8691406","-0.032226562","-0.4375","-19.53125","11.8125"
"1574269396411","613","-0.036132812","-0.8408203","-0.005859375","9.875","-29.0625","5.46875"
"1574269396411","614","-0.115234375","-0.8378906","-0.07714844","11.53125","-28.8125","-0.4375"
"1574269396411","615","-0.09765625","-0.84375","-0.0390625","21.34375","-24.6875","1.3125"
"1574269396412","616","-0.08984375","-0.8251953","-0.045898438","27.4375","-23.09375","-3.0625"
"1574269396413","617","-0.040039062","-0.828125","-0.013671875","37.65625","-21.9375","-6.1875"
"1574269396413","618","-0.016601562","-0.8408203","-0.048828125","28.90625","-19.4375","-19.1875"
"1574269396413","619","0.038085938","-1.1982422","0.40039062","9.125","4.9375","-39.6875"
"1574269396607","620","-0.32226562","-1.5068359","0.14550781","33.1875","-21.6875","-48.59375"
"1574269396608","621","-0.045898438","-1.0488281","0.11621094","59.625","-27.90625","-11.71875"
"1574269396608","622","0.2734375","-0.640625","0.32128906","3.46875","1.09375","-49.5625"
"1574269396608","623","0.052734375","-0.8544922","0.30566406","-46.59375","-58.0625","-60.5625"
"1574269396608","624","-0.17773438","-0.8466797","0.31835938","-9.15625","-36.9375","-30.03125"
"1574269396609","625","-0.038085938","-0.6972656","0.3955078","22.09375","24.09375","-31.15625"
"1574269396610","626","0.15234375","-0.88378906","0.37402344","-17.53125","12.8125","-24.5"
"1574269396610","627","0.15722656","-1.0185547","0.29101562","4.0","7.5625","-11.78125"
"1574269396610","628","0.14941406","-0.8964844","0.30664062","14.5","15.3125","-18.3125"
"1574269396611","629","0.08105469","-0.87597656","0.28320312","-5.3125","13.46875","-10.21875"
"1574269396808","630","0.16601562","-0.9003906","0.31640625","9.5625","31.84375","-6.0625"
"1574269396808","631","0.11328125","-0.82128906","0.3544922","2.84375","37.9375","-6.4375"
"1574269396808","632","0.12011719","-0.87402344","0.29101562","15.84375","44.125","-10.34375"
"1574269396809","633","0.15234375","-0.9121094","0.3564453","21.59375","52.59375","-3.5625"
"1574269396809","634","0.16699219","-0.9169922","0.35253906","15.3125","54.0625","-4.96875"
"1574269396809","635","0.1171875","-0.8886719","0.3515625","38.8125","58.28125","-8.8125"
"1574269396809","636","0.25976562","-0.8720703","0.39941406","22.8125","48.6875","-10.34375"
"1574269396811","637","0.18066406","-0.90722656","0.3935547","15.0625","40.03125","-6.375"
"1574269396811","638","0.1171875","-0.83691406","0.3642578","30.0","49.1875","-9.59375"
"1574269396812","639","0.2421875","-0.8798828","0.43847656","16.21875","45.40625","-5.4375"
"1574269397206","640","0.16796875","-0.8984375","0.42089844","27.6875","35.875","-0.4375"
"1574269397206","641","0.19433594","-0.8642578","0.38378906","25.9375","34.96875","5.21875"
"1574269397207","642","0.15527344","-0.8457031","0.4404297","-2.03125","28.0625","14.375"
"1574269397207","643","0.12695312","-0.9345703","0.39746094","12.75","41.96875","13.28125"
"1574269397207","644","0.20800781","-0.8388672","0.44335938","5.59375","43.0625","15.84375"
"1574269397207","645","0.06640625","-0.85253906","0.40234375","-24.84375","26.40625","26.65625"
"1574269397208","646","0.08886719","-0.9316406","0.3779297","-1.71875","53.625","24.875"
"1574269397208","647","0.17773438","-0.84765625","0.4111328","-11.5","44.59375","38.4375"
"1574269397208","648","0.03125","-0.7998047","0.3515625","-30.90625","33.84375","45.03125"
"1574269397210","649","-0.041992188","-0.85546875","0.3466797","-37.78125","54.375","54.0"
"1574269397603","650","-0.12207031","-0.859375","0.6640625","-42.6875","72.96875","66.34375"
"1574269397603","651","-0.42871094","-0.98828125","0.21582031","-70.875","27.8125","97.34375"
"1574269397604","652","-0.36132812","-1.3144531","0.28222656","-25.65625","89.53125","89.59375"
"1574269397604","653","-0.076171875","-1.0654297","0.2998047","3.65625","13.40625","60.65625"
"1574269397604","654","-0.51953125","-0.4873047","0.29003906","-12.84375","40.34375","27.9375"
"1574269397604","655","-0.49316406","-0.7998047","0.15429688","-56.28125","38.5625","37.59375"
"1574269397605","656","-0.1484375","-1.0136719","0.18945312","-17.53125","25.5625","-4.96875"
"1574269397605","657","-0.38378906","-0.68652344","0.2109375","-17.90625","19.15625","-33.40625"
"1574269397605","658","-0.59472656","-0.68652344","0.12011719","-39.5","4.125","-13.5625"
"1574269397605","659","-0.3173828","-0.8330078","0.083984375","-21.375","30.625","-16.9375"
"1574269398001","660","-0.23535156","-0.7890625","0.13476562","-12.15625","8.15625","-32.0625"
"1574269398003","661","-0.375","-0.7441406","0.0390625","-21.8125","-4.09375","-35.28125"
"1574269398003","662","-0.37695312","-0.82714844","-0.01171875","-27.53125","14.15625","-32.90625"
"1574269398003","663","-0.20703125","-0.8154297","0.12207031","-17.90625","13.78125","-35.40625"
"1574269398004","664","-0.28710938","-0.7832031","0.020507812","-22.65625","-6.84375","-34.0"
"1574269398004","665","-0.30566406","-0.84765625","-0.055664062","-17.59375","1.625","-28.34375"
"1574269398004","666","-0.15722656","-0.8408203","-9.765625E-4","-12.21875","-0.5","-30.90625"
"1574269398005","667","-0.11328125","-0.8105469","0.028320312","-14.25","-10.8125","-36.28125"
"1574269398005","668","-0.16699219","-0.89941406","-0.044921875","-7.9375","-22.71875","-35.84375"
"1574269398005","669","-0.09765625","-0.88378906","-0.034179688","-9.21875","-15.34375","-36.875"
"1574269398400","670","-0.072265625","-0.8876953","-0.01953125","-15.75","-23.09375","-36.6875"
"1574269398401","671","-0.016601562","-0.8564453","-0.03515625","-8.0","-34.1875","-33.9375"
"1574269398401","672","-0.021484375","-0.8496094","-0.061523438","-16.125","-44.8125","-29.5"
"1574269398402","673","-0.016601562","-0.87402344","-0.04296875","-15.75","-49.03125","-25.09375"
"1574269398403","674","0.020507812","-0.8720703","-0.12988281","-12.03125","-55.8125","-29.375"
"1574269398403","675","0.06347656","-0.8925781","-0.08886719","-16.0","-54.9375","-28.34375"
"1574269398403","676","0.046875","-0.84472656","-0.02734375","-8.5625","-65.8125","-28.875"
"1574269398404","677","-0.016601562","-0.86621094","-0.17871094","-2.59375","-63.8125","-19.0"
"1574269398404","678","0.076171875","-0.9033203","-0.09863281","0.59375","-47.25","-14.25"
"1574269398404","679","0.06542969","-0.8203125","-0.043945312","16.21875","-54.09375","-10.03125"
"1574269398797","680","0.015625","-0.8408203","-0.16503906","21.28125","-38.53125","-3.8125"
"1574269398797","681","0.044921875","-0.8095703","-0.045898438","35.25","-31.875","1.3125"
"1574269398797","682","0.10839844","-0.7685547","-0.08105469","37.53125","-32.4375","-8.1875"
"1574269398798","683","0.14355469","-0.8486328","-0.01171875","46.6875","-30.53125","-9.53125"
"1574269398798","684","0.18359375","-0.9433594","-0.04296875","45.21875","-33.875","-19.125"
"1574269398799","685","9.765625E-4","-1.3486328","0.38085938","9.875","-25.03125","-24.625"
"1574269398800","686","-0.4140625","-1.4248047","-0.013671875","83.71875","-37.25","-10.6875"
"1574269398800","687","0.5185547","-0.92578125","0.32910156","125.90625","30.875","-41.8125"
"1574269398801","688","-0.07519531","-0.8623047","0.5576172","-26.1875","-69.84375","-63.4375"
"1574269398801","689","-0.20800781","-0.97558594","0.12890625","-24.90625","-84.0","-13.0625"
"1574269399194","690","0.2529297","-0.7939453","0.54003906","81.90625","36.65625","-41.75"
"1574269399195","691","0.1015625","-0.6123047","0.3876953","-11.5","-31.03125","-38.96875"
"1574269399195","692","0.07714844","-0.9121094","0.32910156","-29.5","-22.84375","-16.3125"
"1574269399195","693","0.20605469","-0.98535156","0.3876953","8.46875","7.125","-30.53125"
"1574269399195","694","0.14941406","-0.79296875","0.4033203","1.09375","0.09375","-27.59375"
"1574269399195","695","0.12890625","-0.81347656","0.34472656","-12.03125","2.1875","-12.71875"
"1574269399196","696","0.20410156","-0.95214844","0.31640625","-0.4375","18.71875","-8.125"
"1574269399197","697","0.20996094","-0.85058594","0.34960938","1.3125","33.8125","-2.34375"
"1574269399198","698","0.17773438","-0.88964844","0.3544922","-3.625","39.46875","6.46875"
"1574269399198","699","0.19921875","-0.87597656","0.3203125","9.5625","52.46875","4.125"
"1574269399590","700","0.2841797","-0.8720703","0.3935547","9.6875","58.40625","7.5"
"1574269399591","701","0.28027344","-0.9082031","0.33691406","1.21875","43.4375","7.8125"
"1574269399591","702","0.21777344","-0.86621094","0.32617188","-0.5","51.1875","10.46875"
"1574269399591","703","0.3076172","-0.9121094","0.4140625","-4.40625","49.90625","13.96875"
"1574269399591","704","0.19140625","-0.85839844","0.2998047","-11.84375","39.28125","7.5"
"1574269399592","705","0.22949219","-0.9121094","0.29003906","-7.53125","55.53125","14.9375"
"1574269399592","706","0.28027344","-0.8808594","0.35546875","-11.1875","53.5625","8.90625"
"1574269399592","707","0.2705078","-0.8486328","0.34179688","-23.28125","41.25","7.5625"
"1574269399593","708","0.203125","-0.85839844","0.27929688","-21.75","43.4375","11.9375"
"1574269399594","709","0.16796875","-0.8779297","0.296875","-32.25","53.15625","16.40625"
"1574269400187","710","0.16601562","-0.84472656","0.24707031","-27.53125","59.0625","15.625"
"1574269400188","711","0.26464844","-1.125","0.3857422","-70.09375","53.5","23.78125"
"1574269400188","712","-0.1953125","-1.1191406","0.21679688","-97.90625","25.125","50.03125"
"1574269400188","713","-0.27148438","-0.9482422","0.27246094","-52.1875","34.53125","17.1875"
"1574269400189","714","-0.171875","-1.2490234","0.026367188","-3.125","55.90625","10.1875"
"1574269400189","715","-0.057617188","-0.73046875","0.09472656","0.40625","69.6875","4.75"
"1574269400189","716","0.07714844","-0.59765625","0.23535156","-27.65625","35.8125","-3.875"
"1574269400189","717","-0.021484375","-0.7783203","0.047851562","-18.3125","12.4375","-17.84375"
"1574269400190","718","-0.055664062","-0.80078125","0.04296875","-12.71875","23.78125","-13.1875"
"1574269400190","719","0.0048828125","-0.91308594","0.043945312","-22.0625","16.15625","-14.53125"
"1574269400388","720","0.11035156","-0.9873047","0.00390625","-12.28125","-1.59375","-17.21875"
"1574269400390","721","0.15625","-0.93066406","0.026367188","-11.3125","-21.875","-18.6875"
"1574269400390","722","0.07714844","-0.9111328","0.025390625","-21.25","-46.28125","-18.375"
"1574269400391","723","0.033203125","-0.8828125","-0.047851562","-20.46875","-54.15625","-18.5"
"1574269400391","724","0.11328125","-0.93847656","-0.00390625","-15.21875","-55.4375","-16.25"
"1574269400391","725","0.13183594","-0.8691406","0.015625","-14.53125","-80.75","-21.8125"
"1574269400391","726","0.025390625","-0.8408203","-0.046875","-19.25","-89.8125","-16.1875"
"1574269400392","727","0.041015625","-0.89160156","-0.053710938","-17.34375","-70.8125","-12.96875"
"1574269400392","728","0.064453125","-0.8613281","-0.015625","-11.375","-77.03125","-11.5"
"1574269400392","729","-0.024414062","-0.8730469","-0.10644531","-16.4375","-68.8125","-10.8125"
"1574269400980","730","0.041992188","-0.88671875","-0.08203125","-2.53125","-54.59375","-5.375"
"1574269400981","731","0.06640625","-0.8769531","-0.080078125","-2.75","-53.71875","-7.71875"
"1574269400981","732","0.07128906","-0.8935547","-0.08105469","4.5","-49.875","-4.21875"
"1574269400982","733","0.0625","-0.875","-0.08691406","4.375","-47.5625","-4.34375"
"1574269400982","734","0.053710938","-0.8671875","-0.091796875","12.6875","-45.0","1.3125"
"1574269400983","735","0.08984375","-0.8496094","-0.0703125","12.3125","-42.8125","3.90625"
"1574269400983","736","0.08203125","-0.8857422","-0.09082031","18.34375","-45.1875","5.46875"
"1574269400983","737","0.10644531","-0.8701172","-0.060546875","23.90625","-44.9375","6.6875"
"1574269400983","738","0.12207031","-0.83984375","-0.0390625","28.5625","-47.75","4.6875"
"1574269400984","739","0.08203125","-0.8330078","-0.043945312","37.8125","-50.0625","5.21875"
"1574269401180","740","0.12597656","-0.8251953","-0.013671875","39.09375","-47.5","0.46875"
"1574269401181","741","0.099609375","-0.85253906","0.024414062","42.78125","-48.1875","-3.5625"
"1574269401181","742","0.11816406","-1.0976562","0.3466797","17.375","-23.34375","-9.28125"
"1574269401181","743","-0.36914062","-1.5996094","0.18554688","49.90625","-32.71875","-11.90625"
"1574269401182","744","0.083984375","-1.0439453","0.12792969","104.71875","-3.6875","-3.0"
"1574269401183","745","0.08105469","-0.68847656","0.30078125","17.5","-14.65625","-37.25"
"1574269401183","746","-0.09375","-0.921875","0.2626953","-57.21875","-49.5","-40.375"
"1574269401184","747","-0.024414062","-0.9892578","0.2626953","1.28125","-25.21875","-34.625"
"1574269401184","748","-0.041015625","-0.66308594","0.3984375","7.125","5.21875","-36.8125"
"1574269401184","749","-0.034179688","-0.8457031","0.25195312","-42.5625","-3.96875","-24.0"
"1574269401776","750","0.111328125","-1.0595703","0.24609375","-14.46875","16.46875","-15.6875"
"1574269401776","751","0.123046875","-0.8388672","0.25976562","-1.78125","26.09375","-16.375"
"1574269401777","752","0.068359375","-0.82421875","0.22460938","-14.125","26.90625","-6.25"
"1574269401777","753","0.08691406","-0.9423828","0.18261719","-9.15625","36.78125","7.5"
"1574269401777","754","0.10546875","-0.88964844","0.2890625","11.9375","51.6875","1.15625"
"1574269401777","755","0.14941406","-0.8779297","0.21777344","17.875","53.15625","2.96875"
"1574269401778","756","0.1796875","-0.9355469","0.25195312","5.78125","55.03125","10.46875"
"1574269401779","757","0.13183594","-0.9121094","0.24511719","13.96875","59.5625","4.0625"
"1574269401779","758","0.20800781","-0.8925781","0.28222656","15.96875","54.90625","8.03125"
"1574269401780","759","0.11425781","-0.87402344","0.21386719","7.8125","57.53125","11.03125"
"1574269401975","760","0.17285156","-0.9042969","0.27246094","11.9375","63.9375","10.1875"
"1574269401976","761","0.21777344","-0.88183594","0.23632812","16.40625","56.875","9.5"
"1574269401976","762","0.14746094","-0.87890625","0.23730469","-1.90625","53.28125","13.03125"
"1574269401976","763","0.06640625","-0.9121094","0.23339844","-7.59375","60.84375","14.75"
"1574269401976","764","0.09472656","-0.86816406","0.24707031","7.125","82.9375","19.15625"
"1574269401976","765","0.14746094","-0.9316406","0.24511719","-2.625","76.71875","18.0"
"1574269401977","766","0.20019531","-0.9921875","0.17382812","-6.25","80.0625","18.125"
"1574269401977","767","0.2421875","-0.9140625","0.6923828","-3.125","91.78125","5.34375"
"1574269401977","768","-0.29296875","-1.1435547","0.041992188","-60.625","-40.40625","42.71875"
"1574269401978","769","-0.41503906","-0.9404297","0.08886719","-10.15625","74.5625","41.25"
"1574269402374","770","0.0087890625","-1.3359375","0.36328125","4.0625","62.1875","19.625"
"1574269402375","771","-0.111328125","-0.81152344","0.20117188","29.90625","41.375","4.1875"
"1574269402375","772","-0.15332031","-0.62109375","0.15234375","-23.9375","35.75","12.875"
"1574269402375","773","-0.080078125","-0.875","0.18066406","-26.4375","37.34375","-10.6875"
"1574269402376","774","-0.12402344","-0.8574219","0.16503906","-5.4375","25.875","-17.78125"
"1574269402376","775","-0.1953125","-0.80371094","0.15722656","-16.25","17.5625","-10.6875"
"1574269402376","776","-0.08300781","-0.9511719","0.13964844","-13.1875","19.5625","-14.125"
"1574269402376","777","-0.12890625","-0.8984375","0.14160156","-10.9375","15.65625","-14.46875"
"1574269402377","778","-0.22753906","-0.80566406","0.09667969","-16.5625","14.9375","-3.90625"
"1574269402377","779","-0.12011719","-0.8720703","0.109375","-9.71875","24.71875","-9.0"
"1574269402967","780","-0.09277344","-0.88671875","0.123046875","-13.5","11.875","-9.40625"
"1574269402968","781","-0.19140625","-0.8808594","0.041015625","-13.25","1.6875","-11.96875"
"1574269402969","782","-0.04296875","-0.9042969","0.049804688","-3.75","12.5625","-12.34375"
"1574269402969","783","0.041015625","-0.8808594","0.14160156","-10.34375","-5.875","-17.53125"
"1574269402969","784","-0.12792969","-0.8798828","0.047851562","-7.21875","-21.4375","-11.78125"
"1574269402970","785","-0.10546875","-0.94140625","0.033203125","-9.71875","-3.625","-6.5"
"1574269402970","786","-0.016601562","-0.92089844","0.068359375","-4.96875","0.0","-9.65625"
"1574269402971","787","-0.07714844","-0.875","0.07910156","0.15625","-8.75","-9.28125"
"1574269402971","788","-0.1328125","-0.859375","0.036132812","-3.5625","-8.4375","-4.03125"
"1574269402971","789","-0.06640625","-0.92578125","0.040039062","4.9375","1.15625","-1.1875"
