"# PR data"
"# Start time: 20191120T171140"
"# Subject: andrius"
"# Activity type: Shoulder press"
"# Correctness: Incorrect"
"# Notes: "
""
"timestamp","seq","accel_x","accel_y","accel_z","gyro_x","gyro_y","gyro_z"
"1574269900838","0","0.08203125","-0.8457031","0.16601562","31.1875","30.125","-4.59375"
"1574269900839","1","0.24316406","-0.8955078","0.087890625","-1.34375","-2.28125","-4.65625"
"1574269900839","2","0.23339844","-0.93652344","0.13476562","7.8125","21.53125","4.375"
"1574269900839","3","0.19140625","-0.8935547","0.13769531","9.9375","31.125","-4.71875"
"1574269900839","4","0.17480469","-0.890625","0.13867188","-10.28125","25.4375","1.5625"
"1574269900840","5","0.20605469","-0.9404297","0.125","-13.1875","29.53125","11.40625"
"1574269900840","6","0.16992188","-0.875","0.09082031","-7.65625","27.5","15.84375"
"1574269900840","7","0.09765625","-0.83203125","0.04296875","-12.71875","29.65625","19.53125"
"1574269900840","8","0.22851562","-0.96972656","0.018554688","-19.84375","35.3125","15.84375"
"1574269900841","9","0.31640625","-1.0","0.045898438","8.34375","34.15625","1.375"
"1574269901235","10","0.2998047","-0.9296875","0.05078125","8.46875","6.5625","-8.6875"
"1574269901236","11","0.25390625","-0.9169922","0.038085938","2.84375","-10.21875","-9.28125"
"1574269901236","12","0.21484375","-0.8691406","0.033203125","-1.65625","-16.5625","-6.96875"
"1574269901239","13","0.21875","-0.86621094","0.01171875","-5.375","-18.25","-3.125"
"1574269901239","14","0.23046875","-0.88183594","0.051757812","-6.96875","-27.40625","-6.1875"
"1574269901240","15","0.16992188","-0.90625","0.061523438","-9.125","-30.53125","-8.4375"
"1574269901240","16","0.20410156","-0.9980469","0.08105469","-6.84375","-25.09375","-8.3125"
"1574269901240","17","0.18066406","-0.9140625","0.044921875","5.0","-19.65625","-5.15625"
"1574269901240","18","0.171875","-0.81152344","0.11621094","1.75","-19.90625","-1.46875"
"1574269901240","19","0.14746094","-0.8828125","0.0703125","-5.75","-18.8125","-3.5625"
"1574269901635","20","0.20703125","-1.0351562","0.08105469","11.21875","-3.96875","0.03125"
"1574269901635","21","0.22753906","-0.88671875","0.13671875","18.34375","-7.9375","-6.96875"
"1574269901635","22","0.19238281","-0.8613281","0.078125","6.21875","-11.25","-4.34375"
"1574269901636","23","0.203125","-0.92871094","0.1171875","-2.09375","-5.75","-3.8125"
"1574269901636","24","0.17578125","-0.91308594","0.125","0.96875","-3.75","-1.59375"
"1574269901638","25","0.18652344","-0.8984375","0.10644531","-5.09375","2.84375","-2.03125"
"1574269901638","26","0.25","-0.91503906","0.103515625","-7.53125","3.65625","-1.3125"
"1574269901638","27","0.24902344","-0.9111328","0.087890625","-3.75","-0.25","-4.40625"
"1574269901638","28","0.22070312","-0.90625","0.06738281","-2.21875","-0.0625","-6.65625"
"1574269901639","29","0.24121094","-0.88964844","0.08691406","-0.375","2.25","-4.96875"
"1574269902229","30","0.2548828","-0.9042969","0.08691406","4.3125","3.53125","-4.96875"
"1574269902229","31","0.22265625","-0.9042969","0.091796875","0.09375","2.375","-5.21875"
"1574269902230","32","0.23828125","-0.9082031","0.09667969","2.90625","8.46875","-2.9375"
"1574269902230","33","0.24902344","-0.89746094","0.10839844","0.34375","1.09375","-6.0"
"1574269902230","34","0.25976562","-0.9091797","0.08984375","3.21875","0.65625","-4.71875"
"1574269902230","35","0.24511719","-0.91308594","0.10449219","7.6875","2.5","-2.9375"
"1574269902231","36","0.234375","-0.90234375","0.115234375","6.15625","-2.75","-5.6875"
"1574269902232","37","0.26171875","-0.90722656","0.12402344","11.9375","3.21875","-4.59375"
"1574269902232","38","0.23339844","-0.91308594","0.11328125","13.59375","0.78125","-3.75"
"1574269902232","39","0.26464844","-0.88671875","0.14941406","5.0","9.8125","-0.6875"
"1574269902624","40","0.24707031","-0.91015625","0.1484375","8.90625","3.59375","-1.71875"
"1574269902625","41","0.25976562","-0.9042969","0.14160156","6.6875","2.5625","1.5625"
"1574269902625","42","0.25","-0.89453125","0.16894531","-1.125","-0.6875","2.5625"
"1574269902625","43","0.22753906","-0.87597656","0.15429688","2.0","4.0","-0.625"
"1574269902625","44","0.24902344","-0.93359375","0.12988281","1.375","-1.65625","-1.34375"
"1574269902626","45","0.23242188","-0.8652344","0.15234375","0.0","-4.65625","0.0"
"1574269902626","46","0.22753906","-0.9189453","0.119140625","3.40625","-1.96875","-1.71875"
"1574269902626","47","0.24511719","-0.9013672","0.16210938","-6.96875","1.28125","0.40625"
"1574269902626","48","0.21875","-0.9345703","0.15429688","-5.4375","1.75","-0.8125"
"1574269902628","49","0.25","-0.8876953","0.12988281","-10.6875","-0.0625","0.53125"
"1574269902827","50","0.26367188","-0.91015625","0.14941406","-8.25","5.40625","0.34375"
"1574269902827","51","0.26953125","-0.8984375","0.12792969","-6.78125","-0.625","-0.75"
"1574269902828","52","0.23339844","-0.9355469","0.10546875","4.875","-2.09375","0.0"
"1574269902828","53","0.23339844","-0.89746094","0.12792969","-1.46875","-0.5625","-6.125"
"1574269902828","54","0.19433594","-0.9091797","0.10839844","-2.28125","3.53125","-10.34375"
"1574269902828","55","0.32714844","-0.8886719","0.08105469","-8.0","9.625","-1.65625"
"1574269902829","56","0.24902344","-0.86035156","0.1484375","-8.9375","10.65625","-3.5625"
"1574269902829","57","0.24023438","-0.8955078","0.13574219","-7.65625","6.40625","0.71875"
"1574269902829","58","0.24609375","-0.9404297","0.14355469","-7.46875","3.03125","-3.0625"
"1574269902829","59","0.28125","-0.8955078","0.09863281","-6.90625","0.0","-1.96875"
"1574269903420","60","0.19433594","-0.8798828","0.11230469","-10.40625","-0.5","-7.59375"
"1574269903422","61","0.23925781","-0.92285156","0.07910156","-9.71875","2.84375","-12.03125"
"1574269903422","62","0.30859375","-0.9238281","0.10058594","-7.28125","12.9375","-7.8125"
"1574269903422","63","0.31445312","-0.88671875","0.07421875","-3.1875","-5.03125","-1.84375"
"1574269903423","64","0.2685547","-0.91015625","0.08105469","-5.8125","2.84375","-6.90625"
"1574269903423","65","0.2890625","-0.84277344","0.06933594","-5.6875","-2.625","-4.46875"
"1574269903423","66","0.2685547","-0.91308594","0.09375","-9.34375","-0.3125","-12.34375"
"1574269903424","67","0.28027344","-0.9082031","0.0546875","-4.59375","-0.9375","-9.15625"
"1574269903424","68","0.29589844","-0.89941406","0.09667969","-9.96875","-5.875","-8.4375"
"1574269903424","69","0.33691406","-0.8847656","0.051757812","-4.40625","-10.9375","-9.34375"
"1574269903621","70","0.32910156","-0.8691406","0.040039062","-4.28125","-16.0","0.46875"
"1574269903621","71","0.31835938","-0.87109375","0.08496094","-17.78125","-18.21875","-5.9375"
"1574269903621","72","0.34570312","-0.8671875","0.017578125","-4.03125","-9.90625","1.875"
"1574269903623","73","0.2734375","-0.9082031","-0.0107421875","-4.59375","-3.8125","1.15625"
"1574269903623","74","0.24511719","-0.859375","0.025390625","1.3125","2.0","-1.65625"
"1574269903624","75","0.30664062","-0.9082031","0.038085938","8.03125","10.59375","2.0"
"1574269903624","76","0.2890625","-0.8486328","0.087890625","13.28125","5.34375","-3.8125"
"1574269903624","77","0.3544922","-0.9355469","0.053710938","0.28125","-14.1875","10.46875"
"1574269903625","78","0.25","-0.875","0.044921875","14.8125","3.03125","-0.75"
"1574269903625","79","0.2919922","-0.8720703","0.10839844","-24.1875","6.875","6.03125"
"1574269904216","80","0.3076172","-0.9296875","0.0126953125","-8.9375","0.03125","7.8125"
"1574269904217","81","0.28320312","-0.8515625","0.037109375","-6.25","21.65625","1.5625"
"1574269904217","82","0.2939453","-0.93359375","0.041992188","-7.40625","0.34375","5.78125"
"1574269904217","83","0.2841797","-0.88378906","0.025390625","4.0625","13.84375","-1.65625"
"1574269904217","84","0.21582031","-0.87597656","0.047851562","-3.1875","-1.0","-1.25"
"1574269904218","85","0.35742188","-0.91503906","-0.030273438","9.125","12.5","8.84375"
"1574269904218","86","0.35351562","-0.9091797","0.14453125","1.625","-5.15625","10.90625"
"1574269904218","87","0.21386719","-0.93359375","0.038085938","8.40625","-6.65625","12.5"
"1574269904219","88","0.17578125","-0.83691406","0.048828125","0.03125","-2.15625","5.0"
"1574269904219","89","0.24511719","-0.9433594","0.053710938","1.625","6.6875","9.6875"
"1574269904416","90","0.25390625","-0.9248047","0.11816406","-9.0","1.6875","-0.4375"
"1574269904416","91","0.23730469","-0.90722656","0.0","17.4375","0.96875","12.1875"
"1574269904416","92","0.22851562","-0.87597656","0.12011719","-8.375","-0.75","1.5"
"1574269904417","93","0.23632812","-0.9404297","0.01171875","7.5","0.96875","4.6875"
"1574269904417","94","0.16796875","-0.88671875","0.068359375","6.03125","0.71875","1.6875"
"1574269904417","95","0.19335938","-0.91503906","0.080078125","-3.0","3.59375","0.78125"
"1574269904417","96","0.24511719","-0.91015625","0.038085938","7.625","2.5625","4.875"
"1574269904419","97","0.18554688","-0.95996094","0.111328125","-5.9375","-12.90625","2.5625"
"1574269904419","98","0.17578125","-0.8613281","0.046875","2.0625","9.5","-5.375"
"1574269904420","99","0.24902344","-0.90722656","0.1015625","-18.375","-7.03125","7.5625"
"1574269904814","100","0.20507812","-0.9482422","9.765625E-4","8.15625","7.5","-1.96875"
"1574269904814","101","0.15136719","-0.8535156","0.1015625","-17.78125","0.15625","0.0"
"1574269904815","102","0.25585938","-0.9433594","0.053710938","-0.625","10.3125","0.21875"
"1574269904815","103","0.21582031","-0.8769531","0.051757812","-4.53125","5.40625","-2.28125"
"1574269904815","104","0.2265625","-0.9121094","0.08300781","-7.15625","4.5","2.84375"
"1574269904815","105","0.19921875","-0.9091797","0.0068359375","6.03125","8.15625","-3.8125"
"1574269904816","106","0.2421875","-0.90527344","0.09765625","-6.71875","1.6875","1.09375"
"1574269904816","107","0.21875","-0.8730469","0.017578125","3.90625","6.09375","-3.25"
"1574269904816","108","0.19433594","-0.91015625","0.08203125","-11.3125","1.375","0.53125"
"1574269904818","109","0.2265625","-0.91796875","0.018554688","0.90625","5.53125","-2.03125"
"1574269905212","110","0.19042969","-0.8779297","0.0625","-8.75","3.34375","-3.96875"
"1574269905213","111","0.26171875","-0.90722656","0.02734375","-2.875","-0.875","2.65625"
"1574269905213","112","0.19140625","-0.9003906","0.06640625","-5.03125","1.9375","-5.5"
"1574269905213","113","0.25195312","-0.92871094","0.02734375","2.1875","0.84375","-0.3125"
"1574269905214","114","0.171875","-0.86328125","0.05859375","-3.3125","0.40625","-9.71875"
"1574269905214","115","0.27148438","-0.9277344","0.026367188","0.71875","2.78125","1.875"
"1574269905214","116","0.20019531","-0.8984375","0.037109375","-1.90625","-0.4375","-4.40625"
"1574269905214","117","0.23144531","-0.9082031","0.05859375","-0.4375","0.71875","2.4375"
"1574269905215","118","0.17675781","-0.88964844","0.025390625","4.1875","1.6875","-6.96875"
"1574269905215","119","0.23730469","-0.92089844","0.0546875","-1.46875","1.8125","0.28125"
"1574269905608","120","0.23828125","-0.9160156","0.051757812","0.90625","1.875","-4.09375"
"1574269905610","121","0.18945312","-0.8808594","0.060546875","-1.90625","0.21875","-1.65625"
"1574269905610","122","0.24023438","-0.9140625","0.056640625","-0.5625","3.28125","-2.15625"
"1574269905610","123","0.21875","-0.9111328","0.052734375","-4.09375","1.5","-1.34375"
"1574269905611","124","0.21289062","-0.8808594","0.0390625","-2.15625","2.90625","-3.0625"
"1574269905611","125","0.26171875","-0.9296875","0.06933594","-2.53125","5.84375","2.71875"
"1574269905611","126","0.1875","-0.8847656","0.052734375","-8.1875","1.28125","-5.4375"
"1574269905611","127","0.2421875","-0.91015625","-0.0029296875","5.65625","2.3125","1.375"
"1574269905612","128","0.22851562","-0.8984375","0.068359375","-5.5625","3.34375","-1.96875"
"1574269905612","129","0.24511719","-0.8955078","0.036132812","2.0","-2.625","-1.78125"
"1574269906204","130","0.22363281","-0.90625","0.049804688","-5.5","-3.375","-1.46875"
"1574269906205","131","0.2421875","-0.8828125","-0.0029296875","5.46875","1.15625","-1.25"
"1574269906205","132","0.20214844","-0.9033203","0.09667969","-8.0","-2.46875","-4.84375"
"1574269906205","133","0.25097656","-0.9453125","0.013671875","10.59375","0.46875","-3.3125"
"1574269906206","134","0.18847656","-0.8808594","0.08105469","-6.90625","0.59375","-7.78125"
"1574269906206","135","0.29003906","-0.9169922","0.026367188","-0.5","4.1875","-1.0"
"1574269906206","136","0.19238281","-0.89941406","0.037109375","1.9375","-0.75","-3.90625"
"1574269906206","137","0.22851562","-0.8935547","0.040039062","4.75","8.15625","-2.75"
"1574269906207","138","0.29785156","-0.9248047","0.049804688","3.59375","7.5625","5.53125"
"1574269906207","139","0.21972656","-0.8935547","0.064453125","3.46875","3.09375","-2.6875"
"1574269906403","140","0.22460938","-0.91308594","0.0625","-3.875","5.28125","4.0"
"1574269906403","141","0.24511719","-0.8876953","0.03515625","1.09375","5.46875","-3.375"
"1574269906403","142","0.32714844","-0.9375","0.057617188","7.6875","4.5625","9.6875"
"1574269906404","143","0.14746094","-0.8613281","0.06542969","10.375","0.46875","-4.40625"
"1574269906404","144","0.24902344","-0.9013672","0.0703125","5.65625","9.8125","-0.5"
"1574269906405","145","0.2529297","-0.9042969","0.052734375","9.8125","7.375","-1.3125"
"1574269906405","146","0.25195312","-0.9160156","0.10839844","4.5625","2.96875","-0.125"
"1574269906406","147","0.2685547","-0.88183594","0.06347656","7.90625","2.65625","8.90625"
"1574269906406","148","0.19140625","-0.9345703","0.13867188","-0.5","-3.90625","4.1875"
"1574269906406","149","0.16308594","-0.87890625","0.0703125","-3.125","1.09375","-5.875"
"1574269906800","150","0.21875","-0.89160156","0.10839844","-5.9375","11.75","1.4375"
"1574269906801","151","0.1953125","-0.9638672","0.10839844","-7.15625","13.09375","-10.21875"
"1574269906801","152","0.19140625","-0.9248047","0.07421875","-4.03125","3.15625","-9.84375"
"1574269906801","153","0.22949219","-0.88964844","0.11035156","-8.3125","6.625","-6.59375"
"1574269906801","154","0.30273438","-0.9423828","0.06640625","-7.875","7.1875","-4.15625"
"1574269906802","155","0.2734375","-0.8779297","0.07324219","-10.03125","0.65625","-0.3125"
"1574269906802","156","0.23632812","-0.9111328","0.06738281","-6.96875","0.40625","6.6875"
"1574269906803","157","0.22753906","-0.95996094","0.06542969","-2.53125","-0.8125","-3.4375"
"1574269906804","158","0.24414062","-0.8613281","0.08300781","4.875","-4.03125","1.09375"
"1574269906804","159","0.20410156","-0.8613281","0.08984375","-14.125","-6.0625","-2.03125"
"1574269907396","160","0.21191406","-0.96777344","0.041015625","-0.375","-3.3125","-5.03125"
"1574269907397","161","0.22949219","-0.88671875","0.04296875","6.09375","-5.03125","-6.125"
"1574269907397","162","0.21777344","-0.8857422","0.07128906","-2.40625","0.15625","-5.09375"
"1574269907397","163","0.21289062","-0.953125","0.064453125","-1.40625","5.53125","-7.65625"
"1574269907398","164","0.25683594","-0.87402344","0.04296875","-9.84375","13.46875","-9.0"
"1574269907398","165","0.3515625","-0.8515625","0.03515625","-6.96875","16.71875","2.4375"
"1574269907398","166","0.27734375","-0.9482422","0.025390625","3.21875","1.625","1.4375"
"1574269907398","167","0.20996094","-0.89941406","0.057617188","12.1875","3.90625","0.09375"
"1574269907399","168","0.24707031","-0.8691406","0.078125","12.25","5.34375","-3.125"
"1574269907399","169","0.28027344","-0.92089844","0.05859375","0.40625","-1.65625","-0.25"
"1574269907595","170","0.23339844","-0.9316406","0.07714844","0.59375","-0.4375","1.5625"
"1574269907595","171","0.23730469","-0.89453125","0.09472656","-2.28125","8.78125","2.71875"
"1574269907596","172","0.24707031","-0.89941406","0.06542969","-0.6875","6.28125","3.21875"
"1574269907596","173","0.2548828","-0.8769531","0.06542969","0.46875","13.84375","4.8125"
"1574269907596","174","0.27441406","-0.95703125","0.049804688","5.21875","9.9375","4.6875"
"1574269907596","175","0.24609375","-0.86035156","0.103515625","5.96875","-0.875","0.21875"
"1574269907597","176","0.24511719","-0.8984375","0.09765625","3.21875","3.34375","-1.34375"
"1574269907597","177","0.2548828","-0.91796875","0.09082031","-0.0625","2.4375","-2.9375"
"1574269907597","178","0.25097656","-0.8964844","0.08984375","-2.625","-0.375","-2.40625"
"1574269907597","179","0.2705078","-0.88671875","0.091796875","-3.375","4.375","-0.1875"
"1574269908389","180","0.234375","-0.9169922","0.09277344","-5.21875","0.21875","-0.375"
"1574269908391","181","0.25097656","-0.90722656","0.07324219","4.1875","-1.53125","0.78125"
"1574269908391","182","0.25097656","-0.8925781","0.10644531","1.9375","-1.46875","-1.3125"
"1574269908391","183","0.22363281","-0.9199219","0.099609375","3.34375","-1.59375","-3.6875"
"1574269908392","184","0.23730469","-0.9033203","0.09765625","5.90625","3.46875","-2.15625"
"1574269908392","185","0.23046875","-0.89746094","0.095703125","8.84375","10.46875","-4.34375"
"1574269908392","186","0.3125","-0.9394531","0.103515625","0.40625","6.03125","-2.28125"
"1574269908393","187","0.22753906","-0.86621094","0.14453125","-6.3125","4.875","-4.21875"
"1574269908393","188","0.2265625","-0.8886719","0.09863281","5.96875","-2.46875","-3.875"
"1574269908393","189","0.24121094","-0.92871094","0.12011719","0.15625","5.59375","-6.65625"
"1574269908589","190","0.27148438","-0.88964844","0.107421875","4.8125","3.40625","-3.3125"
"1574269908590","191","0.25195312","-0.89941406","0.107421875","0.0","1.8125","-3.375"
"1574269908590","192","0.26953125","-0.8935547","0.09375","-4.84375","4.5","-1.0625"
"1574269908592","193","0.2578125","-0.88964844","0.13476562","-6.5","-0.5625","0.28125"
"1574269908592","194","0.24804688","-0.89941406","0.10449219","-3.0","4.875","0.46875"
"1574269908592","195","0.26367188","-0.9189453","0.11425781","-1.53125","-5.03125","0.65625"
"1574269908593","196","0.2626953","-0.8964844","0.10058594","-3.5","-4.78125","0.90625"
"1574269908593","197","0.27148438","-0.8955078","0.091796875","3.28125","-2.40625","0.53125"
"1574269908593","198","0.24121094","-0.8955078","0.11425781","4.1875","-3.96875","4.3125"
"1574269908593","199","0.22167969","-0.9316406","0.10546875","12.1875","1.4375","1.4375"
"1574269908788","200","0.24902344","-0.8828125","0.107421875","11.03125","4.875","2.65625"
"1574269908788","201","0.2529297","-0.9033203","0.15234375","10.40625","-0.75","2.5625"
"1574269908788","202","0.2841797","-0.9140625","0.1328125","11.8125","0.0","1.6875"
"1574269908789","203","0.22167969","-0.890625","0.16503906","10.84375","1.375","1.5"
"1574269908789","204","0.23535156","-0.9033203","0.1484375","10.0","-2.9375","-1.3125"
"1574269908790","205","0.25683594","-0.9091797","0.16992188","9.375","1.375","-0.875"
"1574269908790","206","0.24414062","-0.8964844","0.16894531","6.75","-1.125","-1.0625"
"1574269908791","207","0.22753906","-0.8935547","0.16699219","9.125","1.875","0.21875"
"1574269908791","208","0.26464844","-0.91796875","0.19628906","6.15625","6.5625","0.90625"
"1574269908791","209","0.23339844","-0.90625","0.19726562","2.3125","3.03125","-3.3125"
"1574269909187","210","0.20410156","-0.89453125","0.18554688","1.15625","2.84375","-2.34375"
"1574269909187","211","0.22070312","-0.8955078","0.23242188","-19.0","-1.40625","-8.625"
"1574269909188","212","0.31640625","-0.9140625","0.18164062","0.0","7.125","0.0"
"1574269909188","213","0.21875","-0.93066406","0.16308594","-4.28125","-13.125","-2.59375"
"1574269909188","214","0.23828125","-0.9003906","0.21777344","-5.9375","-5.625","-6.125"
"1574269909188","215","0.21972656","-0.86328125","0.16308594","-6.90625","-4.21875","-6.3125"
"1574269909189","216","0.26464844","-0.9277344","0.16503906","-8.875","-2.03125","-5.875"
"1574269909190","217","0.23828125","-0.87890625","0.13574219","-12.34375","2.0","-7.09375"
"1574269909191","218","0.2939453","-0.89453125","0.16699219","-14.46875","3.71875","-3.90625"
"1574269909191","219","0.24609375","-0.9091797","0.123046875","-4.46875","-4.78125","-4.46875"
"1574269909979","220","0.3076172","-0.9121094","0.15722656","-3.5","0.84375","1.03125"
"1574269909980","221","0.28222656","-0.88378906","0.11816406","-2.75","-4.78125","-3.0"
"1574269909980","222","0.2626953","-0.9042969","0.12890625","-1.84375","0.15625","3.21875"
"1574269909981","223","0.2763672","-0.9003906","0.14550781","-7.8125","-3.8125","-5.375"
"1574269909981","224","0.2548828","-0.88183594","0.09472656","6.8125","10.375","-1.84375"
"1574269909981","225","0.2861328","-0.94628906","0.18847656","-15.875","-0.0625","-1.78125"
"1574269909981","226","0.29589844","-0.85839844","0.080078125","3.21875","10.59375","1.4375"
"1574269909982","227","0.25390625","-0.9169922","0.13574219","-19.375","-7.65625","6.28125"
"1574269909982","228","0.32226562","-0.86816406","0.043945312","3.59375","14.21875","3.53125"
"1574269909983","229","0.28808594","-0.8886719","0.15917969","-14.96875","-0.5","12.75"
"1574269910177","230","0.29101562","-0.90234375","0.08691406","0.0","-1.0","3.21875"
"1574269910178","231","0.16113281","-0.8808594","0.125","-14.96875","-7.65625","2.25"
"1574269910178","232","0.21484375","-0.9042969","0.052734375","-0.125","-7.65625","-5.4375"
"1574269910178","233","0.34375","-0.95410156","0.16503906","-1.65625","2.0625","4.875"
"1574269910178","234","0.18261719","-0.8251953","0.07128906","-2.8125","-11.84375","-2.6875"
"1574269910178","235","0.19140625","-0.9375","0.115234375","2.25","8.59375","1.3125"
"1574269910179","236","0.30371094","-0.9423828","0.091796875","-1.96875","7.84375","-3.6875"
"1574269910179","237","0.27539062","-0.9033203","0.14160156","2.5","2.1875","9.5625"
"1574269910179","238","0.24609375","-0.8691406","0.061523438","4.75","6.46875","4.0"
"1574269910179","239","0.23828125","-0.9628906","0.1640625","-5.25","6.5","8.46875"
"1574269910378","240","0.26367188","-0.8886719","0.11816406","-7.53125","-0.9375","0.0"
"1574269910378","241","0.2841797","-0.9033203","0.11328125","-3.5625","-2.875","9.8125"
"1574269910378","242","0.10253906","-0.8798828","0.04296875","-5.5","-4.71875","-9.0"
"1574269910379","243","0.17285156","-0.8964844","0.1640625","-5.8125","7.4375","-4.53125"
"1574269910379","244","0.2109375","-0.9121094","0.06347656","0.53125","7.5","-12.03125"
"1574269910379","245","0.28027344","-0.9394531","0.13964844","-4.21875","7.84375","-2.03125"
"1574269910379","246","0.21777344","-0.8300781","0.078125","-3.125","10.84375","-6.59375"
"1574269910380","247","0.25878906","-0.9042969","0.0859375","9.5625","6.875","6.09375"
"1574269910380","248","0.23339844","-0.9277344","0.12792969","-0.375","6.8125","-6.25"
"1574269910380","249","0.26660156","-0.9033203","0.13378906","4.0625","0.65625","0.96875"
"1574269910776","250","0.21875","-0.8808594","0.09472656","2.3125","0.78125","-4.34375"
"1574269910776","251","0.21972656","-0.921875","0.1015625","0.84375","4.0","0.28125"
"1574269910776","252","0.26757812","-0.9238281","0.12109375","0.0","3.09375","-1.3125"
"1574269910778","253","0.24316406","-0.88964844","0.125","1.625","2.125","-0.375"
"1574269910778","254","0.23046875","-0.90722656","0.13183594","-1.34375","3.28125","1.4375"
"1574269910778","255","0.24511719","-0.8984375","0.10839844","0.84375","2.96875","0.96875"
"1574269910779","256","0.24414062","-0.89160156","0.14746094","-5.875","-0.25","2.25"
"1574269910779","257","0.22363281","-0.8935547","0.11816406","-1.34375","3.15625","1.3125"
"1574269910779","258","0.20996094","-0.90625","0.11328125","-7.21875","2.5","2.5"
"1574269910779","259","0.25976562","-0.9277344","0.10058594","-5.8125","3.46875","0.96875"
"1574269911174","260","0.2421875","-0.890625","0.125","-13.125","2.84375","2.3125"
"1574269911175","261","0.20898438","-0.89453125","0.078125","-11.0","-4.28125","0.28125"
"1574269911175","262","0.22167969","-0.91796875","0.10449219","-15.40625","-1.53125","1.03125"
"1574269911175","263","0.20898438","-0.9121094","0.06738281","-7.71875","-2.75","-2.9375"
"1574269911176","264","0.22460938","-0.89746094","0.07421875","-8.1875","-0.875","-0.5"
"1574269911177","265","0.2578125","-0.8955078","0.08984375","-16.375","-0.9375","-0.25"
"1574269911177","266","0.20800781","-0.91308594","0.057617188","-13.8125","-0.375","-1.0625"
"1574269911178","267","0.21972656","-0.9355469","0.020507812","-4.84375","-2.46875","0.53125"
"1574269911178","268","0.24511719","-0.88378906","0.07128906","-7.40625","-2.59375","-1.25"
"1574269911178","269","0.18359375","-0.8574219","0.038085938","-14.0625","-0.5","-2.34375"
"1574269911572","270","0.24316406","-0.9199219","0.025390625","-19.1875","4.625","-5.5625"
"1574269911572","271","0.26953125","-0.9326172","0.0146484375","-10.8125","-1.96875","-1.71875"
"1574269911572","272","0.21777344","-0.84277344","-0.02734375","-5.25","-4.34375","-3.0"
"1574269911573","273","0.20800781","-0.89941406","0.0146484375","-6.96875","0.40625","-1.3125"
"1574269911573","274","0.27539062","-0.9316406","-0.001953125","-7.15625","4.0625","-2.40625"
"1574269911574","275","0.24902344","-0.90527344","0.020507812","-8.125","-1.71875","-3.0625"
"1574269911574","276","0.18457031","-0.86035156","-0.026367188","-7.21875","-2.40625","-3.625"
"1574269911575","277","0.26171875","-0.9238281","-0.06738281","1.3125","0.0","1.625"
"1574269911576","278","0.2607422","-0.8925781","0.0390625","3.21875","1.4375","-0.8125"
"1574269911576","279","0.21582031","-0.91015625","-0.01171875","10.125","-2.46875","-2.75"
"1574269911969","280","0.22949219","-0.8671875","-0.0126953125","6.46875","5.21875","-3.25"
"1574269911970","281","0.21386719","-0.9267578","0.0390625","-4.65625","1.625","-3.5625"
"1574269911970","282","0.265625","-0.9003906","0.0107421875","7.5","5.59375","-4.46875"
"1574269911970","283","0.24707031","-0.9111328","0.04296875","-0.5625","3.34375","-1.0625"
"1574269911971","284","0.21191406","-0.89746094","-0.0107421875","-5.9375","0.03125","-2.6875"
"1574269911971","285","0.25683594","-0.9013672","0.015625","7.375","6.34375","0.65625"
"1574269911971","286","0.21679688","-0.9111328","0.0107421875","3.78125","5.40625","-2.03125"
"1574269911971","287","0.26171875","-0.9082031","0.033203125","10.71875","9.6875","-1.25"
"1574269911972","288","0.19824219","-0.9033203","0.0078125","0.84375","3.09375","-3.375"
"1574269911973","289","0.26367188","-0.9003906","0.025390625","5.90625","10.1875","-2.09375"
"1574269912365","290","0.26660156","-0.90625","0.080078125","0.0","3.90625","1.03125"
"1574269912366","291","0.19921875","-0.8955078","0.016601562","4.75","5.59375","-4.59375"
"1574269912366","292","0.24707031","-0.9121094","0.055664062","4.75","12.5","1.21875"
"1574269912366","293","0.26464844","-0.8720703","0.0390625","4.1875","2.0","-2.9375"
"1574269912366","294","0.28027344","-0.91015625","0.072265625","3.46875","8.46875","2.1875"
"1574269912367","295","0.2265625","-0.9003906","0.041992188","-4.96875","5.28125","-1.40625"
"1574269912367","296","0.25585938","-0.890625","0.05078125","9.8125","5.34375","2.125"
"1574269912367","297","0.21191406","-0.8964844","0.060546875","2.5","5.34375","-0.8125"
"1574269912367","298","0.24511719","-0.91308594","0.051757812","9.9375","9.9375","-0.625"
"1574269912368","299","0.2705078","-0.90722656","0.06933594","16.21875","8.90625","0.53125"
"1574269912763","300","0.21972656","-0.8935547","0.123046875","5.0","8.15625","-0.4375"
"1574269912765","301","0.24902344","-0.9121094","0.05859375","17.875","10.90625","1.3125"
"1574269912765","302","0.25195312","-0.9121094","0.1328125","13.40625","7.25","1.21875"
"1574269912765","303","0.2109375","-0.921875","0.09472656","31.46875","-0.875","-2.03125"
"1574269912766","304","0.2734375","-0.90625","0.17578125","20.25","3.34375","4.875"
"1574269912766","305","0.22070312","-0.8798828","0.171875","14.8125","6.8125","2.0"
"1574269912766","306","0.20214844","-0.9189453","0.17285156","16.71875","-2.21875","0.15625"
"1574269912766","307","0.27441406","-0.88671875","0.14160156","12.25","6.6875","8.71875"
"1574269912767","308","0.24121094","-0.921875","0.22558594","7.8125","2.4375","4.5625"
"1574269912767","309","0.14257812","-0.89941406","0.20703125","8.53125","-3.125","-0.4375"
"1574269913161","310","0.26660156","-0.90722656","0.18261719","5.21875","3.03125","7.25"
"1574269913161","311","0.19042969","-0.9033203","0.21289062","0.28125","-1.78125","-2.53125"
"1574269913161","312","0.23828125","-0.9111328","0.18945312","0.09375","0.53125","4.0625"
"1574269913164","313","0.2607422","-0.89453125","0.20898438","-6.4375","3.53125","3.34375"
"1574269913164","314","0.18359375","-0.92578125","0.19726562","-1.78125","0.84375","-1.84375"
"1574269913165","315","0.171875","-0.90527344","0.18457031","4.1875","-2.46875","-5.625"
"1574269913165","316","0.20800781","-0.9121094","0.19433594","1.5625","5.59375","-6.90625"
"1574269913165","317","0.23828125","-0.90234375","0.20605469","0.28125","8.71875","-3.3125"
"1574269913165","318","0.22558594","-0.91503906","0.20019531","-1.90625","7.84375","-2.75"
"1574269913166","319","0.22070312","-0.91015625","0.20996094","-5.75","10.53125","-1.0625"
"1574269913757","320","0.22167969","-0.90625","0.21191406","-3.6875","9.625","-1.96875"
"1574269913757","321","0.22558594","-0.89746094","0.20703125","-3.125","7.5625","-1.3125"
"1574269913758","322","0.23925781","-0.9082031","0.1953125","-3.125","6.21875","0.03125"
"1574269913758","323","0.234375","-0.89746094","0.20019531","-4.96875","4.625","-0.375"
"1574269913758","324","0.22753906","-0.90625","0.19628906","0.53125","2.65625","0.46875"
"1574269913759","325","0.23242188","-0.9042969","0.20019531","-4.59375","1.15625","-0.8125"
"1574269913760","326","0.22070312","-0.9111328","0.18457031","-2.59375","-1.65625","0.0"
"1574269913760","327","0.2265625","-0.9042969","0.19433594","-0.5625","1.625","-0.125"
"1574269913763","328","0.22558594","-0.90625","0.19238281","-2.46875","-0.9375","-0.25"
"1574269913763","329","0.22265625","-0.91015625","0.18457031","-0.3125","2.78125","0.40625"
"1574269913957","330","0.22167969","-0.90625","0.1796875","-0.875","2.90625","-0.5"
"1574269913958","331","0.21972656","-0.90625","0.19140625","-1.71875","1.375","-1.125"
"1574269913958","332","0.21289062","-0.90234375","0.19628906","-0.9375","2.59375","-1.53125"
"1574269913958","333","0.22265625","-0.9042969","0.18945312","-0.4375","1.28125","-1.65625"
"1574269913959","334","0.21289062","-0.9042969","0.19628906","-0.625","2.65625","-2.15625"
"1574269913959","335","0.22363281","-0.9091797","0.18847656","0.15625","4.4375","-1.1875"
"1574269913959","336","0.22558594","-0.90234375","0.18847656","-0.75","4.0625","-1.59375"
"1574269913959","337","0.21289062","-0.89746094","0.1953125","-1.84375","1.9375","-1.3125"
"1574269913960","338","0.22753906","-0.9082031","0.19140625","-0.1875","4.3125","-0.875"
"1574269913961","339","0.21875","-0.90234375","0.20019531","-1.90625","2.84375","-1.34375"
"1574269914356","340","0.21582031","-0.90625","0.18261719","-3.75","0.0","-1.40625"
"1574269914357","341","0.22460938","-0.91308594","0.19042969","-0.875","1.75","-0.875"
"1574269914357","342","0.22265625","-0.9033203","0.19042969","-1.59375","2.59375","-1.3125"
"1574269914357","343","0.20410156","-0.9013672","0.1953125","-0.8125","2.25","-1.3125"
"1574269914358","344","0.22265625","-0.9042969","0.18945312","-0.6875","2.59375","-0.4375"
"1574269914358","345","0.22070312","-0.90722656","0.19335938","-2.40625","2.0625","-1.96875"
"1574269914358","346","0.21972656","-0.90722656","0.18945312","-1.3125","2.5","-1.25"
"1574269914359","347","0.22363281","-0.9033203","0.18652344","-2.09375","2.84375","-1.90625"
"1574269914359","348","0.21582031","-0.9082031","0.19335938","-1.40625","2.125","-1.59375"
"1574269914359","349","0.22363281","-0.90625","0.18945312","-1.46875","3.03125","-1.59375"
"1574269914750","350","0.22558594","-0.89746094","0.18554688","-1.1875","2.375","-1.46875"
"1574269914751","351","0.22558594","-0.90722656","0.18847656","-1.65625","3.46875","-1.46875"
"1574269914751","352","0.21972656","-0.90625","0.19628906","-1.90625","1.5","-1.96875"
"1574269914751","353","0.22753906","-0.9082031","0.18554688","-0.1875","2.90625","-0.4375"
"1574269914752","354","0.22167969","-0.90625","0.19921875","-3.6875","2.0","-2.8125"
"1574269914752","355","0.23242188","-0.9140625","0.17773438","-1.96875","-0.4375","-1.40625"
"1574269914752","356","0.22167969","-0.8925781","0.18359375","-1.78125","2.59375","-1.34375"
"1574269914752","357","0.21875","-0.9082031","0.18554688","-1.1875","2.59375","-2.09375"
"1574269914753","358","0.23730469","-0.91796875","0.17578125","0.21875","4.125","-1.34375"
"1574269914753","359","0.21972656","-0.8955078","0.18847656","-2.34375","2.84375","-2.09375"
"1574269915150","360","0.23828125","-0.91308594","0.17871094","-1.84375","3.71875","-2.09375"
"1574269915151","361","0.23242188","-0.9091797","0.18457031","-2.09375","2.59375","-2.59375"
"1574269915152","362","0.2265625","-0.8925781","0.18652344","-2.09375","0.96875","-2.09375"
"1574269915152","363","0.23828125","-0.9140625","0.18847656","-2.9375","3.15625","-1.96875"
"1574269915153","364","0.23046875","-0.9033203","0.17285156","-2.6875","0.46875","-2.15625"
"1574269915153","365","0.23925781","-0.89941406","0.17382812","-1.84375","1.5625","-0.375"
"1574269915153","366","0.234375","-0.9042969","0.17773438","-2.875","1.9375","-1.125"
"1574269915153","367","0.23242188","-0.9033203","0.17382812","-2.59375","-0.4375","-0.75"
"1574269915154","368","0.23925781","-0.9082031","0.16503906","-0.0625","0.09375","-0.1875"
"1574269915154","369","0.234375","-0.9082031","0.1796875","-0.0625","0.28125","-0.625"
"1574269915547","370","0.23046875","-0.89160156","0.1796875","-3.3125","-1.46875","-0.5625"
"1574269915547","371","0.23730469","-0.91503906","0.16894531","-2.21875","-0.75","1.03125"
"1574269915547","372","0.22949219","-0.9140625","0.17871094","-1.3125","1.9375","-0.1875"
"1574269915549","373","0.2265625","-0.8876953","0.17285156","-0.625","0.40625","1.21875"
"1574269915549","374","0.234375","-0.9169922","0.171875","-1.78125","2.59375","-0.125"
"1574269915550","375","0.23730469","-0.9003906","0.17578125","-0.8125","3.84375","1.375"
"1574269915550","376","0.22851562","-0.9013672","0.18261719","-0.8125","1.5","0.46875"
"1574269915550","377","0.21875","-0.9169922","0.1640625","-1.25","1.9375","0.96875"
"1574269915550","378","0.2265625","-0.89746094","0.1796875","-1.96875","3.28125","-0.9375"
"1574269915551","379","0.21679688","-0.90722656","0.16113281","-0.5625","1.5625","0.03125"
"1574269916140","380","0.23144531","-0.9111328","0.16210938","-1.65625","2.4375","-0.875"
"1574269916141","381","0.21679688","-0.9042969","0.18457031","-2.15625","0.34375","0.0"
"1574269916141","382","0.23144531","-0.9003906","0.15332031","-3.25","1.9375","-0.375"
"1574269916141","383","0.23046875","-0.9111328","0.16992188","-4.28125","-2.6875","-1.53125"
"1574269916141","384","0.21191406","-0.9003906","0.16210938","-0.5","0.03125","-2.03125"
"1574269916143","385","0.22558594","-0.91308594","0.17578125","-0.8125","0.28125","-1.65625"
"1574269916143","386","0.23144531","-0.89746094","0.17285156","-3.1875","0.71875","-3.125"
"1574269916143","387","0.21972656","-0.9140625","0.14941406","-1.84375","-1.40625","-1.71875"
"1574269916144","388","0.23632812","-0.91015625","0.16796875","-0.3125","4.125","-2.03125"
"1574269916144","389","0.22851562","-0.89941406","0.17480469","-0.9375","0.84375","-1.78125"
"1574269916341","390","0.22753906","-0.91308594","0.15625","-0.25","1.625","-2.46875"
"1574269916342","391","0.23339844","-0.9033203","0.16503906","-1.46875","1.4375","-2.09375"
"1574269916342","392","0.23632812","-0.9121094","0.17089844","-2.59375","2.0","-1.46875"
"1574269916342","393","0.22558594","-0.9003906","0.15429688","-2.09375","2.125","-2.15625"
"1574269916343","394","0.23535156","-0.9003906","0.1640625","-1.71875","1.375","-0.8125"
"1574269916343","395","0.24511719","-0.9169922","0.16601562","-1.84375","1.28125","-1.53125"
"1574269916343","396","0.21484375","-0.90722656","0.16894531","-2.8125","-2.09375","-2.15625"
"1574269916344","397","0.21875","-0.89453125","0.16015625","-2.09375","-3.3125","-2.34375"
"1574269916344","398","0.23144531","-0.91503906","0.16796875","-4.96875","-1.0625","-2.6875"
"1574269916345","399","0.21679688","-0.90625","0.15136719","-5.4375","-0.4375","-2.59375"
"1574269917135","400","0.22949219","-0.8984375","0.13183594","-2.53125","3.28125","-3.1875"
"1574269917135","401","0.24707031","-0.90722656","0.16015625","-1.25","3.9375","-0.3125"
"1574269917136","402","0.23242188","-0.9013672","0.16015625","-3.6875","4.6875","-2.28125"
"1574269917136","403","0.234375","-0.9248047","0.14257812","-3.4375","4.1875","-1.0625"
"1574269917136","404","0.2861328","-0.90234375","0.16015625","-4.46875","-1.59375","-0.1875"
"1574269917136","405","0.21386719","-0.8886719","0.14550781","-3.0","-2.625","-1.0"
"1574269917137","406","0.22558594","-0.9140625","0.12207031","-3.5625","-0.75","0.34375"
"1574269917137","407","0.22265625","-0.8886719","0.1328125","-4.40625","0.78125","-3.0"
"1574269917137","408","0.2705078","-0.91015625","0.14160156","-6.375","1.8125","1.09375"
"1574269917139","409","0.2548828","-0.91308594","0.13183594","-3.125","0.84375","0.71875"
"1574269917332","410","0.20117188","-0.89453125","0.14453125","-6.90625","0.0","0.0"
"1574269917333","411","0.23242188","-0.89160156","0.115234375","-5.375","4.8125","-1.96875"
"1574269917333","412","0.2763672","-0.92089844","0.12988281","-8.25","1.75","-1.78125"
"1574269917333","413","0.2421875","-0.8984375","0.109375","-5.15625","2.125","-2.03125"
"1574269917333","414","0.22753906","-0.89941406","0.11621094","-5.5625","3.59375","-1.3125"
"1574269917334","415","0.24414062","-0.9111328","0.10449219","-1.3125","3.65625","-2.28125"
"1574269917334","416","0.25","-0.9091797","0.12597656","-1.46875","2.0","-0.1875"
"1574269917334","417","0.22265625","-0.89746094","0.103515625","-3.3125","0.09375","-1.40625"
"1574269917334","418","0.23828125","-0.89941406","0.12597656","-6.0625","-1.46875","-1.125"
"1574269917335","419","0.23632812","-0.9277344","0.09472656","-4.34375","0.46875","-1.96875"
"1574269917533","420","0.2265625","-0.89941406","0.119140625","-2.28125","0.34375","-1.78125"
"1574269917535","421","0.24511719","-0.89746094","0.10058594","0.65625","5.0","0.0"
"1574269917535","422","0.23730469","-0.91308594","0.11035156","-2.6875","4.9375","-1.3125"
"1574269917535","423","0.23535156","-0.91503906","0.10546875","1.875","4.5625","-1.0625"
"1574269917536","424","0.23730469","-0.9033203","0.107421875","0.90625","4.6875","-0.25"
"1574269917536","425","0.25585938","-0.9140625","0.119140625","-0.75","4.3125","1.15625"
"1574269917536","426","0.26171875","-0.9121094","0.1171875","2.1875","3.34375","3.09375"
"1574269917536","427","0.24804688","-0.890625","0.09082031","-0.625","0.84375","4.0"
"1574269917537","428","0.21777344","-0.9267578","0.115234375","-1.25","-0.375","2.4375"
"1574269917537","429","0.22949219","-0.90527344","0.09277344","3.90625","4.6875","1.3125"
"1574269917930","430","0.20117188","-0.89160156","0.12792969","-3.0","3.59375","0.03125"
"1574269917931","431","0.23925781","-0.9111328","0.09277344","3.71875","6.09375","0.34375"
"1574269917931","432","0.24316406","-0.9140625","0.13378906","-0.1875","2.59375","0.46875"
"1574269917932","433","0.21484375","-0.8955078","0.11816406","2.0625","2.71875","-1.78125"
"1574269917932","434","0.23535156","-0.90625","0.12109375","-1.46875","4.0625","0.84375"
"1574269917933","435","0.22949219","-0.9121094","0.111328125","0.03125","0.84375","-3.0"
"1574269917933","436","0.22265625","-0.9013672","0.12890625","1.625","2.84375","0.21875"
"1574269917933","437","0.22753906","-0.8847656","0.13867188","-5.875","0.84375","-1.40625"
"1574269917933","438","0.21972656","-0.91796875","0.1015625","2.3125","1.03125","-0.125"
"1574269917934","439","0.234375","-0.9003906","0.13671875","-7.03125","1.8125","-0.75"
"1574269918329","440","0.2109375","-0.9033203","0.111328125","-0.1875","0.84375","-2.15625"
"1574269918330","441","0.21386719","-0.9033203","0.12402344","-6.59375","2.125","-1.65625"
"1574269918330","442","0.2548828","-0.9189453","0.107421875","-4.59375","3.40625","-1.34375"
"1574269918330","443","0.2265625","-0.8857422","0.109375","-4.53125","-0.375","-0.1875"
"1574269918331","444","0.20214844","-0.90527344","0.103515625","-0.5","1.15625","-1.59375"
"1574269918332","445","0.22265625","-0.9082031","0.11425781","-2.8125","5.71875","-0.625"
"1574269918332","446","0.23535156","-0.921875","0.11328125","-2.03125","-0.5","-2.59375"
"1574269918332","447","0.21582031","-0.87890625","0.10449219","-0.8125","5.46875","-1.25"
"1574269918333","448","0.2548828","-0.921875","0.115234375","-8.5625","1.5","-0.75"
"1574269918333","449","0.23925781","-0.8925781","0.083984375","-3.0","1.5625","-0.5"
"1574269918727","450","0.22265625","-0.9189453","0.125","-6.84375","-0.5","-1.25"
"1574269918727","451","0.21582031","-0.9091797","0.07324219","-2.09375","3.59375","-2.40625"
"1574269918727","452","0.23535156","-0.921875","0.06933594","3.59375","0.40625","-2.6875"
"1574269918728","453","0.21289062","-0.8808594","0.12695312","-5.03125","6.75","-3.125"
"1574269918728","454","0.24316406","-0.9140625","0.115234375","-6.375","2.90625","-2.34375"
"1574269918728","455","0.21972656","-0.89160156","0.08203125","-6.125","1.625","-4.65625"
"1574269918729","456","0.29785156","-0.93066406","0.078125","-5.875","-0.625","-0.8125"
"1574269918730","457","0.21386719","-0.8779297","0.095703125","-7.15625","-1.46875","-4.53125"
"1574269918731","458","0.22753906","-0.88964844","0.043945312","5.71875","-4.15625","-4.21875"
"1574269918731","459","0.23144531","-0.8964844","0.111328125","-11.5625","6.625","-6.4375"
"1574269919321","460","0.265625","-0.9267578","0.034179688","10.40625","-3.4375","-5.3125"
"1574269919321","461","0.28222656","-0.8935547","0.16015625","-14.1875","8.15625","4.0625"
"1574269919322","462","0.21679688","-0.90722656","0.0048828125","0.71875","-7.15625","-7.71875"
"1574269919322","463","0.29101562","-0.90527344","0.13574219","-13.6875","0.65625","3.90625"
"1574269919322","464","0.19140625","-0.8642578","0.0087890625","0.90625","-5.4375","-2.9375"
"1574269919323","465","0.29003906","-0.91015625","0.072265625","-2.9375","5.1875","2.65625"
"1574269919323","466","0.25","-0.9345703","0.048828125","4.125","-5.625","-6.65625"
"1574269919323","467","0.20898438","-0.8808594","0.059570312","4.5625","3.78125","3.09375"
"1574269919323","468","0.28710938","-0.91015625","0.10253906","-2.9375","2.3125","-0.5625"
"1574269919325","469","0.26953125","-0.91503906","0.061523438","-6.1875","4.375","0.28125"
"1574269919522","470","0.23046875","-0.9140625","0.05859375","-0.8125","-9.90625","0.03125"
"1574269919522","471","0.234375","-0.8935547","0.064453125","-6.71875","8.09375","-1.25"
"1574269919522","472","0.23535156","-0.91308594","0.060546875","-0.4375","-4.40625","-5.3125"
"1574269919522","473","0.28222656","-0.8886719","0.060546875","1.5","5.125","3.34375"
"1574269919523","474","0.23535156","-0.8955078","0.061523438","1.625","-1.25","-1.34375"
"1574269919523","475","0.25195312","-0.9160156","0.052734375","5.90625","4.6875","2.78125"
"1574269919523","476","0.22851562","-0.9091797","0.061523438","9.8125","1.6875","-2.03125"
"1574269919523","477","0.22460938","-0.90722656","0.14550781","5.0625","7.25","-1.71875"
"1574269919524","478","0.21875","-0.95214844","0.095703125","-4.28125","7.5","-5.875"
"1574269919524","479","0.27148438","-0.8828125","0.068359375","2.25","8.71875","-0.125"
"1574269919918","480","0.28027344","-0.8876953","0.08886719","5.21875","9.03125","0.65625"
"1574269919919","481","0.23828125","-0.92285156","0.109375","1.5","8.21875","0.65625"
"1574269919919","482","0.2578125","-0.8779297","0.107421875","9.9375","9.125","1.3125"
"1574269919920","483","0.2607422","-0.90234375","0.13085938","1.3125","1.6875","-0.875"
"1574269919920","484","0.24511719","-0.9169922","0.10253906","1.28125","-1.40625","-0.75"
"1574269919920","485","0.22949219","-0.89453125","0.13867188","-0.625","-0.375","-1.34375"
"1574269919921","486","0.22949219","-0.89941406","0.107421875","-0.8125","4.25","-2.21875"
"1574269919921","487","0.23339844","-0.91015625","0.10449219","-3.375","4.75","-0.125"
"1574269919921","488","0.23828125","-0.91308594","0.11328125","2.65625","9.125","-1.59375"
"1574269919921","489","0.25195312","-0.9003906","0.13085938","-2.34375","7.96875","-1.65625"
"1574269920512","490","0.24707031","-0.9013672","0.10546875","-0.25","7.1875","-0.3125"
"1574269920513","491","0.2578125","-0.9169922","0.12792969","0.65625","7.5","-1.53125"
"1574269920513","492","0.24804688","-0.8964844","0.119140625","-3.625","2.25","-1.25"
"1574269920515","493","0.24804688","-0.9042969","0.10644531","-2.21875","1.15625","-0.75"
"1574269920515","494","0.22851562","-0.92089844","0.119140625","0.09375","1.75","-3.75"
"1574269920515","495","0.24023438","-0.8769531","0.10644531","-1.34375","2.59375","0.65625"
"1574269920516","496","0.2578125","-0.9267578","0.12011719","-1.78125","5.1875","0.53125"
"1574269920516","497","0.2763672","-0.8964844","0.09472656","-4.40625","1.5","3.34375"
"1574269920516","498","0.2529297","-0.9121094","0.12597656","-3.8125","4.125","3.34375"
"1574269920516","499","0.21777344","-0.89746094","0.10546875","-4.53125","0.59375","-1.53125"
"1574269920714","500","0.22070312","-0.9169922","0.09082031","-2.75","0.59375","-0.25"
"1574269920714","501","0.24023438","-0.88671875","0.08203125","-5.15625","2.65625","-0.5"
"1574269920715","502","0.27929688","-0.8720703","0.0703125","-3.375","5.84375","2.65625"
"1574269920715","503","0.2548828","-0.9248047","0.09765625","-2.875","1.09375","1.4375"
"1574269920715","504","0.25","-0.9013672","0.1171875","0.0","-0.9375","0.78125"
"1574269920717","505","0.19921875","-0.890625","0.111328125","-1.125","-4.84375","-2.6875"
"1574269920718","506","0.21582031","-0.9296875","0.111328125","4.5","-1.1875","-3.8125"
"1574269920718","507","0.21582031","-0.91503906","0.11425781","2.71875","-1.59375","-5.75"
"1574269920719","508","0.22949219","-0.8935547","0.10253906","2.375","1.4375","-2.09375"
"1574269920719","509","0.23242188","-0.9189453","0.09667969","2.125","5.59375","-1.65625"
"1574269921309","510","0.22558594","-0.9140625","0.10839844","0.09375","4.375","-1.3125"
"1574269921309","511","0.24023438","-0.90625","0.115234375","-1.3125","6.28125","0.46875"
"1574269921310","512","0.23339844","-0.90722656","0.103515625","-2.6875","6.15625","-0.875"
"1574269921310","513","0.2529297","-0.9042969","0.09863281","-4.03125","4.25","0.0"
"1574269921310","514","0.24707031","-0.9013672","0.10839844","-4.71875","4.375","0.0"
"1574269921310","515","0.23535156","-0.9042969","0.11035156","-3.3125","4.3125","-0.25"
"1574269921311","516","0.24902344","-0.89746094","0.095703125","-0.5625","2.5","-0.3125"
"1574269921312","517","0.25585938","-0.9013672","0.095703125","-2.21875","3.15625","1.3125"
"1574269921312","518","0.25390625","-0.9033203","0.107421875","-0.6875","1.5","1.3125"
"1574269921312","519","0.23535156","-0.8984375","0.10253906","0.59375","-0.125","0.90625"
"1574269921509","520","0.21679688","-0.9199219","0.115234375","-2.09375","-3.625","-2.8125"
"1574269921509","521","0.24609375","-0.90234375","0.0859375","4.0625","-1.46875","-1.65625"
"1574269921509","522","0.23242188","-0.89160156","0.119140625","-6.125","-0.75","-2.03125"
"1574269921510","523","0.24023438","-0.90722656","0.09765625","-4.59375","0.71875","-0.75"
"1574269921512","524","0.24511719","-0.9111328","0.083984375","-1.125","1.28125","0.15625"
"1574269921513","525","0.22558594","-0.90625","0.111328125","-0.5","1.375","-0.5"
"1574269921513","526","0.23144531","-0.9003906","0.10839844","0.28125","1.09375","-1.125"
"1574269921513","527","0.22558594","-0.8964844","0.0859375","8.71875","0.0","-1.0"
"1574269921513","528","0.23046875","-0.9316406","0.09472656","-1.40625","-8.625","4.0625"
"1574269921515","529","0.23046875","-0.8642578","0.12988281","-6.25","3.53125","-11.84375"
"1574269921906","530","0.22558594","-0.88378906","0.087890625","6.28125","9.9375","-9.40625"
"1574269921906","531","0.2705078","-0.8955078","0.125","-1.96875","3.71875","-7.65625"
"1574269921906","532","0.30859375","-0.91503906","0.12597656","5.59375","1.8125","-7.65625"
"1574269921907","533","0.25878906","-0.9169922","0.109375","3.59375","1.6875","-8.625"
"1574269921907","534","0.265625","-0.9140625","0.11230469","-6.1875","-4.90625","-4.65625"
"1574269921907","535","0.27441406","-0.9013672","0.109375","-8.5625","-0.9375","-3.90625"
"1574269921907","536","0.24316406","-0.8984375","0.080078125","-3.96875","5.40625","-2.875"
"1574269921908","537","0.2548828","-0.9042969","0.11621094","-5.3125","2.65625","-1.96875"
"1574269921908","538","0.25585938","-0.90625","0.10546875","-5.375","2.375","-3.125"
"1574269921908","539","0.2734375","-0.9033203","0.087890625","-0.125","2.1875","-1.65625"
"1574269922303","540","0.28027344","-0.9033203","0.09863281","-3.375","0.40625","-1.40625"
"1574269922304","541","0.27246094","-0.9013672","0.091796875","-2.09375","-0.75","-0.9375"
"1574269922304","542","0.2861328","-0.8984375","0.09277344","-1.96875","-0.8125","-0.4375"
"1574269922305","543","0.27246094","-0.88964844","0.099609375","-1.90625","0.34375","1.4375"
"1574269922305","544","0.26953125","-0.89941406","0.099609375","-4.53125","-0.875","3.46875"
"1574269922305","545","0.26953125","-0.90625","0.09667969","-2.625","-1.59375","3.21875"
"1574269922306","546","0.25683594","-0.9091797","0.09375","-0.5625","-2.8125","2.4375"
"1574269922306","547","0.24511719","-0.89160156","0.08300781","-0.5625","-4.34375","1.03125"
"1574269922306","548","0.27246094","-0.8964844","0.09375","-6.0625","-2.75","0.71875"
"1574269922306","549","0.26464844","-0.8984375","0.08300781","-18.5","-1.84375","-0.625"
"1574269922702","550","0.23339844","-0.90234375","0.07714844","-12.09375","0.59375","-1.53125"
"1574269922702","551","0.24414062","-0.88378906","0.057617188","-9.59375","2.375","1.03125"
"1574269922702","552","0.2607422","-0.9160156","0.07421875","-1.78125","-1.84375","3.21875"
"1574269922704","553","0.265625","-0.8955078","0.06738281","-11.5625","-10.40625","3.71875"
"1574269922704","554","0.18457031","-0.9140625","0.103515625","-16.25","-7.59375","3.90625"
"1574269922704","555","0.24804688","-0.87109375","-0.02734375","-0.1875","0.21875","2.375"
"1574269922705","556","0.25195312","-0.8808594","0.044921875","-7.78125","11.75","3.21875"
"1574269922705","557","0.31640625","-0.9111328","0.037109375","-10.34375","-0.3125","3.53125"
"1574269922705","558","0.234375","-0.91503906","0.05078125","-15.15625","-9.65625","8.84375"
"1574269922705","559","0.17285156","-0.87890625","0.01171875","-7.78125","5.53125","2.0"
"1574269923099","560","0.1953125","-0.8876953","-0.018554688","-3.1875","2.375","-5.8125"
"1574269923100","561","0.296875","-0.8857422","-0.001953125","1.5","6.5625","0.65625"
"1574269923100","562","0.25097656","-0.9003906","0.0087890625","-9.59375","-3.0625","3.65625"
"1574269923100","563","0.1796875","-0.9140625","-0.026367188","-3.8125","3.46875","1.15625"
"1574269923101","564","0.24121094","-0.8544922","0.02734375","-12.71875","0.59375","-1.65625"
"1574269923101","565","0.19433594","-0.85839844","-0.076171875","-2.34375","-4.71875","-8.125"
"1574269923101","566","0.3515625","-0.8964844","-0.005859375","6.46875","7.5625","4.125"
"1574269923102","567","0.15234375","-0.87109375","0.021484375","-6.25","-1.96875","-5.09375"
"1574269923102","568","0.203125","-0.96191406","-0.0078125","-6.4375","-9.78125","-3.5"
"1574269923102","569","0.22070312","-0.8564453","-0.0048828125","-5.75","1.5625","-5.75"
"1574269923498","570","0.24316406","-0.87402344","-0.001953125","-5.25","0.59375","0.78125"
"1574269923498","571","0.23828125","-0.9189453","-0.05078125","-3.96875","2.0625","-5.25"
"1574269923499","572","0.28222656","-0.9091797","0.0087890625","1.3125","5.0625","4.5625"
"1574269923499","573","0.19238281","-0.89453125","0.0048828125","-7.65625","-2.40625","-5.625"
"1574269923499","574","0.24414062","-0.8886719","-0.032226562","-1.0","1.9375","-0.375"
"1574269923502","575","0.25585938","-0.8847656","-0.026367188","4.5625","1.09375","-2.09375"
"1574269923503","576","0.27246094","-0.8701172","-0.017578125","9.6875","10.375","-1.78125"
"1574269923504","577","0.23632812","-0.88964844","-9.765625E-4","13.0","2.90625","-0.875"
"1574269923504","578","0.20605469","-0.8984375","0.0087890625","5.71875","-3.0","0.15625"
"1574269923505","579","0.2265625","-0.91015625","-0.0087890625","-2.03125","-0.25","-0.875"
"1574269923895","580","0.23828125","-0.90722656","0.018554688","-1.0625","-1.53125","-2.875"
"1574269923896","581","0.23632812","-0.9013672","0.0","0.65625","-0.6875","-3.0625"
"1574269923896","582","0.22460938","-0.9091797","0.013671875","-4.71875","0.40625","1.4375"
"1574269923896","583","0.22070312","-0.8935547","-0.01171875","-4.71875","2.1875","-2.625"
"1574269923896","584","0.23535156","-0.9042969","0.016601562","-4.46875","2.96875","-1.1875"
"1574269923896","585","0.23535156","-0.90234375","-0.009765625","-4.59375","2.84375","-0.6875"
"1574269923897","586","0.24316406","-0.8955078","0.0078125","-4.40625","3.71875","-0.625"
"1574269923897","587","0.21289062","-0.89160156","-0.018554688","-5.6875","4.625","-2.15625"
"1574269923897","588","0.28027344","-0.9111328","-0.0078125","-3.0","5.28125","1.15625"
"1574269923898","589","0.2421875","-0.8857422","0.0126953125","-3.625","3.71875","1.5"
"1574269924291","590","0.3310547","-0.98046875","-0.052734375","-2.53125","-22.0","14.375"
"1574269924291","591","0.09472656","-0.7998047","0.05859375","-4.09375","13.0","-7.65625"
"1574269924292","592","0.14746094","-0.83496094","-0.015625","-15.34375","-0.25","-1.84375"
"1574269924292","593","0.3095703","-1.0107422","-0.064453125","-9.90625","-1.46875","2.5625"
"1574269924292","594","0.3095703","-0.91503906","0.0029296875","16.53125","0.0","-3.875"
"1574269924292","595","0.17675781","-0.82714844","-0.07421875","30.75","3.40625","-1.71875"
"1574269924293","596","0.22167969","-0.8779297","0.013671875","9.375","9.125","6.09375"
"1574269924293","597","0.24316406","-0.9638672","0.037109375","7.84375","-1.65625","-2.28125"
"1574269924293","598","0.18066406","-0.88964844","0.028320312","11.8125","1.15625","-4.96875"
"1574269924298","599","0.19433594","-0.89160156","0.01953125","-2.34375","1.15625","-3.6875"
"1574269924689","600","0.2548828","-0.9238281","0.0078125","3.65625","7.375","-2.875"
"1574269924691","601","0.24707031","-0.8886719","0.038085938","1.15625","15.84375","-0.625"
"1574269924691","602","0.26367188","-0.9082031","0.06640625","6.03125","4.25","1.5"
"1574269924692","603","0.18261719","-0.8798828","-0.020507812","9.03125","15.1875","-4.65625"
"1574269924692","604","0.24023438","-0.9189453","0.029296875","24.15625","8.46875","-0.875"
"1574269924692","605","0.25683594","-0.88964844","0.08691406","14.625","12.75","-3.1875"
"1574269924692","606","0.296875","-0.91796875","0.08300781","12.5","2.375","-3.25"
"1574269924693","607","0.18554688","-0.90625","0.07714844","8.78125","-1.46875","-4.34375"
"1574269924693","608","0.22460938","-0.9082031","0.09765625","3.53125","0.28125","-1.34375"
"1574269924693","609","0.24023438","-0.9140625","0.11035156","11.15625","4.0","-1.0625"
"1574269925285","610","0.2607422","-0.9472656","0.12207031","-2.09375","5.96875","-1.59375"
"1574269925286","611","0.27929688","-0.87402344","0.10839844","-0.25","-0.375","8.03125"
"1574269925286","612","0.2734375","-0.8847656","0.115234375","-2.46875","-6.375","6.46875"
"1574269925286","613","0.18847656","-0.88378906","0.09765625","-1.78125","-2.8125","1.03125"
"1574269925287","614","0.21679688","-0.9091797","0.083984375","11.8125","0.90625","-1.0"
"1574269925287","615","0.20019531","-0.92089844","0.123046875","4.9375","6.9375","-3.625"
"1574269925287","616","0.25878906","-0.88671875","0.08496094","16.9375","5.40625","1.8125"
"1574269925287","617","0.26757812","-0.9794922","0.17089844","6.9375","11.03125","5.0"
"1574269925288","618","0.15527344","-0.84472656","0.13867188","-4.15625","4.25","-3.5"
"1574269925288","619","0.21777344","-0.9345703","0.12011719","3.53125","9.125","6.03125"
"1574269926276","620","0.2998047","-0.9453125","0.12207031","-0.6875","9.1875","-1.125"
"1574269926277","621","0.27246094","-0.91308594","0.17382812","-6.53125","-5.75","9.03125"
"1574269926277","622","0.19824219","-0.84472656","0.12890625","3.03125","-8.0625","2.3125"
"1574269926278","623","0.13964844","-0.90527344","0.10058594","4.125","3.40625","-3.875"
"1574269926278","624","0.171875","-0.93652344","0.16113281","-6.0","2.59375","-6.4375"
"1574269926278","625","0.24121094","-0.9121094","0.107421875","10.84375","7.5","-2.46875"
"1574269926279","626","0.20019531","-0.86621094","0.16210938","-8.6875","2.59375","-4.53125"
"1574269926279","627","0.25683594","-0.9482422","0.13183594","3.34375","3.90625","1.6875"
"1574269926280","628","0.18457031","-0.8955078","0.15722656","-10.21875","0.78125","-4.46875"
"1574269926280","629","0.24121094","-0.9121094","0.08691406","5.78125","4.0625","0.90625"
"1574269926281","630","0.16992188","-0.90722656","0.15820312","-3.8125","-1.65625","-6.78125"
"1574269926282","631","0.2685547","-0.9003906","0.103515625","3.90625","6.46875","-0.625"
"1574269926282","632","0.20800781","-0.89941406","0.16796875","-4.59375","-0.5","-2.875"
"1574269926282","633","0.2109375","-0.88964844","0.11425781","-1.96875","2.375","-1.84375"
"1574269926283","634","0.24609375","-0.94140625","0.15625","-3.375","4.6875","0.65625"
"1574269926283","635","0.2265625","-0.88671875","0.11328125","4.0625","-0.4375","-2.9375"
"1574269926283","636","0.2109375","-0.9121094","0.15625","-0.5625","0.59375","-1.3125"
"1574269926284","637","0.23535156","-0.8984375","0.125","0.15625","2.125","-0.9375"
"1574269926285","638","0.20019531","-0.9082031","0.14257812","-0.1875","1.5","-1.96875"
"1574269926285","639","0.24902344","-0.90527344","0.12402344","1.875","1.8125","0.65625"
"1574269926675","640","0.20800781","-0.9042969","0.17089844","-3.5625","2.25","-3.375"
"1574269926676","641","0.24609375","-0.90234375","0.13574219","-3.625","2.78125","-0.8125"
"1574269926676","642","0.24804688","-0.90234375","0.09863281","4.8125","-5.875","-2.21875"
"1574269926676","643","0.19628906","-0.9277344","0.171875","3.90625","4.0","-2.28125"
"1574269926676","644","0.16699219","-0.8623047","0.15234375","0.0","1.625","-12.46875"
"1574269926677","645","0.25976562","-0.9199219","0.140625","2.78125","1.03125","0.34375"
"1574269926677","646","0.2578125","-0.8691406","0.16308594","-6.0","5.0625","-4.09375"
"1574269926677","647","0.24707031","-0.93066406","0.13867188","-0.375","5.59375","2.0"
"1574269926677","648","0.23535156","-0.8828125","0.15136719","2.1875","-2.875","-1.96875"
"1574269926678","649","0.24609375","-0.9169922","0.13378906","9.8125","6.5625","0.09375"
"1574269926874","650","0.25195312","-0.9111328","0.19238281","-3.125","-0.625","-1.84375"
"1574269926874","651","0.21972656","-0.9013672","0.14648438","8.40625","-0.3125","-5.15625"
"1574269926875","652","0.2685547","-0.9238281","0.14355469","1.75","4.3125","4.6875"
"1574269926875","653","0.23828125","-0.8847656","0.1796875","-0.4375","4.125","-0.5"
"1574269926875","654","0.26367188","-0.9111328","0.17578125","-0.5","1.8125","5.40625"
"1574269926875","655","0.20117188","-0.8984375","0.171875","-2.09375","0.03125","-1.59375"
"1574269926876","656","0.28125","-0.92089844","0.14355469","6.21875","2.84375","3.21875"
"1574269926876","657","0.20996094","-0.890625","0.20117188","-5.3125","-0.0625","-2.28125"
"1574269926876","658","0.23339844","-0.90722656","0.14550781","5.21875","1.6875","-0.75"
"1574269926876","659","0.24609375","-0.9169922","0.20605469","-0.625","0.09375","1.03125"
"1574269927073","660","0.20507812","-0.88378906","0.1328125","1.3125","8.71875","-3.125"
"1574269927075","661","0.24121094","-0.9169922","0.21289062","-0.75","2.1875","1.3125"
"1574269927075","662","0.24902344","-0.90625","0.19921875","-1.59375","9.09375","-2.21875"
"1574269927075","663","0.23535156","-0.89941406","0.16796875","-1.84375","8.28125","-0.4375"
"1574269927076","664","0.24121094","-0.9091797","0.16894531","6.5625","2.25","-0.25"
"1574269927076","665","0.17675781","-0.89941406","0.19433594","0.71875","5.0","-3.0625"
"1574269927076","666","0.26953125","-0.9042969","0.18554688","-0.75","11.875","1.6875"
"1574269927076","667","0.2578125","-0.9169922","0.21289062","2.5625","4.9375","0.53125"
"1574269927076","668","0.19238281","-0.9121094","0.1875","-4.84375","4.625","-2.03125"
"1574269927077","669","0.22363281","-0.8769531","0.21191406","-10.09375","7.96875","1.625"
"1574269927668","670","0.22167969","-0.92871094","0.18652344","-5.25","4.5","-3.3125"
"1574269927669","671","0.19628906","-0.9140625","0.18847656","-7.71875","-2.46875","-6.375"
"1574269927669","672","0.19238281","-0.9013672","0.17773438","-6.53125","-3.8125","-5.15625"
"1574269927674","673","0.2548828","-0.8623047","0.15917969","-0.875","3.65625","-1.59375"
"1574269927674","674","0.21875","-0.94628906","0.18457031","-4.46875","-2.53125","-2.40625"
"1574269927675","675","0.25","-0.9189453","0.15820312","-4.65625","3.34375","2.0"
"1574269927675","676","0.23925781","-0.86621094","0.18261719","-16.25","3.71875","4.125"
"1574269927675","677","0.19335938","-0.91503906","0.13183594","-6.125","3.40625","2.65625"
"1574269927676","678","0.20996094","-0.9316406","0.09277344","5.78125","17.1875","0.28125"
"1574269927676","679","0.28710938","-0.9736328","0.15917969","12.25","5.46875","-1.0"
"1574269927868","680","0.24414062","-0.8671875","0.19042969","2.96875","-2.9375","-2.6875"
"1574269927869","681","0.16308594","-0.89453125","0.19238281","5.125","6.03125","-3.96875"
"1574269927869","682","0.17578125","-0.9658203","0.16503906","4.4375","14.375","-4.34375"
"1574269927870","683","0.2548828","-0.93066406","0.17773438","-0.75","8.78125","-0.125"
"1574269927870","684","0.23242188","-0.88183594","0.20117188","-7.03125","5.59375","0.96875"
"1574269927871","685","0.23046875","-0.8828125","0.171875","-10.21875","11.34375","0.21875"
"1574269927872","686","0.25","-0.92871094","0.13867188","-12.84375","10.65625","1.375"
"1574269927872","687","0.22558594","-0.91503906","0.13671875","-9.0","2.65625","-1.125"
"1574269927872","688","0.24609375","-0.8847656","0.16015625","-7.71875","0.03125","-0.75"
"1574269927873","689","0.24707031","-0.90625","0.14160156","-5.9375","-1.3125","-2.6875"
"1574269928267","690","0.2705078","-0.8984375","0.14941406","-10.625","-6.71875","-4.03125"
"1574269928267","691","0.24707031","-0.90625","0.12402344","-9.0","-10.28125","-2.28125"
"1574269928268","692","0.20996094","-0.8935547","0.12597656","-1.78125","-11.78125","-3.5625"
"1574269928268","693","0.22070312","-0.89941406","0.11425781","1.09375","-9.34375","-1.84375"
"1574269928268","694","0.24609375","-0.92089844","0.103515625","2.1875","1.21875","-2.21875"
"1574269928268","695","0.21972656","-0.89453125","0.13476562","-4.28125","2.71875","-0.1875"
"1574269928268","696","0.23242188","-0.90722656","0.11328125","-7.59375","5.96875","0.15625"
"1574269928270","697","0.234375","-0.90722656","0.12988281","-14.34375","0.40625","0.34375"
"1574269928271","698","0.22753906","-0.89941406","0.119140625","-9.46875","-0.6875","1.03125"
"1574269928271","699","0.23339844","-0.9082031","0.09863281","-7.65625","2.3125","0.09375"
"1574269928664","700","0.24316406","-0.89453125","0.11230469","-4.46875","-0.3125","-0.75"
"1574269928665","701","0.21875","-0.9042969","0.10546875","-0.0625","-1.90625","-0.625"
"1574269928665","702","0.23046875","-0.91503906","0.099609375","-1.46875","-0.9375","-0.5625"
"1574269928665","703","0.23046875","-0.9140625","0.09863281","-1.25","-2.03125","-2.03125"
"1574269928666","704","0.21484375","-0.90625","0.09277344","-0.4375","-0.3125","-2.59375"
"1574269928666","705","0.21875","-0.90625","0.09082031","3.90625","3.40625","-0.9375"
"1574269928666","706","0.22753906","-0.921875","0.07910156","18.65625","7.5","-0.625"
"1574269928666","707","0.25195312","-0.9355469","0.15527344","19.6875","9.9375","4.5625"
"1574269928666","708","0.25195312","-0.88183594","0.19433594","2.4375","10.71875","0.03125"
"1574269928668","709","0.16210938","-0.890625","0.06738281","8.59375","14.8125","-6.3125"
"1574269929060","710","0.24023438","-0.921875","0.14550781","-7.46875","13.53125","-3.3125"
"1574269929061","711","0.24902344","-0.90234375","0.13867188","-7.28125","3.28125","-5.09375"
"1574269929061","712","0.23144531","-0.8984375","0.14257812","0.28125","7.8125","-4.28125"
"1574269929062","713","0.24902344","-0.89453125","0.13671875","2.125","8.03125","-0.9375"
"1574269929062","714","0.25195312","-0.9140625","0.1484375","0.0","3.03125","-2.9375"
"1574269929062","715","0.2685547","-0.9189453","0.14355469","4.875","1.15625","-1.96875"
"1574269929063","716","0.21679688","-0.8925781","0.15039062","10.71875","0.0","-3.96875"
"1574269929063","717","0.23730469","-0.90234375","0.14746094","12.8125","-1.71875","-1.46875"
"1574269929063","718","0.2421875","-0.91015625","0.17089844","11.09375","-3.75","-0.3125"
"1574269929063","719","0.24023438","-0.88378906","0.17773438","14.21875","-0.125","3.78125"
"1574269929459","720","0.22851562","-0.9404297","0.18359375","14.625","1.03125","6.03125"
"1574269929460","721","0.22949219","-0.8876953","0.20605469","9.875","-0.75","4.5625"
"1574269929461","722","0.23535156","-0.90722656","0.19140625","17.3125","4.3125","7.90625"
"1574269929461","723","0.20800781","-0.9003906","0.21875","12.8125","-2.21875","4.9375"
"1574269929464","724","0.21777344","-0.9042969","0.22949219","5.125","1.03125","6.46875"
"1574269929464","725","0.22070312","-0.92871094","0.22070312","9.75","-2.46875","2.0"
"1574269929465","726","0.16894531","-0.8798828","0.22753906","0.84375","-3.75","-1.53125"
"1574269929465","727","0.23339844","-0.9189453","0.24902344","2.0","1.6875","1.75"
"1574269929466","728","0.19921875","-0.93359375","0.2861328","-0.375","-3.90625","-1.40625"
"1574269929466","729","0.2265625","-0.8886719","0.20996094","0.09375","3.90625","2.5625"
"1574269929856","730","0.21191406","-0.91796875","0.24511719","-2.625","-2.21875","-0.875"
"1574269929856","731","0.18066406","-0.87109375","0.23339844","-6.53125","1.03125","-7.8125"
"1574269929857","732","0.22753906","-0.89746094","0.23242188","-7.71875","3.84375","-1.84375"
"1574269929858","733","0.24316406","-0.94140625","0.22851562","-8.6875","2.0","-3.1875"
"1574269929858","734","0.20507812","-0.8984375","0.22265625","-4.90625","-1.40625","-2.03125"
"1574269929859","735","0.19238281","-0.9091797","0.22070312","-7.8125","-3.125","-5.4375"
"1574269929859","736","0.2607422","-0.890625","0.20507812","-5.09375","2.71875","-6.0625"
"1574269929859","737","0.21972656","-0.91796875","0.1953125","2.5","-4.03125","-3.25"
"1574269929859","738","0.20703125","-0.8652344","0.22070312","-0.6875","5.71875","-2.875"
"1574269929860","739","0.32128906","-0.92285156","0.234375","-11.625","9.4375","-2.21875"
"1574269930450","740","0.2265625","-0.8847656","0.19726562","-5.5625","-10.9375","-1.84375"
"1574269930450","741","0.15527344","-0.8828125","0.18164062","-7.78125","0.09375","-5.8125"
"1574269930451","742","0.20019531","-0.9355469","0.23144531","-9.34375","2.90625","-5.15625"
"1574269930451","743","0.265625","-0.9121094","0.23828125","-10.8125","5.28125","-5.375"
"1574269930451","744","0.25097656","-0.89941406","0.15039062","-6.71875","-7.15625","-3.4375"
"1574269930452","745","0.1640625","-0.9033203","0.15234375","-11.125","7.3125","-4.21875"
"1574269930453","746","0.3095703","-0.91503906","0.11230469","-6.65625","13.34375","2.96875"
"1574269930453","747","0.28710938","-0.8955078","0.21289062","-10.9375","0.84375","1.625"
"1574269930453","748","0.2265625","-0.90234375","0.14160156","-7.65625","-2.875","-1.96875"
"1574269930454","749","0.20703125","-0.88671875","0.12890625","-5.5625","1.9375","-1.3125"
"1574269930850","750","0.3046875","-0.9404297","0.19042969","-8.3125","-1.96875","2.1875"
"1574269930850","751","0.24414062","-0.8847656","0.10546875","-2.625","-4.78125","0.53125"
"1574269930851","752","0.25097656","-0.87402344","0.18847656","-18.5625","-0.9375","9.03125"
"1574269930851","753","0.171875","-0.9423828","0.0546875","18.34375","-6.125","-1.0625"
"1574269930851","754","0.2734375","-0.9189453","0.15234375","7.6875","1.375","11.40625"
"1574269930851","755","0.23632812","-0.87890625","0.1796875","9.4375","-4.71875","3.21875"
"1574269930852","756","0.19921875","-0.87890625","0.19238281","-14.40625","-12.15625","-0.375"
"1574269930853","757","0.18554688","-0.94921875","0.14257812","1.03125","-5.4375","4.5625"
"1574269930853","758","0.20507812","-0.9189453","0.14257812","-5.75","4.875","-1.90625"
"1574269930853","759","0.20214844","-0.90625","0.12890625","2.84375","-6.375","2.25"
"1574269931248","760","0.1796875","-0.87109375","0.13574219","3.34375","7.5","-5.03125"
"1574269931248","761","0.27246094","-0.9707031","0.17382812","-3.75","4.3125","8.46875"
"1574269931249","762","0.20996094","-0.8857422","0.13476562","2.0","1.625","4.1875"
"1574269931249","763","0.1640625","-0.8955078","0.13769531","3.34375","5.90625","9.125"
"1574269931249","764","0.19921875","-0.89160156","0.16796875","-6.59375","8.65625","0.34375"
"1574269931249","765","0.19628906","-0.9345703","0.1171875","-0.25","2.59375","3.90625"
"1574269931250","766","0.23828125","-0.9082031","0.15039062","-4.59375","2.59375","1.21875"
"1574269931250","767","0.17578125","-0.92871094","0.083984375","12.25","0.0","0.46875"
"1574269931250","768","0.15527344","-0.87109375","0.19921875","-5.625","4.0","0.96875"
"1574269931252","769","0.26171875","-0.9482422","0.11816406","17.875","2.25","4.375"
"1574269931646","770","0.17382812","-0.86035156","0.23535156","-11.0","2.71875","-0.625"
"1574269931647","771","0.18164062","-0.9121094","0.11816406","9.375","4.6875","7.5625"
"1574269931647","772","0.140625","-0.875","0.21484375","-12.09375","7.5625","-3.6875"
"1574269931647","773","0.23535156","-0.9404297","0.13378906","1.75","0.40625","2.96875"
"1574269931648","774","0.15039062","-0.9042969","0.17871094","-8.75","3.84375","-3.5625"
"1574269931648","775","0.19238281","-0.9091797","0.1328125","4.3125","4.1875","0.0"
"1574269931648","776","0.19628906","-0.9140625","0.17382812","-4.96875","6.75","-0.875"
"1574269931649","777","0.19433594","-0.91796875","0.17578125","0.78125","2.5","-0.1875"
"1574269931649","778","0.16699219","-0.9091797","0.16113281","-4.03125","1.9375","-3.3125"
"1574269931649","779","0.19140625","-0.9238281","0.16113281","-2.6875","0.46875","-3.375"
"1574269932043","780","0.1796875","-0.9140625","0.15136719","0.09375","2.3125","-3.875"
"1574269932045","781","0.19335938","-0.9042969","0.17871094","-1.90625","0.90625","-1.34375"
"1574269932046","782","0.16308594","-0.90527344","0.14648438","-0.3125","2.125","-3.5"
"1574269932046","783","0.19726562","-0.9296875","0.16796875","-1.25","2.78125","0.0"
"1574269932046","784","0.16601562","-0.88671875","0.14746094","-1.40625","1.3125","-3.25"
"1574269932047","785","0.18261719","-0.9042969","0.16503906","-0.8125","2.25","-1.125"
"1574269932047","786","0.20703125","-0.9121094","0.17480469","-5.25","4.625","-3.4375"
"1574269932047","787","0.20214844","-0.8935547","0.14160156","-6.96875","2.65625","-1.0"
"1574269932048","788","0.19726562","-0.9160156","0.12597656","-0.9375","1.03125","-0.875"
"1574269932048","789","0.17285156","-0.90527344","0.16015625","-4.09375","3.03125","-5.09375"
"1574269932439","790","0.22265625","-0.8779297","0.13574219","-1.0","0.59375","-3.90625"
"1574269932440","791","0.19628906","-0.8886719","0.16796875","-2.40625","-0.5625","-4.15625"
"1574269932440","792","0.2265625","-0.93359375","0.14550781","-9.96875","4.625","-0.375"
"1574269932440","793","0.18847656","-0.9189453","0.13671875","4.125","-2.15625","-3.0"
"1574269932441","794","0.18847656","-0.92089844","0.15429688","-6.84375","5.71875","-4.90625"
"1574269932441","795","0.15136719","-0.9375","0.16894531","-0.375","-5.375","-7.71875"
"1574269932441","796","0.22558594","-0.89746094","0.115234375","-0.1875","11.09375","-5.8125"
"1574269932442","797","0.28027344","-0.9609375","0.17871094","-4.03125","0.34375","-3.0625"
"1574269932442","798","0.16210938","-0.89453125","0.12109375","0.03125","9.5","1.3125"
"1574269932442","799","0.18945312","-0.9091797","0.107421875","4.375","5.21875","-5.375"
"1574269932836","800","0.23535156","-0.90234375","0.1484375","6.46875","8.15625","5.59375"
"1574269932837","801","0.21484375","-0.9042969","0.13769531","3.84375","-2.40625","-6.25"
"1574269932837","802","0.18164062","-0.89453125","0.15332031","3.03125","-3.1875","0.78125"
"1574269932837","803","0.25390625","-0.9423828","0.16015625","0.65625","-5.8125","3.21875"
"1574269932837","804","0.17089844","-0.8935547","0.15917969","-4.71875","-0.625","1.5"
"1574269932840","805","0.09765625","-0.9003906","0.1640625","2.84375","-1.96875","-7.09375"
"1574269932843","806","0.20507812","-0.90234375","0.13574219","4.0","20.8125","-1.65625"
"1574269932843","807","0.25976562","-0.92089844","0.19042969","-4.15625","11.53125","-3.5625"
"1574269932845","808","0.20214844","-0.90527344","0.15332031","1.5","12.1875","-5.75"
"1574269932846","809","0.22167969","-0.8876953","0.1640625","-2.59375","6.40625","-1.71875"
"1574269933236","810","0.18554688","-0.9121094","0.17285156","-7.40625","6.40625","-6.3125"
"1574269933236","811","0.23828125","-0.9296875","0.14746094","-3.875","8.78125","-6.125"
"1574269933237","812","0.25097656","-0.9033203","0.15234375","-6.90625","0.0","-4.96875"
"1574269933237","813","0.203125","-0.88671875","0.13671875","-7.59375","-0.5","-4.71875"
"1574269933237","814","0.20605469","-0.9003906","0.16015625","-11.96875","1.15625","-5.4375"
"1574269933237","815","0.24804688","-0.9169922","0.15722656","-13.03125","1.28125","0.46875"
"1574269933238","816","0.20800781","-0.91015625","0.13769531","-17.78125","-6.375","-9.15625"
"1574269933238","817","0.26367188","-0.8886719","0.07910156","-11.5625","-4.46875","3.59375"
"1574269933239","818","0.21777344","-0.8964844","0.123046875","-10.15625","-0.5","-2.59375"
"1574269933240","819","0.24316406","-0.8857422","0.068359375","-9.46875","-0.875","1.21875"
"1574269933634","820","0.24121094","-0.9003906","0.11621094","-13.375","-1.59375","1.09375"
"1574269933634","821","0.24511719","-0.91796875","0.0703125","-10.03125","3.9375","1.15625"
"1574269933635","822","0.23339844","-0.9111328","0.059570312","-9.0625","2.4375","1.375"
"1574269933635","823","0.26464844","-0.89453125","0.0703125","-5.8125","-0.6875","1.5"
"1574269933635","824","0.22949219","-0.91308594","0.08496094","-3.25","2.4375","-0.1875"
"1574269933635","825","0.2109375","-0.90722656","0.068359375","-3.875","-5.03125","-2.625"
"1574269933636","826","0.22167969","-0.90625","0.06738281","-3.6875","-3.875","-4.78125"
"1574269933636","827","0.21777344","-0.9082031","0.06738281","-3.96875","1.28125","-4.71875"
"1574269933636","828","0.21484375","-0.8984375","0.061523438","-1.25","5.96875","-2.8125"
"1574269933637","829","0.23242188","-0.89941406","0.07519531","-3.875","7.84375","0.09375"
"1574269934030","830","0.2265625","-0.91015625","0.059570312","-6.25","10.96875","0.34375"
"1574269934030","831","0.2421875","-0.9111328","0.0546875","-4.09375","11.46875","3.03125"
"1574269934031","832","0.23828125","-0.9140625","0.061523438","-5.03125","9.875","0.0"
"1574269934031","833","0.25683594","-0.9189453","0.0703125","-0.25","7.625","0.40625"
"1574269934031","834","0.24121094","-0.9003906","0.05859375","0.40625","5.90625","-1.40625"
"1574269934031","835","0.23925781","-0.90527344","0.06933594","1.3125","3.78125","-2.03125"
"1574269934032","836","0.24511719","-0.9003906","0.052734375","3.59375","1.15625","-2.6875"
"1574269934032","837","0.24511719","-0.89453125","0.059570312","2.1875","2.84375","-2.34375"
"1574269934032","838","0.23730469","-0.91015625","0.06933594","0.53125","0.96875","-2.21875"
"1574269934032","839","0.25878906","-0.91015625","0.05859375","1.375","0.0","0.0"
"1574269934427","840","0.23535156","-0.89941406","0.08105469","-1.0","-1.90625","-0.3125"
"1574269934429","841","0.22460938","-0.8886719","0.07421875","0.59375","-2.9375","-1.125"
"1574269934429","842","0.22949219","-0.90722656","0.0703125","4.5","-2.09375","0.53125"
"1574269934430","843","0.23144531","-0.9082031","0.07519531","4.0625","-2.8125","-1.46875"
"1574269934430","844","0.22460938","-0.9033203","0.07910156","8.59375","0.09375","-1.3125"
"1574269934431","845","0.21777344","-0.91015625","0.0703125","13.90625","-2.53125","-2.9375"
"1574269934431","846","0.2265625","-0.91308594","0.119140625","9.6875","2.3125","-4.71875"
"1574269934431","847","0.23632812","-0.9160156","0.10546875","9.375","4.5625","-5.3125"
"1574269934432","848","0.21386719","-0.9042969","0.11425781","2.71875","6.46875","-6.0625"
"1574269934432","849","0.22460938","-0.91015625","0.1171875","3.09375","9.03125","-4.53125"
"1574269934826","850","0.26464844","-0.8984375","0.123046875","2.0","9.03125","-4.90625"
"1574269934826","851","0.2548828","-0.90234375","0.12792969","0.65625","7.375","-3.25"
"1574269934826","852","0.24707031","-0.9033203","0.12402344","-1.0625","4.3125","-2.9375"
"1574269934827","853","0.2705078","-0.8964844","0.123046875","3.09375","1.375","-0.375"
"1574269934827","854","0.26757812","-0.91015625","0.13183594","5.78125","2.4375","0.53125"
"1574269934827","855","0.2607422","-0.9111328","0.12011719","10.1875","0.78125","1.875"
"1574269934828","856","0.25390625","-0.90527344","0.13378906","10.84375","0.03125","3.46875"
"1574269934828","857","0.2421875","-0.9111328","0.14648438","10.3125","-1.96875","1.09375"
"1574269934828","858","0.23535156","-0.8984375","0.14160156","10.59375","1.03125","3.03125"
"1574269934828","859","0.24902344","-0.90234375","0.16503906","11.03125","4.0","3.71875"
"1574269935419","860","0.22851562","-0.9169922","0.17871094","4.9375","0.71875","-0.3125"
"1574269935420","861","0.22363281","-0.9033203","0.1796875","6.34375","2.5625","3.21875"
"1574269935420","862","0.23535156","-0.89746094","0.19335938","7.5","3.90625","0.46875"
"1574269935420","863","0.24316406","-0.90722656","0.17578125","4.9375","2.78125","2.1875"
"1574269935420","864","0.23242188","-0.9033203","0.19433594","2.375","5.21875","2.25"
"1574269935422","865","0.2265625","-0.89746094","0.19335938","2.5","1.6875","1.03125"
"1574269935423","866","0.234375","-0.90527344","0.19433594","0.90625","4.4375","2.125"
"1574269935423","867","0.22460938","-0.9091797","0.19824219","1.09375","0.09375","-0.5625"
"1574269935423","868","0.22363281","-0.8964844","0.19824219","-1.0","-3.5625","-2.21875"
"1574269935423","869","0.22167969","-0.89746094","0.20410156","0.28125","2.65625","-0.25"
"1574269935619","870","0.23046875","-0.92089844","0.18261719","-0.75","-2.34375","-3.6875"
"1574269935619","871","0.21679688","-0.91015625","0.19726562","0.59375","-4.40625","-1.125"
"1574269935620","872","0.2578125","-0.9082031","0.22070312","-4.40625","-0.0625","-0.875"
"1574269935620","873","0.20703125","-0.90234375","0.18945312","-2.9375","-12.59375","-3.1875"
"1574269935620","874","0.21777344","-0.921875","0.18164062","-0.9375","-9.28125","-3.0"
"1574269935620","875","0.25","-0.9082031","0.19628906","-3.125","-9.53125","-2.8125"
"1574269935620","876","0.21582031","-0.8779297","0.20800781","-5.5625","-8.75","-5.875"
"1574269935622","877","0.19140625","-0.9140625","0.15625","2.59375","-2.40625","-5.5"
"1574269935622","878","0.24511719","-0.9111328","0.19628906","-6.96875","0.28125","-3.8125"
"1574269935623","879","0.2626953","-0.9003906","0.19335938","-1.3125","-4.84375","-4.78125"
"1574269936214","880","0.21875","-0.8955078","0.16015625","-3.6875","-1.78125","-5.6875"
"1574269936214","881","0.26757812","-0.8720703","0.16308594","-7.53125","6.625","-1.1875"
"1574269936215","882","0.23828125","-0.85058594","0.17089844","-10.875","0.59375","-2.21875"
"1574269936215","883","0.25390625","-0.9091797","0.17089844","-12.34375","0.0","-4.71875"
"1574269936215","884","0.20898438","-0.89941406","0.13769531","-10.875","-7.875","-7.15625"
"1574269936215","885","0.28125","-0.9003906","0.12402344","-3.125","6.03125","-2.46875"
"1574269936215","886","0.28222656","-0.9003906","0.14160156","2.71875","7.5625","-2.15625"
"1574269936216","887","0.3017578","-0.9091797","0.15234375","-5.5625","9.4375","-0.3125"
"1574269936216","888","0.26171875","-0.90527344","0.15234375","-0.3125","7.1875","-2.625"
"1574269936217","889","0.24902344","-0.8925781","0.13769531","-9.84375","2.25","-3.6875"
"1574269936415","890","0.2890625","-0.9169922","0.1328125","2.5625","3.78125","-2.40625"
"1574269936416","891","0.24707031","-0.9003906","0.18164062","-7.78125","-1.1875","-6.53125"
"1574269936416","892","0.26757812","-0.87109375","0.123046875","0.96875","0.46875","-1.46875"
"1574269936416","893","0.29882812","-0.8984375","0.12402344","-2.53125","8.09375","1.5625"
"1574269936417","894","0.2783203","-0.9355469","0.15136719","-2.6875","-2.34375","3.59375"
"1574269936417","895","0.25","-0.86035156","0.13574219","4.125","2.65625","4.5625"
"1574269936417","896","0.2578125","-0.88964844","0.13476562","-0.6875","0.90625","3.21875"
"1574269936417","897","0.29003906","-0.92578125","0.12109375","5.34375","4.1875","4.1875"
"1574269936418","898","0.23144531","-0.8857422","0.14648438","-1.3125","0.59375","5.59375"
"1574269936418","899","0.22949219","-0.9433594","0.13476562","3.78125","7.625","2.65625"
"1574269937010","900","0.23144531","-0.91796875","0.18847656","-2.34375","2.4375","5.125"
"1574269937011","901","0.20214844","-0.89746094","0.14941406","-0.1875","4.875","-3.75"
"1574269937012","902","0.2763672","-0.90527344","0.14355469","-6.0","8.40625","4.6875"
"1574269937012","903","0.22265625","-0.8955078","0.12597656","2.0","7.5","1.75"
"1574269937012","904","0.27734375","-0.90722656","0.16699219","-1.0","4.375","8.71875"
"1574269937013","905","0.2919922","-0.9453125","0.15820312","-1.46875","-6.84375","3.03125"
"1574269937013","906","0.1484375","-0.86035156","0.13476562","0.59375","-6.78125","-0.875"
"1574269937013","907","0.20214844","-0.8857422","0.17089844","-0.4375","-1.90625","-4.59375"
"1574269937013","908","0.2421875","-0.9091797","0.1171875","7.4375","-0.875","-3.4375"
"1574269937014","909","0.21777344","-0.8769531","0.17089844","-6.71875","2.84375","-0.8125"
"1574269937407","910","0.24707031","-0.94921875","0.13574219","2.5","1.03125","0.46875"
"1574269937407","911","0.19726562","-0.8691406","0.16503906","-4.71875","2.78125","0.03125"
"1574269937407","912","0.24902344","-0.92285156","0.14257812","4.25","6.46875","-1.34375"
"1574269937409","913","0.22851562","-0.8984375","0.1640625","-4.21875","3.28125","-1.3125"
"1574269937409","914","0.25","-0.9277344","0.140625","4.75","1.6875","-0.875"
"1574269937409","915","0.20019531","-0.86816406","0.16796875","-4.40625","4.3125","-2.34375"
"1574269937409","916","0.27734375","-0.9560547","0.15917969","0.84375","3.21875","0.09375"
"1574269937410","917","0.20214844","-0.8779297","0.15234375","-0.5","1.28125","-2.15625"
"1574269937410","918","0.23144531","-0.93652344","0.15429688","1.75","1.6875","-2.15625"
"1574269937410","919","0.23535156","-0.8828125","0.1640625","0.78125","4.125","-2.6875"
"1574269937608","920","0.2685547","-0.9189453","0.15332031","-1.25","-0.0625","1.03125"
"1574269937608","921","0.23339844","-0.8984375","0.16210938","-0.75","1.5","-1.53125"
"1574269937609","922","0.22753906","-0.9111328","0.1640625","-2.625","-0.625","0.34375"
"1574269937609","923","0.22949219","-0.91308594","0.15820312","3.21875","2.25","-3.875"
"1574269937609","924","0.24609375","-0.890625","0.15917969","-3.3125","-0.3125","-1.1875"
"1574269937610","925","0.17382812","-0.9013672","0.15136719","1.4375","2.96875","-7.46875"
"1574269937611","926","0.27246094","-0.90722656","0.15917969","2.375","7.375","-3.75"
"1574269937611","927","0.26757812","-0.87109375","0.16308594","-3.5","-0.0625","0.0"
"1574269937611","928","0.2529297","-0.875","0.12597656","1.875","2.90625","0.09375"
"1574269937612","929","0.22949219","-0.8964844","0.18359375","-5.75","-2.625","-1.59375"
"1574269938004","930","0.23632812","-0.87890625","0.12109375","4.75","3.53125","-1.3125"
"1574269938004","931","0.22167969","-0.87597656","0.15820312","-6.78125","-3.1875","-2.59375"
"1574269938005","932","0.28222656","-0.91503906","0.08300781","6.8125","12.0625","4.6875"
"1574269938005","933","0.22363281","-0.9248047","0.21777344","-17.53125","-10.9375","-1.65625"
"1574269938005","934","0.2626953","-0.9042969","0.12890625","4.9375","3.59375","0.0"
"1574269938005","935","0.21777344","-0.8925781","0.18945312","-3.4375","-1.1875","-0.3125"
"1574269938006","936","0.2685547","-0.94140625","0.15722656","5.0625","5.53125","-0.625"
"1574269938007","937","0.21484375","-0.8935547","0.1796875","-1.34375","2.65625","-3.0625"
"1574269938007","938","0.2548828","-0.90234375","0.17773438","1.21875","1.4375","-4.15625"
"1574269938007","939","0.20507812","-0.8720703","0.1796875","-6.5","2.0","-2.09375"
"1574269938402","940","0.26757812","-0.90625","0.10839844","1.6875","12.1875","1.5625"
"1574269938402","941","0.25878906","-0.9345703","0.23632812","-0.5","15.25","1.4375"
"1574269938402","942","0.25097656","-0.89941406","0.12792969","1.75","11.59375","4.1875"
"1574269938402","943","0.21582031","-0.9033203","0.16015625","-3.3125","8.40625","7.625"
"1574269938403","944","0.22363281","-0.9316406","0.1796875","7.25","8.34375","-0.375"
"1574269938403","945","0.2265625","-0.9140625","0.1875","8.21875","0.03125","-1.53125"
"1574269938403","946","0.27148438","-0.9082031","0.19433594","0.21875","10.25","4.5625"
"1574269938403","947","0.19628906","-0.91308594","0.22851562","-6.71875","3.15625","-1.0"
"1574269938404","948","0.14453125","-0.8984375","0.171875","-5.4375","3.28125","-3.75"
"1574269938405","949","0.23339844","-0.9248047","0.16894531","-6.65625","7.1875","-0.625"
"1574269938800","950","0.26367188","-0.89160156","0.19628906","-6.90625","4.8125","0.28125"
"1574269938801","951","0.17773438","-0.9033203","0.17675781","-7.53125","1.4375","-3.0"
"1574269938801","952","0.20117188","-0.93652344","0.16503906","-3.6875","4.875","-1.3125"
"1574269938801","953","0.2265625","-0.9111328","0.19238281","-7.40625","3.34375","-1.1875"
"1574269938802","954","0.19238281","-0.88964844","0.16699219","-8.25","2.0","-3.96875"
"1574269938802","955","0.21875","-0.8955078","0.16992188","-9.65625","5.1875","-4.59375"
"1574269938802","956","0.24316406","-0.9033203","0.13769531","-8.375","7.96875","-1.84375"
"1574269938802","957","0.22363281","-0.921875","0.14648438","-11.78125","1.5625","-3.5625"
"1574269938802","958","0.2578125","-0.8857422","0.13769531","-3.6875","4.625","0.71875"
"1574269938803","959","0.22558594","-0.9140625","0.16503906","-12.71875","0.09375","-1.34375"
"1574269939199","960","0.24902344","-0.89160156","0.11230469","-12.84375","-2.9375","-0.625"
"1574269939201","961","0.24609375","-0.88183594","0.123046875","-10.40625","-2.34375","5.65625"
"1574269939201","962","0.21191406","-0.93847656","0.1328125","-12.84375","-5.9375","2.0"
"1574269939201","963","0.19238281","-0.89160156","0.07519531","-7.15625","-4.28125","2.25"
"1574269939202","964","0.26367188","-0.8886719","0.10449219","-10.40625","2.96875","1.75"
"1574269939202","965","0.23339844","-0.9199219","0.080078125","-13.1875","1.03125","0.0"
"1574269939202","966","0.24121094","-0.8984375","0.0703125","0.65625","7.5","3.34375"
"1574269939202","967","0.16992188","-0.9296875","0.0703125","-0.5","-1.53125","-2.875"
"1574269939203","968","0.21875","-0.9248047","0.056640625","5.78125","2.65625","-6.78125"
"1574269939203","969","0.25878906","-0.8935547","0.11035156","-0.375","3.84375","-4.96875"
"1574269939595","970","0.23535156","-0.88378906","0.09667969","-1.65625","7.96875","-3.625"
"1574269939596","971","0.21972656","-0.9355469","0.08203125","-6.53125","2.78125","-0.875"
"1574269939596","972","0.25097656","-0.9042969","0.09863281","-5.21875","2.65625","-0.125"
"1574269939597","973","0.22949219","-0.87597656","0.076171875","-3.1875","2.375","-0.6875"
"1574269939598","974","0.24414062","-0.9140625","0.07714844","-2.75","0.84375","-0.25"
"1574269939598","975","0.20605469","-0.90625","0.09863281","-3.375","1.28125","-1.90625"
"1574269939598","976","0.23828125","-0.9111328","0.08203125","-1.78125","3.65625","-0.625"
"1574269939599","977","0.24023438","-0.89941406","0.0703125","-2.28125","3.59375","0.65625"
"1574269939599","978","0.23144531","-0.9042969","0.08105469","-2.46875","5.28125","0.34375"
"1574269939600","979","0.24121094","-0.9003906","0.07421875","0.03125","6.875","2.90625"
"1574269939991","980","0.23535156","-0.9042969","0.068359375","-1.1875","3.34375","0.84375"
"1574269939992","981","0.22460938","-0.9013672","0.0703125","-0.6875","0.0","-1.125"
"1574269939992","982","0.23730469","-0.92089844","0.07324219","1.3125","-0.5","-1.40625"
"1574269939992","983","0.22363281","-0.90625","0.07714844","1.4375","-1.96875","-2.34375"
"1574269939993","984","0.22949219","-0.9013672","0.083984375","1.3125","0.84375","-1.0"
"1574269939994","985","0.21679688","-0.90625","0.08691406","-0.0625","-2.46875","-2.15625"
"1574269939994","986","0.21972656","-0.9199219","0.08105469","-0.5","1.6875","-2.6875"
"1574269939994","987","0.20605469","-0.90625","0.07519531","-0.5","-1.3125","-4.28125"
"1574269939995","988","0.21777344","-0.9033203","0.08203125","-0.875","-0.25","-6.3125"
"1574269939995","989","0.22851562","-0.91308594","0.08203125","0.46875","4.4375","-6.1875"
"1574269940390","990","0.22460938","-0.90527344","0.09277344","-3.0625","5.84375","-4.53125"
"1574269940391","991","0.23046875","-0.9003906","0.080078125","-1.59375","3.15625","-5.5625"
"1574269940391","992","0.25195312","-0.9082031","0.080078125","-0.6875","3.40625","-1.84375"
"1574269940391","993","0.23535156","-0.89160156","0.099609375","-1.96875","5.40625","-3.0"
"1574269940391","994","0.25390625","-0.90625","0.08105469","2.25","2.96875","-0.625"
"1574269940392","995","0.24804688","-0.9042969","0.07910156","2.4375","0.78125","-0.375"
"1574269940392","996","0.25585938","-0.90527344","0.09375","4.75","-0.875","0.65625"
"1574269940393","997","0.24511719","-0.9033203","0.09082031","7.84375","-0.375","0.0"
"1574269940393","998","0.24902344","-0.9013672","0.1015625","7.125","1.375","2.25"
"1574269940394","999","0.22460938","-0.90527344","0.109375","5.96875","-2.6875","0.03125"
"1574269940986","1000","0.25585938","-0.9121094","0.103515625","9.25","0.34375","3.03125"
"1574269940986","1001","0.24316406","-0.8935547","0.11816406","8.90625","1.4375","2.375"
"1574269940987","1002","0.22070312","-0.890625","0.11621094","11.09375","-2.46875","1.375"
"1574269940987","1003","0.24316406","-0.9160156","0.12402344","8.71875","2.25","2.65625"
"1574269940987","1004","0.22753906","-0.9111328","0.14160156","5.84375","-0.5625","-1.0625"
"1574269940988","1005","0.22070312","-0.89160156","0.140625","1.15625","-0.4375","0.53125"
"1574269940988","1006","0.22460938","-0.91015625","0.13378906","0.78125","0.65625","-0.3125"
"1574269940988","1007","0.23046875","-0.91503906","0.15332031","4.75","2.0","0.0"
"1574269940988","1008","0.22460938","-0.8964844","0.12402344","4.4375","1.5625","1.3125"
"1574269940989","1009","0.24121094","-0.9189453","0.15332031","4.6875","4.0625","2.71875"
"1574269941580","1010","0.21777344","-0.90234375","0.15722656","5.78125","0.0","-0.625"
"1574269941581","1011","0.2265625","-0.9082031","0.15625","3.34375","-1.1875","1.5625"
"1574269941581","1012","0.20605469","-0.9111328","0.17285156","5.59375","-0.75","-1.3125"
"1574269941582","1013","0.19726562","-0.89453125","0.14648438","7.125","0.15625","-2.15625"
"1574269941582","1014","0.21777344","-0.9091797","0.15136719","11.03125","2.90625","-0.1875"
"1574269941582","1015","0.24121094","-0.8964844","0.19726562","6.15625","4.0625","0.0"
"1574269941583","1016","0.23242188","-0.8964844","0.19335938","7.5","1.625","-1.25"
"1574269941583","1017","0.26464844","-0.92285156","0.20214844","3.53125","-1.0","0.53125"
"1574269941583","1018","0.20507812","-0.91308594","0.22753906","-1.1875","-9.125","-3.96875"
"1574269941583","1019","0.18066406","-0.8964844","0.20214844","1.6875","-7.53125","-2.15625"
"1574269941779","1020","0.23535156","-0.9267578","0.22753906","1.5625","-7.9375","-1.53125"
"1574269941780","1021","0.21875","-0.94433594","0.19140625","13.21875","-14.3125","-7.09375"
"1574269941780","1022","0.13769531","-0.9267578","0.20507812","11.65625","-15.34375","-5.9375"
"1574269941781","1023","0.15527344","-0.8203125","0.24511719","-1.0","7.625","-12.65625"
"1574269941782","1024","0.265625","-0.87890625","0.23339844","-6.1875","10.96875","-14.59375"
"1574269941782","1025","0.33984375","-0.94628906","0.13476562","-2.46875","14.9375","-5.4375"
"1574269941783","1026","0.28027344","-0.8691406","0.21484375","-5.09375","9.625","-1.0"
"1574269941783","1027","0.19433594","-0.8701172","0.16503906","1.625","3.65625","-5.15625"
"1574269941783","1028","0.2626953","-0.8544922","0.17089844","4.875","3.34375","-6.0"
"1574269941783","1029","0.30566406","-0.95214844","0.23242188","-8.0","3.9375","-2.03125"
"1574269941979","1030","0.2705078","-0.90722656","0.23828125","-7.40625","-8.5625","-6.96875"
"1574269941980","1031","0.27539062","-0.86621094","0.17382812","2.5625","7.5625","1.21875"
"1574269941980","1032","0.32714844","-0.9111328","0.18164062","-8.5","-4.21875","2.1875"
"1574269941981","1033","0.24414062","-0.9013672","0.21582031","-6.375","-8.8125","-1.0625"
"1574269941981","1034","0.2109375","-0.890625","0.15136719","-1.1875","-0.3125","-0.1875"
"1574269941981","1035","0.3154297","-0.9189453","0.24023438","-2.34375","7.5","2.96875"
"1574269941981","1036","0.26171875","-0.89941406","0.17089844","2.78125","-9.15625","2.0"
"1574269941982","1037","0.22949219","-0.91308594","0.25097656","3.84375","-5.5","5.78125"
"1574269941982","1038","0.23339844","-0.8769531","0.12695312","11.40625","7.6875","7.125"
"1574269941982","1039","0.28710938","-0.94140625","0.2841797","-5.4375","-3.0","8.71875"
"1574269942376","1040","0.24511719","-0.8330078","0.16699219","-0.5","8.40625","4.3125"
"1574269942377","1041","0.20703125","-0.93066406","0.25878906","-7.875","-9.90625","1.21875"
"1574269942377","1042","0.17871094","-0.8652344","0.10839844","0.15625","10.71875","-6.78125"
"1574269942377","1043","0.35546875","-0.94921875","0.2548828","-7.03125","5.1875","8.03125"
"1574269942377","1044","0.203125","-0.8222656","0.14941406","-2.59375","-8.4375","-7.78125"
"1574269942378","1045","0.23730469","-0.9580078","0.23535156","-7.65625","5.71875","5.78125"
"1574269942379","1046","0.16210938","-0.8720703","0.12792969","2.96875","-4.34375","-9.96875"
"1574269942379","1047","0.34277344","-0.9277344","0.25683594","-4.78125","5.84375","7.8125"
"1574269942379","1048","0.16894531","-0.8769531","0.14648438","-0.375","-2.34375","-8.0"
"1574269942380","1049","0.25390625","-0.94140625","0.21875","-7.15625","5.1875","9.25"
"1574269942970","1050","0.22558594","-0.90527344","0.16503906","-2.21875","3.65625","-2.875"
"1574269942971","1051","0.28222656","-0.91015625","0.18261719","-2.6875","10.125","9.03125"
"1574269942971","1052","0.23925781","-0.92578125","0.1484375","0.65625","-1.0625","0.90625"
"1574269942971","1053","0.24804688","-0.9042969","0.2109375","-0.4375","3.9375","7.125"
"1574269942971","1054","0.15527344","-0.89160156","0.16308594","-0.5625","-4.65625","-5.3125"
"1574269942972","1055","0.23242188","-0.9160156","0.18847656","-2.34375","4.125","-3.0625"
"1574269942972","1056","0.21582031","-0.9003906","0.17773438","-3.0","2.125","-4.15625"
"1574269942973","1057","0.24414062","-0.90625","0.18945312","-3.75","4.0625","0.65625"
"1574269942974","1058","0.19042969","-0.890625","0.18847656","-4.59375","0.21875","-3.5625"
"1574269942974","1059","0.22949219","-0.92089844","0.16601562","5.34375","7.375","-1.71875"
"1574269943370","1060","0.234375","-0.87597656","0.1875","-5.6875","1.9375","-2.8125"
"1574269943371","1061","0.2529297","-0.9248047","0.16699219","-0.1875","2.78125","1.625"
"1574269943371","1062","0.21679688","-0.90234375","0.17675781","-2.9375","1.28125","-1.125"
"1574269943371","1063","0.21777344","-0.90625","0.1796875","1.625","2.1875","1.375"
"1574269943371","1064","0.2421875","-0.9033203","0.18945312","-1.59375","3.34375","-1.84375"
"1574269943372","1065","0.20214844","-0.8984375","0.17480469","0.21875","0.90625","-0.375"
"1574269943372","1066","0.2421875","-0.9121094","0.18652344","-3.1875","2.90625","-1.0"
"1574269943372","1067","0.23925781","-0.8935547","0.171875","-1.90625","1.09375","-1.90625"
"1574269943372","1068","0.22558594","-0.91796875","0.19628906","-0.75","-1.3125","-0.875"
"1574269943375","1069","0.23828125","-0.9003906","0.17285156","1.09375","3.03125","-1.40625"
"1574269943569","1070","0.22851562","-0.91015625","0.1953125","0.21875","-2.15625","-1.59375"
"1574269943569","1071","0.20019531","-0.9033203","0.17382812","1.21875","1.03125","-3.25"
"1574269943570","1072","0.23339844","-0.9033203","0.18457031","-1.125","2.65625","-2.625"
"1574269943570","1073","0.24902344","-0.8964844","0.1796875","-0.9375","3.53125","-1.53125"
"1574269943570","1074","0.20898438","-0.890625","0.17382812","-0.625","1.8125","-3.25"
"1574269943570","1075","0.23632812","-0.9082031","0.18164062","0.28125","5.65625","-2.03125"
"1574269943571","1076","0.24121094","-0.890625","0.17871094","-0.75","3.34375","-5.15625"
"1574269943571","1077","0.24023438","-0.8857422","0.17871094","-7.46875","3.9375","-1.96875"
"1574269943571","1078","0.29785156","-0.9267578","0.16992188","2.5625","4.75","0.78125"
"1574269943571","1079","0.23632812","-0.90234375","0.17871094","-4.96875","1.09375","-1.59375"
"1574269943967","1080","0.2548828","-0.9160156","0.18164062","1.03125","0.21875","0.53125"
"1574269943968","1081","0.20410156","-0.87890625","0.1796875","-3.90625","8.53125","-2.875"
"1574269943968","1082","0.2734375","-0.9296875","0.17773438","0.15625","4.6875","-1.0625"
"1574269943969","1083","0.23632812","-0.88671875","0.1796875","-6.65625","7.4375","-1.0625"
"1574269943969","1084","0.22460938","-0.9277344","0.19433594","-6.25","1.28125","-4.09375"
"1574269943969","1085","0.24902344","-0.8691406","0.18554688","-6.1875","10.78125","-1.1875"
"1574269943970","1086","0.2548828","-0.9121094","0.14355469","-7.875","5.53125","-4.21875"
"1574269943970","1087","0.25","-0.9326172","0.18554688","-13.4375","4.5","2.5625"
"1574269943970","1088","0.19042969","-0.8671875","0.08691406","-8.5625","6.8125","-6.0"
"1574269943970","1089","0.3017578","-0.94433594","0.19628906","-7.8125","9.4375","6.15625"
"1574269944365","1090","0.25390625","-0.90234375","0.13085938","-8.125","11.09375","-0.75"
"1574269944366","1091","0.18457031","-0.9033203","0.14355469","-4.40625","-1.65625","-2.53125"
"1574269944366","1092","0.265625","-0.8886719","0.119140625","-4.09375","14.15625","-1.1875"
"1574269944367","1093","0.25195312","-0.9082031","0.1484375","-11.0","1.375","3.53125"
"1574269944367","1094","0.25390625","-0.91796875","0.14453125","-11.6875","1.03125","0.21875"
"1574269944367","1095","0.1953125","-0.92089844","0.109375","-3.4375","-2.6875","0.09375"
"1574269944368","1096","0.19628906","-0.89941406","0.12890625","-3.5625","-0.625","-1.0625"
"1574269944368","1097","0.21191406","-0.89941406","0.10839844","-2.21875","6.625","-2.34375"
"1574269944368","1098","0.23925781","-0.9199219","0.14257812","-6.71875","1.3125","-2.6875"
"1574269944368","1099","0.21289062","-0.8935547","0.1171875","-6.25","4.875","-1.1875"
"1574269944960","1100","0.25683594","-0.90234375","0.09863281","-5.15625","7.3125","0.0"
"1574269944960","1101","0.26367188","-0.9267578","0.12011719","-4.46875","4.0","-1.96875"
"1574269944960","1102","0.22070312","-0.91015625","0.11425781","-2.03125","1.9375","-0.9375"
"1574269944961","1103","0.22949219","-0.8876953","0.10644531","-1.0625","0.28125","-2.75"
"1574269944961","1104","0.22167969","-0.90234375","0.115234375","-2.8125","0.65625","-5.875"
"1574269944961","1105","0.2548828","-0.9003906","0.10058594","-8.5","1.28125","-2.6875"
"1574269944961","1106","0.2841797","-0.9121094","0.103515625","-5.25","8.21875","2.125"
"1574269944962","1107","0.20507812","-0.9111328","0.099609375","-4.53125","0.09375","-3.5"
"1574269944962","1108","0.25683594","-0.88964844","0.07910156","-2.03125","5.28125","3.71875"
"1574269944962","1109","0.23730469","-0.87890625","0.08203125","-2.6875","7.1875","0.71875"
"1574269945357","1110","0.30273438","-0.9423828","0.09277344","1.6875","5.53125","2.90625"
"1574269945357","1111","0.28027344","-0.8798828","0.107421875","-7.53125","5.1875","0.90625"
"1574269945358","1112","0.16796875","-0.93066406","0.09765625","-3.3125","6.625","6.875"
"1574269945358","1113","0.23339844","-0.8886719","0.07714844","14.375","3.21875","1.75"
"1574269945358","1114","0.30078125","-0.890625","0.11328125","-5.15625","-17.78125","-11.5"
"1574269945358","1115","0.13574219","-0.9404297","0.15039062","7.4375","-1.46875","-6.59375"
"1574269945359","1116","0.20703125","-0.89453125","0.111328125","7.8125","9.25","0.28125"
"1574269945359","1117","0.24707031","-0.9111328","0.09765625","0.34375","2.78125","1.375"
"1574269945359","1118","0.23339844","-0.8955078","0.11816406","4.0625","11.03125","3.03125"
"1574269945359","1119","0.2421875","-0.9111328","0.119140625","6.21875","15.0625","5.65625"
"1574269945559","1120","0.23730469","-0.9003906","0.123046875","4.1875","11.28125","5.21875"
"1574269945560","1121","0.24804688","-0.89941406","0.125","3.90625","13.28125","5.46875"
"1574269945560","1122","0.21972656","-0.9277344","0.13378906","4.3125","8.34375","2.0"
"1574269945560","1123","0.23730469","-0.90527344","0.12597656","3.53125","3.59375","-0.1875"
"1574269945560","1124","0.23046875","-0.8984375","0.13476562","3.40625","3.53125","-0.4375"
"1574269945561","1125","0.22070312","-0.8984375","0.14257812","-2.21875","1.8125","-1.78125"
"1574269945564","1126","0.23730469","-0.91503906","0.12890625","4.25","2.375","-1.1875"
"1574269945565","1127","0.22851562","-0.9111328","0.14941406","-1.1875","-0.625","-1.0"
"1574269945565","1128","0.21191406","-0.8955078","0.140625","-3.96875","-2.8125","-2.875"
"1574269945566","1129","0.22363281","-0.9033203","0.14648438","0.90625","-2.40625","-1.78125"
"1574269946153","1130","0.21289062","-0.9160156","0.14550781","-2.625","-5.4375","-3.125"
"1574269946154","1131","0.2109375","-0.9111328","0.1484375","-1.84375","-2.8125","-2.9375"
"1574269946154","1132","0.2109375","-0.9082031","0.1328125","-3.5","-0.5","-3.6875"
"1574269946154","1133","0.22070312","-0.9042969","0.13476562","-5.375","2.3125","-2.09375"
"1574269946155","1134","0.23046875","-0.91503906","0.13769531","-8.25","3.9375","-3.1875"
"1574269946155","1135","0.21191406","-0.90234375","0.13183594","-6.125","2.0","-4.59375"
"1574269946155","1136","0.22265625","-0.89160156","0.119140625","-4.53125","1.4375","-4.40625"
"1574269946155","1137","0.25683594","-0.9160156","0.12402344","-2.03125","3.15625","-6.4375"
"1574269946156","1138","0.21582031","-0.9238281","0.123046875","5.71875","-0.875","-6.53125"
"1574269946156","1139","0.25","-0.8847656","0.12988281","1.875","6.03125","-3.8125"
"1574269946354","1140","0.27246094","-0.9121094","0.13476562","4.3125","6.8125","-2.75"
"1574269946356","1141","0.23535156","-0.8876953","0.13476562","1.09375","3.71875","-4.09375"
"1574269946357","1142","0.24511719","-0.9091797","0.140625","3.90625","4.8125","-0.8125"
"1574269946357","1143","0.28125","-0.93652344","0.16015625","3.78125","7.90625","1.21875"
"1574269946357","1144","0.23339844","-0.85839844","0.10644531","1.4375","4.1875","-1.1875"
"1574269946358","1145","0.20410156","-0.9013672","0.17773438","3.34375","0.65625","0.96875"
"1574269946358","1146","0.28808594","-0.9375","0.15136719","-2.53125","3.9375","-0.375"
"1574269946358","1147","0.28710938","-0.9082031","0.15820312","-4.59375","-2.53125","3.90625"
"1574269946358","1148","0.18359375","-0.8623047","0.13867188","2.78125","-1.34375","-0.25"
"1574269946359","1149","0.23925781","-0.94921875","0.13964844","-2.59375","1.3125","2.0"
"1574269946948","1150","0.23144531","-0.8925781","0.14160156","2.90625","-0.5","2.65625"
"1574269946948","1151","0.23828125","-0.9082031","0.15625","0.40625","0.71875","0.90625"
"1574269946948","1152","0.20800781","-0.90234375","0.15429688","-2.46875","-1.71875","-0.125"
"1574269946950","1153","0.24707031","-0.9199219","0.14355469","-4.46875","-0.6875","-2.09375"
"1574269946950","1154","0.21582031","-0.9121094","0.1484375","-0.875","-2.03125","-1.0625"
"1574269946950","1155","0.24316406","-0.90722656","0.1484375","-3.875","1.5625","-0.5"
"1574269946950","1156","0.21875","-0.90234375","0.14355469","-3.875","2.3125","-3.1875"
"1574269946951","1157","0.24511719","-0.9345703","0.13574219","2.4375","6.8125","-1.78125"
"1574269946951","1158","0.21386719","-0.9199219","0.18066406","-3.0","0.0","-8.25"
"1574269946951","1159","0.2626953","-0.88183594","0.13671875","-2.6875","3.28125","-4.03125"
"1574269947148","1160","0.27929688","-0.9277344","0.15820312","-4.34375","2.71875","-6.96875"
"1574269947148","1161","0.25","-0.89160156","0.111328125","-1.25","-13.5","-6.125"
"1574269947149","1162","0.25683594","-0.8691406","0.14648438","-3.625","1.8125","-4.84375"
"1574269947149","1163","0.26660156","-0.91015625","0.12792969","-2.28125","-0.9375","-5.3125"
"1574269947149","1164","0.2861328","-0.91015625","0.14257812","-5.15625","2.65625","-1.96875"
"1574269947151","1165","0.26464844","-0.89160156","0.10644531","-7.46875","-3.0625","-1.46875"
"1574269947151","1166","0.2626953","-0.89746094","0.12792969","-0.6875","-2.40625","-1.0625"
"1574269947151","1167","0.23632812","-0.89941406","0.13378906","-0.75","-2.9375","-6.1875"
"1574269947151","1168","0.23925781","-0.91308594","0.13964844","-4.15625","-4.28125","-6.78125"
"1574269947152","1169","0.2626953","-0.9121094","0.12890625","-5.3125","-2.8125","-6.53125"
"1574269947545","1170","0.2685547","-0.88671875","0.107421875","-6.3125","-2.15625","-5.15625"
"1574269947545","1171","0.30859375","-0.9189453","0.06738281","6.40625","-4.53125","4.6875"
"1574269947546","1172","0.23242188","-0.91015625","0.16796875","-12.65625","-6.25","0.71875"
"1574269947546","1173","0.22460938","-0.86328125","0.10058594","-8.8125","-0.875","-10.9375"
"1574269947546","1174","0.2607422","-0.90527344","0.06542969","-11.0","2.1875","-3.5625"
"1574269947546","1175","0.28222656","-0.91015625","0.08984375","-7.65625","7.1875","-9.28125"
"1574269947547","1176","0.27148438","-0.9003906","0.09863281","2.65625","6.03125","-6.1875"
"1574269947548","1177","0.29101562","-0.8808594","0.12207031","-0.9375","8.65625","-1.90625"
"1574269947548","1178","0.29296875","-0.91796875","0.08203125","-0.3125","7.0625","-2.625"
"1574269947548","1179","0.3076172","-0.8857422","0.072265625","8.15625","6.9375","2.78125"
"1574269947941","1180","0.2705078","-0.87109375","0.10253906","2.25","1.15625","0.28125"
"1574269947942","1181","0.33496094","-0.8955078","0.119140625","2.5625","5.65625","0.65625"
"1574269947942","1182","0.2861328","-0.90234375","0.09765625","-0.0625","-5.8125","-1.40625"
"1574269947943","1183","0.24902344","-0.89160156","0.07519531","-1.40625","-1.90625","0.28125"
"1574269947943","1184","0.34277344","-0.92285156","0.13476562","-0.875","2.78125","2.78125"
"1574269947943","1185","0.25097656","-0.8671875","0.07714844","-2.9375","-6.53125","1.6875"
"1574269947943","1186","0.31347656","-0.9267578","0.125","-6.375","4.5","6.6875"
"1574269947944","1187","0.25585938","-0.85839844","0.07324219","-10.03125","-1.71875","2.0"
"1574269947944","1188","0.31835938","-0.90625","0.09375","-6.0","1.09375","9.6875"
"1574269947945","1189","0.171875","-0.859375","0.037109375","1.09375","-4.21875","-6.84375"
"1574269948340","1190","0.2529297","-0.9404297","0.15136719","-0.1875","2.5","2.125"
"1574269948341","1191","0.29003906","-0.90234375","0.059570312","6.8125","5.0","-3.90625"
"1574269948341","1192","0.26953125","-0.9091797","0.12109375","1.21875","0.0","2.5"
"1574269948341","1193","0.25390625","-0.8925781","0.09472656","-2.46875","2.375","0.84375"
"1574269948342","1194","0.28125","-0.9013672","0.091796875","-1.59375","4.5","2.375"
"1574269948342","1195","0.25390625","-0.90527344","0.09472656","-1.90625","2.4375","0.03125"
"1574269948342","1196","0.2685547","-0.91796875","0.08886719","5.59375","2.90625","1.3125"
"1574269948342","1197","0.2890625","-0.8964844","0.115234375","0.0","1.75","2.5625"
"1574269948343","1198","0.23339844","-0.8730469","0.1015625","0.59375","-1.40625","-1.71875"
"1574269948343","1199","0.19433594","-0.8701172","0.095703125","-5.09375","3.84375","-5.9375"
"1574269948935","1200","0.25097656","-0.9433594","0.10546875","-1.0","7.0625","-1.53125"
"1574269948936","1201","0.30664062","-0.89746094","0.109375","1.3125","11.9375","-2.15625"
"1574269948937","1202","0.24511719","-0.8730469","0.12890625","-8.8125","-0.5625","-1.34375"
"1574269948937","1203","0.28320312","-0.9140625","0.0859375","1.625","10.46875","1.03125"
"1574269948937","1204","0.25","-0.90722656","0.10644531","-5.21875","2.59375","-0.8125"
"1574269948937","1205","0.29003906","-0.90625","0.09765625","2.0625","2.3125","1.5"
"1574269948938","1206","0.23828125","-0.8769531","0.095703125","0.15625","3.03125","-2.40625"
"1574269948938","1207","0.2705078","-0.92578125","0.11035156","-0.1875","1.5","0.71875"
"1574269948938","1208","0.25390625","-0.8798828","0.103515625","0.09375","2.4375","-4.46875"
"1574269948938","1209","0.28320312","-0.9267578","0.10644531","-3.0","-1.53125","1.5625"
"1574269949134","1210","0.234375","-0.8935547","0.10253906","-0.4375","1.6875","-4.21875"
"1574269949134","1211","0.25683594","-0.88671875","0.10058594","-4.21875","1.5","1.09375"
"1574269949135","1212","0.25976562","-0.9082031","0.09472656","-2.09375","1.28125","-3.375"
"1574269949136","1213","0.26660156","-0.8955078","0.09472656","-2.34375","2.59375","0.40625"
"1574269949136","1214","0.2763672","-0.9003906","0.099609375","-4.96875","-2.03125","-2.09375"
"1574269949136","1215","0.23144531","-0.8984375","0.08886719","1.28125","-1.40625","-2.53125"
"1574269949137","1216","0.25683594","-0.89453125","0.10839844","-2.6875","0.40625","-3.5"
"1574269949137","1217","0.27246094","-0.9160156","0.08300781","-1.0625","2.71875","-2.09375"
"1574269949137","1218","0.26660156","-0.8964844","0.10253906","-3.0625","-2.46875","-2.03125"
"1574269949137","1219","0.24316406","-0.8857422","0.09472656","-1.34375","5.1875","-2.53125"
"1574269949531","1220","0.2998047","-0.9345703","0.10058594","-3.375","0.84375","0.90625"
"1574269949532","1221","0.2529297","-0.8847656","0.08886719","-0.0625","1.4375","-2.625"
"1574269949532","1222","0.25976562","-0.89453125","0.08886719","-4.84375","0.78125","-1.0"
"1574269949532","1223","0.29492188","-0.9121094","0.08496094","2.0","2.5625","-1.34375"
"1574269949533","1224","0.25","-0.90527344","0.09667969","-3.3125","-0.5","-1.90625"
"1574269949534","1225","0.27246094","-0.8876953","0.091796875","-0.3125","3.53125","-1.25"
"1574269949534","1226","0.2548828","-0.89941406","0.08496094","-5.09375","0.90625","-2.21875"
"1574269949535","1227","0.3076172","-0.90527344","0.07519531","1.15625","2.125","1.09375"
"1574269949535","1228","0.26367188","-0.8798828","0.08691406","-1.71875","0.09375","-2.40625"
"1574269949535","1229","0.20605469","-0.8769531","0.060546875","6.21875","-1.78125","-4.46875"
"1574269950326","1230","0.32617188","-0.90625","0.14160156","-3.125","8.40625","-1.125"
"1574269950326","1231","0.3095703","-0.90722656","0.056640625","-0.9375","-0.4375","-3.625"
"1574269950327","1232","0.26464844","-0.89160156","0.09082031","-3.625","-2.46875","3.46875"
"1574269950328","1233","0.23535156","-0.87402344","0.061523438","5.40625","4.1875","-4.59375"
"1574269950329","1234","0.31054688","-0.9169922","0.11816406","4.9375","6.5625","2.5625"
"1574269950329","1235","0.2919922","-0.9013672","0.08300781","5.40625","3.34375","-3.6875"
"1574269950329","1236","0.24023438","-0.9003906","0.13964844","-5.15625","1.9375","0.0"
"1574269950331","1237","0.29882812","-0.90234375","0.061523438","0.0","7.90625","0.34375"
"1574269950331","1238","0.24316406","-0.89941406","0.1484375","-12.28125","4.0625","1.625"
"1574269950331","1239","0.2998047","-0.8857422","0.040039062","1.15625","12.375","-0.4375"
"1574269950332","1240","0.27441406","-0.88671875","0.13378906","-7.875","2.78125","1.875"
"1574269950332","1241","0.29296875","-0.9033203","0.0546875","6.5625","8.21875","2.65625"
"1574269950332","1242","0.24414062","-0.9033203","0.12207031","-4.15625","-2.28125","2.84375"
"1574269950333","1243","0.2578125","-0.9013672","0.06542969","0.84375","4.5625","1.75"
"1574269950333","1244","0.23535156","-0.88671875","0.12109375","-12.03125","2.0625","2.84375"
"1574269950333","1245","0.28320312","-0.9003906","0.07421875","-1.25","12.125","5.21875"
"1574269950333","1246","0.2919922","-0.91308594","0.13183594","-2.21875","3.65625","6.21875"
"1574269950334","1247","0.19824219","-0.9121094","0.072265625","1.03125","-7.15625","4.0625"
"1574269950334","1248","0.20410156","-0.890625","0.080078125","-6.25","-1.59375","-0.125"
"1574269950334","1249","0.29003906","-0.91796875","0.099609375","-5.3125","-1.34375","-0.625"
"1574269950724","1250","0.23242188","-0.9169922","0.10449219","-6.59375","1.9375","-1.59375"
"1574269950725","1251","0.20214844","-0.92285156","0.05859375","-3.5625","-1.53125","-0.875"
"1574269950725","1252","0.22363281","-0.9013672","0.11328125","-5.03125","2.3125","-6.5"
"1574269950725","1253","0.23339844","-0.9033203","0.06738281","-2.59375","5.84375","-3.875"
"1574269950726","1254","0.27441406","-0.9091797","0.08886719","-6.25","6.9375","-4.96875"
"1574269950726","1255","0.25","-0.8876953","0.06640625","-10.40625","-2.75","-3.5"
"1574269950726","1256","0.23730469","-0.90625","0.07910156","-5.875","0.90625","-2.875"
"1574269950726","1257","0.27441406","-0.89160156","0.06738281","-6.96875","0.28125","-2.28125"
"1574269950726","1258","0.25195312","-0.89160156","0.06640625","-4.71875","0.34375","-2.15625"
"1574269950727","1259","0.24609375","-0.8847656","0.05078125","-5.9375","-0.8125","1.09375"
"1574269951123","1260","0.2861328","-0.8935547","0.047851562","-3.25","2.78125","4.0"
"1574269951123","1261","0.24804688","-0.9140625","0.047851562","-7.34375","-1.1875","0.90625"
"1574269951124","1262","0.29492188","-0.87890625","0.015625","-4.46875","0.15625","4.9375"
"1574269951124","1263","0.22460938","-0.91796875","0.053710938","-4.28125","-2.9375","0.0"
"1574269951124","1264","0.22949219","-0.9111328","0.01171875","4.0625","2.65625","1.75"
"1574269951125","1265","0.24609375","-0.8955078","0.07519531","-2.40625","1.75","0.34375"
"1574269951125","1266","0.21875","-0.9169922","0.036132812","-6.90625","5.46875","-1.1875"
"1574269951125","1267","0.25878906","-0.9140625","0.044921875","-6.0625","3.28125","-0.5"
"1574269951125","1268","0.23144531","-0.8984375","0.046875","-5.25","3.34375","-2.53125"
"1574269951126","1269","0.24902344","-0.8847656","0.0390625","-1.46875","3.65625","0.71875"
"1574269951519","1270","0.25878906","-0.8964844","0.049804688","-2.6875","5.53125","2.25"
"1574269951519","1271","0.24316406","-0.9111328","0.0234375","1.03125","5.0625","2.0"
"1574269951520","1272","0.23632812","-0.9003906","0.036132812","3.03125","1.875","1.625"
"1574269951521","1273","0.24316406","-0.8964844","0.04296875","4.375","5.59375","1.3125"
"1574269951522","1274","0.2265625","-0.90625","0.038085938","3.09375","3.21875","0.40625"
"1574269951522","1275","0.23535156","-0.9042969","0.0546875","6.34375","6.46875","0.90625"
"1574269951522","1276","0.24316406","-0.90234375","0.049804688","1.875","7.125","0.40625"
"1574269951522","1277","0.24902344","-0.89941406","0.043945312","1.15625","6.8125","0.46875"
"1574269951523","1278","0.23925781","-0.90527344","0.061523438","0.65625","5.40625","0.46875"
"1574269951523","1279","0.234375","-0.90722656","0.052734375","-0.625","2.78125","-0.9375"
"1574269951917","1280","0.24511719","-0.9003906","0.057617188","1.75","2.65625","-1.125"
"1574269951917","1281","0.23925781","-0.9082031","0.06347656","1.4375","2.0","-1.96875"
"1574269951917","1282","0.22949219","-0.9033203","0.0625","2.0","-1.59375","-1.78125"
"1574269951918","1283","0.23046875","-0.8955078","0.060546875","4.5","-2.09375","-2.59375"
"1574269951918","1284","0.23828125","-0.89746094","0.06542969","3.15625","-0.1875","-1.40625"
"1574269951918","1285","0.24023438","-0.9160156","0.07128906","4.0","1.6875","-1.59375"
"1574269951919","1286","0.234375","-0.9042969","0.06933594","8.03125","0.96875","-0.5"
"1574269951919","1287","0.22949219","-0.8955078","0.0859375","2.65625","2.0","-0.75"
"1574269951919","1288","0.23535156","-0.9111328","0.07714844","7.0625","-1.1875","-1.125"
"1574269951920","1289","0.24316406","-0.90527344","0.09765625","6.9375","2.0","0.53125"
"1574269952512","1290","0.20898438","-0.9082031","0.09277344","7.84375","-1.78125","-3.375"
"1574269952513","1291","0.24804688","-0.9033203","0.087890625","6.09375","0.65625","1.15625"
"1574269952513","1292","0.24902344","-0.90625","0.10839844","7.125","3.78125","-0.5"
"1574269952513","1293","0.22460938","-0.90722656","0.091796875","11.9375","2.125","-1.3125"
"1574269952513","1294","0.25","-0.9140625","0.12402344","16.53125","5.78125","0.03125"
"1574269952514","1295","0.20898438","-0.8984375","0.15820312","7.6875","6.03125","-5.375"
"1574269952514","1296","0.23730469","-0.9091797","0.15722656","4.4375","6.5625","-2.6875"
"1574269952514","1297","0.2626953","-0.9003906","0.125","4.75","8.84375","-1.46875"
"1574269952515","1298","0.2578125","-0.91308594","0.14550781","1.5625","5.65625","-1.1875"
"1574269952515","1299","0.23925781","-0.87890625","0.16601562","4.1875","4.875","-0.3125"
"1574269952712","1300","0.2705078","-0.9169922","0.15527344","7.25","6.15625","0.90625"
"1574269952713","1301","0.25","-0.9082031","0.14550781","7.96875","-1.34375","-0.875"
"1574269952713","1302","0.24707031","-0.9013672","0.17871094","9.125","0.84375","-0.375"
"1574269952713","1303","0.23535156","-0.921875","0.18164062","13.78125","-1.0","-0.75"
"1574269952713","1304","0.22460938","-0.90234375","0.19824219","8.03125","0.21875","-6.125"
"1574269952714","1305","0.2109375","-0.8779297","0.19335938","1.8125","-4.96875","-2.46875"
"1574269952714","1306","0.2529297","-0.9355469","0.18164062","6.03125","5.59375","-2.34375"
"1574269952714","1307","0.23339844","-0.89160156","0.21582031","-3.6875","-1.78125","-0.75"
"1574269952715","1308","0.21582031","-0.8964844","0.18066406","3.71875","2.4375","0.09375"
"1574269952716","1309","0.2548828","-0.89746094","0.20117188","3.03125","2.0","4.0"
"1574269953111","1310","0.23925781","-0.92089844","0.19433594","5.0","5.59375","-0.9375"
"1574269953112","1311","0.26757812","-0.91796875","0.20410156","9.375","3.34375","5.0625"
"1574269953112","1312","0.22460938","-0.90722656","0.22265625","5.40625","3.03125","0.0"
"1574269953112","1313","0.2109375","-0.9111328","0.19042969","5.71875","-7.15625","-5.75"
"1574269953112","1314","0.28027344","-0.8955078","0.203125","-4.65625","-2.03125","-1.34375"
"1574269953113","1315","0.24902344","-0.890625","0.21582031","0.15625","-6.78125","-0.9375"
"1574269953113","1316","0.22753906","-0.9082031","0.20019531","-2.625","-2.8125","0.65625"
"1574269953113","1317","0.22753906","-0.90527344","0.23144531","3.15625","-3.6875","0.21875"
"1574269953113","1318","0.2421875","-0.8720703","0.23925781","0.21875","-0.875","2.65625"
"1574269953113","1319","0.19433594","-0.89160156","0.22070312","29.21875","7.5625","2.65625"
"1574269953703","1320","0.24511719","-0.9277344","0.24804688","44.78125","21.46875","9.125"
"1574269953704","1321","0.26171875","-0.86328125","0.32714844","43.3125","13.84375","6.34375"
"1574269953705","1322","0.20800781","-0.8408203","0.28808594","16.65625","12.5","1.625"
"1574269953705","1323","0.18261719","-0.91796875","0.30664062","3.65625","10.1875","-2.75"
"1574269953706","1324","0.20214844","-0.87402344","0.3466797","-10.4375","4.875","-3.1875"
"1574269953706","1325","0.24023438","-0.9140625","0.33007812","-4.09375","4.375","-5.8125"
"1574269953706","1326","0.20996094","-0.8720703","0.32226562","-9.21875","-3.96875","2.84375"
"1574269953706","1327","0.16894531","-0.88964844","0.31152344","-6.5","1.8125","-0.75"
"1574269953707","1328","0.15429688","-0.93066406","0.3310547","4.9375","-5.8125","3.34375"
"1574269953707","1329","0.078125","-0.8857422","0.32910156","-1.1875","-4.28125","-6.59375"
"1574269953905","1330","0.29101562","-0.8876953","0.22363281","14.375","23.1875","13.03125"
"1574269953905","1331","0.25","-0.86328125","0.35058594","3.34375","12.75","1.03125"
