"# PR data"
"# Start time: 20191205T182144"
"# Subject: ron"
"# Activity type: Heel raises"
"# Correctness: Incorrect"
"# Notes: "
""
"timestamp","seq","accel_x","accel_y","accel_z","gyro_x","gyro_y","gyro_z"
"1575566504732","0","-0.14257812","-1.0224609","0.17675781","-5.15625","9.75","-4.40625"
"1575566504733","1","-0.23632812","-1.0498047","0.037109375","7.75","-3.75","-3.0"
"1575566504734","2","-0.123046875","-0.9580078","0.13574219","-7.71875","-8.3125","-0.1875"
"1575566504734","3","-0.19824219","-0.93652344","0.09472656","6.875","-9.125","-3.25"
"1575566504734","4","-0.21777344","-1.0","0.09082031","-0.125","1.375","-6.59375"
"1575566504740","5","-0.22070312","-0.96875","0.13183594","-1.78125","6.9375","-1.59375"
"1575566504740","6","-0.15136719","-0.94921875","0.12402344","4.6875","15.1875","-6.71875"
"1575566504741","7","-0.08886719","-0.99609375","0.16796875","0.40625","8.59375","-6.84375"
"1575566504741","8","-0.11328125","-1.0058594","0.15625","-2.09375","-0.9375","-4.78125"
"1575566504741","9","-0.09277344","-0.9980469","0.12597656","-0.0625","-4.40625","-5.875"
"1575566505130","10","-0.09472656","-0.9951172","0.15136719","-6.90625","-5.75","-4.59375"
"1575566505130","11","-0.13085938","-0.96777344","0.12109375","-5.3125","-5.09375","-5.4375"
"1575566505130","12","-0.1640625","-0.9824219","0.10546875","-3.25","2.65625","-3.75"
"1575566505131","13","-0.17480469","-0.98339844","0.109375","-4.34375","9.75","-1.71875"
"1575566505131","14","-0.13378906","-0.9980469","0.09375","-2.625","13.46875","-1.1875"
"1575566505132","15","-0.1171875","-0.9785156","0.107421875","-4.34375","12.1875","-1.0625"
"1575566505132","16","-0.12402344","-0.97558594","0.10253906","-4.21875","9.09375","1.3125"
"1575566505132","17","-0.16699219","-0.9921875","0.08496094","-2.625","9.625","1.75"
"1575566505133","18","-0.16210938","-0.9873047","0.078125","-2.9375","14.75","1.09375"
"1575566505133","19","-0.140625","-0.9921875","0.07324219","-3.25","15.90625","1.6875"
"1575566505530","20","-0.13183594","-1.0039062","0.046875","-3.625","14.21875","0.71875"
"1575566505530","21","-0.12402344","-1.0107422","0.033203125","-5.75","7.3125","-3.125"
"1575566505530","22","-0.13574219","-1.0068359","0.020507812","-1.40625","2.375","-2.875"
"1575566505531","23","-0.13769531","-1.0185547","0.017578125","-3.96875","-3.0625","-6.0625"
"1575566505531","24","-0.16601562","-0.96875","0.020507812","-11.0625","-6.1875","-5.4375"
"1575566505532","25","-0.18066406","-0.9667969","0.016601562","-8.6875","-6.5","-6.0625"
"1575566505533","26","-0.15234375","-1.0019531","0.0078125","-10.5625","-5.9375","-7.03125"
"1575566505533","27","-0.14648438","-1.0361328","0.030273438","-14.59375","-5.875","-10.9375"
"1575566505533","28","-0.19335938","-0.98046875","0.022460938","-17.84375","-5.375","-4.46875"
"1575566505533","29","-0.22167969","-0.9423828","0.01953125","-9.78125","5.96875","-1.34375"
"1575566505924","30","-0.17578125","-1.0019531","0.024414062","-0.4375","13.78125","3.59375"
"1575566505925","31","-0.14453125","-1.0078125","0.0087890625","-2.8125","13.65625","4.0"
"1575566505925","32","-0.10644531","-0.98828125","0.0029296875","-3.625","10.96875","2.3125"
"1575566505925","33","-0.080078125","-1.0097656","0.028320312","-6.1875","5.96875","0.96875"
"1575566505925","34","-0.09765625","-1.0078125","0.045898438","-7.9375","-2.59375","-0.9375"
"1575566505926","35","-0.10253906","-0.9785156","0.05859375","-5.375","-6.0625","0.53125"
"1575566505926","36","-0.08886719","-0.9511719","0.076171875","-4.40625","-4.59375","-1.65625"
"1575566505927","37","-0.12402344","-0.9589844","0.029296875","-0.1875","-8.75","-1.53125"
"1575566505927","38","-0.19433594","-1.0029297","0.015625","-5.8125","-1.96875","-0.25"
"1575566505928","39","-0.19433594","-1.0058594","0.03515625","-6.59375","6.75","-1.90625"
"1575566506520","40","-0.13671875","-1.0195312","-0.041992188","5.34375","7.5","-0.375"
"1575566506521","41","-0.11035156","-0.9765625","-0.020507812","-6.25","1.3125","-0.3125"
"1575566506521","42","-0.18164062","-0.9433594","0.022460938","0.21875","-2.15625","2.4375"
"1575566506522","43","-0.19042969","-0.98339844","-0.0126953125","10.84375","0.09375","4.25"
"1575566506522","44","-0.12011719","-0.98828125","-9.765625E-4","5.84375","-3.125","6.5625"
"1575566506522","45","-0.13183594","-0.99609375","0.041015625","5.1875","-9.96875","7.125"
"1575566506522","46","-0.14453125","-0.99609375","0.029296875","4.8125","-12.71875","4.5625"
"1575566506523","47","-0.20703125","-0.9902344","0.0703125","-0.5","-3.125","7.125"
"1575566506523","48","-0.19335938","-0.9707031","0.017578125","2.0","5.78125","3.65625"
"1575566506524","49","-0.10839844","-1.015625","0.08105469","1.09375","3.21875","4.125"
"1575566506720","50","-0.17675781","-1.0126953","-0.017578125","3.34375","-8.6875","-0.9375"
"1575566506721","51","-0.1484375","-0.9658203","0.020507812","-4.84375","-8.4375","2.0"
"1575566506721","52","-0.16015625","-0.97558594","0.029296875","2.90625","-15.28125","2.375"
"1575566506721","53","-0.17480469","-0.98339844","0.0107421875","5.84375","-13.9375","-2.03125"
"1575566506722","54","-0.20019531","-1.0039062","0.051757812","-1.71875","-13.25","0.03125"
"1575566506722","55","-0.18359375","-0.97558594","0.064453125","2.1875","-4.78125","0.34375"
"1575566506722","56","-0.115234375","-0.98828125","0.0703125","-0.3125","-0.9375","-0.625"
"1575566506722","57","-0.17089844","-0.97265625","0.06933594","3.84375","-1.1875","0.03125"
"1575566506723","58","-0.22851562","-1.0087891","0.0146484375","3.90625","3.40625","1.6875"
"1575566506723","59","-0.19628906","-0.9824219","0.078125","-5.25","6.625","3.65625"
"1575566507314","60","-0.17089844","-0.9746094","0.06933594","3.59375","10.59375","1.5"
"1575566507315","61","-0.20800781","-1.0097656","0.022460938","5.65625","6.6875","0.15625"
"1575566507315","62","-0.16503906","-0.9951172","0.028320312","1.5","2.3125","2.65625"
"1575566507315","63","-0.14453125","-0.96484375","0.08300781","3.09375","2.96875","0.28125"
"1575566507316","64","-0.1171875","-1.0126953","0.053710938","8.96875","-5.375","2.0"
"1575566507316","65","-0.14746094","-1.0332031","0.057617188","1.6875","-9.78125","-0.6875"
"1575566507316","66","-0.1796875","-0.98535156","0.047851562","-1.96875","-6.0625","-3.3125"
"1575566507316","67","-0.16210938","-0.99316406","0.057617188","-2.40625","-5.03125","-4.09375"
"1575566507317","68","-0.18945312","-0.9814453","0.052734375","-1.125","-7.8125","-3.125"
"1575566507317","69","-0.18457031","-0.97753906","0.11621094","-7.59375","-6.375","-3.125"
"1575566507516","70","-0.171875","-0.9433594","0.091796875","-1.40625","-1.90625","-5.25"
"1575566507516","71","-0.19238281","-1.0087891","0.076171875","2.65625","-1.25","-3.5"
"1575566507517","72","-0.18261719","-1.0273438","0.07421875","0.15625","-2.09375","-5.3125"
"1575566507518","73","-0.19726562","-1.0214844","0.103515625","-4.34375","2.59375","-5.75"
"1575566507518","74","-0.18945312","-0.9980469","0.06542969","-1.65625","5.0","-4.96875"
"1575566507518","75","-0.15917969","-0.96972656","0.064453125","-5.25","8.65625","-5.875"
"1575566507519","76","-0.16503906","-0.9736328","0.07421875","-4.78125","7.4375","-4.71875"
"1575566507519","77","-0.16894531","-0.9658203","0.072265625","-2.875","7.1875","-2.53125"
"1575566507519","78","-0.15722656","-0.97558594","0.06347656","-0.625","6.09375","-0.1875"
"1575566507519","79","-0.15429688","-1.0068359","0.07421875","0.65625","7.375","-0.125"
"1575566507912","80","-0.16503906","-1.0439453","0.07714844","-3.90625","4.6875","-0.5"
"1575566507912","81","-0.17089844","-1.0205078","0.07128906","-3.5","1.375","-0.125"
"1575566507913","82","-0.16308594","-0.97558594","0.0546875","-4.09375","2.65625","-0.5625"
"1575566507913","83","-0.16308594","-0.921875","0.060546875","-3.125","1.3125","-2.46875"
"1575566507913","84","-0.14453125","-0.9121094","0.0703125","-3.5625","1.5625","-4.59375"
"1575566507914","85","-0.14453125","-0.9326172","0.032226562","3.71875","-0.625","-4.96875"
"1575566507914","86","-0.13964844","-1.0126953","0.09082031","0.03125","0.21875","-3.8125"
"1575566507915","87","-0.17089844","-1.0722656","0.08203125","-1.40625","-2.15625","-2.34375"
"1575566507915","88","-0.19335938","-1.0361328","0.053710938","-2.28125","-1.25","-0.4375"
"1575566507915","89","-0.16308594","-0.98046875","0.056640625","-1.71875","3.71875","1.21875"
"1575566508310","90","-0.140625","-0.9667969","0.064453125","-0.125","5.84375","1.03125"
"1575566508310","91","-0.12792969","-0.9941406","0.046875","0.84375","5.125","-0.375"
"1575566508311","92","-0.14257812","-0.98535156","0.064453125","-2.6875","3.46875","-1.3125"
"1575566508311","93","-0.1328125","-0.9638672","0.07714844","-3.625","3.28125","-1.0625"
"1575566508312","94","-0.1484375","-0.9707031","0.068359375","-2.75","1.375","-1.78125"
"1575566508312","95","-0.16699219","-0.96875","0.06542969","-0.1875","2.125","-2.03125"
"1575566508312","96","-0.15234375","-0.9765625","0.046875","2.1875","3.65625","-1.84375"
"1575566508313","97","-0.12207031","-1.0107422","0.048828125","-0.0625","1.75","-2.28125"
"1575566508313","98","-0.14160156","-1.0605469","0.09472656","-1.65625","-2.8125","-0.9375"
"1575566508313","99","-0.16992188","-1.0019531","0.06347656","-3.0","-4.53125","0.09375"
"1575566508708","100","-0.16796875","-0.9873047","0.05859375","-0.5","0.28125","0.46875"
"1575566508709","101","-0.14550781","-0.953125","0.041015625","-2.9375","0.71875","-0.3125"
"1575566508709","102","-0.12402344","-0.9453125","0.05859375","-2.15625","2.59375","-3.0"
"1575566508709","103","-0.14941406","-1.0019531","0.059570312","1.5625","0.96875","-2.46875"
"1575566508710","104","-0.16699219","-1.0292969","0.07128906","-2.40625","1.75","-0.5"
"1575566508710","105","-0.17480469","-1.0166016","0.06933594","-1.40625","4.125","-1.53125"
"1575566508710","106","-0.16308594","-1.0078125","0.048828125","1.3125","6.5625","0.40625"
"1575566508710","107","-0.14648438","-0.98046875","0.05078125","-2.21875","5.34375","0.40625"
"1575566508711","108","-0.13085938","-0.9482422","0.052734375","-3.625","5.96875","-2.03125"
"1575566508712","109","-0.13671875","-0.9609375","0.06542969","-2.6875","4.0","-2.28125"
"1575566509106","110","-0.14746094","-0.96777344","0.044921875","-4.15625","5.0","-2.6875"
"1575566509107","111","-0.15527344","-0.9902344","0.049804688","-2.21875","4.5","-2.21875"
"1575566509107","112","-0.15429688","-0.98828125","0.0625","-4.84375","6.09375","0.03125"
"1575566509107","113","-0.1796875","-1.0136719","0.07128906","0.03125","4.4375","2.5625"
"1575566509107","114","-0.15820312","-0.9482422","0.047851562","-6.96875","4.3125","1.15625"
"1575566509108","115","-0.1328125","-0.9160156","0.068359375","-3.4375","2.3125","0.40625"
"1575566509108","116","-0.18359375","-0.92871094","0.041015625","-1.1875","-0.0625","1.15625"
"1575566509108","117","-0.1796875","-0.9326172","0.05859375","-4.59375","2.0625","2.5625"
"1575566509108","118","-0.17773438","-0.9394531","0.051757812","2.0","1.8125","3.09375"
"1575566509109","119","-0.12695312","-0.87109375","0.04296875","-5.9375","-2.9375","5.34375"
"1575566509899","120","-0.16308594","-0.80566406","0.068359375","-6.0","-8.625","1.21875"
"1575566509900","121","-0.22851562","-0.8613281","0.11328125","3.03125","-4.96875","4.375"
"1575566509900","122","-0.3408203","-1.0556641","0.12109375","14.8125","-1.78125","11.71875"
"1575566509900","123","-0.30371094","-1.2011719","0.030273438","5.78125","8.84375","6.875"
"1575566509901","124","-0.06347656","-0.9863281","0.12207031","2.125","11.59375","10.375"
"1575566509901","125","-0.36816406","-1.4365234","-0.056640625","45.34375","0.28125","0.34375"
"1575566509901","126","-0.06347656","-1.0693359","0.08984375","-30.65625","6.21875","18.28125"
"1575566509902","127","0.08886719","-0.8388672","0.0859375","-13.4375","-11.78125","14.8125"
"1575566509902","128","-0.19238281","-0.8261719","0.076171875","10.125","-2.21875","-23.03125"
"1575566509902","129","-0.45996094","-1.1035156","-0.030273438","-2.625","-2.6875","16.53125"
"1575566510097","130","-0.14355469","-1.1357422","0.026367188","-13.8125","17.4375","-2.75"
"1575566510097","131","-0.09082031","-0.89160156","0.06738281","-19.0625","10.96875","-28.21875"
"1575566510098","132","-0.1875","-0.9111328","0.026367188","-8.8125","-2.625","-5.625"
"1575566510099","133","-0.15820312","-1.0039062","0.01953125","-3.6875","-1.40625","-2.6875"
"1575566510099","134","-0.17382812","-1.0419922","0.0087890625","-4.46875","5.96875","-7.875"
"1575566510100","135","-0.16015625","-0.97753906","0.030273438","-7.65625","2.96875","-4.21875"
"1575566510100","136","-0.171875","-0.9267578","0.048828125","-6.78125","2.0625","-1.34375"
"1575566510100","137","-0.18652344","-0.99121094","0.0234375","-2.09375","6.03125","-3.0"
"1575566510100","138","-0.18261719","-1.0107422","0.017578125","-1.53125","5.96875","-3.8125"
"1575566510101","139","-0.14453125","-0.96484375","0.0546875","1.3125","4.0","-0.3125"
"1575566510299","140","-0.13378906","-0.98046875","0.032226562","4.9375","3.21875","-0.6875"
"1575566510299","141","-0.15527344","-1.0214844","0.03125","-0.5","0.59375","-1.0625"
"1575566510299","142","-0.16601562","-0.9951172","0.01953125","-4.84375","0.96875","-3.8125"
"1575566510300","143","-0.1484375","-0.9785156","0.028320312","-3.4375","1.5","-3.4375"
"1575566510300","144","-0.13769531","-0.9863281","0.025390625","-1.90625","0.03125","-2.21875"
"1575566510301","145","-0.16992188","-0.9892578","0.030273438","-0.375","-2.34375","-3.0625"
"1575566510302","146","-0.18261719","-0.9902344","-0.017578125","2.0","0.34375","-5.875"
"1575566510302","147","-0.15527344","-0.9941406","0.0048828125","0.0","3.46875","-4.90625"
"1575566510302","148","-0.15234375","-0.9863281","0.029296875","-1.84375","1.28125","-3.3125"
"1575566510303","149","-0.123046875","-0.99121094","0.044921875","3.46875","0.65625","-0.625"
"1575566510697","150","-0.1171875","-1.0029297","0.061523438","-1.3125","-3.25","2.65625"
"1575566510697","151","-0.18164062","-1.0019531","0.034179688","1.9375","-4.15625","3.65625"
"1575566510698","152","-0.19238281","-1.0185547","0.005859375","4.0625","-3.3125","1.875"
"1575566510698","153","-0.18359375","-1.0117188","0.026367188","0.0","0.03125","-2.6875"
"1575566510698","154","-0.17382812","-0.97265625","0.061523438","0.40625","-0.3125","0.03125"
"1575566510698","155","-0.16113281","-0.95703125","0.095703125","-1.59375","-1.84375","2.5625"
"1575566510699","156","-0.20019531","-0.9824219","0.0625","0.78125","-0.375","2.3125"
"1575566510700","157","-0.20898438","-1.0078125","0.049804688","-0.375","1.5","2.0"
"1575566510701","158","-0.21191406","-0.9736328","0.048828125","-0.0625","4.1875","-0.4375"
"1575566510701","159","-0.1875","-0.953125","0.044921875","0.21875","4.0","-1.46875"
"1575566511094","160","-0.15039062","-0.93359375","0.06738281","3.40625","2.5625","0.03125"
"1575566511094","161","-0.15234375","-0.9667969","0.078125","2.1875","0.46875","1.375"
"1575566511095","162","-0.19433594","-1.0166016","0.087890625","-0.5","0.0","0.71875"
"1575566511095","163","-0.23632812","-1.0136719","0.045898438","3.03125","-1.0","1.15625"
"1575566511095","164","-0.19433594","-0.99121094","0.0546875","2.1875","4.9375","0.96875"
"1575566511095","165","-0.15527344","-0.9892578","0.07519531","2.0","6.46875","2.84375"
"1575566511096","166","-0.15820312","-0.9980469","0.055664062","4.6875","2.0","1.375"
"1575566511096","167","-0.20019531","-1.0126953","0.087890625","-3.3125","3.03125","-0.375"
"1575566511096","168","-0.17871094","-0.9667969","0.0625","1.625","5.59375","-3.0625"
"1575566511097","169","-0.16308594","-0.9873047","0.07128906","2.3125","4.6875","-3.375"
"1575566511685","170","-0.16308594","-0.96484375","0.07910156","-0.875","2.125","-3.375"
"1575566511686","171","-0.19921875","-0.96875","0.060546875","2.375","0.15625","-4.46875"
"1575566511686","172","-0.20800781","-0.97265625","0.041015625","4.6875","1.09375","-4.28125"
"1575566511687","173","-0.15722656","-0.953125","0.080078125","1.4375","2.0625","-2.6875"
"1575566511687","174","-0.13085938","-1.0097656","0.111328125","-0.3125","1.15625","0.0"
"1575566511687","175","-0.17773438","-1.0175781","0.08300781","-1.125","-5.5625","1.09375"
"1575566511688","176","-0.21386719","-0.94921875","0.05859375","-4.28125","-2.8125","-0.6875"
"1575566511688","177","-0.203125","-0.9433594","0.049804688","1.3125","4.25","-2.15625"
"1575566511688","178","-0.1640625","-0.9970703","0.08691406","1.625","5.90625","-0.1875"
"1575566511689","179","-0.14160156","-1.0439453","0.09765625","1.21875","2.0","0.96875"
"1575566511887","180","-0.19042969","-1.0332031","0.09472656","-1.96875","-0.625","0.96875"
"1575566511888","181","-0.19726562","-0.9824219","0.08984375","-2.21875","2.25","0.28125"
"1575566511888","182","-0.16699219","-0.9736328","0.0703125","2.0","5.78125","-0.75"
"1575566511889","183","-0.140625","-0.9560547","0.055664062","2.0625","3.40625","-2.53125"
"1575566511889","184","-0.14160156","-0.9658203","0.11035156","-1.40625","1.6875","-2.8125"
"1575566511889","185","-0.17675781","-0.9560547","0.1015625","-1.25","-0.0625","-4.65625"
"1575566511889","186","-0.17480469","-0.9873047","0.06738281","1.4375","1.6875","-4.40625"
"1575566511890","187","-0.19238281","-1.0029297","0.06542969","-3.90625","2.3125","-4.28125"
"1575566511890","188","-0.17773438","-1.0253906","0.07324219","-0.4375","3.71875","-2.15625"
"1575566511890","189","-0.15332031","-1.0126953","0.06542969","-1.78125","-0.5","0.28125"
"1575566512483","190","-0.14941406","-0.96484375","0.08691406","-5.75","-3.5","0.71875"
"1575566512484","191","-0.18359375","-0.9355469","0.08300781","-5.09375","-3.5","0.78125"
"1575566512484","192","-0.18554688","-0.9501953","0.057617188","-1.3125","0.59375","-0.4375"
"1575566512485","193","-0.17480469","-1.0039062","0.06542969","-1.65625","4.625","-1.46875"
"1575566512485","194","-0.16308594","-1.0361328","0.05078125","-0.4375","3.59375","-2.15625"
"1575566512485","195","-0.1484375","-1.0117188","0.08300781","-6.375","3.28125","-1.0"
"1575566512486","196","-0.16894531","-0.9667969","0.10644531","-7.53125","1.8125","-3.0"
"1575566512486","197","-0.20117188","-0.95703125","0.080078125","-0.1875","4.0","-2.15625"
"1575566512486","198","-0.17773438","-1.0078125","0.07128906","4.8125","3.21875","0.0"
"1575566512486","199","-0.14746094","-0.9980469","0.08105469","2.3125","3.71875","-2.40625"
"1575566512684","200","-0.15039062","-0.96191406","0.07910156","1.3125","2.4375","-1.0625"
"1575566512684","201","-0.15332031","-0.9501953","0.06347656","-0.875","-0.0625","-1.96875"
"1575566512684","202","-0.15917969","-0.9638672","0.08300781","-3.4375","2.4375","-4.03125"
"1575566512685","203","-0.16796875","-0.9736328","0.09375","-4.71875","6.8125","-5.25"
"1575566512685","204","-0.1640625","-1.0449219","0.06542969","-1.125","7.96875","-2.9375"
"1575566512686","205","-0.16210938","-1.0224609","0.056640625","-7.40625","3.9375","-0.8125"
"1575566512686","206","-0.16601562","-0.9511719","0.06933594","-7.875","2.96875","-0.625"
"1575566512687","207","-0.14746094","-0.9248047","0.053710938","-1.71875","3.84375","0.40625"
"1575566512687","208","-0.13476562","-0.96777344","0.07128906","-4.03125","4.1875","-1.125"
"1575566512687","209","-0.16796875","-1.0117188","0.05859375","-1.40625","5.1875","-1.3125"
"1575566513080","210","-0.15722656","-1.0136719","0.07324219","-3.1875","4.0625","0.46875"
"1575566513081","211","-0.18359375","-0.9794922","0.064453125","-2.875","1.9375","-0.5"
"1575566513081","212","-0.16503906","-0.9736328","0.057617188","-2.6875","2.59375","-0.125"
"1575566513081","213","-0.17578125","-0.9482422","0.06640625","-4.46875","1.3125","-1.46875"
"1575566513082","214","-0.18359375","-0.93652344","0.06640625","-1.46875","1.8125","-1.1875"
"1575566513082","215","-0.1875","-0.96972656","0.0546875","-0.4375","3.28125","-1.125"
"1575566513082","216","-0.17285156","-0.93847656","0.05859375","-1.25","-0.75","-1.0625"
"1575566513084","217","-0.16308594","-0.9082031","0.07128906","-3.5625","-0.6875","-2.40625"
"1575566513084","218","-0.19921875","-0.9238281","0.056640625","2.125","-2.8125","-0.9375"
"1575566513084","219","-0.13476562","-0.81347656","-0.024414062","5.0","-13.5","-1.3125"
"1575566513478","220","-0.12695312","-0.79296875","0.23730469","-15.03125","6.875","-1.3125"
"1575566513478","221","-0.49414062","-1.2460938","0.18164062","38.0625","20.75","14.5"
"1575566513478","222","-0.21484375","-1.5283203","-0.051757812","34.59375","-2.59375","13.15625"
"1575566513479","223","0.059570312","-1.0732422","-0.07421875","-12.09375","-20.59375","4.5625"
"1575566513479","224","-0.119140625","-0.62109375","0.19433594","-28.6875","-6.125","-12.03125"
"1575566513479","225","-0.30078125","-0.80566406","0.18945312","22.8125","12.5","11.15625"
"1575566513479","226","-0.12597656","-1.2851562","0.009765625","19.03125","4.25","29.34375"
"1575566513480","227","-0.10839844","-1.171875","0.0126953125","-18.8125","4.875","-16.1875"
"1575566513480","228","-0.22753906","-0.86621094","0.109375","-21.6875","1.28125","-16.125"
"1575566513481","229","-0.1953125","-0.8496094","0.091796875","-3.6875","5.1875","-0.8125"
"1575566513875","230","-0.11816406","-1.0146484","0.076171875","2.125","8.71875","-0.5"
"1575566513875","231","-0.15039062","-1.046875","0.07324219","-1.65625","7.84375","-7.8125"
"1575566513875","232","-0.16210938","-0.9716797","0.068359375","-7.34375","1.5","-4.53125"
"1575566513875","233","-0.14941406","-0.9433594","0.08691406","-5.15625","-0.1875","-3.4375"
"1575566513876","234","-0.19042969","-0.98046875","0.07421875","-1.0625","2.0","-3.1875"
"1575566513876","235","-0.19726562","-0.97753906","0.061523438","-1.84375","2.59375","-2.59375"
"1575566513876","236","-0.15820312","-0.96777344","0.07421875","1.3125","3.78125","-1.40625"
"1575566513876","237","-0.14257812","-1.0019531","0.068359375","2.90625","2.125","-0.25"
"1575566513877","238","-0.15722656","-1.0019531","0.059570312","-1.46875","-1.96875","-2.21875"
"1575566513877","239","-0.17382812","-0.9941406","0.0859375","-2.53125","-1.34375","-3.5625"
"1575566514273","240","-0.1953125","-0.953125","0.06542969","-1.0","0.09375","-4.78125"
"1575566514275","241","-0.171875","-0.984375","0.05859375","1.875","2.71875","-3.125"
"1575566514276","242","-0.1640625","-0.9941406","0.0625","0.65625","2.4375","-2.9375"
"1575566514276","243","-0.14746094","-1.0019531","0.060546875","0.34375","1.625","-3.625"
"1575566514276","244","-0.16210938","-0.98339844","0.078125","-1.40625","0.84375","-2.34375"
"1575566514276","245","-0.16601562","-0.98046875","0.076171875","-1.0625","1.5","-0.875"
"1575566514277","246","-0.16796875","-0.98339844","0.06933594","-0.5","2.59375","-0.6875"
"1575566514277","247","-0.171875","-0.984375","0.05859375","0.71875","2.4375","0.96875"
"1575566514277","248","-0.16308594","-0.9951172","0.06542969","-0.8125","3.34375","0.90625"
"1575566514278","249","-0.16210938","-0.9785156","0.06542969","-1.84375","3.53125","0.09375"
"1575566514672","250","-0.14648438","-0.9873047","0.06542969","-1.25","3.53125","0.96875"
"1575566514672","251","-0.13769531","-0.9970703","0.053710938","-2.40625","2.84375","-0.3125"
"1575566514672","252","-0.12402344","-0.99609375","0.055664062","-3.0625","0.59375","-1.59375"
"1575566514674","253","-0.15527344","-0.9941406","0.06640625","-5.4375","0.0","-1.96875"
"1575566514674","254","-0.15429688","-0.9765625","0.06542969","-3.75","0.96875","-2.6875"
"1575566514674","255","-0.1328125","-0.9941406","0.05078125","-4.09375","-1.71875","-4.40625"
"1575566514675","256","-0.140625","-0.9765625","0.05859375","-4.78125","-5.3125","-5.625"
"1575566514675","257","-0.16894531","-0.98046875","0.078125","-0.5","-6.1875","-3.875"
"1575566514675","258","-0.17675781","-0.9736328","0.055664062","5.0625","-5.625","-3.25"
"1575566514676","259","-0.16503906","-1.0","0.103515625","-0.4375","-2.21875","-1.46875"
"1575566515068","260","-0.16796875","-0.9736328","0.083984375","2.90625","-0.8125","-0.9375"
"1575566515069","261","-0.15136719","-1.0029297","0.06347656","4.0","0.21875","0.34375"
"1575566515069","262","-0.14453125","-0.98339844","0.0859375","-1.65625","-1.3125","0.03125"
"1575566515069","263","-0.16796875","-0.9638672","0.095703125","0.40625","0.21875","1.4375"
"1575566515069","264","-0.15917969","-0.99316406","0.08203125","4.6875","1.3125","2.5"
"1575566515070","265","-0.15625","-0.9951172","0.08496094","1.625","2.71875","1.75"
"1575566515071","266","-0.16699219","-0.99316406","0.080078125","1.6875","3.71875","0.53125"
"1575566515071","267","-0.15625","-0.9980469","0.083984375","2.5","3.71875","2.0"
"1575566515072","268","-0.14746094","-0.9873047","0.09082031","-0.1875","3.84375","0.96875"
"1575566515086","269","-0.14453125","-0.9873047","0.09082031","-2.03125","4.0","0.21875"
"1575566515465","270","-0.15722656","-0.9921875","0.0859375","-5.21875","3.40625","-1.25"
"1575566515465","271","-0.19140625","-0.9873047","0.08496094","-5.5","4.75","-1.90625"
"1575566515466","272","-0.17480469","-0.9765625","0.07128906","-3.125","8.53125","-2.8125"
"1575566515466","273","-0.14941406","-0.99316406","0.07324219","-2.21875","8.53125","-2.28125"
"1575566515466","274","-0.14453125","-0.9902344","0.08105469","-3.125","5.96875","-1.59375"
"1575566515466","275","-0.15429688","-0.9814453","0.09863281","-4.90625","3.9375","-1.34375"
"1575566515466","276","-0.16210938","-0.9892578","0.07910156","-3.6875","3.65625","-2.8125"
"1575566515468","277","-0.16699219","-0.9892578","0.072265625","-3.125","2.65625","-1.96875"
"1575566515468","278","-0.16210938","-0.97265625","0.07421875","-0.75","2.90625","-1.71875"
"1575566515468","279","-0.140625","-0.9765625","0.07421875","-2.28125","1.5625","-2.15625"
"1575566516059","280","-0.15039062","-1.0009766","0.07421875","0.96875","-0.5","-0.875"
"1575566516060","281","-0.171875","-0.9863281","0.078125","-3.125","-0.4375","-1.25"
"1575566516060","282","-0.16503906","-0.9765625","0.07421875","-2.46875","2.125","-1.1875"
"1575566516060","283","-0.14941406","-0.98046875","0.06738281","-0.6875","1.9375","-0.5625"
"1575566516061","284","-0.13183594","-0.9863281","0.0703125","-0.3125","-0.9375","-0.4375"
"1575566516061","285","-0.16308594","-0.9638672","0.07128906","-0.875","-0.8125","-3.25"
"1575566516061","286","-0.16308594","-0.99609375","0.072265625","1.75","1.75","-3.4375"
"1575566516061","287","-0.16210938","-1.0029297","0.078125","1.5625","2.3125","-3.0625"
"1575566516062","288","-0.16015625","-1.0","0.080078125","2.0","2.96875","-2.6875"
"1575566516064","289","-0.16015625","-0.98535156","0.07519531","0.90625","4.875","-2.28125"
"1575566516261","290","-0.14550781","-0.9667969","0.072265625","1.3125","5.46875","-1.90625"
"1575566516262","291","-0.12695312","-0.96191406","0.06933594","2.375","4.0625","-1.84375"
"1575566516262","292","-0.12011719","-0.95410156","0.08203125","-1.53125","2.125","-2.03125"
"1575566516262","293","-0.13867188","-1.0166016","0.08691406","0.28125","0.78125","-1.0625"
"1575566516262","294","-0.15625","-1.0595703","0.08105469","-3.0","-0.8125","1.15625"
"1575566516263","295","-0.18847656","-0.9892578","0.0703125","-3.125","-0.6875","0.84375"
"1575566516263","296","-0.15527344","-0.97265625","0.107421875","-3.3125","3.28125","3.09375"
"1575566516263","297","-0.140625","-0.9482422","0.07519531","-0.9375","3.84375","0.84375"
"1575566516263","298","-0.14941406","-0.9941406","0.060546875","0.71875","2.0","0.53125"
"1575566516264","299","-0.16503906","-0.99316406","0.08105469","-3.0","3.46875","-1.0625"
"1575566516658","300","-0.15625","-0.99609375","0.091796875","1.375","4.5625","-1.125"
"1575566516660","301","-0.14941406","-1.0","0.076171875","2.5","3.34375","-0.1875"
"1575566516660","302","-0.14550781","-1.0","0.09375","-1.96875","2.59375","-0.5"
"1575566516661","303","-0.16308594","-0.9716797","0.08105469","2.78125","0.09375","-1.71875"
"1575566516661","304","-0.16015625","-0.9511719","0.07324219","1.6875","1.8125","-0.9375"
"1575566516661","305","-0.17382812","-0.9482422","0.091796875","0.96875","4.6875","-1.3125"
"1575566516662","306","-0.17480469","-0.95410156","0.07519531","0.53125","7.125","-2.03125"
"1575566516662","307","-0.140625","-0.9951172","0.076171875","-0.9375","9.3125","-2.40625"
"1575566516662","308","-0.14648438","-0.9970703","0.09472656","-3.96875","5.46875","-0.9375"
"1575566516662","309","-0.16210938","-0.98339844","0.08984375","-0.625","4.5","0.53125"
"1575566517252","310","-0.15917969","-0.9785156","0.078125","-1.78125","1.8125","2.0"
"1575566517253","311","-0.14453125","-0.9423828","0.061523438","-1.96875","1.5","1.21875"
"1575566517253","312","-0.15039062","-0.9560547","0.0859375","-0.9375","0.90625","-0.375"
"1575566517254","313","-0.17773438","-0.9501953","0.068359375","0.21875","-1.0","0.34375"
"1575566517255","314","-0.17773438","-0.9873047","0.107421875","-2.03125","2.59375","0.09375"
"1575566517255","315","-0.1796875","-0.99316406","0.09765625","-1.96875","3.15625","-2.875"
"1575566517255","316","-0.17675781","-1.0273438","0.08203125","0.78125","2.25","-0.75"
"1575566517255","317","-0.171875","-1.0166016","0.091796875","-2.59375","0.28125","0.09375"
"1575566517256","318","-0.16015625","-0.96484375","0.07324219","-2.8125","0.15625","-0.75"
"1575566517256","319","-0.14746094","-0.9423828","0.09375","-3.5","0.84375","-0.5625"
"1575566517452","320","-0.19335938","-0.9785156","0.10644531","0.53125","2.25","0.71875"
"1575566517453","321","-0.1796875","-0.9970703","0.08105469","0.90625","2.375","2.0"
"1575566517453","322","-0.14453125","-0.96484375","0.07324219","-3.4375","0.65625","-0.375"
"1575566517453","323","-0.18164062","-0.9453125","0.11328125","-3.5","0.78125","1.03125"
"1575566517454","324","-0.18554688","-0.9707031","0.078125","0.90625","-0.25","1.375"
"1575566517455","325","-0.15332031","-0.9638672","0.06542969","-1.0","-1.34375","-1.125"
"1575566517456","326","-0.15722656","-0.96484375","0.09472656","-4.71875","-2.59375","-1.53125"
"1575566517456","327","-0.18945312","-0.9785156","0.09667969","-1.96875","-4.46875","-0.75"
"1575566517457","328","-0.18066406","-0.94140625","0.024414062","-4.03125","-6.5","-1.1875"
"1575566517457","329","-0.13964844","-0.8876953","0.12988281","-8.875","6.75","-2.46875"
"1575566517850","330","-0.38085938","-1.3144531","0.19726562","21.78125","6.6875","2.3125"
"1575566517851","331","-0.20410156","-1.1914062","-0.080078125","-2.28125","7.96875","13.96875"
"1575566517851","332","0.072265625","-0.8095703","0.07910156","-27.0625","6.5","-4.84375"
"1575566517851","333","-0.17871094","-0.7421875","0.20800781","6.09375","7.625","-6.59375"
"1575566517851","334","-0.28515625","-1.1289062","0.034179688","18.65625","3.59375","27.28125"
"1575566517852","335","-0.072265625","-1.1748047","0.026367188","-10.21875","12.1875","-5.03125"
"1575566517856","336","-0.16796875","-0.89453125","0.107421875","-16.375","8.15625","-15.53125"
"1575566517857","337","-0.19335938","-0.9082031","0.064453125","-2.6875","6.40625","0.09375"
"1575566517860","338","-0.13378906","-0.99902344","0.05078125","-4.34375","6.5","-2.40625"
"1575566517860","339","-0.19335938","-1.0380859","0.046875","-5.5625","12.6875","-10.75"
"1575566518248","340","-0.20410156","-0.98046875","0.037109375","-8.9375","13.78125","-10.21875"
"1575566518249","341","-0.17773438","-0.9121094","0.049804688","-6.25","16.78125","-7.8125"
"1575566518249","342","-0.16894531","-0.98046875","0.021484375","4.25","21.46875","-6.65625"
"1575566518249","343","-0.13183594","-1.0302734","0.013671875","2.0","19.5625","-6.84375"
"1575566518250","344","-0.1015625","-0.9941406","0.041992188","-3.0625","13.34375","-5.3125"
"1575566518250","345","-0.10644531","-0.9824219","0.048828125","-3.625","6.40625","-4.40625"
"1575566518250","346","-0.1328125","-0.9892578","0.026367188","-1.0625","0.15625","-3.0"
"1575566518250","347","-0.13671875","-0.9902344","0.021484375","-1.53125","-0.8125","-1.84375"
"1575566518251","348","-0.11230469","-0.99902344","0.01171875","0.46875","-0.625","-0.375"
"1575566518252","349","-0.10058594","-1.0097656","0.038085938","-1.65625","-5.375","-0.375"
"1575566519239","350","-0.12890625","-0.9951172","0.041992188","-2.09375","-9.15625","0.34375"
"1575566519240","351","-0.15722656","-0.98828125","0.05078125","-0.5625","-9.125","1.21875"
"1575566519240","352","-0.14355469","-0.99316406","0.04296875","-1.78125","-8.5","0.28125"
"1575566519241","353","-0.14453125","-0.9902344","0.041015625","-2.53125","-7.34375","0.78125"
"1575566519241","354","-0.15625","-0.98339844","0.057617188","-3.1875","-4.78125","1.15625"
"1575566519241","355","-0.17578125","-0.9863281","0.059570312","3.71875","-3.4375","1.3125"
"1575566519241","356","-0.16699219","-0.9892578","0.068359375","1.03125","-0.125","1.4375"
"1575566519242","357","-0.15136719","-0.99316406","0.06542969","4.875","1.5625","0.71875"
"1575566519242","358","-0.15917969","-0.9921875","0.0625","3.90625","0.53125","-0.6875"
"1575566519242","359","-0.140625","-1.0078125","0.06933594","2.4375","-0.5","0.15625"
"1575566519243","360","-0.18164062","-0.99609375","0.07910156","-0.8125","-1.78125","-1.0"
"1575566519244","361","-0.18066406","-0.9824219","0.07421875","1.15625","0.46875","-1.3125"
"1575566519244","362","-0.17285156","-0.9824219","0.06640625","1.8125","2.78125","-1.96875"
"1575566519245","363","-0.16015625","-1.0029297","0.06738281","0.0","1.625","-0.375"
"1575566519245","364","-0.17285156","-0.9951172","0.07324219","0.09375","1.625","1.09375"
"1575566519245","365","-0.16894531","-1.0","0.078125","2.78125","2.0","1.75"
"1575566519245","366","-0.16601562","-1.0019531","0.06640625","1.625","0.0","2.375"
"1575566519246","367","-0.15136719","-0.98828125","0.07421875","1.3125","-0.9375","2.71875"
"1575566519246","368","-0.14453125","-0.98339844","0.09277344","0.15625","-1.78125","1.875"
"1575566519246","369","-0.17089844","-0.9658203","0.0859375","0.28125","-2.8125","0.40625"
"1575566519439","370","-0.17089844","-0.9638672","0.08496094","0.21875","-0.125","-1.25"
"1575566519440","371","-0.14160156","-0.97558594","0.078125","0.90625","1.03125","-1.84375"
"1575566519440","372","-0.15136719","-0.9785156","0.08984375","-2.6875","0.03125","-1.90625"
"1575566519441","373","-0.19628906","-0.9609375","0.05859375","2.125","-0.6875","-2.9375"
"1575566519441","374","-0.19824219","-0.9736328","0.10546875","-1.3125","3.46875","-1.59375"
"1575566519441","375","-0.15332031","-0.953125","0.080078125","0.71875","5.125","-2.875"
"1575566519441","376","-0.13378906","-0.9863281","0.072265625","0.53125","2.96875","-1.65625"
"1575566519442","377","-0.15429688","-0.98535156","0.09863281","-3.0","2.375","-2.59375"
"1575566519442","378","-0.1875","-0.9824219","0.09472656","-2.53125","2.78125","-2.03125"
"1575566519442","379","-0.19042969","-0.9824219","0.08496094","0.71875","6.9375","-1.40625"
"1575566519839","380","-0.17285156","-1.0019531","0.09765625","1.75","7.90625","-0.5"
"1575566519840","381","-0.14453125","-1.0009766","0.07519531","2.125","6.9375","-1.0"
"1575566519840","382","-0.14355469","-1.0136719","0.0859375","-0.4375","3.03125","0.46875"
"1575566519840","383","-0.17871094","-0.984375","0.10058594","-1.3125","2.375","0.03125"
"1575566519840","384","-0.171875","-0.99609375","0.087890625","-1.1875","5.34375","-0.8125"
"1575566519842","385","-0.16503906","-1.0009766","0.07519531","-3.0","5.1875","-1.1875"
"1575566519843","386","-0.17480469","-0.984375","0.072265625","-5.6875","5.84375","-0.8125"
"1575566519843","387","-0.16601562","-0.9824219","0.08105469","-6.3125","6.15625","-0.8125"
"1575566519843","388","-0.16601562","-0.9873047","0.091796875","-5.15625","6.875","-0.4375"
"1575566519843","389","-0.17871094","-0.9824219","0.07714844","-4.84375","6.75","0.03125"
"1575566520237","390","-0.15039062","-0.9746094","0.06347656","-5.21875","6.625","-0.3125"
"1575566520238","391","-0.13574219","-0.9638672","0.06347656","-5.03125","6.09375","-1.25"
"1575566520238","392","-0.13671875","-0.98046875","0.051757812","-4.65625","1.03125","-1.59375"
"1575566520238","393","-0.17480469","-0.9785156","0.04296875","-2.09375","1.09375","-2.34375"
"1575566520238","394","-0.1796875","-1.0029297","0.080078125","-5.875","1.625","-2.46875"
"1575566520239","395","-0.16894531","-0.98828125","0.033203125","-0.6875","3.15625","-2.46875"
"1575566520239","396","-0.13476562","-0.99316406","0.041992188","-3.5625","2.78125","-2.46875"
"1575566520239","397","-0.14746094","-0.97558594","0.051757812","-4.34375","1.28125","-2.15625"
"1575566520240","398","-0.16894531","-0.97265625","0.04296875","-1.65625","3.34375","-1.34375"
"1575566520241","399","-0.14648438","-0.99316406","0.02734375","-0.1875","4.625","-1.84375"
"1575566520633","400","-0.15234375","-0.99609375","0.052734375","-4.03125","4.6875","-1.90625"
"1575566520634","401","-0.17773438","-0.9765625","0.0546875","0.28125","3.34375","-0.875"
"1575566520634","402","-0.16210938","-1.0097656","0.05078125","2.5","3.59375","0.84375"
"1575566520634","403","-0.16601562","-1.015625","0.04296875","-2.8125","4.75","0.84375"
"1575566520635","404","-0.1640625","-0.97753906","0.064453125","-3.3125","4.8125","1.3125"
"1575566520635","405","-0.14746094","-0.9765625","0.060546875","-0.9375","4.5","2.3125"
"1575566520635","406","-0.15722656","-0.98535156","0.048828125","-3.0","3.15625","1.3125"
"1575566520635","407","-0.15917969","-0.9716797","0.059570312","-5.5","3.03125","-0.125"
"1575566520636","408","-0.18359375","-0.9873047","0.0546875","-3.625","4.5","-1.0"
"1575566520637","409","-0.16210938","-0.9863281","0.032226562","-3.90625","5.0","-1.78125"
"1575566521030","410","-0.15234375","-0.97265625","0.033203125","-3.5625","3.84375","-2.59375"
"1575566521031","411","-0.16992188","-0.9873047","0.03515625","-2.34375","2.78125","-1.125"
"1575566521031","412","-0.18066406","-1.0146484","0.032226562","-2.40625","3.28125","-0.125"
"1575566521031","413","-0.1640625","-1.0273438","0.040039062","-3.75","2.65625","-0.5"
"1575566521031","414","-0.18359375","-1.0175781","0.034179688","-4.71875","0.90625","-0.375"
"1575566521032","415","-0.1796875","-0.99609375","0.01953125","-1.96875","1.375","0.28125"
"1575566521032","416","-0.16308594","-0.9716797","0.041992188","-5.5","1.09375","-0.625"
"1575566521032","417","-0.15625","-0.9433594","0.01953125","0.65625","1.4375","-2.21875"
"1575566521032","418","-0.17285156","-0.9707031","0.0234375","-3.1875","0.34375","-2.09375"
"1575566521032","419","-0.18945312","-0.9785156","0.024414062","-1.40625","1.28125","-1.34375"
"1575566521427","420","-0.16308594","-0.99609375","0.040039062","-1.78125","3.71875","-2.21875"
"1575566521428","421","-0.17382812","-0.9941406","0.01953125","2.125","1.03125","-1.84375"
"1575566521429","422","-0.17382812","-0.9472656","0.032226562","-3.3125","1.09375","-0.9375"
"1575566521429","423","-0.15722656","-0.9609375","0.043945312","0.53125","2.0","-0.6875"
"1575566521429","424","-0.19042969","-1.0","0.029296875","2.78125","2.25","1.15625"
"1575566521430","425","-0.1796875","-1.0087891","0.03125","1.3125","4.0","0.90625"
"1575566521430","426","-0.16894531","-0.9892578","0.048828125","1.4375","5.0625","0.34375"
"1575566521430","427","-0.16699219","-0.9863281","0.038085938","1.5625","1.5625","1.5625"
"1575566521430","428","-0.16894531","-0.9716797","0.041015625","-0.6875","0.96875","0.03125"
"1575566521431","429","-0.17089844","-0.9628906","0.04296875","-0.3125","1.5","-1.59375"
"1575566521826","430","-0.1796875","-0.9550781","0.041992188","-0.875","1.5","-0.375"
"1575566521826","431","-0.17382812","-0.94433594","0.049804688","0.53125","2.1875","-1.34375"
"1575566521827","432","-0.16015625","-0.92089844","0.0625","-0.125","3.15625","-2.03125"
"1575566521828","433","-0.17089844","-0.93359375","0.10839844","-1.78125","7.4375","-0.375"
"1575566521828","434","-0.19140625","-0.9453125","-0.009765625","9.09375","-3.25","1.21875"
"1575566521829","435","-0.18652344","-0.9501953","0.049804688","-1.0","1.625","0.78125"
"1575566521829","436","-0.22265625","-0.95410156","0.12597656","2.0","1.5","1.375"
"1575566521831","437","-0.15429688","-0.90625","0.022460938","9.625","-2.15625","-2.28125"
"1575566521832","438","-0.2109375","-0.9736328","0.123046875","-0.9375","2.5","3.78125"
"1575566521832","439","-0.21582031","-0.99316406","0.05859375","9.4375","-1.125","2.71875"
"1575566522621","440","-0.15429688","-0.98339844","0.10546875","-0.1875","0.28125","2.90625"
"1575566522621","441","-0.2548828","-0.9892578","0.041992188","6.5","-1.65625","4.125"
"1575566522622","442","-0.1015625","-0.8886719","0.032226562","4.1875","-7.09375","1.75"
"1575566522622","443","-0.328125","-1.1611328","0.24316406","8.46875","20.5625","10.71875"
"1575566522622","444","-0.26757812","-1.5166016","-0.13183594","30.125","-11.5","-3.6875"
"1575566522624","445","0.12402344","-1.0097656","-0.09082031","-20.40625","-16.125","12.0625"
"1575566522624","446","-0.08105469","-0.54003906","0.24707031","-37.625","-8.5","-28.46875"
"1575566522625","447","-0.3798828","-0.921875","0.14746094","32.03125","5.90625","7.5"
"1575566522625","448","-0.13671875","-1.3808594","-0.10058594","1.5625","-0.375","13.15625"
"1575566522625","449","-0.08691406","-1.0292969","0.037109375","-26.5625","1.9375","-36.625"
"1575566522817","450","-0.21289062","-0.8095703","0.103515625","-15.40625","0.65625","-15.03125"
"1575566522817","451","-0.12792969","-0.9121094","0.07421875","-0.5625","-1.59375","-1.59375"
"1575566522817","452","-0.111328125","-1.0390625","0.041015625","-0.0625","-0.8125","-2.6875"
"1575566522818","453","-0.17285156","-1.0527344","0.040039062","-6.59375","0.65625","-9.46875"
"1575566522818","454","-0.15136719","-0.953125","0.059570312","-8.8125","-2.03125","-4.09375"
"1575566522818","455","-0.14257812","-0.9375","0.05078125","-3.8125","-1.96875","-1.59375"
"1575566522819","456","-0.17675781","-1.0019531","0.016601562","0.0","0.71875","-0.875"
"1575566522820","457","-0.16796875","-1.0126953","0.06640625","-4.34375","1.09375","-0.25"
"1575566522820","458","-0.12011719","-0.95214844","0.048828125","1.75","0.84375","-0.1875"
"1575566522820","459","-0.11425781","-0.9863281","0.048828125","1.75","-1.46875","2.0625"
"1575566523217","460","-0.12695312","-1.0146484","0.059570312","-0.6875","-4.96875","2.0625"
"1575566523218","461","-0.12597656","-1.0166016","0.041992188","-2.15625","-6.84375","-0.4375"
"1575566523218","462","-0.14746094","-0.98046875","0.028320312","-1.71875","-8.0625","-1.71875"
"1575566523218","463","-0.14746094","-0.9794922","0.056640625","0.0","-6.0625","1.21875"
"1575566523218","464","-0.14453125","-1.0068359","0.064453125","3.34375","-6.53125","0.65625"
"1575566523219","465","-0.1328125","-1.0068359","0.08105469","0.40625","-6.1875","-0.5625"
"1575566523219","466","-0.14257812","-1.0166016","0.07714844","-0.0625","-7.21875","-0.125"
"1575566523219","467","-0.15332031","-1.015625","0.07128906","-3.5625","-6.4375","-0.9375"
"1575566523219","468","-0.16503906","-0.9873047","0.06640625","-5.9375","-5.3125","-2.53125"
"1575566523221","469","-0.17382812","-0.9580078","0.07714844","-6.65625","-1.65625","-3.375"
"1575566523614","470","-0.18066406","-0.9628906","0.064453125","0.71875","2.0625","-3.0625"
"1575566523614","471","-0.13769531","-1.0009766","0.080078125","3.65625","5.21875","-1.96875"
"1575566523614","472","-0.15527344","-1.0166016","0.07128906","2.25","3.34375","-2.40625"
"1575566523615","473","-0.16308594","-0.9892578","0.07128906","1.6875","5.0","-2.625"
"1575566523615","474","-0.1640625","-0.98046875","0.06640625","3.40625","6.6875","-2.53125"
"1575566523615","475","-0.13378906","-0.98339844","0.06347656","4.25","7.625","-1.46875"
"1575566523615","476","-0.11035156","-0.99316406","0.091796875","0.71875","5.65625","0.46875"
"1575566523616","477","-0.107421875","-0.9824219","0.076171875","1.3125","0.90625","1.5625"
"1575566523616","478","-0.13183594","-0.99609375","0.11816406","-9.53125","-1.78125","1.8125"
"1575566523616","479","-0.15429688","-0.9736328","0.08691406","-6.25","-2.15625","1.4375"
"1575566524011","480","-0.19921875","-1.0136719","0.07714844","-3.375","-3.90625","2.0"
"1575566524012","481","-0.20019531","-0.9824219","0.060546875","-3.6875","1.8125","-0.4375"
"1575566524013","482","-0.14355469","-0.98046875","0.0546875","-0.5","8.65625","-0.25"
"1575566524013","483","-0.13671875","-0.9941406","0.06640625","-2.53125","6.75","-0.5625"
"1575566524013","484","-0.1484375","-0.9892578","0.07421875","-1.0","2.0","0.90625"
"1575566524014","485","-0.15917969","-0.98828125","0.06640625","-0.6875","3.03125","-1.46875"
"1575566524014","486","-0.15234375","-0.984375","0.072265625","-1.90625","3.03125","-2.875"
"1575566524014","487","-0.16308594","-0.98828125","0.053710938","-0.3125","4.5","-1.96875"
"1575566524014","488","-0.15917969","-0.9863281","0.053710938","0.21875","5.90625","-1.0625"
"1575566524015","489","-0.140625","-0.984375","0.055664062","0.65625","5.65625","-0.75"
"1575566524806","490","-0.13574219","-0.9980469","0.064453125","-2.9375","5.40625","-0.6875"
"1575566524806","491","-0.16113281","-0.98535156","0.0625","-3.5","4.8125","-1.46875"
"1575566524806","492","-0.15527344","-0.96777344","0.06542969","0.84375","6.15625","-0.25"
"1575566524808","493","-0.14160156","-0.9794922","0.059570312","1.21875","5.34375","0.28125"
"1575566524808","494","-0.13378906","-0.9863281","0.05859375","0.40625","3.03125","0.84375"
"1575566524809","495","-0.15136719","-0.99316406","0.103515625","-4.15625","2.5","1.3125"
"1575566524809","496","-0.18261719","-0.96875","0.045898438","1.3125","-1.0","0.65625"
"1575566524809","497","-0.16113281","-0.97558594","0.07519531","-3.96875","1.5","0.15625"
"1575566524810","498","-0.15332031","-0.9550781","0.06933594","-2.6875","3.15625","-2.21875"
"1575566524810","499","-0.17871094","-0.9863281","0.061523438","0.53125","2.90625","-0.1875"
"1575566525005","500","-0.16796875","-0.9892578","0.068359375","-1.71875","3.59375","0.0"
"1575566525005","501","-0.17578125","-0.98535156","0.06542969","-0.25","3.46875","-0.5"
"1575566525005","502","-0.19433594","-1.0048828","0.05078125","1.5625","4.0","1.375"
"1575566525006","503","-0.15722656","-1.0019531","0.056640625","0.78125","4.0","1.375"
"1575566525006","504","-0.1640625","-0.97753906","0.059570312","-0.375","2.84375","-1.65625"
"1575566525007","505","-0.15429688","-0.9550781","0.049804688","-1.46875","2.0625","-2.21875"
"1575566525008","506","-0.13769531","-0.93847656","0.06933594","-4.90625","3.65625","-3.6875"
"1575566525008","507","-0.16015625","-0.96875","0.068359375","-3.3125","2.25","-3.25"
"1575566525008","508","-0.1796875","-0.9902344","0.057617188","-3.0625","2.5","-2.21875"
"1575566525008","509","-0.16601562","-0.98339844","0.06933594","-0.875","2.375","-1.46875"
"1575566525205","510","-0.15136719","-0.9589844","0.068359375","-0.5625","-0.5625","-1.59375"
"1575566525206","511","-0.14648438","-0.9580078","0.08886719","-0.875","2.90625","0.46875"
"1575566525206","512","-0.16601562","-1.0107422","0.09667969","0.46875","1.875","2.0"
"1575566525206","513","-0.18847656","-0.9902344","0.053710938","-0.8125","0.96875","0.15625"
"1575566525207","514","-0.17285156","-0.9814453","0.08496094","-1.40625","7.0625","0.0"
"1575566525207","515","-0.18164062","-0.96191406","0.078125","-0.6875","4.0625","-1.0"
"1575566525207","516","-0.15722656","-0.9765625","0.053710938","3.65625","4.25","-0.4375"
"1575566525208","517","-0.16210938","-1.0185547","0.095703125","-2.6875","4.875","-0.9375"
"1575566525209","518","-0.17480469","-1.0039062","0.09082031","0.96875","5.0625","-1.3125"
"1575566525209","519","-0.14550781","-0.99609375","0.046875","-0.3125","2.78125","-1.34375"
"1575566525602","520","-0.171875","-0.96777344","0.060546875","-2.8125","3.53125","-1.25"
"1575566525602","521","-0.15136719","-0.91503906","0.056640625","-2.8125","3.84375","-1.25"
"1575566525602","522","-0.12207031","-0.8691406","0.047851562","4.125","0.40625","-4.15625"
"1575566525603","523","-0.17578125","-0.89160156","0.068359375","1.5","1.21875","-3.5"
"1575566525603","524","-0.18261719","-0.9355469","0.12207031","0.84375","5.65625","-1.78125"
"1575566525603","525","-0.18164062","-1.0166016","0.111328125","3.65625","7.6875","-2.625"
"1575566525603","526","-0.21289062","-1.0322266","0.1171875","0.71875","9.5","-0.9375"
"1575566525604","527","-0.18847656","-1.0380859","0.06933594","2.0625","5.0","4.375"
"1575566525604","528","-0.15234375","-0.98535156","0.06347656","-2.625","4.125","1.15625"
"1575566525605","529","-0.12988281","-0.94140625","0.099609375","0.84375","0.78125","0.90625"
"1575566525998","530","-0.2109375","-1.1416016","0.15332031","10.375","8.71875","1.75"
"1575566525999","531","-0.140625","-1.2314453","-0.043945312","13.21875","-6.53125","0.09375"
"1575566525999","532","0.0048828125","-0.9794922","-0.001953125","-17.53125","-12.28125","-4.96875"
"1575566525999","533","-0.13964844","-0.8359375","0.16210938","-8.9375","-5.4375","-11.5625"
"1575566525999","534","-0.19726562","-1.0039062","0.060546875","5.28125","-6.125","5.59375"
"1575566526000","535","-0.13671875","-1.0888672","-0.001953125","-3.3125","-4.59375","-6.125"
"1575566526000","536","-0.13867188","-0.9892578","0.053710938","-11.125","-1.125","-11.84375"
"1575566526000","537","-0.14453125","-0.95410156","0.0703125","-8.1875","-2.625","-5.6875"
"1575566526000","538","-0.13964844","-0.9785156","0.047851562","-4.71875","-1.0","-4.90625"
"1575566526001","539","-0.13964844","-1.0185547","0.041992188","-4.34375","2.65625","-4.84375"
"1575566526396","540","-0.13671875","-0.9824219","0.052734375","-5.6875","5.28125","-4.15625"
"1575566526398","541","-0.109375","-0.9658203","0.059570312","-3.0625","4.5","-1.25"
"1575566526399","542","-0.12402344","-0.9873047","0.048828125","-1.65625","2.84375","-0.375"
"1575566526400","543","-0.12890625","-0.9980469","0.046875","-1.96875","2.59375","-1.1875"
"1575566526400","544","-0.12695312","-0.9824219","0.044921875","-1.25","2.1875","-0.25"
"1575566526400","545","-0.11425781","-0.98535156","0.046875","0.53125","1.09375","1.03125"
"1575566526400","546","-0.12402344","-0.9941406","0.046875","0.84375","-0.625","1.15625"
"1575566526401","547","-0.13183594","-0.99121094","0.053710938","0.96875","0.40625","0.71875"
"1575566526401","548","-0.12011719","-1.0126953","0.056640625","0.71875","0.96875","0.15625"
"1575566526401","549","-0.13867188","-0.9951172","0.06640625","-1.78125","0.78125","-0.9375"
"1575566526795","550","-0.13671875","-0.9892578","0.049804688","2.1875","3.09375","0.15625"
"1575566526795","551","-0.12890625","-1.0097656","0.052734375","2.3125","3.65625","-0.9375"
"1575566526796","552","-0.16015625","-0.9970703","0.064453125","0.03125","0.71875","-0.9375"
"1575566526797","553","-0.15820312","-0.9785156","0.07324219","5.90625","2.375","1.03125"
"1575566526798","554","-0.13183594","-0.98535156","0.09765625","0.78125","1.875","0.0"
"1575566526798","555","-0.15039062","-0.9941406","0.08105469","5.84375","-0.3125","0.84375"
"1575566526798","556","-0.16796875","-1.0205078","0.068359375","3.34375","0.78125","2.5"
"1575566526799","557","-0.15722656","-0.99121094","0.087890625","-0.5","4.5","0.96875"
"1575566526799","558","-0.15429688","-0.99316406","0.07324219","-0.25","6.75","1.3125"
"1575566526799","559","-0.14550781","-0.99316406","0.08105469","0.03125","5.21875","1.8125"
"1575566527192","560","-0.14355469","-0.984375","0.08691406","-1.53125","3.15625","1.5"
"1575566527193","561","-0.13671875","-0.9863281","0.08105469","-1.59375","1.75","-0.3125"
"1575566527193","562","-0.14746094","-0.9785156","0.09082031","-4.21875","0.59375","0.09375"
"1575566527193","563","-0.15234375","-0.9765625","0.09277344","-0.9375","0.84375","1.21875"
"1575566527193","564","-0.14355469","-0.9667969","0.09863281","-3.0625","0.71875","0.09375"
"1575566527195","565","-0.17480469","-0.96972656","0.09472656","-2.8125","2.0","-0.375"
"1575566527195","566","-0.18457031","-1.0097656","0.07421875","0.03125","5.65625","0.0"
"1575566527195","567","-0.16113281","-0.9941406","0.087890625","-1.90625","6.625","0.65625"
"1575566527196","568","-0.13476562","-0.97265625","0.08496094","0.53125","4.125","0.53125"
"1575566527196","569","-0.12890625","-0.9716797","0.078125","-1.125","0.90625","0.53125"
"1575566527591","570","-0.1640625","-0.9873047","0.08105469","-0.875","-1.3125","0.09375"
"1575566527591","571","-0.16503906","-0.9980469","0.08203125","-1.40625","1.5","-0.75"
"1575566527591","572","-0.16601562","-1.0146484","0.07519531","-1.0625","1.4375","-1.40625"
"1575566527592","573","-0.16796875","-1.0117188","0.07128906","-3.0625","1.5","-0.625"
"1575566527592","574","-0.17773438","-0.98046875","0.07714844","-2.46875","2.4375","-0.5"
"1575566527592","575","-0.16308594","-0.9736328","0.08886719","-2.46875","2.0625","-0.1875"
"1575566527592","576","-0.15429688","-0.9736328","0.055664062","-0.5625","1.9375","-1.96875"
"1575566527594","577","-0.1796875","-0.96191406","0.076171875","-3.125","1.3125","-1.25"
"1575566527594","578","-0.16894531","-0.9716797","0.08203125","-1.59375","1.75","-1.0"
"1575566527595","579","-0.17773438","-0.9921875","0.07519531","-0.5","2.25","-0.4375"
"1575566527987","580","-0.17871094","-1.0117188","0.07714844","0.40625","2.3125","0.78125"
"1575566527987","581","-0.16796875","-0.98339844","0.080078125","-2.09375","1.8125","0.34375"
"1575566527988","582","-0.15527344","-0.96484375","0.072265625","0.0","1.375","0.34375"
"1575566527988","583","-0.16699219","-0.96484375","0.07324219","-0.75","1.9375","0.0"
"1575566527988","584","-0.15722656","-0.9707031","0.08105469","-1.0625","2.0625","-0.75"
"1575566527988","585","-0.16796875","-0.984375","0.08984375","-1.46875","3.40625","-1.71875"
"1575566527989","586","-0.18261719","-1.0166016","0.08203125","0.53125","3.21875","-1.1875"
"1575566527989","587","-0.18261719","-1.0224609","0.08886719","-0.0625","5.1875","0.09375"
"1575566527989","588","-0.16601562","-1.0029297","0.07519531","0.21875","6.21875","0.09375"
"1575566527991","589","-0.13671875","-0.96484375","0.06347656","0.0","4.25","-1.1875"
"1575566528385","590","-0.14160156","-0.9433594","0.068359375","-4.78125","2.59375","-2.53125"
"1575566528385","591","-0.1484375","-0.90722656","0.051757812","-1.96875","2.90625","-5.03125"
"1575566528385","592","-0.1328125","-0.93359375","0.07519531","-5.75","4.1875","-5.3125"
"1575566528386","593","-0.17382812","-0.96777344","0.07519531","1.6875","5.21875","-4.21875"
"1575566528386","594","-0.17871094","-1.0654297","0.08984375","1.8125","5.21875","0.46875"
"1575566528386","595","-0.17773438","-1.0585938","0.0859375","0.71875","5.21875","0.21875"
"1575566528386","596","-0.15527344","-1.0048828","0.0625","2.125","2.84375","2.375"
"1575566528386","597","-0.14453125","-0.9277344","0.06640625","-1.96875","3.15625","1.875"
"1575566528387","598","-0.13378906","-0.9326172","0.08300781","-1.53125","5.34375","0.53125"
"1575566528387","599","-0.16699219","-0.96777344","0.07910156","0.09375","4.75","-1.3125"
"1575566528782","600","-0.16601562","-1.0019531","0.07421875","-1.1875","5.1875","-1.25"
"1575566528784","601","-0.17871094","-1.0029297","0.07910156","-0.625","4.625","-1.78125"
"1575566528784","602","-0.15332031","-0.9716797","0.064453125","-1.46875","2.0625","-0.5625"
"1575566528784","603","-0.15429688","-0.94628906","0.091796875","-2.8125","2.65625","-1.0625"
"1575566528785","604","-0.18554688","-0.9785156","0.09082031","0.65625","2.96875","0.84375"
"1575566528785","605","-0.18359375","-1.0283203","0.08496094","0.78125","4.75","0.09375"
"1575566528785","606","-0.19238281","-1.0341797","0.07910156","-1.34375","4.9375","0.15625"
"1575566528785","607","-0.16796875","-0.9941406","0.078125","-3.3125","4.125","1.09375"
"1575566528786","608","-0.15625","-0.9394531","0.06933594","-3.25","2.59375","-0.3125"
"1575566528786","609","-0.14746094","-0.9277344","0.07519531","-3.0625","2.3125","0.28125"
"1575566529180","610","-0.16210938","-0.94433594","0.07910156","-1.34375","1.3125","-0.3125"
"1575566529180","611","-0.15917969","-0.92285156","0.055664062","-2.15625","-1.3125","-0.8125"
"1575566529181","612","-0.1796875","-0.9638672","0.10839844","-4.59375","0.59375","0.34375"
"1575566529182","613","-0.24121094","-1.0253906","0.09765625","4.25","2.375","2.0"
"1575566529183","614","-0.14160156","-1.0117188","0.034179688","-1.84375","-0.4375","3.21875"
"1575566529183","615","-0.13476562","-0.90722656","0.09277344","-9.59375","-5.15625","-1.53125"
"1575566529183","616","-0.21289062","-0.9238281","0.06738281","2.3125","-7.40625","4.125"
"1575566529183","617","-0.14453125","-0.95996094","0.07714844","-3.8125","-8.5625","2.25"
"1575566529184","618","-0.19726562","-0.9628906","0.09765625","3.9375","-11.5","-2.21875"
"1575566529184","619","-0.20996094","-0.9189453","0.0068359375","2.4375","-15.03125","0.03125"
"1575566529576","620","-0.19628906","-1.0449219","0.19433594","-4.40625","5.96875","3.59375"
"1575566529576","621","-0.38476562","-1.5419922","-0.024414062","39.09375","0.90625","-7.09375"
"1575566529576","622","-0.016601562","-1.0390625","0.009765625","-21.0625","-7.875","13.15625"
"1575566529577","623","-0.0048828125","-0.6123047","0.17578125","-37.1875","-12.96875","-11.125"
"1575566529577","624","-0.30078125","-0.8076172","0.1328125","25.3125","2.1875","-8.375"
"1575566529578","625","-0.33398438","-1.4140625","-0.12207031","14.375","7.125","19.03125"
"1575566529578","626","-0.06933594","-1.0400391","0.053710938","-27.125","12.0","-19.90625"
"1575566529579","627","-0.15234375","-0.7841797","0.115234375","-6.59375","12.1875","-13.875"
"1575566529579","628","-0.14746094","-0.9550781","0.0625","-0.125","3.71875","0.15625"
"1575566529579","629","-0.103515625","-1.0322266","0.056640625","-0.8125","2.5","-1.96875"
"1575566529975","630","-0.16601562","-1.0478516","0.0546875","-1.46875","4.5","-7.21875"
"1575566529975","631","-0.15722656","-0.94433594","0.068359375","-5.5","1.03125","-4.65625"
"1575566529975","632","-0.13964844","-0.9267578","0.07714844","-0.9375","0.96875","-0.5625"
"1575566529975","633","-0.15332031","-1.0146484","0.052734375","1.8125","2.84375","0.15625"
"1575566529976","634","-0.16015625","-1.0185547","0.053710938","0.0","2.90625","-2.28125"
"1575566529976","635","-0.12890625","-0.96875","0.06640625","-2.09375","2.84375","-1.3125"
"1575566529976","636","-0.15527344","-0.9746094","0.053710938","-0.75","2.78125","0.15625"
"1575566529977","637","-0.15136719","-1.0117188","0.047851562","1.375","4.3125","0.84375"
"1575566529977","638","-0.140625","-1.0058594","0.044921875","-2.34375","4.5","-1.40625"
"1575566529978","639","-0.14550781","-0.9863281","0.037109375","-1.125","3.15625","-1.25"
"1575566530372","640","-0.14550781","-0.9736328","0.07128906","-5.625","2.0625","-0.6875"
"1575566530373","641","-0.13378906","-0.9970703","0.040039062","1.4375","-0.1875","-1.0625"
"1575566530373","642","-0.140625","-0.99902344","0.055664062","-4.96875","-3.75","-1.25"
"1575566530373","643","-0.14355469","-0.9736328","0.06542969","-5.375","-3.90625","-2.625"
"1575566530373","644","-0.15722656","-0.984375","0.055664062","-1.84375","-4.53125","-2.28125"
"1575566530374","645","-0.15820312","-0.9873047","0.040039062","-0.25","-7.28125","-2.53125"
"1575566530374","646","-0.18164062","-0.9785156","0.052734375","-2.59375","-4.28125","-2.875"
"1575566530374","647","-0.17089844","-0.9921875","0.051757812","2.125","-0.5625","-2.46875"
"1575566530374","648","-0.15820312","-0.99609375","0.061523438","2.0625","2.0625","-3.75"
"1575566530376","649","-0.16601562","-0.9951172","0.056640625","3.21875","2.90625","-3.375"
"1575566530768","650","-0.16210938","-0.9892578","0.068359375","3.21875","6.9375","-2.625"
"1575566530768","651","-0.13574219","-1.0019531","0.06542969","5.125","7.90625","-1.25"
"1575566530769","652","-0.123046875","-1.0117188","0.08496094","3.21875","6.9375","-2.03125"
"1575566530769","653","-0.1328125","-1.0058594","0.09472656","2.90625","2.84375","-2.875"
"1575566530769","654","-0.1328125","-0.9824219","0.09472656","1.8125","-0.1875","-3.875"
"1575566530769","655","-0.13671875","-0.9873047","0.087890625","0.21875","-1.40625","-3.5625"
"1575566530769","656","-0.14453125","-0.984375","0.1015625","-0.9375","-2.53125","-2.59375"
"1575566530769","657","-0.15722656","-0.9580078","0.08300781","0.90625","-3.4375","-1.59375"
"1575566530770","658","-0.16015625","-0.9628906","0.095703125","0.34375","-0.375","0.65625"
"1575566530770","659","-0.15234375","-1.0097656","0.05859375","3.34375","0.09375","1.75"
"1575566531167","660","-0.12402344","-1.0361328","0.13476562","-3.875","0.71875","2.5625"
"1575566531168","661","-0.13671875","-0.9941406","0.11035156","1.03125","-2.21875","2.0625"
"1575566531169","662","-0.16894531","-1.0068359","0.078125","3.84375","-2.28125","3.34375"
"1575566531169","663","-0.13769531","-0.95996094","0.072265625","-1.0625","0.84375","0.53125"
"1575566531170","664","-0.12402344","-0.9296875","0.09667969","-1.90625","4.625","-2.9375"
"1575566531170","665","-0.12597656","-0.95214844","0.08886719","0.21875","5.34375","-3.4375"
"1575566531170","666","-0.1328125","-0.99902344","0.11230469","-2.03125","5.71875","-2.09375"
"1575566531171","667","-0.15625","-1.0498047","0.111328125","0.65625","8.21875","-2.75"
"1575566531171","668","-0.14941406","-1.046875","0.09082031","1.6875","5.65625","-0.4375"
"1575566531171","669","-0.14550781","-0.9736328","0.08886719","0.90625","6.15625","0.21875"
"1575566531563","670","-0.12011719","-0.9716797","0.09667969","0.21875","5.46875","2.3125"
"1575566531564","671","-0.1328125","-0.9638672","0.083984375","-1.65625","2.71875","0.65625"
"1575566531564","672","-0.16503906","-0.95996094","0.08691406","-3.625","4.25","0.03125"
"1575566531565","673","-0.16894531","-0.96777344","0.1015625","-2.625","7.4375","1.3125"
"1575566531565","674","-0.14550781","-0.9824219","0.099609375","-1.0","6.625","1.75"
"1575566531566","675","-0.15527344","-1.0048828","0.08300781","-1.0625","4.5","0.84375"
"1575566531566","676","-0.13476562","-0.9970703","0.078125","-0.5","3.40625","0.0"
"1575566531566","677","-0.14550781","-0.9433594","0.08496094","-4.09375","1.9375","-0.5625"
"1575566531567","678","-0.14453125","-0.90722656","0.06738281","1.15625","1.625","-0.9375"
"1575566531567","679","-0.16015625","-0.97265625","0.11328125","-1.25","4.625","-1.65625"
"1575566531962","680","-0.1640625","-1.0634766","0.09082031","4.0","4.0625","-1.25"
"1575566531962","681","-0.17382812","-1.0830078","0.07714844","0.78125","1.5","-1.1875"
"1575566531962","682","-0.15917969","-0.9892578","0.1015625","-3.625","1.5","0.65625"
"1575566531963","683","-0.14648438","-0.94628906","0.09667969","-0.9375","1.625","1.625"
"1575566531963","684","-0.140625","-0.95214844","0.080078125","0.09375","2.4375","0.78125"
"1575566531964","685","-0.14648438","-0.9609375","0.076171875","-2.6875","0.65625","-1.78125"
"1575566531964","686","-0.15527344","-0.90625","0.08105469","-4.34375","1.75","-3.625"
"1575566531964","687","-0.15332031","-0.9589844","0.10546875","-0.125","5.0625","-2.875"
"1575566531965","688","-0.17578125","-1.0830078","0.107421875","2.96875","7.5","-0.25"
"1575566531965","689","-0.171875","-1.0693359","0.08105469","-1.125","3.9375","-0.9375"
"1575566532360","690","-0.16113281","-0.9560547","0.09375","-3.75","4.0","-0.625"
"1575566532360","691","-0.14355469","-0.9248047","0.09863281","-0.8125","4.625","1.03125"
"1575566532361","692","-0.15332031","-0.96484375","0.08691406","-0.125","4.5","-0.5625"
"1575566532361","693","-0.16601562","-1.0253906","0.07421875","-0.4375","5.59375","-1.96875"
"1575566532361","694","-0.16015625","-1.0146484","0.08886719","-3.96875","5.0625","-1.40625"
"1575566532361","695","-0.14648438","-0.96484375","0.09667969","-3.25","3.40625","-0.5625"
"1575566532362","696","-0.15332031","-0.9941406","0.09863281","-1.25","2.4375","1.375"
"1575566532363","697","-0.16699219","-0.9736328","0.061523438","-3.0","0.40625","0.28125"
"1575566532363","698","-0.16113281","-0.9589844","0.08984375","-4.59375","4.0","0.03125"
"1575566532364","699","-0.16210938","-0.9404297","0.087890625","-4.40625","3.84375","-1.53125"
"1575566532954","700","-0.15527344","-0.9638672","0.06640625","-0.875","5.0","-0.8125"
"1575566532954","701","-0.17382812","-0.99316406","0.07128906","-2.15625","5.1875","-0.6875"
"1575566532955","702","-0.1484375","-0.99121094","0.095703125","-3.25","4.0625","0.53125"
"1575566532955","703","-0.1640625","-0.9873047","0.08984375","0.0","2.4375","0.40625"
"1575566532955","704","-0.15625","-0.9824219","0.06738281","-0.4375","1.375","2.0625"
"1575566532955","705","-0.15234375","-0.9560547","0.087890625","-2.59375","1.09375","0.0"
"1575566532956","706","-0.1796875","-0.953125","0.06738281","0.90625","3.34375","-0.25"
"1575566532956","707","-0.15625","-0.9501953","0.051757812","-1.53125","0.40625","0.65625"
"1575566532956","708","-0.16796875","-0.921875","0.08105469","-2.03125","-1.0","-1.40625"
"1575566532957","709","-0.18164062","-1.0048828","0.08105469","1.375","-0.625","-1.65625"
"1575566533547","710","-0.171875","-1.0537109","0.08300781","0.65625","-6.3125","-1.125"
"1575566533547","711","-0.20507812","-0.9970703","0.08203125","-1.96875","-9.28125","0.21875"
"1575566533547","712","-0.18359375","-0.91015625","0.06933594","-6.0625","-6.84375","1.875"
"1575566533548","713","-0.13574219","-0.8466797","0.11230469","-5.9375","-4.78125","2.65625"
"1575566533548","714","-0.18554688","-0.90527344","0.12988281","-0.25","-1.71875","3.03125"
"1575566533548","715","-0.27734375","-1.0869141","0.13574219","4.5625","6.8125","5.34375"
"1575566533548","716","-0.27929688","-1.2138672","0.026367188","11.28125","4.9375","7.8125"
"1575566533548","717","-0.12207031","-0.9707031","0.03125","-9.0","1.9375","1.8125"
"1575566533548","718","-0.12890625","-0.8154297","0.15820312","-5.3125","1.9375","-1.1875"
"1575566533549","719","-0.27246094","-1.03125","0.10839844","17.875","8.84375","7.625"
"1575566533948","720","-0.17578125","-1.2294922","0.041015625","3.90625","11.8125","11.03125"
"1575566533950","721","-0.0625","-1.0292969","0.037109375","-13.625","7.0625","-6.65625"
"1575566533950","722","-0.1875","-0.8984375","0.0703125","-15.34375","3.15625","-7.46875"
"1575566533950","723","-0.203125","-0.96875","0.043945312","-11.3125","6.5","0.34375"
"1575566533951","724","-0.16015625","-1.0107422","0.017578125","-9.59375","8.84375","-4.40625"
"1575566533951","725","-0.15234375","-0.99316406","0.025390625","-7.71875","8.09375","-9.0625"
"1575566533951","726","-0.15039062","-0.94921875","0.044921875","-8.25","3.28125","-6.59375"
"1575566533951","727","-0.14648438","-0.9707031","0.044921875","-4.71875","1.4375","-2.625"
"1575566533952","728","-0.15820312","-0.9970703","0.0390625","-4.53125","0.59375","-2.6875"
"1575566533952","729","-0.18457031","-0.9785156","0.038085938","-4.53125","0.09375","-3.4375"
"1575566534145","730","-0.17480469","-0.96484375","0.030273438","-2.28125","1.28125","-2.03125"
"1575566534146","731","-0.18652344","-0.9765625","0.032226562","-0.9375","2.1875","-0.875"
"1575566534146","732","-0.17675781","-0.99609375","0.032226562","-0.4375","1.9375","-0.4375"
"1575566534147","733","-0.15820312","-0.99316406","0.034179688","-0.5","0.90625","-0.75"
"1575566534147","734","-0.15625","-0.98339844","0.038085938","-0.8125","0.59375","-1.3125"
"1575566534148","735","-0.14648438","-0.9863281","0.024414062","1.3125","-0.625","-1.84375"
"1575566534148","736","-0.15234375","-1.0019531","0.03125","-0.4375","-1.0625","-1.96875"
"1575566534148","737","-0.15332031","-1.0019531","0.01953125","2.0","-1.0625","-3.1875"
"1575566534149","738","-0.15820312","-0.99609375","0.041015625","-0.5","2.3125","-3.25"
"1575566534149","739","-0.15917969","-1.0058594","0.015625","0.28125","-0.375","-4.65625"
"1575566534347","740","-0.14550781","-1.0009766","0.06738281","-3.6875","-2.75","-3.1875"
"1575566534348","741","-0.16894531","-0.9736328","0.061523438","0.40625","-3.25","-4.09375"
"1575566534348","742","-0.19824219","-0.984375","0.041015625","1.75","-3.875","-2.15625"
"1575566534348","743","-0.18457031","-0.9736328","0.056640625","-1.125","-0.8125","-1.59375"
"1575566534349","744","-0.171875","-0.9785156","0.06542969","1.6875","0.34375","-1.3125"
"1575566534350","745","-0.17089844","-1.0107422","0.0546875","1.6875","0.65625","0.34375"
"1575566534351","746","-0.16894531","-1.0195312","0.068359375","-0.75","2.59375","1.3125"
"1575566534351","747","-0.16699219","-0.99121094","0.064453125","0.21875","2.96875","0.65625"
"1575566534351","748","-0.17480469","-0.9716797","0.06738281","-0.0625","4.5","1.03125"
"1575566534351","749","-0.15527344","-0.9736328","0.0546875","-0.625","5.71875","0.09375"
"1575566534745","750","-0.15234375","-0.9355469","0.045898438","-3.75","2.3125","-2.625"
"1575566534745","751","-0.14941406","-0.9140625","0.061523438","-5.21875","2.5","-4.03125"
"1575566534746","752","-0.16992188","-1.0166016","0.07714844","-3.1875","6.03125","-5.15625"
"1575566534746","753","-0.19433594","-1.1103516","0.0703125","1.3125","5.21875","-1.71875"
"1575566534746","754","-0.17480469","-1.0371094","0.06347656","1.6875","0.96875","-0.5625"
"1575566534746","755","-0.16210938","-0.953125","0.061523438","4.0","1.5625","0.71875"
"1575566534747","756","-0.15136719","-0.9326172","0.057617188","2.375","3.90625","1.3125"
"1575566534748","757","-0.16699219","-0.9716797","0.044921875","3.34375","4.3125","-0.9375"
"1575566534748","758","-0.17871094","-1.0058594","0.08105469","-1.46875","8.53125","-2.9375"
"1575566534749","759","-0.15917969","-1.0126953","0.048828125","3.71875","7.5","-3.0"
"1575566535341","760","-0.14550781","-1.0166016","0.05859375","1.21875","3.90625","-0.8125"
"1575566535342","761","-0.15527344","-0.9736328","0.059570312","-0.25","2.71875","-1.0625"
"1575566535342","762","-0.16015625","-0.96484375","0.061523438","0.21875","4.375","-1.40625"
"1575566535342","763","-0.15625","-0.97265625","0.0546875","0.90625","5.21875","-1.71875"
"1575566535343","764","-0.15722656","-1.0048828","0.06542969","-1.25","5.34375","-1.65625"
"1575566535343","765","-0.15332031","-0.9892578","0.0625","0.0","4.6875","-2.03125"
"1575566535343","766","-0.15136719","-0.9716797","0.06347656","-0.125","3.84375","-1.71875"
"1575566535343","767","-0.15136719","-0.9765625","0.07519531","-0.25","4.125","-1.71875"
"1575566535344","768","-0.15234375","-0.9921875","0.0703125","-0.6875","5.1875","-2.34375"
"1575566535345","769","-0.15527344","-0.98828125","0.068359375","-0.25","5.1875","-2.28125"
"1575566535539","770","-0.14941406","-0.9736328","0.068359375","-0.5625","4.25","-2.53125"
"1575566535539","771","-0.15820312","-0.984375","0.06347656","0.71875","4.125","-2.75"
"1575566535539","772","-0.16015625","-0.9863281","0.055664062","0.03125","2.5","-2.28125"
"1575566535539","773","-0.15136719","-1.0078125","0.06640625","0.96875","5.0625","-2.9375"
"1575566535540","774","-0.15136719","-1.0117188","0.08496094","-0.375","3.40625","-2.21875"
"1575566535540","775","-0.16503906","-0.9794922","0.05078125","4.0","1.375","-2.6875"
"1575566535540","776","-0.1484375","-1.0009766","0.091796875","-0.6875","1.9375","-0.875"
"1575566535540","777","-0.16210938","-0.9589844","0.07324219","-0.625","1.6875","-2.09375"
"1575566535541","778","-0.16699219","-0.9765625","0.051757812","1.6875","3.46875","-1.25"
"1575566535541","779","-0.15429688","-0.9873047","0.072265625","-0.8125","5.96875","-1.53125"
"1575566536332","780","-0.15429688","-1.0","0.072265625","-1.0","6.21875","-2.28125"
"1575566536334","781","-0.14941406","-0.9863281","0.06542969","-0.625","5.53125","-1.59375"
"1575566536334","782","-0.13085938","-0.97753906","0.064453125","-2.625","2.71875","-1.65625"
"1575566536335","783","-0.14355469","-0.9560547","0.07421875","-1.84375","3.15625","-2.40625"
"1575566536335","784","-0.14160156","-0.9873047","0.06738281","0.40625","3.21875","-1.59375"
"1575566536335","785","-0.16015625","-1.0205078","0.078125","-1.59375","4.25","-0.625"
"1575566536336","786","-0.15332031","-1.0332031","0.08105469","-1.3125","4.3125","-0.5"
"1575566536336","787","-0.14648438","-1.0","0.06347656","-1.1875","2.0625","-0.75"
"1575566536336","788","-0.12597656","-0.96777344","0.06347656","-3.1875","1.75","-0.125"
"1575566536336","789","-0.12011719","-0.9433594","0.07128906","-4.09375","2.59375","-1.96875"
"1575566536529","790","-0.13867188","-0.9707031","0.06933594","-3.0625","2.1875","-3.3125"
"1575566536530","791","-0.14160156","-0.9902344","0.044921875","-3.6875","4.3125","-3.375"
"1575566536530","792","-0.13378906","-0.9902344","0.07421875","-5.21875","4.0625","-2.8125"
"1575566536530","793","-0.15136719","-0.9873047","0.07324219","-1.34375","2.0625","-0.8125"
"1575566536531","794","-0.14355469","-0.9951172","0.07324219","-0.875","3.03125","1.6875"
"1575566536531","795","-0.13574219","-0.95410156","0.051757812","-1.40625","0.65625","0.0"
"1575566536531","796","-0.16796875","-0.9716797","0.08105469","-1.34375","1.75","1.6875"
"1575566536533","797","-0.15625","-0.9746094","0.07421875","-2.09375","2.125","0.40625"
"1575566536534","798","-0.140625","-0.9970703","0.053710938","-1.1875","1.9375","-0.9375"
"1575566536534","799","-0.16210938","-0.9560547","0.07714844","-6.25","0.28125","-0.3125"
"1575566536732","800","-0.14453125","-0.9111328","0.04296875","-3.4375","-2.21875","-1.0625"
"1575566536732","801","-0.119140625","-0.89941406","0.0390625","-4.28125","-4.71875","-1.0625"
"1575566536732","802","-0.16894531","-0.89941406","0.0703125","-2.09375","-7.09375","-0.9375"
"1575566536733","803","-0.15332031","-0.8730469","0.109375","-0.5625","0.84375","2.65625"
"1575566536733","804","-0.1875","-0.9785156","0.08984375","2.65625","-3.90625","2.25"
"1575566536734","805","-0.20703125","-1.0791016","0.030273438","9.4375","-4.46875","6.6875"
"1575566536735","806","-0.16699219","-1.0253906","0.11816406","-1.59375","-6.3125","6.15625"
"1575566536735","807","-0.19140625","-0.92578125","0.06640625","7.75","-4.65625","2.5"
"1575566536735","808","-0.16015625","-0.96484375","0.11816406","-0.5","6.875","9.5"
"1575566536735","809","-0.26660156","-1.3330078","0.13476562","10.25","13.0","5.59375"
"1575566537129","810","-0.20703125","-1.2539062","-0.06542969","15.5","-2.15625","1.09375"
"1575566537130","811","0.0068359375","-0.8564453","0.08886719","-15.53125","-10.5625","9.25"
"1575566537130","812","-0.12695312","-0.6298828","0.19433594","-8.75","4.3125","-15.625"
"1575566537130","813","-0.2939453","-1.1748047","0.041992188","17.4375","15.3125","10.1875"
"1575566537131","814","-0.14257812","-1.2441406","-0.016601562","-9.90625","5.1875","-6.4375"
"1575566537131","815","-0.10449219","-0.8535156","0.10546875","-16.875","5.28125","-16.4375"
"1575566537131","816","-0.13378906","-0.88671875","0.091796875","-3.5625","4.0625","-7.71875"
"1575566537132","817","-0.13769531","-0.9824219","0.045898438","-3.4375","-5.15625","0.0"
"1575566537133","818","-0.17871094","-1.0478516","0.076171875","-4.15625","-0.9375","-6.0625"
"1575566537133","819","-0.15820312","-0.9707031","0.053710938","-0.0625","0.0","-7.65625"
"1575566537527","820","-0.15722656","-0.9404297","0.07324219","-3.25","-2.03125","-2.21875"
"1575566537527","821","-0.15625","-0.9794922","0.072265625","-0.625","-1.125","0.0"
"1575566537527","822","-0.16210938","-1.0195312","0.0546875","0.09375","1.375","-1.90625"
"1575566537528","823","-0.15917969","-0.98046875","0.052734375","-1.0","0.78125","-1.90625"
"1575566537528","824","-0.15429688","-0.9716797","0.06933594","-1.71875","2.84375","-0.5"
"1575566537528","825","-0.15136719","-0.9902344","0.059570312","1.3125","3.90625","-0.5625"
"1575566537528","826","-0.140625","-1.0068359","0.051757812","0.21875","3.21875","-0.4375"
"1575566537528","827","-0.14355469","-0.9892578","0.064453125","-0.6875","3.28125","-1.53125"
"1575566537529","828","-0.14160156","-0.984375","0.068359375","0.0","2.78125","-1.40625"
"1575566537530","829","-0.14648438","-0.9921875","0.0703125","0.09375","1.75","-0.6875"
"1575566538123","830","-0.14160156","-0.98046875","0.061523438","0.59375","-0.625","-0.5"
"1575566538124","831","-0.13085938","-0.984375","0.06542969","-0.0625","-2.03125","-0.9375"
"1575566538124","832","-0.1484375","-0.9736328","0.08496094","-0.1875","-2.59375","-1.0625"
"1575566538124","833","-0.15234375","-0.9814453","0.07421875","1.8125","-2.75","-1.1875"
"1575566538124","834","-0.14746094","-0.99609375","0.0625","2.59375","-2.625","-1.78125"
"1575566538125","835","-0.15039062","-0.9892578","0.06933594","2.3125","-2.15625","-1.53125"
"1575566538125","836","-0.16894531","-1.0029297","0.08984375","2.71875","-1.0625","-0.5"
"1575566538125","837","-0.1484375","-1.0058594","0.078125","3.78125","0.84375","0.34375"
"1575566538125","838","-0.16015625","-0.9736328","0.109375","-0.3125","0.21875","-0.375"
"1575566538126","839","-0.14550781","-0.9873047","0.08886719","6.15625","1.4375","0.90625"
"1575566538322","840","-0.14453125","-1.0019531","0.091796875","2.0","-0.875","0.46875"
"1575566538324","841","-0.15136719","-0.9921875","0.09863281","0.78125","0.28125","-1.0"
"1575566538324","842","-0.15527344","-0.9902344","0.10644531","-0.1875","2.59375","-0.9375"
"1575566538324","843","-0.14746094","-0.9902344","0.09765625","2.0","2.71875","-0.625"
"1575566538324","844","-0.15429688","-0.99609375","0.10644531","-2.03125","3.84375","-0.9375"
"1575566538325","845","-0.15234375","-0.98828125","0.10839844","2.5625","3.09375","-0.9375"
"1575566538325","846","-0.14648438","-0.9902344","0.103515625","0.78125","3.71875","-0.4375"
"1575566538325","847","-0.14941406","-0.9863281","0.11328125","-0.625","4.375","-1.0625"
"1575566538325","848","-0.14648438","-0.9785156","0.107421875","-0.25","5.1875","-0.8125"
"1575566538326","849","-0.14648438","-0.98535156","0.10839844","-1.40625","5.84375","-0.6875"
"1575566538720","850","-0.14941406","-0.9814453","0.111328125","-0.625","6.15625","-0.8125"
"1575566538720","851","-0.14941406","-0.9824219","0.10546875","-1.25","5.96875","0.03125"
"1575566538721","852","-0.15722656","-0.9892578","0.099609375","-0.875","5.1875","-0.25"
"1575566538722","853","-0.15332031","-0.9892578","0.10058594","-1.25","4.8125","0.03125"
"1575566538722","854","-0.15234375","-0.98046875","0.111328125","-2.8125","4.0625","-0.6875"
"1575566538723","855","-0.14941406","-0.9716797","0.10449219","-0.0625","4.3125","-1.46875"
"1575566538723","856","-0.14453125","-0.96972656","0.09863281","-1.65625","3.28125","-1.125"
"1575566538723","857","-0.1640625","-0.96972656","0.07421875","1.6875","2.65625","-1.84375"
"1575566538723","858","-0.15917969","-1.0117188","0.11621094","-4.03125","3.53125","-0.75"
"1575566538724","859","-0.16894531","-0.9746094","0.1015625","-0.25","4.625","-1.90625"
"1575566539117","860","-0.15429688","-0.9873047","0.09082031","0.0","4.25","-0.25"
"1575566539117","861","-0.14648438","-0.96972656","0.10644531","-4.59375","3.59375","-0.9375"
"1575566539117","862","-0.15722656","-0.9404297","0.095703125","-2.46875","3.34375","-1.96875"
"1575566539118","863","-0.14550781","-0.921875","0.091796875","-4.78125","5.40625","-2.21875"
"1575566539118","864","-0.16113281","-0.96191406","0.11816406","-0.9375","7.0625","-3.3125"
"1575566539119","865","-0.1796875","-1.0517578","0.08300781","1.15625","7.90625","-1.1875"
"1575566539120","866","-0.13867188","-1.0419922","0.09375","-3.4375","4.3125","-1.1875"
"1575566539120","867","-0.15527344","-0.94628906","0.11035156","-3.1875","0.21875","-0.125"
"1575566539120","868","-0.14355469","-0.9316406","0.095703125","-0.25","0.09375","0.65625"
"1575566539120","869","-0.15039062","-0.96191406","0.0859375","-0.75","-0.5","-0.4375"
"1575566539515","870","-0.16796875","-0.97753906","0.0859375","-1.65625","0.59375","-1.65625"
"1575566539515","871","-0.18066406","-1.0166016","0.091796875","-0.25","3.53125","-1.96875"
"1575566539515","872","-0.15625","-1.0234375","0.09375","-1.0625","3.34375","-0.25"
"1575566539515","873","-0.15722656","-0.97558594","0.09863281","-1.59375","2.0","-0.375"
"1575566539516","874","-0.1640625","-0.9736328","0.09277344","0.03125","2.3125","0.53125"
"1575566539516","875","-0.15234375","-0.9814453","0.09082031","-1.1875","2.96875","-0.1875"
"1575566539516","876","-0.16894531","-0.98828125","0.09277344","-0.8125","3.65625","-0.75"
"1575566539517","877","-0.15527344","-0.98535156","0.09863281","-0.25","4.0625","1.3125"
"1575566539517","878","-0.15429688","-0.99316406","0.09277344","0.96875","2.1875","0.96875"
"1575566539518","879","-0.15527344","-0.984375","0.080078125","-0.3125","2.1875","0.34375"
"1575566540106","880","-0.16210938","-0.9863281","0.09667969","-1.65625","3.71875","0.15625"
"1575566540107","881","-0.15136719","-0.9316406","0.08886719","-3.625","1.8125","-1.0625"
"1575566540107","882","-0.13671875","-0.93652344","0.09082031","-0.5625","1.5","-1.78125"
"1575566540107","883","-0.18066406","-0.9814453","0.095703125","0.40625","0.71875","-1.53125"
"1575566540107","884","-0.17675781","-0.9941406","0.08984375","-0.875","2.59375","0.03125"
"1575566540108","885","-0.16894531","-0.9658203","0.10253906","-2.46875","1.9375","-1.1875"
"1575566540108","886","-0.17871094","-0.9667969","0.10058594","0.0","2.125","-0.1875"
"1575566540108","887","-0.17871094","-0.9707031","0.083984375","-2.53125","1.75","-1.125"
"1575566540108","888","-0.171875","-0.96875","0.08984375","-3.6875","2.59375","-2.9375"
"1575566540109","889","-0.16503906","-0.9746094","0.09375","-1.96875","2.4375","-3.1875"
"1575566540308","890","-0.17773438","-0.9277344","0.078125","-5.9375","0.65625","-2.40625"
"1575566540308","891","-0.15625","-0.9042969","0.064453125","-7.34375","2.59375","-3.90625"
"1575566540309","892","-0.1484375","-0.94921875","0.14648438","-12.46875","3.59375","-5.21875"
"1575566540309","893","-0.18359375","-1.0","0.09667969","-0.0625","1.5625","-3.125"
"1575566540309","894","-0.171875","-1.0019531","0.11621094","-6.3125","8.40625","-4.46875"
"1575566540309","895","-0.19433594","-1.0419922","0.09765625","-1.90625","8.09375","1.625"
"1575566540310","896","-0.11328125","-0.9921875","0.03515625","-0.5","6.5","-0.5625"
"1575566540310","897","-0.20019531","-1.1455078","0.16308594","-1.46875","10.78125","-3.25"
"1575566540310","898","-0.15429688","-1.1318359","-0.026367188","12.625","3.21875","4.6875"
"1575566540310","899","0.0048828125","-0.88183594","0.06933594","-13.9375","1.8125","-5.6875"
"1575566540707","900","-0.15234375","-0.90234375","0.080078125","4.0","4.125","-8.25"
"1575566540709","901","-0.19238281","-1.1289062","0.0078125","2.84375","4.375","6.5625"
"1575566540709","902","-0.087890625","-1.0058594","0.0390625","-10.21875","2.71875","-6.1875"
"1575566540710","903","-0.13867188","-0.89160156","0.08300781","-5.75","1.375","-8.3125"
"1575566540710","904","-0.14648438","-0.9863281","0.030273438","3.15625","-1.59375","2.0625"
"1575566540710","905","-0.12890625","-1.0283203","0.03125","-3.96875","-2.46875","-0.125"
"1575566540711","906","-0.14355469","-1.0136719","0.041992188","-5.15625","1.28125","-3.90625"
"1575566540711","907","-0.13769531","-0.97558594","0.04296875","-3.125","1.5625","-1.0"
"1575566540711","908","-0.11425781","-0.96972656","0.05078125","-2.875","-1.0","2.5"
"1575566540711","909","-0.14648438","-1.0058594","0.049804688","-2.53125","-0.5","-0.125"
"1575566541104","910","-0.13769531","-1.0","0.044921875","-4.53125","-0.375","-3.0"
"1575566541104","911","-0.12988281","-0.97265625","0.044921875","-2.28125","-1.3125","-2.21875"
"1575566541105","912","-0.125","-0.9921875","0.044921875","-1.96875","-0.625","-1.71875"
"1575566541106","913","-0.12890625","-1.0039062","0.047851562","-1.34375","0.0","-2.09375"
"1575566541106","914","-0.123046875","-0.9941406","0.048828125","-0.6875","-1.0","-2.03125"
"1575566541106","915","-0.13378906","-0.9892578","0.059570312","-1.40625","-1.34375","-1.40625"
"1575566541107","916","-0.13378906","-0.9824219","0.06347656","1.3125","-0.75","-1.0"
"1575566541107","917","-0.13183594","-0.9873047","0.05078125","1.3125","-0.9375","-0.875"
"1575566541107","918","-0.12890625","-0.9970703","0.064453125","0.96875","-2.09375","-0.375"
"1575566541107","919","-0.12988281","-0.9941406","0.059570312","1.8125","-3.6875","-1.84375"
"1575566541501","920","-0.14746094","-0.9824219","0.0703125","0.28125","-2.15625","-1.0625"
"1575566541501","921","-0.14160156","-0.98339844","0.055664062","4.1875","-1.71875","-1.34375"
"1575566541501","922","-0.1484375","-0.9941406","0.0859375","-1.53125","-1.34375","-1.1875"
"1575566541501","923","-0.14453125","-1.0009766","0.06347656","2.0625","-0.5","-1.71875"
"1575566541502","924","-0.140625","-0.9970703","0.0703125","-0.25","-1.0","-2.28125"
"1575566541503","925","-0.13476562","-0.9921875","0.08300781","-1.71875","0.59375","-2.03125"
"1575566541503","926","-0.14550781","-0.9980469","0.08105469","-0.375","0.96875","-1.71875"
"1575566541503","927","-0.14941406","-1.0039062","0.06640625","1.625","1.625","-1.53125"
"1575566541504","928","-0.13769531","-1.0107422","0.07910156","-1.125","3.15625","-1.25"
"1575566541504","929","-0.13671875","-0.99121094","0.07714844","0.03125","4.875","-0.1875"
"1575566542295","930","-0.14453125","-1.0097656","0.08105469","0.65625","5.34375","0.40625"
"1575566542295","931","-0.13574219","-1.0019531","0.07324219","0.40625","5.40625","0.03125"
"1575566542295","932","-0.12402344","-0.9746094","0.072265625","-2.34375","4.625","-0.5625"
"1575566542296","933","-0.115234375","-0.9482422","0.080078125","-2.59375","2.59375","-2.21875"
"1575566542296","934","-0.11816406","-0.95214844","0.076171875","-1.84375","-0.4375","-2.46875"
"1575566542296","935","-0.12695312","-0.98535156","0.07910156","-3.75","-1.0","-3.6875"
"1575566542296","936","-0.13574219","-1.0283203","0.09472656","-1.1875","1.03125","-4.71875"
"1575566542298","937","-0.14355469","-1.0488281","0.06933594","1.4375","-2.03125","-3.4375"
"1575566542298","938","-0.13378906","-0.9638672","0.051757812","0.84375","-1.46875","-3.375"
"1575566542299","939","-0.12011719","-0.9267578","0.099609375","-0.375","0.46875","-1.34375"
"1575566542491","940","-0.107421875","-0.9316406","0.08496094","1.5","0.53125","-3.25"
"1575566542491","941","-0.111328125","-1.0058594","0.059570312","3.71875","-1.40625","-3.90625"
"1575566542492","942","-0.11328125","-0.96972656","0.0859375","-2.59375","-1.71875","-4.96875"
"1575566542492","943","-0.12890625","-0.9980469","0.1015625","-0.125","0.21875","-4.59375"
"1575566542492","944","-0.12011719","-1.0380859","0.0859375","4.6875","-1.34375","-2.46875"
"1575566542492","945","-0.099609375","-0.9902344","0.07421875","0.59375","-5.15625","-2.53125"
"1575566542493","946","-0.12402344","-0.95410156","0.10449219","-0.5625","-0.25","-2.28125"
"1575566542493","947","-0.11035156","-0.9921875","0.09863281","-0.6875","0.46875","-1.34375"
"1575566542493","948","-0.11816406","-1.0341797","0.09375","0.03125","1.875","-2.53125"
"1575566542494","949","-0.12597656","-1.0400391","0.09277344","-1.0","4.0","-1.71875"
"1575566542694","950","-0.11328125","-1.0166016","0.10449219","-1.3125","4.625","-0.6875"
"1575566542694","951","-0.09277344","-0.9970703","0.095703125","0.15625","4.0625","-0.1875"
"1575566542695","952","-0.07714844","-0.97753906","0.083984375","-1.1875","1.75","-1.46875"
"1575566542695","953","-0.08105469","-0.95214844","0.08984375","-2.9375","0.28125","-3.0625"
"1575566542695","954","-0.07519531","-0.9501953","0.0859375","-1.0625","-1.96875","-3.6875"
"1575566542695","955","-0.1015625","-0.94140625","0.087890625","-2.46875","-4.21875","-4.15625"
"1575566542696","956","-0.10644531","-0.9667969","0.08691406","0.59375","-1.53125","-3.0625"
"1575566542696","957","-0.1171875","-1.0029297","0.119140625","-1.0","1.9375","-3.6875"
"1575566542696","958","-0.10449219","-1.0410156","0.07714844","6.34375","0.40625","-1.90625"
"1575566542696","959","-0.09863281","-1.0087891","0.09277344","1.28125","-1.3125","-0.875"
"1575566543091","960","-0.09277344","-0.9970703","0.107421875","5.0625","-0.1875","1.375"
"1575566543091","961","-0.10253906","-1.0039062","0.10839844","2.90625","-0.375","0.90625"
"1575566543091","962","-0.09667969","-1.0205078","0.12109375","2.65625","1.6875","1.5"
"1575566543092","963","-0.095703125","-0.98046875","0.10058594","0.53125","1.03125","0.71875"
"1575566543092","964","-0.08691406","-0.9326172","0.10253906","-3.1875","2.25","-1.71875"
"1575566543092","965","-0.08300781","-0.9345703","0.103515625","-1.96875","2.125","-1.1875"
"1575566543092","966","-0.0859375","-0.91796875","0.1171875","-4.21875","0.84375","-2.28125"
"1575566543093","967","-0.103515625","-0.9794922","0.13378906","1.875","3.03125","-1.59375"
"1575566543093","968","-0.11816406","-1.0869141","0.12109375","5.65625","2.5","-0.6875"
"1575566543093","969","-0.09863281","-1.0625","0.09472656","-0.3125","1.8125","1.09375"
"1575566543489","970","-0.087890625","-0.9892578","0.119140625","-2.28125","3.9375","1.375"
"1575566543490","971","-0.07324219","-0.94433594","0.12207031","-1.53125","3.9375","2.0625"
"1575566543490","972","-0.08203125","-0.9580078","0.10839844","-0.125","5.0625","-0.5625"
"1575566543491","973","-0.107421875","-1.0097656","0.10546875","-2.15625","4.8125","-0.1875"
"1575566543492","974","-0.11425781","-0.9970703","0.119140625","0.46875","5.53125","-1.0625"
"1575566543492","975","-0.10839844","-1.0126953","0.11230469","-2.53125","5.34375","-1.0625"
"1575566543492","976","-0.07519531","-0.96875","0.09472656","-4.03125","4.3125","-2.625"
"1575566543492","977","-0.10253906","-0.95214844","0.09082031","-4.78125","-1.125","-0.75"
"1575566543493","978","-0.12597656","-0.9345703","0.11425781","-7.15625","1.4375","0.65625"
"1575566543493","979","-0.14160156","-0.94628906","0.111328125","-2.53125","2.0","1.8125"
"1575566543888","980","-0.115234375","-0.9941406","0.0859375","-1.65625","2.1875","1.03125"
"1575566543889","981","-0.119140625","-0.9638672","0.09863281","-6.3125","0.96875","0.84375"
"1575566543889","982","-0.11230469","-0.91308594","0.10546875","-5.9375","1.15625","0.28125"
"1575566543889","983","-0.13085938","-0.9638672","0.10253906","-1.59375","1.4375","1.5"
"1575566543889","984","-0.15722656","-0.9941406","0.0625","1.09375","1.5","4.3125"
"1575566543891","985","-0.078125","-0.921875","0.087890625","-5.03125","0.59375","0.34375"
"1575566543891","986","-0.19140625","-0.89453125","0.14257812","-1.25","6.03125","0.84375"
"1575566543891","987","-0.14355469","-0.9765625","0.12988281","4.0625","7.6875","7.0"
"1575566543892","988","-0.119140625","-1.0253906","0.09765625","-3.125","2.0625","0.84375"
"1575566543892","989","-0.23046875","-1.1142578","0.17871094","3.46875","18.0","4.9375"
"1575566544285","990","-0.103515625","-1.1123047","0.09472656","5.34375","6.46875","3.71875"
"1575566544285","991","-0.13085938","-1.0078125","-0.022460938","7.0625","-6.59375","1.09375"
"1575566544286","992","-0.15136719","-1.0341797","0.123046875","-6.375","6.5","9.9375"
"1575566544286","993","-0.11816406","-0.9902344","0.12011719","5.125","6.5625","6.5625"
"1575566544286","994","-0.1328125","-1.0332031","0.045898438","3.03125","7.90625","1.8125"
"1575566544286","995","-0.13378906","-1.03125","0.052734375","-7.34375","9.4375","2.125"
"1575566544287","996","-0.13183594","-0.97753906","0.099609375","-11.1875","6.75","0.90625"
"1575566544288","997","-0.13378906","-0.9628906","0.07910156","-7.9375","6.09375","-1.90625"
"1575566544288","998","-0.12597656","-0.98828125","0.068359375","-7.34375","5.96875","-2.625"
"1575566544289","999","-0.14257812","-0.98535156","0.068359375","-6.25","3.84375","-2.53125"
