"# PR data"
"# Start time: 20191205T183452"
"# Subject: ron"
"# Activity type: Walking"
"# Correctness: Incorrect"
"# Notes: "
""
"timestamp","seq","accel_x","accel_y","accel_z","gyro_x","gyro_y","gyro_z"
"1575567292974","0","0.041992188","-0.9902344","-0.029296875","8.21875","-15.46875","0.09375"
"1575567292978","1","0.07324219","-0.9863281","-0.00390625","2.84375","-22.28125","-2.6875"
"1575567292978","2","0.04296875","-1.0146484","0.021484375","3.59375","-26.6875","-4.71875"
"1575567292979","3","0.024414062","-1.015625","-0.00390625","5.71875","-27.0625","-1.46875"
"1575567292979","4","0.044921875","-0.9941406","-0.0087890625","4.0","-26.03125","-1.84375"
"1575567292979","5","0.036132812","-1.0205078","0.0087890625","3.71875","-26.0625","-1.59375"
"1575567292979","6","0.020507812","-1.0166016","0.0126953125","3.15625","-22.40625","-2.6875"
"1575567292980","7","0.045898438","-1.0136719","0.0078125","-0.3125","-20.65625","-4.03125"
"1575567292980","8","0.049804688","-1.0126953","0.0068359375","-2.21875","-21.75","-4.53125"
"1575567292980","9","0.041015625","-1.0039062","0.01171875","-3.1875","-21.0625","-5.4375"
"1575567293173","10","0.046875","-1.0058594","-9.765625E-4","-3.6875","-18.15625","-6.25"
"1575567293174","11","0.045898438","-1.0019531","0.001953125","-6.25","-17.03125","-6.1875"
"1575567293174","12","0.06347656","-1.0117188","-0.009765625","-4.96875","-12.84375","-5.3125"
"1575567293175","13","0.041015625","-0.98828125","0.00390625","-8.3125","-11.3125","-6.84375"
"1575567293178","14","0.0703125","-1.0087891","-0.029296875","-4.09375","-14.125","-4.78125"
"1575567293178","15","0.05859375","-1.0029297","-0.020507812","-5.875","-10.40625","-4.28125"
"1575567293178","16","0.0546875","-0.9951172","-0.021484375","-4.84375","-6.65625","-5.09375"
"1575567293178","17","0.052734375","-0.9980469","-0.03125","-4.40625","-3.4375","-4.59375"
"1575567293179","18","0.053710938","-1.0","-0.033203125","-3.375","-1.25","-3.6875"
"1575567293179","19","0.051757812","-0.99609375","-0.032226562","-2.9375","3.15625","-3.5"
"1575567293572","20","0.049804688","-0.99121094","-0.033203125","-3.1875","8.78125","-3.125"
"1575567293573","21","0.053710938","-1.0","-0.036132812","-1.65625","13.34375","-2.9375"
"1575567293573","22","0.052734375","-0.99902344","-0.053710938","-2.21875","16.34375","-2.34375"
"1575567293573","23","0.05078125","-1.0058594","-0.064453125","-3.0625","19.46875","-1.78125"
"1575567293573","24","0.046875","-1.0087891","-0.06933594","-4.96875","23.46875","-1.96875"
"1575567293575","25","0.05859375","-1.0019531","-0.072265625","-4.53125","26.09375","-0.4375"
"1575567293575","26","0.0703125","-0.99902344","-0.091796875","-2.6875","27.4375","0.21875"
"1575567293575","27","0.0625","-0.9921875","-0.05078125","-7.15625","27.4375","0.21875"
"1575567293576","28","0.08886719","-0.9941406","-0.06738281","-5.375","27.34375","-0.625"
"1575567293576","29","0.099609375","-1.0048828","-0.07519531","-1.3125","23.53125","1.75"
"1575567293969","30","0.07519531","-0.9873047","-0.061523438","-3.90625","23.4375","-0.5625"
"1575567293969","31","0.07714844","-0.99316406","-0.05859375","-2.75","21.40625","0.0"
"1575567293970","32","0.11328125","-1.0048828","-0.07714844","-2.625","17.0","-0.3125"
"1575567293970","33","0.13671875","-0.9824219","-0.055664062","-3.375","11.34375","-0.375"
"1575567293970","34","0.14453125","-0.9355469","-0.0546875","-3.6875","2.78125","0.84375"
"1575567293970","35","0.14257812","-0.94433594","-0.013671875","-1.34375","3.46875","-0.3125"
"1575567293971","36","0.16699219","-1.0849609","-0.047851562","5.21875","4.25","-4.09375"
"1575567293971","37","0.16699219","-1.0947266","-0.14355469","2.96875","6.15625","-7.28125"
"1575567293972","38","0.17480469","-0.9746094","-0.09667969","-1.125","4.125","-4.90625"
"1575567293973","39","0.12207031","-0.8828125","-0.0546875","0.71875","5.53125","-4.03125"
"1575567294563","40","0.09472656","-0.9267578","-0.033203125","9.25","12.75","-2.75"
"1575567294564","41","0.14453125","-1.0","-0.08203125","11.71875","23.59375","0.65625"
"1575567294564","42","0.15429688","-0.98828125","-0.0703125","0.84375","24.65625","2.78125"
"1575567294565","43","0.2109375","-0.9902344","-0.099609375","0.84375","25.25","3.53125"
"1575567294565","44","0.20605469","-0.99902344","-0.11425781","-2.75","23.0","6.5625"
"1575567294565","45","0.18066406","-0.9628906","-0.12011719","-5.625","25.8125","8.03125"
"1575567294565","46","0.18652344","-0.9658203","-0.080078125","-4.53125","33.1875","9.375"
"1575567294566","47","0.17480469","-0.9482422","-0.05078125","-6.65625","36.1875","12.625"
"1575567294566","48","0.19824219","-1.0214844","0.02734375","-4.15625","36.25","11.03125"
"1575567294568","49","0.203125","-1.0957031","-0.06542969","7.5625","12.375","16.21875"
"1575567294959","50","0.12109375","-1.0419922","-0.015625","-2.53125","1.8125","13.0"
"1575567294960","51","0.08691406","-1.0996094","0.009765625","-3.125","2.4375","1.5625"
"1575567294960","52","-0.01953125","-1.0498047","-0.02734375","0.46875","5.34375","1.625"
"1575567294960","53","-0.068359375","-0.9501953","-0.0068359375","3.03125","2.78125","6.6875"
"1575567294960","54","-0.09863281","-0.9941406","0.018554688","2.78125","-3.75","11.8125"
"1575567294961","55","-0.15917969","-1.1123047","-0.041992188","10.0","-10.28125","11.03125"
"1575567294961","56","-0.10253906","-1.2128906","-0.091796875","-4.15625","-9.40625","2.71875"
"1575567294961","57","-0.08984375","-1.1337891","-0.034179688","-14.46875","-8.25","0.34375"
"1575567294962","58","-0.19726562","-0.9472656","0.0","-23.09375","-2.59375","-0.5625"
"1575567294962","59","-0.2265625","-0.8359375","-0.052734375","-10.28125","10.53125","6.34375"
"1575567295163","60","-0.16015625","-0.8378906","-0.051757812","-0.0625","25.875","9.6875"
"1575567295166","61","-0.10644531","-0.8642578","-0.05078125","4.4375","28.71875","11.03125"
"1575567295167","62","-0.08496094","-0.92871094","-0.09082031","8.46875","29.59375","10.375"
"1575567295167","63","-0.041992188","-0.9375","-0.13964844","14.8125","25.1875","9.8125"
"1575567295167","64","0.099609375","-0.96484375","-0.14257812","16.9375","16.9375","7.90625"
"1575567295168","65","0.13671875","-0.9794922","-0.09667969","9.25","4.375","1.03125"
"1575567295168","66","0.10546875","-1.0546875","-0.08203125","12.8125","-12.78125","-10.09375"
"1575567295168","67","0.091796875","-1.0439453","-0.036132812","8.40625","-31.03125","-12.65625"
"1575567295168","68","-0.013671875","-1.1923828","-0.041992188","-0.4375","-23.15625","-10.8125"
"1575567295169","69","-0.09277344","-1.1660156","-0.0029296875","2.0","-23.6875","-6.4375"
"1575567295559","70","-0.07128906","-1.0292969","0.0390625","-4.96875","-36.40625","1.3125"
"1575567295560","71","-0.15625","-0.9277344","0.056640625","-15.46875","-38.28125","-3.1875"
"1575567295560","72","-0.15429688","-0.8251953","0.10253906","-10.875","-31.5","2.0625"
"1575567295561","73","-0.1171875","-0.9716797","0.16601562","5.96875","-14.71875","3.90625"
"1575567295561","74","-0.01953125","-1.1328125","0.028320312","16.46875","-3.8125","-8.625"
"1575567295561","75","0.14550781","-1.3310547","-0.044921875","3.15625","-2.75","-11.71875"
"1575567295562","76","0.06347656","-1.0810547","0.0146484375","-13.1875","-17.40625","-0.875"
"1575567295562","77","-0.017578125","-0.8378906","0.029296875","-3.90625","-23.6875","3.71875"
"1575567295562","78","0.026367188","-0.7236328","0.038085938","5.28125","-18.8125","2.5625"
"1575567295562","79","-0.0068359375","-0.8486328","0.022460938","3.84375","-7.78125","3.21875"
"1575567295957","80","-0.005859375","-0.9453125","0.030273438","1.4375","2.0","8.46875"
"1575567295957","81","0.051757812","-1.0146484","-0.0087890625","6.34375","1.03125","7.25"
"1575567295957","82","0.08203125","-1.0341797","-0.032226562","-5.875","-3.90625","0.96875"
"1575567295958","83","0.026367188","-1.0244141","-0.03515625","-6.5","-2.53125","0.34375"
"1575567295958","84","0.01171875","-1.0751953","-0.080078125","-6.125","0.78125","5.125"
"1575567295958","85","-0.021484375","-1.1279297","-0.061523438","-17.21875","15.90625","4.8125"
"1575567295959","86","0.021484375","-1.2109375","-0.048828125","-18.375","21.78125","-2.9375"
"1575567295960","87","-0.046875","-1.0283203","0.043945312","-21.0625","15.125","-6.4375"
"1575567295960","88","-0.111328125","-0.8642578","0.11328125","-14.78125","6.40625","-8.125"
"1575567295961","89","-0.20214844","-0.8691406","0.1015625","-5.15625","10.53125","-10.09375"
"1575567296354","90","-0.0048828125","-1.1123047","-0.046875","-3.1875","9.1875","-6.65625"
"1575567296355","91","0.00390625","-1.1523438","0.041992188","-10.21875","-4.71875","-9.96875"
"1575567296355","92","-0.072265625","-1.0224609","0.029296875","-1.53125","-16.625","-7.09375"
"1575567296355","93","-0.12792969","-0.9296875","-0.017578125","-5.75","-12.28125","-8.8125"
"1575567296356","94","-0.19433594","-0.8535156","-0.021484375","-6.125","-1.59375","-3.25"
"1575567296356","95","-0.17871094","-0.8828125","-0.05078125","-2.53125","14.75","0.0"
"1575567296356","96","-0.14160156","-0.9316406","-0.06640625","0.21875","29.84375","-1.78125"
"1575567296357","97","-0.049804688","-0.96875","-0.107421875","0.65625","37.9375","-2.875"
"1575567296358","98","0.056640625","-0.9794922","-0.13867188","2.65625","35.5","-4.78125"
"1575567296358","99","0.064453125","-0.94433594","-0.11035156","3.34375","29.84375","-1.53125"
"1575567296950","100","0.026367188","-1.0283203","-0.15429688","8.84375","26.40625","-3.8125"
"1575567296950","101","0.046875","-1.0898438","-0.15820312","-3.3125","20.625","-13.1875"
"1575567296951","102","0.15234375","-1.0449219","-0.15820312","-1.59375","10.78125","-12.34375"
"1575567296951","103","0.21875","-1.1337891","-0.08203125","-6.71875","2.84375","-14.59375"
"1575567296951","104","-0.041015625","-1.0820312","-0.038085938","-6.59375","-14.0625","-10.9375"
"1575567296951","105","-0.06640625","-1.0332031","0.0048828125","-4.65625","-2.34375","-4.96875"
"1575567296952","106","-0.056640625","-0.9423828","0.047851562","-8.3125","-4.21875","-0.625"
"1575567296952","107","0.041015625","-0.8798828","0.11425781","-5.9375","-8.375","-5.4375"
"1575567296952","108","0.07324219","-1.0107422","0.08300781","7.84375","-13.125","-3.1875"
"1575567296954","109","-0.020507812","-1.1894531","-0.038085938","12.5625","-6.0","-4.03125"
"1575567297150","110","0.029296875","-1.1425781","-0.068359375","0.03125","4.375","-3.8125"
"1575567297151","111","0.09863281","-0.93847656","0.018554688","-0.9375","-3.875","5.65625"
"1575567297151","112","0.11425781","-0.83984375","0.068359375","-1.65625","-16.6875","5.59375"
"1575567297151","113","0.07910156","-0.9042969","0.04296875","9.4375","-22.65625","6.5625"
"1575567297152","114","0.08496094","-1.0039062","-0.0078125","9.3125","-22.90625","5.78125"
"1575567297152","115","0.087890625","-0.95410156","-0.017578125","3.46875","-21.0625","8.21875"
"1575567297152","116","0.043945312","-0.90527344","-0.009765625","5.53125","-19.0","11.8125"
"1575567297152","117","0.01953125","-0.9560547","-0.030273438","4.8125","-15.21875","14.9375"
"1575567297153","118","0.029296875","-1.0332031","-0.055664062","6.03125","-8.8125","12.75"
"1575567297154","119","-0.016601562","-1.0976562","-0.08203125","1.28125","-2.9375","13.84375"
"1575567297547","120","-0.06347656","-1.1572266","-0.16503906","-8.0","7.4375","12.625"
"1575567297549","121","-0.0234375","-1.1621094","-0.13183594","-18.375","28.96875","11.8125"
"1575567297550","122","0.045898438","-1.0966797","-0.0546875","-22.65625","31.84375","11.15625"
"1575567297550","123","-0.0234375","-1.0019531","0.08886719","-18.375","29.53125","8.21875"
"1575567297550","124","-0.060546875","-0.91796875","-0.036132812","-11.4375","13.21875","5.21875"
"1575567297551","125","-0.12792969","-0.875","0.06738281","-14.84375","20.125","0.46875"
"1575567297551","126","-0.1171875","-0.921875","0.015625","-11.90625","18.84375","-3.0625"
"1575567297551","127","-0.033203125","-1.1015625","-0.07128906","-6.59375","12.1875","-6.84375"
"1575567297551","128","-9.765625E-4","-1.1269531","-0.0703125","-14.53125","2.0625","-9.34375"
"1575567297552","129","-0.049804688","-0.99121094","-0.034179688","-18.5","-6.71875","-9.0625"
"1575567297943","130","-0.032226562","-1.0136719","-0.16796875","-3.25","-14.90625","-7.09375"
"1575567297944","131","-0.13183594","-0.90722656","-0.08691406","-9.46875","-17.40625","-1.25"
"1575567297944","132","-0.13085938","-0.89160156","-0.1328125","1.375","-17.84375","3.53125"
"1575567297945","133","-0.095703125","-0.9375","-0.14453125","3.71875","-13.25","4.0"
"1575567297945","134","-0.078125","-0.94628906","-0.15722656","5.0625","-12.78125","4.375"
"1575567297945","135","-0.0146484375","-0.95214844","-0.14550781","8.53125","-14.0","-0.375"
"1575567297946","136","0.01171875","-0.9345703","-0.15332031","11.875","-21.5625","-2.8125"
"1575567297946","137","0.0","-0.94921875","-0.15234375","16.21875","-27.1875","-2.21875"
"1575567297946","138","-0.0107421875","-1.0068359","-0.14160156","17.3125","-33.59375","-0.125"
"1575567297947","139","0.02734375","-1.0488281","-0.13769531","15.78125","-41.75","-4.96875"
"1575567298735","140","0.06542969","-1.0302734","-0.14355469","16.46875","-52.25","-12.15625"
"1575567298736","141","0.07421875","-1.0742188","-0.14160156","10.3125","-63.5625","-15.59375"
"1575567298736","142","-0.12011719","-1.1113281","-0.11230469","7.75","-60.3125","-22.53125"
"1575567298736","143","-0.20410156","-1.1660156","-0.01953125","3.84375","-43.53125","-12.03125"
"1575567298736","144","-0.17773438","-1.0507812","-0.034179688","5.1875","-31.9375","-7.15625"
"1575567298738","145","-0.018554688","-0.93847656","0.056640625","4.375","-23.875","-5.25"
"1575567298738","146","0.030273438","-0.88378906","0.15917969","-9.90625","-11.375","-11.0625"
"1575567298738","147","0.0078125","-1.0078125","0.16601562","-1.71875","-14.84375","-4.71875"
"1575567298738","148","-0.0107421875","-1.1289062","0.03515625","14.03125","-9.53125","-7.03125"
"1575567298739","149","0.032226562","-1.0927734","-0.01171875","6.6875","4.8125","-5.03125"
"1575567298739","150","0.0859375","-0.9433594","0.022460938","4.125","0.71875","2.5625"
"1575567298740","151","0.10449219","-0.8222656","0.08105469","10.78125","-11.5","4.8125"
"1575567298740","152","0.10546875","-0.8798828","0.07519531","18.34375","-15.46875","2.65625"
"1575567298740","153","0.044921875","-0.96777344","0.049804688","19.34375","-12.21875","2.3125"
"1575567298740","154","-9.765625E-4","-0.9609375","0.03125","14.4375","-7.15625","6.09375"
"1575567298741","155","0.0234375","-0.98535156","-0.0078125","9.75","-3.0625","11.03125"
"1575567298741","156","0.020507812","-1.0146484","0.01171875","-2.75","4.6875","9.03125"
"1575567298742","157","-0.034179688","-1.0683594","-0.020507812","-5.375","12.875","8.71875"
"1575567298742","158","-0.030273438","-1.1083984","-0.072265625","-9.96875","26.96875","8.90625"
"1575567298743","159","-0.059570312","-1.1191406","-0.046875","-19.1875","44.90625","6.15625"
"1575567299333","160","0.0146484375","-1.0488281","-0.0146484375","-15.09375","58.9375","5.21875"
"1575567299334","161","0.047851562","-1.0742188","0.095703125","-19.0625","49.96875","0.65625"
"1575567299334","162","-0.0107421875","-1.0556641","0.091796875","-7.34375","36.125","-0.375"
"1575567299334","163","-0.06933594","-0.88378906","0.02734375","-5.09375","29.9375","-0.5625"
"1575567299334","164","-0.083984375","-0.80078125","0.087890625","-4.21875","32.625","-6.1875"
"1575567299335","165","-0.044921875","-0.92089844","0.028320312","2.96875","23.375","-9.46875"
"1575567299335","166","-0.034179688","-1.1630859","-0.028320312","2.0","13.65625","-12.78125"
"1575567299335","167","-0.051757812","-1.1455078","-0.0087890625","-5.3125","5.71875","-9.84375"
"1575567299335","168","-0.0546875","-0.9814453","-0.0029296875","-8.125","10.0","-9.71875"
"1575567299337","169","-0.09472656","-0.8486328","-0.057617188","-1.90625","8.65625","-6.0625"
"1575567299534","170","-0.1015625","-0.92089844","-0.025390625","2.0625","0.78125","4.8125"
"1575567299534","171","-0.15820312","-0.9736328","-0.041015625","9.375","0.09375","7.8125"
"1575567299534","172","-0.1796875","-0.96191406","-0.060546875","9.5","10.90625","4.25"
"1575567299534","173","-0.16894531","-1.0087891","-0.06933594","10.46875","9.125","4.3125"
"1575567299535","174","-0.115234375","-1.0292969","-0.048828125","6.875","3.71875","9.6875"
"1575567299535","175","-0.07324219","-0.9707031","-0.08105469","4.3125","8.28125","7.5"
"1575567299535","176","-0.052734375","-0.9892578","-0.07519531","-0.0625","-2.53125","8.21875"
"1575567299536","177","-0.0087890625","-1.0126953","-0.076171875","-0.6875","-6.0625","17.5"
"1575567299536","178","-0.05859375","-1.0537109","0.049804688","5.21875","8.46875","16.78125"
"1575567299536","179","-0.17480469","-1.1611328","-0.0048828125","8.28125","16.9375","13.28125"
"1575567299934","180","-0.080078125","-1.0556641","0.0107421875","13.15625","24.59375","9.25"
"1575567299935","181","-0.09667969","-0.9511719","0.061523438","3.40625","24.40625","-1.53125"
"1575567299936","182","-0.125","-0.88378906","0.12207031","8.03125","23.375","0.65625"
"1575567299936","183","-0.13085938","-0.8847656","0.13964844","12.0625","29.03125","-4.34375"
"1575567299936","184","-0.13378906","-0.91796875","0.22851562","16.53125","34.15625","-5.3125"
"1575567299937","185","-0.10644531","-0.9638672","0.22558594","18.65625","34.21875","-4.90625"
"1575567299937","186","-0.057617188","-0.9980469","0.17480469","28.125","37.34375","-9.15625"
"1575567299937","187","0.0234375","-1.0478516","0.15039062","28.0","43.125","-10.8125"
"1575567299937","188","-0.01953125","-1.0449219","0.18359375","14.625","35.9375","-18.09375"
"1575567299937","189","0.009765625","-1.0458984","0.18164062","11.03125","26.34375","-21.625"
"1575567300335","190","0.01953125","-1.0058594","0.19140625","4.75","13.15625","-25.09375"
"1575567300335","191","-0.001953125","-0.9970703","0.21777344","1.8125","4.25","-28.21875"
"1575567300336","192","-0.059570312","-0.96972656","0.19140625","1.5625","4.5625","-29.25"
"1575567300336","193","-0.03515625","-0.9199219","0.18164062","3.53125","8.84375","-25.78125"
"1575567300337","194","0.044921875","-0.9824219","0.15917969","10.46875","18.71875","-24.78125"
"1575567300337","195","0.021484375","-1.0478516","0.16699219","4.25","21.15625","-22.34375"
"1575567300337","196","0.043945312","-1.0166016","0.123046875","0.0","22.5625","-16.6875"
"1575567300337","197","0.048828125","-0.96191406","0.12402344","-6.65625","24.09375","-17.21875"
"1575567300338","198","0.072265625","-0.91796875","0.13183594","-8.1875","23.46875","-10.5625"
"1575567300338","199","0.061523438","-0.9394531","0.12597656","-9.21875","35.03125","-10.09375"
"1575567300728","200","0.051757812","-0.90722656","0.10839844","-6.78125","43.375","-6.4375"
"1575567300728","201","0.15234375","-0.97558594","0.08691406","1.375","44.53125","-0.375"
"1575567300729","202","0.19335938","-1.0947266","0.057617188","0.71875","39.34375","-1.65625"
"1575567300729","203","0.19628906","-1.1259766","0.083984375","-14.53125","38.875","-2.9375"
"1575567300729","204","0.18945312","-1.046875","0.1953125","-21.0625","37.875","-6.0625"
"1575567300730","205","0.15039062","-1.0439453","0.10449219","-12.59375","24.15625","-5.3125"
"1575567300730","206","0.0546875","-0.9628906","0.0859375","-15.59375","13.90625","-0.75"
"1575567300730","207","0.041992188","-0.8623047","0.14355469","-13.4375","13.53125","-4.78125"
"1575567300731","208","-0.02734375","-0.8642578","0.11425781","-3.375","11.34375","-4.15625"
"1575567300731","209","-0.043945312","-0.9941406","0.09863281","-0.6875","15.90625","-3.25"
"1575567301125","210","-0.015625","-1.0712891","0.10253906","-5.15625","18.34375","-0.125"
"1575567301125","211","-0.041015625","-1.0683594","0.08105469","-10.09375","7.96875","4.1875"
"1575567301125","212","-0.07421875","-1.0507812","0.06347656","-20.59375","4.625","1.75"
"1575567301126","213","-0.08886719","-0.9951172","0.05859375","-23.03125","0.03125","2.84375"
"1575567301126","214","-0.083984375","-1.0166016","0.0390625","-14.96875","-0.3125","3.78125"
"1575567301126","215","0.0087890625","-1.1328125","0.045898438","-21.1875","7.3125","3.53125"
"1575567301126","216","-0.10253906","-1.0634766","0.07910156","-28.03125","5.40625","1.8125"
"1575567301128","217","-0.15429688","-0.9951172","0.056640625","-21.25","3.03125","0.65625"
"1575567301128","218","-0.08496094","-0.87597656","0.06738281","-24.3125","6.5","-0.3125"
"1575567301128","219","-0.051757812","-0.82128906","-0.01953125","-15.09375","8.15625","2.71875"
"1575567301523","220","0.00390625","-0.9199219","-0.07421875","-7.59375","4.0","6.5625"
"1575567301523","221","0.078125","-1.1083984","-0.1015625","-8.125","0.65625","6.5625"
"1575567301524","222","0.043945312","-1.1064453","-0.072265625","-20.65625","-11.71875","2.25"
"1575567301524","223","0.033203125","-1.0498047","-0.11816406","-15.59375","-19.125","0.21875"
"1575567301524","224","0.056640625","-1.0078125","-0.09277344","-19.96875","-25.34375","-1.78125"
"1575567301524","225","0.04296875","-0.9326172","-0.115234375","-14.25","-37.5625","2.0"
"1575567301525","226","0.0234375","-0.9082031","-0.11035156","-9.0","-50.0625","9.25"
"1575567301525","227","0.017578125","-0.92089844","-0.15234375","-7.78125","-54.8125","8.46875"
"1575567301525","228","9.765625E-4","-0.9560547","-0.17480469","-9.59375","-59.53125","4.5625"
"1575567301527","229","0.0048828125","-1.0322266","-0.20996094","-3.5625","-57.875","4.125"
"1575567301918","230","-0.06640625","-1.0488281","-0.20214844","-3.125","-54.34375","2.25"
"1575567301919","231","-0.18554688","-1.1318359","-0.17773438","-6.59375","-39.1875","1.875"
"1575567301919","232","-0.13476562","-1.0302734","-0.13183594","-2.8125","-23.875","5.0625"
"1575567301919","233","-0.044921875","-0.9394531","-0.10839844","1.28125","-13.25","0.53125"
"1575567301919","234","-0.099609375","-0.9345703","-0.06347656","-5.6875","-12.53125","-2.8125"
"1575567301920","235","-0.13183594","-0.9550781","-0.072265625","-4.28125","-2.9375","-2.28125"
"1575567301920","236","-0.0703125","-0.9433594","-0.040039062","-0.75","5.0625","-4.28125"
"1575567301920","237","0.036132812","-0.93847656","-0.018554688","0.65625","13.03125","-2.9375"
"1575567301920","238","0.07910156","-1.0791016","-0.08691406","8.59375","9.03125","-1.90625"
"1575567301921","239","0.064453125","-1.1660156","0.00390625","1.03125","-2.28125","-11.625"
"1575567302316","240","-0.009765625","-1.0048828","-0.04296875","6.8125","-4.59375","-17.65625"
"1575567302317","241","-0.04296875","-0.86328125","-0.00390625","4.375","5.34375","-19.90625"
"1575567302317","242","-0.0078125","-0.7636719","0.025390625","10.71875","14.625","-16.3125"
"1575567302318","243","0.19433594","-0.9863281","0.0068359375","23.125","14.09375","-14.1875"
"1575567302318","244","0.33203125","-1.3134766","-0.005859375","18.46875","-11.90625","-27.96875"
"1575567302318","245","0.10058594","-1.1933594","-0.030273438","1.8125","-38.40625","-19.96875"
"1575567302318","246","-0.001953125","-0.90722656","0.038085938","1.625","-40.0625","-10.9375"
"1575567302319","247","-0.041015625","-0.8066406","0.041992188","15.375","-21.125","-11.4375"
"1575567302319","248","0.056640625","-0.8769531","0.047851562","14.9375","-8.6875","-7.28125"
"1575567302319","249","0.046875","-0.97753906","0.018554688","16.34375","1.3125","-6.5"
"1575567302912","250","0.041992188","-1.0068359","-0.0146484375","14.5","9.9375","-9.15625"
"1575567302914","251","0.08300781","-1.0175781","-0.024414062","6.46875","18.28125","-5.625"
"1575567302915","252","0.09082031","-0.96875","-0.0234375","6.15625","29.40625","-7.46875"
"1575567302915","253","0.12792969","-1.0839844","-0.0703125","22.125","38.0625","-2.9375"
"1575567302915","254","0.18164062","-1.1171875","-0.08984375","7.5","44.96875","-0.3125"
"1575567302916","255","0.18359375","-1.0439453","-0.01171875","-3.4375","46.90625","-2.53125"
"1575567302917","256","0.15625","-1.0058594","0.10253906","-3.96875","54.625","-6.84375"
"1575567302917","257","0.16308594","-1.0458984","0.01171875","5.53125","50.09375","-10.5625"
"1575567302917","258","0.109375","-1.0371094","0.0146484375","-0.375","38.6875","-6.25"
"1575567302917","259","0.099609375","-0.96484375","0.06933594","-5.4375","39.78125","-10.9375"
"1575567303111","260","0.07324219","-0.984375","0.12402344","-11.5","42.34375","-10.5625"
"1575567303111","261","0.037109375","-1.0097656","0.064453125","-8.1875","40.4375","-10.625"
"1575567303111","262","0.0","-0.9404297","0.030273438","-1.0","36.90625","-1.96875"
"1575567303112","263","0.029296875","-0.90527344","0.032226562","1.5","34.78125","9.9375"
"1575567303112","264","0.059570312","-0.9326172","0.07128906","-1.90625","15.4375","19.5625"
"1575567303113","265","0.07519531","-1.0019531","0.076171875","-20.71875","-3.6875","18.28125"
"1575567303114","266","0.00390625","-1.0625","-0.013671875","-5.25","-23.03125","8.90625"
"1575567303114","267","0.021484375","-1.1757812","-0.026367188","-5.15625","-16.5625","8.03125"
"1575567303114","268","0.037109375","-1.1015625","0.001953125","-19.84375","-12.40625","7.625"
"1575567303115","269","-0.0234375","-1.0224609","0.030273438","-19.90625","-5.5","7.5"
"1575567303509","270","-0.0390625","-1.0214844","0.013671875","-19.0625","-6.0625","7.25"
"1575567303509","271","-0.024414062","-0.9667969","-0.029296875","-19.4375","-9.28125","6.46875"
"1575567303510","272","-0.048828125","-0.9482422","-0.005859375","-24.5625","-16.25","11.40625"
"1575567303510","273","-0.119140625","-0.90722656","-0.037109375","-12.84375","-15.9375","11.71875"
"1575567303510","274","-0.09082031","-1.0126953","-0.10058594","-9.28125","-7.09375","12.5"
"1575567303510","275","-0.06640625","-0.9902344","-0.11230469","-8.0625","-5.4375","16.34375"
"1575567303511","276","-0.001953125","-0.94140625","-0.07128906","-8.125","3.53125","16.78125"
"1575567303512","277","0.040039062","-0.97753906","-0.11816406","8.65625","-3.5","15.71875"
"1575567303513","278","0.057617188","-1.0097656","-0.12890625","-7.09375","-11.5","11.15625"
"1575567303513","279","0.032226562","-0.96777344","-0.11230469","-7.15625","-16.3125","2.375"
"1575567303907","280","0.0703125","-0.94433594","-0.12207031","-1.40625","-27.90625","-2.15625"
"1575567303907","281","0.0234375","-0.9638672","-0.06347656","-3.4375","-24.84375","-6.78125"
"1575567303908","282","-0.040039062","-1.1816406","-0.107421875","8.28125","-18.75","-1.71875"
"1575567303908","283","-0.109375","-1.2041016","-0.15136719","3.15625","-23.09375","7.125"
"1575567303908","284","-0.037109375","-1.0585938","-0.15234375","-5.875","-20.9375","2.25"
"1575567303909","285","-9.765625E-4","-0.9501953","-0.06640625","-8.6875","-16.6875","-6.1875"
"1575567303909","286","-0.115234375","-0.9433594","-0.009765625","-7.875","-17.84375","-5.09375"
"1575567303909","287","-0.15039062","-0.87890625","-0.024414062","-3.875","-12.90625","-2.15625"
"1575567303909","288","-0.07910156","-0.8457031","0.03515625","-10.9375","-2.75","-1.3125"
"1575567303910","289","-0.07714844","-0.93847656","0.03125","-8.0625","3.34375","-1.1875"
"1575567304503","290","-0.11816406","-1.1308594","-0.038085938","18.78125","17.1875","-3.875"
"1575567304504","291","-0.06738281","-1.2900391","-0.107421875","6.46875","22.6875","-6.3125"
"1575567304504","292","0.047851562","-1.1494141","-0.03515625","-16.0625","16.28125","-8.5"
"1575567304504","293","0.0126953125","-1.0175781","-0.01953125","-11.125","6.875","-2.59375"
"1575567304505","294","-0.040039062","-0.96972656","-0.0146484375","-9.46875","4.75","-2.46875"
"1575567304505","295","-0.06347656","-0.8779297","-0.0107421875","-4.53125","3.15625","-0.5"
"1575567304505","296","-0.04296875","-0.86035156","0.0068359375","-2.53125","6.625","0.96875"
"1575567304506","297","0.02734375","-0.91308594","-9.765625E-4","7.5625","4.6875","3.46875"
"1575567304506","298","0.045898438","-0.99902344","-0.055664062","12.4375","-7.9375","1.375"
"1575567304506","299","0.0126953125","-1.0634766","-0.08203125","8.96875","-13.125","1.3125"
"1575567304899","300","-0.0029296875","-1.0351562","-0.083984375","3.46875","-11.1875","6.34375"
"1575567304901","301","0.029296875","-0.96777344","-0.0625","-0.0625","-5.8125","8.59375"
"1575567304901","302","-0.02734375","-0.9658203","-0.04296875","2.90625","-2.8125","6.03125"
"1575567304902","303","-0.040039062","-0.9980469","-0.10546875","8.84375","4.5625","1.4375"
"1575567304902","304","-0.029296875","-0.98828125","-0.06640625","0.40625","11.59375","2.125"
"1575567304902","305","-0.03515625","-0.99902344","-0.107421875","11.59375","18.84375","2.5625"
"1575567304902","306","0.052734375","-1.1669922","-0.072265625","7.90625","27.5625","0.15625"
"1575567304903","307","-0.05859375","-1.2119141","-0.09082031","-5.09375","19.5625","-2.8125"
"1575567304903","308","-0.10546875","-1.1210938","-0.09375","-10.9375","20.90625","-1.3125"
"1575567304903","309","-0.1015625","-0.9824219","-0.04296875","-19.59375","28.125","-4.21875"
"1575567305496","310","-0.11621094","-0.8720703","-0.05859375","-15.875","26.53125","0.15625"
"1575567305496","311","-0.099609375","-0.90234375","-0.03125","-17.53125","26.96875","-2.09375"
"1575567305497","312","-0.14257812","-0.93847656","-0.047851562","-11.84375","23.0","-2.28125"
"1575567305498","313","-0.11230469","-0.9746094","-0.08984375","-9.40625","13.34375","-2.625"
"1575567305498","314","-0.033203125","-1.0234375","-0.07128906","-7.09375","7.3125","-2.9375"
"1575567305499","315","-0.043945312","-1.0078125","-0.07128906","-7.8125","-2.40625","-3.0625"
"1575567305499","316","-0.11816406","-1.0058594","-0.13085938","-8.5625","-3.375","-1.71875"
"1575567305499","317","-0.12109375","-1.1513672","-0.21972656","-6.3125","4.8125","-4.84375"
"1575567305500","318","-0.09375","-1.0507812","-0.14941406","-16.125","13.0","-4.90625"
"1575567305500","319","-0.11816406","-0.8486328","-0.07910156","-7.9375","6.5","0.78125"
"1575567305695","320","-0.16113281","-0.8261719","-0.09472656","0.65625","13.03125","-1.3125"
"1575567305695","321","-0.171875","-0.9550781","-0.16796875","4.75","21.90625","2.1875"
"1575567305696","322","-0.09863281","-1.0185547","-0.18457031","5.125","31.0625","3.71875"
"1575567305696","323","-0.04296875","-0.99121094","-0.17089844","11.03125","30.5625","1.21875"
"1575567305696","324","-0.01953125","-0.95996094","-0.17578125","11.40625","25.25","-2.625"
"1575567305698","325","-0.022460938","-0.9277344","-0.15332031","5.21875","26.40625","-3.5"
"1575567305699","326","0.032226562","-1.0068359","-0.19238281","5.90625","24.59375","-5.875"
"1575567305699","327","0.07128906","-1.0595703","-0.1796875","4.5625","15.0","-4.96875"
"1575567305699","328","0.036132812","-1.0751953","-0.1796875","5.34375","5.46875","-3.125"
"1575567305700","329","-0.044921875","-1.0634766","-0.16503906","3.21875","5.59375","0.84375"
"1575567306094","330","-0.047851562","-1.0048828","-0.16796875","3.40625","-0.9375","6.09375"
"1575567306094","331","-0.021484375","-1.0673828","-0.1484375","3.53125","1.5625","6.6875"
"1575567306094","332","-0.047851562","-1.0429688","-0.10058594","0.71875","-4.40625","7.375"
"1575567306095","333","-0.032226562","-0.96972656","-0.08300781","2.1875","-13.03125","7.125"
"1575567306095","334","-0.043945312","-0.9277344","-0.07714844","1.6875","-17.15625","4.9375"
"1575567306095","335","-0.0546875","-0.9345703","-0.06347656","0.59375","-13.9375","3.34375"
"1575567306095","336","-0.07324219","-0.9658203","-0.034179688","5.96875","-12.09375","2.5"
"1575567306096","337","-0.05859375","-0.9560547","0.029296875","1.8125","-16.5","-0.6875"
"1575567306096","338","-0.06640625","-0.9628906","0.0078125","2.1875","-16.0","-6.0"
"1575567306096","339","-0.07910156","-1.0244141","0.0107421875","4.375","-10.4375","-10.9375"
"1575567306493","340","-0.0625","-1.0449219","-0.01953125","3.46875","-10.34375","-14.53125"
"1575567306494","341","0.0146484375","-1.0976562","-0.022460938","-0.75","-2.53125","-14.96875"
"1575567306494","342","-0.01171875","-1.1455078","-9.765625E-4","1.15625","-7.03125","-12.28125"
"1575567306494","343","-0.057617188","-1.0888672","-0.021484375","2.25","-12.40625","-10.28125"
"1575567306494","344","-0.044921875","-0.984375","-0.015625","-4.71875","-7.53125","-11.375"
"1575567306495","345","-0.0048828125","-0.8935547","0.045898438","3.34375","-6.25","-7.71875"
"1575567306495","346","-0.0087890625","-0.8808594","0.02734375","15.5","-9.90625","-4.90625"
"1575567306495","347","-0.00390625","-0.9472656","-0.005859375","17.5625","-7.03125","-3.625"
"1575567306495","348","-0.040039062","-0.9375","-0.0068359375","15.78125","-3.375","-2.09375"
"1575567306497","349","-0.028320312","-0.93652344","-0.024414062","17.0625","4.25","0.34375"
"1575567306887","350","0.052734375","-1.0185547","-0.043945312","11.03125","15.71875","-0.625"
"1575567306887","351","0.0546875","-1.046875","-0.052734375","3.34375","18.65625","-0.875"
"1575567306888","352","-0.0390625","-1.0683594","-0.07128906","0.96875","20.375","-0.9375"
"1575567306888","353","0.0126953125","-1.0908203","-0.06933594","-10.21875","33.375","1.4375"
"1575567306888","354","0.07910156","-1.0244141","-0.076171875","-18.4375","35.15625","0.46875"
"1575567306888","355","0.07910156","-1.1074219","-0.09765625","-6.84375","30.0625","-4.40625"
"1575567306889","356","0.064453125","-1.1503906","-0.07324219","-16.9375","32.03125","-3.0"
"1575567306889","357","0.015625","-1.0595703","-0.064453125","-14.84375","20.8125","2.65625"
"1575567306889","358","-0.0048828125","-0.9658203","-0.08984375","-19.1875","18.84375","1.21875"
"1575567306890","359","0.017578125","-0.8955078","0.0126953125","-24.78125","25.5625","3.34375"
"1575567307285","360","-0.064453125","-0.90722656","-0.01171875","-17.46875","19.8125","2.5"
"1575567307286","361","-0.10546875","-1.0195312","-0.09082031","-17.09375","21.21875","0.40625"
"1575567307286","362","-0.11328125","-1.03125","-0.048828125","-25.65625","24.65625","1.625"
"1575567307286","363","-0.19433594","-0.91308594","-0.02734375","-18.875","28.5","2.4375"
"1575567307287","364","-0.08886719","-0.9433594","-0.06347656","-15.21875","34.46875","1.625"
"1575567307287","365","-0.016601562","-1.0009766","-0.12695312","-18.4375","29.46875","-2.15625"
"1575567307287","366","0.078125","-1.0283203","-0.15429688","-7.875","15.90625","-4.65625"
"1575567307287","367","0.01953125","-1.0791016","-0.20410156","-4.15625","1.9375","-6.375"
"1575567307287","368","-0.064453125","-1.0751953","-0.21679688","-6.78125","-4.84375","-8.3125"
"1575567307288","369","-0.08105469","-1.0322266","-0.16601562","-7.21875","-3.75","-3.125"
"1575567307683","370","-0.15234375","-0.94921875","-0.13476562","-0.8125","2.375","3.59375"
"1575567307684","371","-0.12792969","-0.9248047","-0.15917969","3.21875","13.03125","5.78125"
"1575567307684","372","-0.07519531","-0.92089844","-0.16503906","13.28125","19.625","9.6875"
"1575567307686","373","-0.0068359375","-0.9033203","-0.19238281","8.28125","16.28125","9.125"
"1575567307686","374","0.020507812","-0.9326172","-0.21679688","13.84375","11.03125","7.5"
"1575567307686","375","0.022460938","-0.9589844","-0.21484375","11.59375","3.21875","6.5625"
"1575567307686","376","0.043945312","-1.0048828","-0.21582031","9.3125","-5.875","1.875"
"1575567307687","377","0.033203125","-1.0576172","-0.21191406","11.65625","-15.53125","-6.1875"
"1575567307687","378","0.07324219","-1.0234375","-0.17382812","6.28125","-16.1875","-8.5625"
"1575567307687","379","0.0107421875","-1.0957031","-0.14160156","6.5","-4.34375","-8.375"
"1575567308278","380","-0.052734375","-1.0800781","-0.11328125","5.34375","-6.5","-5.21875"
"1575567308278","381","-0.08984375","-1.0585938","-0.123046875","8.03125","2.3125","-0.375"
"1575567308278","382","-0.053710938","-0.95996094","-0.13574219","10.0625","5.34375","-0.625"
"1575567308279","383","-0.0107421875","-0.9560547","-0.0859375","1.4375","10.1875","-5.625"
"1575567308280","384","-0.020507812","-1.015625","-0.028320312","-2.09375","6.03125","-8.875"
"1575567308280","385","-9.765625E-4","-0.984375","-0.015625","3.65625","-3.4375","-8.5"
"1575567308281","386","0.053710938","-0.92285156","-0.0107421875","7.4375","-15.46875","-9.40625"
"1575567308281","387","0.07421875","-0.94140625","0.020507812","6.625","-24.0","-10.28125"
"1575567308282","388","0.061523438","-1.0371094","0.1015625","3.71875","-26.9375","-11.625"
"1575567308282","389","0.0126953125","-1.0869141","0.034179688","3.9375","-32.0","-15.625"
"1575567308478","390","0.076171875","-1.1630859","0.001953125","-1.78125","-29.125","-17.15625"
"1575567308479","391","0.06347656","-1.0976562","0.013671875","-5.625","-34.25","-12.34375"
"1575567308479","392","0.11230469","-1.0195312","0.038085938","1.5625","-39.5","-9.78125"
"1575567308479","393","0.024414062","-0.8808594","0.052734375","4.625","-53.0625","-6.375"
"1575567308479","394","0.015625","-0.8798828","0.06542969","13.09375","-50.84375","-4.09375"
"1575567308480","395","-0.02734375","-0.8779297","0.0234375","13.21875","-45.5","-3.75"
"1575567308480","396","-0.009765625","-0.89746094","0.0126953125","10.0","-33.28125","-0.8125"
"1575567308481","397","0.018554688","-0.9794922","-0.009765625","10.96875","-21.125","-2.28125"
"1575567308481","398","0.072265625","-1.1191406","-0.052734375","11.53125","-15.59375","1.15625"
"1575567308482","399","0.09765625","-1.1015625","-0.107421875","1.375","-10.4375","3.34375"
"1575567308874","400","0.09667969","-1.0576172","-0.09765625","-13.4375","1.15625","4.9375"
"1575567308875","401","0.07421875","-0.99316406","-0.0703125","-18.15625","7.1875","8.46875"
"1575567308875","402","0.072265625","-0.96972656","-0.055664062","-19.0","18.96875","7.90625"
"1575567308875","403","0.05859375","-1.0117188","-0.0703125","-12.03125","19.75","10.1875"
"1575567308876","404","0.15234375","-1.0654297","-0.107421875","-8.125","18.46875","8.28125"
"1575567308876","405","0.14746094","-1.078125","-0.10546875","-9.71875","6.625","6.875"
"1575567308876","406","0.076171875","-1.0244141","-0.111328125","-7.40625","3.9375","10.46875"
"1575567308876","407","0.06542969","-0.984375","-0.09765625","-7.8125","6.40625","13.59375"
"1575567308877","408","0.037109375","-0.9746094","-0.09863281","-10.6875","10.65625","12.875"
"1575567308878","409","-0.046875","-0.9951172","-0.03515625","-14.65625","14.8125","11.71875"
"1575567309470","410","-0.19726562","-0.96191406","-0.06738281","-3.5625","16.34375","16.9375"
"1575567309471","411","-0.07128906","-0.9941406","-0.11230469","-15.34375","17.6875","13.96875"
"1575567309471","412","-0.16210938","-0.92089844","-0.005859375","-15.28125","21.90625","6.21875"
"1575567309471","413","-0.19238281","-0.89160156","-0.055664062","-9.46875","24.8125","4.0625"
"1575567309471","414","-0.11425781","-0.96777344","-0.09863281","-10.5","31.28125","2.65625"
"1575567309472","415","-0.032226562","-1.1054688","-0.14453125","0.40625","23.65625","-1.71875"
"1575567309472","416","-0.05078125","-1.15625","-0.14941406","-5.3125","12.3125","-5.75"
"1575567309472","417","-0.07714844","-1.0986328","-0.14453125","-11.125","3.28125","-4.40625"
"1575567309472","418","-0.11328125","-1.0400391","-0.12402344","-7.71875","1.4375","-3.375"
"1575567309473","419","-0.14648438","-0.9746094","-0.13183594","-3.90625","5.1875","-3.0"
"1575567309670","420","-0.17089844","-0.890625","-0.14355469","-0.3125","8.65625","1.3125"
"1575567309672","421","-0.1328125","-0.8652344","-0.12597656","1.875","19.9375","-2.15625"
"1575567309672","422","-0.091796875","-0.87597656","-0.1171875","1.4375","21.90625","-3.8125"
"1575567309673","423","-0.033203125","-0.9609375","-0.18457031","13.84375","22.125","-6.3125"
"1575567309673","424","0.020507812","-0.99902344","-0.19628906","7.5","21.03125","-7.65625"
"1575567309673","425","0.083984375","-1.0439453","-0.19238281","7.90625","18.0","-5.75"
"1575567309673","426","0.099609375","-1.0576172","-0.22753906","5.125","9.8125","-10.03125"
"1575567309674","427","0.10839844","-1.0390625","-0.20507812","2.125","3.90625","-16.5625"
"1575567309674","428","0.087890625","-0.95703125","-0.20996094","3.34375","-7.59375","-17.40625"
"1575567309674","429","0.10546875","-0.953125","-0.21289062","6.40625","-8.8125","-15.46875"
"1575567310070","430","0.11328125","-1.0175781","-0.18554688","5.53125","-9.96875","-16.125"
"1575567310071","431","-0.009765625","-1.0546875","-0.17871094","6.9375","-4.59375","-14.90625"
"1575567310071","432","0.005859375","-1.0009766","-0.11816406","6.15625","7.25","-10.5"
"1575567310071","433","-0.016601562","-0.97753906","-0.083984375","10.59375","20.25","-6.1875"
"1575567310073","434","0.0234375","-1.0136719","-0.06640625","11.53125","26.59375","-1.1875"
"1575567310073","435","0.08691406","-1.0048828","-0.08496094","8.46875","8.34375","-1.65625"
"1575567310073","436","0.08203125","-0.98339844","-0.0390625","0.71875","-4.71875","-7.875"
"1575567310074","437","0.0146484375","-0.96972656","0.01171875","5.46875","-9.125","-8.6875"
"1575567310074","438","-0.01171875","-0.9199219","0.07714844","9.625","-11.96875","-2.59375"
"1575567310074","439","0.025390625","-0.9199219","0.07324219","22.03125","-8.9375","-2.625"
"1575567310464","440","0.016601562","-1.0634766","0.06738281","26.28125","-5.3125","1.3125"
"1575567310465","441","0.041992188","-1.1943359","0.040039062","17.8125","-3.5","-9.65625"
"1575567310465","442","0.032226562","-1.1630859","0.07519531","13.21875","-6.0625","-8.25"
"1575567310465","443","0.046875","-1.03125","0.044921875","7.4375","-0.6875","-9.34375"
"1575567310465","444","0.01171875","-0.9638672","0.06542969","9.25","5.34375","-10.15625"
"1575567310466","445","0.09277344","-0.94433594","0.0146484375","12.0625","7.8125","-6.78125"
"1575567310466","446","0.08691406","-0.8769531","0.08300781","2.25","-1.96875","-9.46875"
"1575567310467","447","0.1640625","-0.9140625","0.1015625","11.09375","-6.71875","-8.75"
"1575567310467","448","0.14453125","-1.0185547","0.076171875","16.46875","-16.6875","-5.9375"
"1575567310467","449","0.13574219","-1.0410156","0.0234375","14.21875","-19.25","-2.9375"
"1575567311258","450","0.18945312","-1.0410156","0.036132812","11.09375","-14.71875","-1.40625"
"1575567311259","451","0.119140625","-1.0361328","0.040039062","7.0625","-13.625","-0.75"
"1575567311259","452","0.07128906","-1.0029297","0.00390625","-2.34375","-9.40625","-1.0625"
"1575567311260","453","0.12402344","-0.9658203","0.028320312","-9.53125","0.03125","3.03125"
"1575567311260","454","0.14941406","-0.9042969","-0.005859375","-8.8125","6.28125","7.5"
"1575567311261","455","0.1796875","-0.94628906","-0.047851562","-2.53125","8.40625","9.9375"
"1575567311261","456","0.15722656","-0.95996094","-0.034179688","-10.4375","12.4375","5.90625"
"1575567311261","457","0.16601562","-1.0351562","-0.045898438","-13.125","12.4375","7.5625"
"1575567311262","458","0.18066406","-1.0957031","-0.026367188","-21.5625","20.375","5.34375"
"1575567311262","459","0.17285156","-1.2314453","-0.041992188","-19.0625","14.875","-2.03125"
"1575567311456","460","0.111328125","-1.0830078","-0.06347656","-24.90625","-5.875","6.875"
"1575567311456","461","0.01171875","-0.84277344","0.049804688","-34.0","-0.875","9.375"
"1575567311457","462","-0.0625","-0.8798828","0.12011719","-22.90625","13.09375","0.28125"
"1575567311457","463","-0.0703125","-1.0722656","0.001953125","-4.28125","14.8125","-1.25"
"1575567311457","464","-0.08105469","-1.0585938","-0.026367188","-15.6875","0.59375","10.71875"
"1575567311457","465","0.022460938","-1.0029297","0.0625","-12.84375","0.0","23.125"
"1575567311457","466","0.09277344","-1.0390625","-0.0078125","-11.3125","-12.65625","14.625"
"1575567311457","467","0.01171875","-0.99609375","-0.06738281","-23.5625","-24.1875","8.03125"
"1575567311458","468","-0.07128906","-0.9658203","-0.029296875","-29.9375","-30.84375","8.71875"
"1575567311458","469","-0.083984375","-0.9628906","-0.13671875","-15.46875","-36.28125","1.5625"
"1575567311657","470","-0.047851562","-1.0205078","-0.1484375","-11.4375","-27.0","5.90625"
"1575567311657","471","-0.053710938","-1.0507812","-0.13476562","-10.40625","-17.59375","8.15625"
"1575567311658","472","-0.109375","-1.0351562","-0.13378906","-12.65625","-6.96875","5.78125"
"1575567311658","473","-0.06738281","-0.9794922","-0.15625","-8.9375","0.59375","10.25"
"1575567311658","474","-0.001953125","-0.9160156","-0.13574219","-12.28125","1.5625","9.125"
"1575567311658","475","0.00390625","-0.9082031","-0.12890625","-8.75","-5.875","8.15625"
"1575567311658","476","-0.045898438","-0.921875","-0.17285156","0.84375","-14.78125","8.15625"
"1575567311659","477","-0.0146484375","-0.9453125","-0.21972656","2.59375","-16.6875","7.90625"
"1575567311659","478","0.01953125","-0.97753906","-0.21582031","1.28125","-12.28125","3.21875"
"1575567311659","479","0.013671875","-1.0107422","-0.23046875","4.75","-17.40625","1.09375"
"1575567312055","480","9.765625E-4","-1.0292969","-0.25","4.0625","-20.53125","-1.96875"
"1575567312057","481","0.01953125","-1.0273438","-0.23339844","0.59375","-23.625","-3.25"
"1575567312057","482","-0.017578125","-1.0332031","-0.16113281","-0.9375","-24.6875","-4.90625"
"1575567312058","483","-0.14648438","-1.0244141","-0.18457031","-5.21875","-21.75","-3.6875"
"1575567312058","484","-0.14160156","-0.98828125","-0.21875","8.84375","-16.0625","3.34375"
"1575567312058","485","-0.047851562","-0.95410156","-0.18457031","3.71875","-11.0625","4.25"
"1575567312058","486","-0.07324219","-0.94140625","-0.15722656","-2.34375","-4.40625","2.96875"
"1575567312059","487","-0.06640625","-0.9863281","-0.19433594","3.03125","-3.5625","1.375"
"1575567312059","488","9.765625E-4","-1.0712891","-0.13378906","-2.75","-2.6875","-0.5"
"1575567312059","489","-0.06738281","-1.1494141","-0.09472656","-2.09375","-5.03125","-1.71875"
"1575567312452","490","-0.11035156","-1.0380859","-0.0546875","3.84375","-17.21875","4.5625"
"1575567312453","491","-0.10058594","-0.890625","-0.022460938","5.53125","-19.3125","3.90625"
"1575567312453","492","-0.119140625","-0.8691406","0.03125","5.59375","-14.59375","1.8125"
"1575567312455","493","-0.14355469","-0.9199219","0.015625","12.125","-6.5","-0.3125"
"1575567312456","494","-0.109375","-1.0146484","-0.038085938","16.40625","9.5","-4.28125"
"1575567312456","495","-0.041015625","-1.1142578","-0.056640625","13.71875","20.96875","-8.5625"
"1575567312456","496","-0.06347656","-1.0742188","-0.05859375","9.6875","21.90625","-11.0"
"1575567312456","497","-0.072265625","-1.0673828","-0.020507812","2.4375","26.59375","-15.40625"
"1575567312457","498","-0.064453125","-0.9863281","-0.037109375","1.09375","29.21875","-18.9375"
"1575567312457","499","-0.024414062","-0.9902344","-0.0546875","4.6875","27.8125","-18.21875"
"1575567312849","500","-0.0126953125","-0.95703125","-0.03515625","7.8125","26.59375","-19.78125"
"1575567312850","501","0.01953125","-0.9453125","-0.022460938","12.5","21.96875","-17.15625"
"1575567312850","502","0.04296875","-0.9970703","-0.033203125","15.96875","23.59375","-16.25"
"1575567312850","503","0.060546875","-1.0224609","-0.0029296875","9.5","21.71875","-14.84375"
"1575567312851","504","0.05859375","-1.0585938","0.005859375","8.03125","19.5625","-14.96875"
"1575567312852","505","0.076171875","-1.0371094","-0.026367188","13.15625","15.3125","-15.09375"
"1575567312852","506","0.10644531","-1.0117188","-0.0107421875","9.125","19.53125","-15.8125"
"1575567312852","507","0.09082031","-1.0078125","-0.026367188","11.9375","17.875","-14.0625"
"1575567312853","508","0.10058594","-0.98046875","-0.038085938","7.375","21.90625","-13.3125"
"1575567312853","509","0.08984375","-0.953125","-0.015625","6.28125","24.15625","-11.4375"
"1575567313839","510","0.072265625","-0.9550781","-0.034179688","8.84375","32.625","-10.5"
"1575567313839","511","0.08691406","-0.9238281","-0.07519531","4.375","36.4375","-7.59375"
"1575567313840","512","0.123046875","-0.90527344","-0.041015625","3.46875","45.34375","-3.375"
"1575567313840","513","0.17285156","-0.9033203","-0.06542969","4.8125","54.84375","-3.0625"
"1575567313840","514","0.21484375","-0.9472656","-0.091796875","0.84375","52.34375","0.84375"
"1575567313840","515","0.23632812","-0.9794922","-0.03515625","-9.28125","46.5625","1.4375"
"1575567313840","516","0.23339844","-1.0419922","-0.032226562","-14.53125","38.1875","-0.3125"
"1575567313841","517","0.296875","-1.1679688","0.0068359375","-6.53125","22.6875","-11.96875"
"1575567313842","518","0.10546875","-1.3251953","-0.034179688","-3.0625","-2.03125","-6.0625"
"1575567313842","519","0.08984375","-1.015625","0.024414062","-19.1875","3.34375","-9.84375"
"1575567314042","520","0.01171875","-0.95410156","0.14257812","-4.03125","8.53125","-9.28125"
"1575567314042","521","-0.0625","-1.0390625","0.07714844","5.90625","11.15625","-3.875"
"1575567314043","522","-0.103515625","-1.0410156","0.043945312","-6.0","8.78125","4.75"
"1575567314043","523","-0.064453125","-0.8955078","0.15625","-6.5","5.1875","11.40625"
"1575567314043","524","-0.068359375","-0.8779297","0.043945312","1.09375","-1.0","11.9375"
"1575567314043","525","-0.0048828125","-0.96484375","-0.018554688","3.40625","3.46875","12.75"
"1575567314043","526","0.017578125","-1.0419922","0.017578125","-3.125","0.59375","10.0625"
"1575567314044","527","-0.04296875","-1.0429688","-0.017578125","2.0","-5.5625","7.5"
"1575567314044","528","-0.037109375","-1.0517578","0.00390625","-18.5625","-9.65625","5.21875"
"1575567314045","529","-0.0107421875","-0.9873047","0.001953125","-13.875","-5.5625","2.5"
"1575567314637","530","0.07324219","-0.9746094","-0.032226562","-7.71875","-10.15625","7.5625"
"1575567314638","531","0.087890625","-0.94140625","0.06933594","-21.9375","-12.03125","0.03125"
"1575567314638","532","-0.01953125","-1.0029297","0.037109375","-1.0625","-20.21875","0.53125"
"1575567314638","533","-0.044921875","-1.0742188","-0.06347656","-2.28125","-17.21875","-1.96875"
"1575567314638","534","0.0146484375","-0.98339844","-0.049804688","-12.21875","-11.1875","-2.09375"
"1575567314639","535","0.07421875","-0.9814453","-0.030273438","-5.09375","-8.8125","-4.78125"
"1575567314639","536","0.044921875","-1.0537109","-0.05078125","1.3125","-18.4375","2.4375"
"1575567314639","537","-0.040039062","-1.0126953","-0.05859375","-1.78125","-18.5","1.3125"
"1575567314639","538","-0.033203125","-1.0068359","-0.049804688","-1.96875","-11.4375","2.90625"
"1575567314640","539","-0.026367188","-0.98046875","-0.08300781","-1.34375","-9.71875","4.4375"
"1575567314835","540","0.0","-0.9746094","-0.103515625","-2.28125","-7.40625","4.5625"
"1575567314836","541","0.038085938","-0.9863281","-0.11230469","-4.09375","-8.75","6.6875"
"1575567314837","542","0.046875","-1.0146484","-0.12109375","-3.8125","-14.40625","7.5625"
"1575567314837","543","0.07910156","-0.99316406","-0.15722656","-1.53125","-23.21875","9.5"
"1575567314838","544","0.06933594","-1.0117188","-0.140625","-2.59375","-28.6875","10.84375"
"1575567314838","545","0.034179688","-0.95703125","-0.16796875","-5.8125","-33.34375","8.28125"
"1575567314838","546","0.0546875","-1.0009766","-0.22265625","-4.59375","-36.6875","9.9375"
"1575567314838","547","0.087890625","-0.95996094","-0.1875","-9.71875","-42.9375","4.125"
"1575567314839","548","0.060546875","-0.9394531","-0.16601562","-15.03125","-46.9375","3.71875"
"1575567314839","549","0.03125","-1.1142578","-0.095703125","-14.46875","-33.09375","7.5"
"1575567315032","550","-0.111328125","-1.2109375","-0.064453125","-19.125","-27.0","13.71875"
"1575567315033","551","-0.111328125","-1.0478516","-0.12207031","-7.65625","-24.625","16.15625"
"1575567315033","552","0.0029296875","-0.984375","-0.14160156","-15.9375","-18.15625","7.0"
"1575567315034","553","0.0048828125","-0.9902344","-0.076171875","-22.125","-29.125","5.46875"
"1575567315034","554","-0.12695312","-0.93359375","0.0146484375","-10.40625","-33.59375","2.375"
"1575567315034","555","-0.13964844","-0.9394531","-0.0029296875","6.28125","-26.1875","7.90625"
"1575567315035","556","-0.11425781","-0.98535156","0.0048828125","6.15625","-23.03125","9.9375"
"1575567315035","557","-0.14550781","-0.9824219","-0.018554688","8.53125","-16.0625","5.21875"
"1575567315035","558","-0.10839844","-1.0410156","-0.087890625","7.96875","-1.125","0.96875"
"1575567315035","559","-0.045898438","-1.0439453","-0.049804688","-2.53125","4.1875","-1.84375"
"1575567315628","560","-0.049804688","-0.96191406","-0.025390625","0.65625","2.65625","-0.875"
"1575567315629","561","-0.09765625","-0.96777344","-0.01171875","-5.5","4.75","-2.53125"
"1575567315630","562","-0.09667969","-1.0097656","-0.05859375","0.0","4.5625","-4.96875"
"1575567315630","563","-0.08203125","-1.0019531","-0.055664062","-0.5625","6.625","-7.21875"
"1575567315630","564","-0.095703125","-0.96972656","-0.051757812","-1.125","9.5","-9.21875"
"1575567315632","565","-0.07519531","-0.9658203","-0.057617188","3.53125","11.15625","-8.6875"
"1575567315633","566","-0.029296875","-1.0039062","-0.07714844","4.75","7.6875","-5.375"
"1575567315633","567","-0.025390625","-0.9921875","-0.07714844","4.5625","3.71875","-6.53125"
"1575567315634","568","-0.057617188","-1.0097656","-0.026367188","-0.6875","11.65625","-5.875"
"1575567315634","569","-0.07324219","-1.0478516","-0.14550781","12.75","9.25","-7.65625"
"1575567315635","570","-0.043945312","-1.0107422","-0.13085938","-1.3125","17.5","-8.375"
"1575567315635","571","-9.765625E-4","-0.953125","-0.05078125","-2.59375","22.25","-9.65625"
"1575567315635","572","-0.0234375","-0.9980469","-0.053710938","1.21875","20.0","-8.3125"
"1575567315635","573","-0.022460938","-1.0136719","-0.08105469","3.34375","23.46875","-9.15625"
"1575567315636","574","0.0107421875","-1.0136719","-0.087890625","2.3125","30.6875","-9.65625"
"1575567315636","575","0.0068359375","-1.0097656","-0.09472656","0.34375","35.75","-9.28125"
"1575567315637","576","0.00390625","-0.9785156","-0.11328125","5.65625","42.03125","-6.59375"
"1575567315637","577","0.047851562","-0.96972656","-0.10839844","2.0","48.6875","-5.09375"
"1575567315637","578","0.08300781","-0.97265625","-0.14550781","4.875","53.03125","-6.5"
"1575567315638","579","0.099609375","-0.97753906","-0.125","-0.5625","54.0625","-3.5"
"1575567316031","580","0.08496094","-0.97558594","-0.111328125","-3.0","58.6875","-0.625"
"1575567316031","581","0.09667969","-0.96875","-0.12597656","-2.75","65.40625","2.1875"
"1575567316031","582","0.10253906","-0.96972656","-0.1015625","-7.15625","70.84375","3.78125"
"1575567316032","583","0.12597656","-1.1396484","-0.051757812","-6.5","70.65625","-1.78125"
"1575567316032","584","0.0126953125","-1.3320312","-0.11328125","1.625","53.8125","4.0625"
"1575567316032","585","-0.034179688","-1.1367188","-0.11328125","-12.46875","47.78125","0.65625"
"1575567316033","586","-0.040039062","-1.0029297","-0.05859375","3.21875","44.96875","7.5"
"1575567316033","587","-0.1171875","-0.8779297","-0.0390625","-2.59375","45.75","16.09375"
"1575567316033","588","-0.22851562","-0.9082031","-0.051757812","-1.59375","44.1875","19.53125"
"1575567316034","589","-0.18164062","-1.0107422","-0.1328125","-0.875","51.0625","14.5"
"1575567316427","590","-0.061523438","-1.0185547","-0.13867188","-9.15625","42.59375","9.5625"
"1575567316428","591","-0.0146484375","-0.9667969","-0.10644531","-11.0","29.84375","5.53125"
"1575567316428","592","-0.06542969","-0.9892578","-0.115234375","1.8125","23.0625","4.6875"
"1575567316428","593","-0.0703125","-1.0302734","-0.13183594","-2.875","19.875","2.0"
"1575567316428","594","-0.08300781","-0.96484375","-0.10839844","-1.0","11.75","1.09375"
"1575567316429","595","-0.07714844","-0.90527344","-0.09863281","1.375","2.5625","0.0"
"1575567316429","596","-0.09082031","-0.8935547","-0.12988281","-1.96875","-0.5625","-0.8125"
"1575567316429","597","-0.091796875","-0.9433594","-0.1640625","-0.75","-0.375","-1.90625"
"1575567316430","598","-0.034179688","-1.0771484","-0.20019531","2.59375","-3.125","-4.40625"
"1575567316430","599","-0.040039062","-1.0917969","-0.13378906","-1.0","-8.375","-1.78125"
"1575567316824","600","-0.046875","-0.98828125","-0.09863281","-0.125","-19.375","-1.90625"
"1575567316825","601","-0.009765625","-0.9658203","-0.15332031","2.59375","-25.03125","-6.65625"
"1575567316825","602","0.030273438","-0.99902344","-0.16308594","1.9375","-33.65625","-7.59375"
"1575567316826","603","0.01953125","-0.97265625","-0.15332031","0.59375","-45.5","-8.625"
"1575567316826","604","0.025390625","-0.94433594","-0.14257812","6.8125","-53.84375","-9.34375"
"1575567316826","605","0.024414062","-0.96875","-0.140625","9.875","-57.09375","-9.90625"
"1575567316826","606","0.028320312","-1.0068359","-0.15332031","10.84375","-60.3125","-10.5625"
"1575567316827","607","-0.0078125","-0.99121094","-0.16503906","11.75","-64.15625","-11.6875"
"1575567316827","608","0.013671875","-1.0400391","-0.17480469","2.90625","-60.4375","-13.375"
"1575567316827","609","-0.059570312","-1.1904297","-0.052734375","-7.03125","-38.59375","-11.5625"
"1575567317222","610","-0.037109375","-1.1503906","-0.0390625","-3.0","-43.03125","-8.125"
"1575567317223","611","0.07910156","-1.0361328","-0.05859375","-10.28125","-46.59375","-19.59375"
"1575567317223","612","0.05078125","-0.9609375","0.040039062","-16.5","-42.625","-21.4375"
"1575567317225","613","-0.06640625","-0.91015625","0.10546875","-7.21875","-44.5","-9.53125"
"1575567317225","614","-0.10839844","-0.91796875","0.049804688","7.75","-22.90625","-13.5625"
"1575567317225","615","-0.00390625","-1.0058594","-0.005859375","8.96875","-9.46875","-12.09375"
"1575567317225","616","0.103515625","-1.0712891","0.001953125","6.875","-12.46875","-12.59375"
"1575567317226","617","0.07714844","-0.99609375","0.03515625","2.78125","-21.875","-9.65625"
"1575567317226","618","0.056640625","-0.9863281","0.043945312","8.65625","-18.9375","-9.15625"
"1575567317226","619","0.04296875","-0.9863281","0.01953125","9.3125","-15.34375","-5.625"
"1575567318015","620","0.032226562","-0.9394531","0.05078125","2.90625","-13.5","-3.75"
"1575567318016","621","0.09765625","-0.96191406","0.053710938","6.9375","-10.625","-5.625"
"1575567318016","622","0.17382812","-1.0371094","0.017578125","11.65625","-20.09375","-6.96875"
"1575567318017","623","0.12597656","-0.9716797","0.01953125","7.75","-31.875","-4.09375"
"1575567318017","624","0.07324219","-0.9580078","0.03515625","10.0","-31.75","-1.53125"
"1575567318018","625","0.030273438","-0.9707031","0.0078125","13.90625","-22.28125","-0.5"
"1575567318018","626","0.022460938","-1.0097656","-0.0146484375","10.78125","-12.15625","2.25"
"1575567318018","627","0.04296875","-1.0166016","-0.0234375","3.53125","0.46875","-1.0"
"1575567318019","628","0.0390625","-0.98339844","-0.032226562","-2.28125","15.0","-1.96875"
"1575567318019","629","0.064453125","-0.9765625","-0.048828125","-2.21875","29.40625","0.46875"
"1575567318213","630","0.057617188","-0.9863281","-0.015625","-6.65625","42.15625","2.25"
"1575567318214","631","0.0546875","-1.0126953","-0.024414062","0.96875","54.84375","6.46875"
"1575567318214","632","0.12402344","-1.0244141","-0.034179688","-5.75","68.46875","2.71875"
"1575567318214","633","0.1640625","-0.99902344","-0.03125","-8.875","68.96875","3.53125"
"1575567318214","634","0.15136719","-0.97753906","-0.034179688","-11.3125","72.0","1.875"
"1575567318215","635","0.17675781","-1.0253906","9.765625E-4","-14.0625","77.0","1.15625"
"1575567318215","636","0.14355469","-1.1103516","-0.013671875","-4.84375","70.0625","1.5625"
"1575567318217","637","0.078125","-1.0693359","-0.03125","-9.40625","54.1875","7.5"
"1575567318217","638","0.044921875","-1.0947266","0.06933594","-12.59375","41.125","8.46875"
"1575567318217","639","-0.083984375","-1.0341797","-0.043945312","-2.875","42.53125","17.1875"
"1575567318613","640","-0.0087890625","-0.9296875","-0.0068359375","-14.71875","38.125","15.5"
"1575567318613","641","0.056640625","-0.91015625","-0.029296875","-0.9375","24.53125","24.53125"
"1575567318614","642","-0.01953125","-0.99121094","0.01953125","-4.15625","9.1875","29.46875"
"1575567318614","643","-0.234375","-0.9892578","0.015625","-7.34375","-0.4375","26.71875"
"1575567318614","644","-0.15429688","-1.0332031","-0.025390625","-6.3125","9.625","21.59375"
"1575567318614","645","-0.13476562","-0.99609375","-0.061523438","-3.75","8.28125","15.71875"
"1575567318615","646","-0.12207031","-0.99609375","-0.06933594","-5.25","14.75","15.0"
"1575567318615","647","-0.13476562","-1.0214844","-0.041992188","-10.34375","12.4375","13.84375"
"1575567318615","648","-0.17480469","-1.03125","-0.055664062","-14.84375","10.96875","11.28125"
"1575567318617","649","-0.15332031","-1.0292969","-0.10058594","-20.28125","6.9375","7.25"
"1575567319010","650","-0.10058594","-1.0019531","-0.17871094","-30.53125","6.625","2.375"
"1575567319011","651","-0.01171875","-1.0087891","-0.083984375","-38.84375","-2.625","-1.46875"
"1575567319011","652","-0.05859375","-1.0009766","-0.14746094","-27.59375","-15.6875","-3.5"
"1575567319012","653","-0.06347656","-0.9814453","-0.14941406","-27.78125","-22.59375","-8.5"
"1575567319012","654","-0.06738281","-0.96191406","-0.12402344","-25.53125","-33.15625","-7.28125"
"1575567319012","655","-0.09082031","-0.95410156","-0.140625","-18.21875","-40.71875","-7.09375"
"1575567319012","656","-0.103515625","-0.9824219","-0.16308594","-18.375","-46.875","-6.375"
"1575567319013","657","-0.15234375","-0.98339844","-0.203125","-10.8125","-52.25","-3.6875"
"1575567319013","658","-0.14550781","-1.0019531","-0.23144531","-10.5625","-47.6875","-2.15625"
"1575567319013","659","-0.15039062","-0.9785156","-0.22070312","-13.625","-38.96875","-3.0"
"1575567319407","660","-0.13085938","-0.9902344","-0.24316406","-12.46875","-37.1875","-2.9375"
"1575567319408","661","-0.11328125","-0.9716797","-0.22363281","-14.40625","-38.03125","-4.84375"
"1575567319409","662","-0.13769531","-0.9423828","-0.2705078","-4.03125","-43.65625","-4.53125"
"1575567319409","663","-0.11230469","-0.9658203","-0.2890625","-2.15625","-38.53125","-2.40625"
"1575567319409","664","-0.1171875","-0.9375","-0.2919922","-0.5625","-36.875","-1.90625"
"1575567319410","665","-0.07714844","-0.9296875","-0.27539062","2.96875","-36.5625","-1.90625"
"1575567319410","666","-0.041015625","-0.93847656","-0.28808594","6.5","-39.3125","-5.09375"
"1575567319410","667","-0.037109375","-0.94628906","-0.28125","7.3125","-48.71875","-8.125"
"1575567319410","668","-0.045898438","-0.9394531","-0.29101562","12.0","-55.5","-10.34375"
"1575567319411","669","-0.057617188","-0.9169922","-0.25683594","10.3125","-55.75","-9.90625"
"1575567319807","670","-0.09667969","-0.9199219","-0.28027344","12.1875","-56.90625","-13.3125"
"1575567319807","671","-0.109375","-0.9423828","-0.23242188","11.53125","-51.34375","-12.09375"
"1575567319808","672","-0.25390625","-1.125","-0.1796875","1.28125","-27.71875","-4.09375"
"1575567319808","673","-0.23242188","-1.140625","-0.23242188","5.96875","-14.90625","-6.65625"
"1575567319809","674","-0.038085938","-1.1328125","-0.15234375","-1.65625","-8.625","-10.34375"
"1575567319809","675","-0.052734375","-1.0771484","-0.009765625","-6.3125","-24.4375","-19.59375"
"1575567319809","676","-0.26464844","-0.95214844","0.08691406","9.875","-26.0625","-7.09375"
"1575567319809","677","-0.27929688","-0.88183594","0.055664062","25.25","-4.90625","-6.4375"
"1575567319810","678","-0.17675781","-0.95410156","0.044921875","31.25","21.84375","-6.4375"
"1575567319810","679","-0.16210938","-0.9863281","0.06933594","25.5","26.46875","-9.15625"
"1575567320200","680","-0.14550781","-0.9863281","0.03515625","25.8125","35.9375","-17.65625"
"1575567320200","681","-0.087890625","-1.0234375","0.022460938","20.96875","43.375","-21.3125"
"1575567320201","682","-0.044921875","-1.0546875","0.06738281","15.5","44.40625","-17.09375"
"1575567320201","683","-0.06933594","-1.0253906","0.045898438","13.59375","41.84375","-17.46875"
"1575567320201","684","-0.09375","-0.97558594","0.048828125","4.875","49.0","-18.9375"
"1575567320202","685","-0.046875","-0.95703125","0.038085938","4.6875","54.96875","-23.625"
"1575567320202","686","-0.0126953125","-0.9941406","0.13085938","2.65625","56.3125","-23.4375"
"1575567320202","687","0.015625","-1.0195312","0.064453125","12.0625","56.5","-23.6875"
"1575567320203","688","0.04296875","-1.0810547","0.036132812","5.34375","59.1875","-23.625"
"1575567320203","689","0.045898438","-1.0390625","0.06347656","-4.21875","57.59375","-22.0625"
"1575567320402","690","0.017578125","-0.9824219","0.051757812","2.5625","62.71875","-22.96875"
"1575567320403","691","0.034179688","-0.984375","0.048828125","1.875","70.46875","-22.40625"
"1575567320403","692","0.036132812","-0.9472656","0.037109375","-4.28125","74.5625","-18.4375"
"1575567320403","693","0.05078125","-0.9453125","0.041992188","4.0","77.625","-18.8125"
"1575567320403","694","0.11230469","-0.9628906","0.024414062","-5.25","76.71875","-17.40625"
"1575567320404","695","0.14160156","-0.91796875","0.01171875","-10.6875","80.84375","-17.40625"
"1575567320404","696","0.16503906","-0.91015625","0.029296875","-13.5625","85.5625","-16.5"
"1575567320405","697","0.24316406","-0.9746094","0.018554688","-10.28125","80.3125","-14.34375"
"1575567320405","698","0.29003906","-1.0839844","-0.021484375","-15.46875","85.8125","-14.125"
"1575567320406","699","0.25390625","-1.0625","0.013671875","-25.21875","82.625","-7.59375"
"1575567320994","700","0.24023438","-0.92871094","0.017578125","-21.1875","82.625","-8.0"
"1575567320995","701","0.23828125","-0.8798828","0.036132812","-23.5625","82.5625","-7.46875"
"1575567320995","702","0.33789062","-0.99121094","0.13671875","-17.84375","77.9375","-13.03125"
"1575567320995","703","0.21972656","-1.3027344","0.00390625","7.8125","38.25","-9.65625"
"1575567320995","704","0.1015625","-1.2197266","-0.17675781","-11.0625","1.3125","-7.40625"
"1575567320996","705","0.10449219","-0.9238281","-0.0126953125","-20.65625","2.84375","-9.21875"
"1575567320996","706","0.11621094","-0.8388672","0.0078125","-0.1875","-2.8125","3.59375"
"1575567320996","707","0.103515625","-0.8808594","-0.028320312","-8.625","-14.25","19.09375"
"1575567320996","708","0.028320312","-0.9042969","-0.03125","-14.3125","-26.9375","20.25"
"1575567320997","709","-0.020507812","-1.0820312","-0.0078125","-0.9375","-24.125","10.1875"
"1575567321197","710","-0.10058594","-1.1699219","-0.12597656","-1.59375","-19.5","12.9375"
"1575567321197","711","0.018554688","-1.109375","-0.103515625","-13.4375","-8.3125","13.28125"
"1575567321198","712","0.0703125","-1.0097656","0.0107421875","-18.375","-13.875","14.9375"
"1575567321198","713","-0.053710938","-0.87109375","0.0078125","-15.75","-24.1875","15.3125"
"1575567321198","714","-0.06640625","-0.859375","-0.06542969","-7.21875","-21.5","14.875"
"1575567321199","715","0.0390625","-0.92578125","-0.09082031","-14.34375","-20.65625","9.6875"
"1575567321199","716","0.06738281","-1.015625","-0.072265625","-15.9375","-30.71875","2.90625"
"1575567321199","717","-0.0087890625","-1.1425781","-0.1171875","-10.875","-37.4375","1.375"
"1575567321199","718","-0.022460938","-1.1630859","-0.16113281","-14.65625","-39.0625","5.78125"
"1575567321200","719","0.001953125","-0.98339844","-0.08203125","-23.28125","-45.5625","11.71875"
"1575567321595","720","-0.0146484375","-0.9121094","-0.10546875","-10.40625","-44.4375","6.46875"
"1575567321596","721","0.001953125","-0.95410156","-0.15527344","-8.1875","-46.28125","2.0625"
"1575567321596","722","0.07324219","-0.9580078","-0.12890625","-15.15625","-47.8125","-1.25"
"1575567321597","723","0.030273438","-0.9082031","-0.10449219","-3.5","-58.0625","-2.46875"
"1575567321597","724","-0.047851562","-0.9892578","-0.19335938","2.125","-59.78125","-3.90625"
"1575567321597","725","-0.041992188","-1.0537109","-0.22265625","3.9375","-50.96875","-1.125"
"1575567321597","726","-0.059570312","-1.0009766","-0.22753906","2.375","-45.5625","-0.625"
"1575567321597","727","-0.048828125","-0.9814453","-0.23632812","4.9375","-39.6875","-1.59375"
"1575567321598","728","-0.03515625","-0.9550781","-0.26171875","7.4375","-36.8125","-1.65625"
"1575567321598","729","-0.026367188","-0.93652344","-0.2421875","6.8125","-32.3125","-0.9375"
"1575567322188","730","-0.0625","-0.9199219","-0.2607422","11.53125","-27.125","1.3125"
"1575567322189","731","-0.03125","-0.91015625","-0.26367188","9.3125","-21.125","3.78125"
"1575567322189","732","0.018554688","-0.91796875","-0.2685547","9.75","-17.15625","0.28125"
"1575567322190","733","0.09765625","-1.1347656","-0.09765625","0.96875","3.65625","-13.375"
"1575567322190","734","-0.07128906","-1.2753906","0.087890625","-4.21875","-7.78125","-19.375"
"1575567322190","735","-0.09375","-1.1767578","-0.12792969","27.375","-12.90625","3.65625"
"1575567322191","736","0.19433594","-1.0371094","-9.765625E-4","-10.875","-16.9375","-7.09375"
"1575567322191","737","0.024414062","-0.81152344","0.203125","1.15625","-26.9375","-18.15625"
"1575567322191","738","-0.16503906","-0.90722656","0.12402344","37.59375","-30.09375","5.0"
"1575567322192","739","-0.111328125","-1.0087891","0.02734375","36.59375","-8.125","-8.9375"
"1575567322389","740","0.015625","-1.0019531","0.08691406","25.1875","0.78125","-9.71875"
"1575567322390","741","-0.029296875","-0.9199219","0.12011719","28.375","-1.1875","-8.25"
"1575567322390","742","0.0078125","-0.9863281","0.0703125","32.34375","6.8125","-10.6875"
"1575567322390","743","-0.005859375","-1.0976562","0.049804688","14.21875","12.5","-12.59375"
"1575567322390","744","0.00390625","-1.0263672","0.0703125","7.90625","11.28125","-8.75"
"1575567322392","745","0.045898438","-0.99902344","0.08691406","0.03125","12.1875","-12.90625"
"1575567322392","746","0.051757812","-1.0009766","0.091796875","1.5","5.46875","-15.03125"
"1575567322392","747","0.0546875","-1.0224609","0.06738281","-0.9375","7.3125","-15.9375"
"1575567322392","748","0.0390625","-1.0039062","0.125","2.4375","9.375","-10.875"
"1575567322393","749","0.07910156","-0.96972656","0.087890625","6.34375","6.6875","-7.46875"
"1575567322984","750","0.12695312","-0.99121094","0.12207031","-1.96875","5.1875","-11.84375"
"1575567322985","751","0.09765625","-0.9902344","0.09667969","0.15625","-0.625","-15.03125"
"1575567322985","752","0.13867188","-1.0048828","0.046875","-0.5","-0.375","-16.8125"
"1575567322985","753","0.12109375","-1.0263672","0.046875","-6.65625","2.3125","-17.21875"
"1575567322985","754","0.080078125","-1.0029297","0.06347656","-11.625","5.59375","-14.125"
"1575567322986","755","0.09375","-0.95703125","0.015625","-7.09375","12.125","-11.90625"
"1575567322986","756","0.11621094","-0.98535156","0.015625","-13.5","22.5625","-10.4375"
"1575567322987","757","0.10546875","-0.953125","0.021484375","-15.28125","36.375","-9.28125"
"1575567322988","758","0.119140625","-0.9345703","0.0146484375","-12.09375","46.375","-5.75"
"1575567322988","759","0.16308594","-0.95214844","-0.03125","-9.21875","54.4375","-2.34375"
"1575567323382","760","0.19238281","-0.97558594","-0.009765625","-17.21875","58.46875","1.375"
"1575567323383","761","0.22460938","-0.96191406","-0.00390625","-15.53125","57.125","2.65625"
"1575567323383","762","0.22949219","-1.0","-0.032226562","-15.59375","55.96875","5.34375"
"1575567323383","763","0.2578125","-1.0048828","-0.052734375","-18.25","53.375","8.15625"
"1575567323384","764","0.2783203","-1.0166016","-0.05078125","-18.21875","52.15625","9.5"
"1575567323386","765","0.27441406","-1.0283203","-0.055664062","-21.125","47.34375","9.5"
"1575567323386","766","0.2998047","-1.0009766","0.01953125","-20.46875","41.78125","8.03125"
"1575567323387","767","0.20019531","-1.1054688","-0.02734375","-4.40625","22.5625","8.71875"
"1575567323387","768","0.14648438","-1.0722656","-0.08300781","-7.34375","7.0625","10.59375"
"1575567323387","769","0.123046875","-0.90527344","-0.015625","-11.625","2.71875","9.25"
"1575567323582","770","0.034179688","-0.87890625","0.049804688","-3.875","-4.71875","12.5"
"1575567323583","771","-0.107421875","-1.0820312","0.005859375","-0.8125","-5.09375","12.75"
"1575567323583","772","-0.18457031","-1.1982422","-0.10644531","0.09375","-3.4375","13.40625"
"1575567323583","773","-0.1171875","-1.0556641","-0.016601562","-1.59375","-7.34375","24.59375"
"1575567323584","774","-0.072265625","-0.8984375","0.047851562","-5.875","-11.125","24.9375"
"1575567323584","775","-0.10644531","-0.8808594","0.020507812","1.625","-17.15625","25.125"
"1575567323584","776","-0.11816406","-0.9033203","-0.046875","-1.125","-13.4375","22.09375"
"1575567323584","777","-0.11621094","-1.0634766","-0.09375","-7.71875","-10.5","13.28125"
"1575567323584","778","-0.028320312","-1.1542969","-0.07519531","-16.5625","-16.0625","7.625"
"1575567323585","779","-0.14257812","-1.0136719","-0.03515625","-15.75","-26.25","11.15625"
"1575567323980","780","-0.14453125","-0.9277344","-0.041015625","-12.53125","-22.59375","12.375"
"1575567323981","781","-0.12792969","-0.9091797","-0.038085938","-15.625","-19.65625","15.3125"
"1575567323982","782","-0.12011719","-0.9580078","-0.08886719","-11.0625","-20.78125","11.28125"
"1575567323982","783","-0.14941406","-1.0048828","-0.1015625","-15.9375","-19.96875","3.34375"
"1575567323983","784","-0.16015625","-0.9970703","-0.10839844","-13.6875","-19.5","4.6875"
"1575567323983","785","-0.10546875","-1.0009766","-0.13671875","-12.46875","-20.875","3.59375"
"1575567323983","786","-0.10546875","-0.96972656","-0.12695312","-15.21875","-24.0625","0.53125"
"1575567323983","787","-0.12207031","-0.9736328","-0.16601562","-12.03125","-25.96875","-1.71875"
"1575567323984","788","-0.1015625","-0.96875","-0.1796875","-12.78125","-31.03125","-2.875"
"1575567323984","789","-0.1015625","-0.98535156","-0.18359375","-12.21875","-35.71875","-2.15625"
