"# PR data"
"# Start time: 20191205T182643"
"# Subject: ron"
"# Activity type: Shoulder press"
"# Correctness: Incorrect"
"# Notes: "
""
"timestamp","seq","accel_x","accel_y","accel_z","gyro_x","gyro_y","gyro_z"
"1575566804050","0","0.056640625","-0.98535156","-0.09667969","-10.03125","21.28125","-3.5"
"1575566804053","1","0.06542969","-0.99609375","-0.11816406","-8.875","24.15625","0.28125"
"1575566804053","2","0.08886719","-0.95996094","-0.09863281","-8.6875","25.4375","1.5625"
"1575566804053","3","0.09375","-0.98339844","-0.119140625","-4.78125","24.71875","3.03125"
"1575566804054","4","0.09277344","-1.0136719","-0.12988281","-1.59375","22.5","5.0625"
"1575566804054","5","0.08203125","-0.9667969","-0.09863281","-3.375","21.15625","8.46875"
"1575566804054","6","0.036132812","-0.95703125","-0.07910156","5.40625","23.0625","11.59375"
"1575566804054","7","0.060546875","-0.9746094","-0.10839844","13.96875","23.4375","16.90625"
"1575566804054","8","0.06640625","-0.9970703","-0.11230469","11.03125","24.8125","20.5625"
"1575566804054","9","0.005859375","-1.0126953","-0.09277344","14.28125","22.4375","19.15625"
"1575566804646","10","-0.056640625","-1.0039062","-0.1328125","21.71875","16.65625","14.625"
"1575566804646","11","0.01953125","-1.0332031","-0.20019531","9.5","13.40625","4.8125"
"1575566804647","12","0.11621094","-1.0712891","-0.16601562","-2.9375","3.84375","-6.96875"
"1575566804648","13","0.09667969","-1.0390625","-0.14355469","-7.65625","-14.0","-13.9375"
"1575566804648","14","-0.03125","-0.9873047","-0.1328125","-8.75","-21.125","-16.125"
"1575566804649","15","-0.09667969","-1.0439453","-0.12792969","-9.40625","-6.125","-10.5625"
"1575566804649","16","-0.040039062","-1.0175781","-0.078125","-14.1875","0.59375","-3.25"
"1575566804649","17","0.064453125","-0.93847656","-0.09765625","-5.21875","-2.875","-3.375"
"1575566804649","18","0.052734375","-0.98535156","-0.10839844","-5.75","-11.5","-5.03125"
"1575566804650","19","0.00390625","-1.0175781","-0.10644531","-3.625","-10.34375","-3.0625"
"1575566804845","20","0.06933594","-0.99316406","-0.1015625","-2.34375","-9.96875","-1.78125"
"1575566804845","21","0.07910156","-0.9707031","-0.083984375","0.15625","-15.6875","-3.0"
"1575566804845","22","0.0087890625","-0.953125","-0.068359375","8.40625","-18.375","4.5625"
"1575566804846","23","0.044921875","-0.98339844","-0.07421875","14.9375","-13.4375","9.03125"
"1575566804846","24","0.09863281","-1.0107422","-0.080078125","16.28125","-12.34375","8.21875"
"1575566804847","25","0.13867188","-1.0615234","-0.03125","10.65625","-13.8125","7.5"
"1575566804847","26","0.10449219","-1.0332031","0.052734375","-0.8125","-14.0","4.5625"
"1575566804847","27","0.047851562","-1.0292969","0.026367188","0.28125","-4.96875","-3.875"
"1575566804848","28","0.12597656","-1.0126953","-0.0703125","-5.625","6.5","-10.21875"
"1575566804848","29","0.18359375","-0.9736328","-0.0625","-18.5","8.78125","-16.75"
"1575566805441","30","0.140625","-0.93359375","0.005859375","-16.5625","-1.3125","-11.1875"
"1575566805442","31","-0.03125","-1.0136719","-0.018554688","-7.15625","-9.125","-5.8125"
"1575566805442","32","0.068359375","-1.0458984","-0.099609375","-2.40625","0.96875","-7.46875"
"1575566805442","33","0.1015625","-0.9482422","-0.055664062","-9.28125","-4.46875","-5.9375"
"1575566805442","34","0.040039062","-0.9628906","-0.078125","5.0625","0.0","-2.46875"
"1575566805443","35","0.08105469","-1.0742188","-0.115234375","3.78125","6.21875","2.0625"
"1575566805443","36","0.041992188","-1.0341797","-0.09667969","-3.625","5.34375","-0.625"
"1575566805444","37","0.029296875","-0.9628906","-0.043945312","-4.96875","7.96875","-2.03125"
"1575566805444","38","0.022460938","-1.0166016","-0.09765625","-1.90625","12.0","-2.46875"
"1575566805445","39","0.037109375","-1.0566406","-0.091796875","-9.28125","17.4375","-3.1875"
"1575566806036","40","0.0048828125","-0.9824219","-0.08984375","-13.125","21.28125","-5.9375"
"1575566806036","41","0.0234375","-0.91796875","-0.0625","-12.59375","28.375","-3.125"
"1575566806037","42","0.03515625","-0.9667969","-0.10449219","-0.4375","32.8125","0.09375"
"1575566806037","43","0.038085938","-0.95996094","-0.11425781","7.5","37.34375","5.34375"
"1575566806037","44","0.091796875","-0.98046875","-0.10058594","12.875","37.8125","9.25"
"1575566806037","45","0.10839844","-0.99121094","-0.11816406","20.25","24.875","9.9375"
"1575566806038","46","0.1171875","-1.0166016","-0.09375","16.78125","17.875","7.90625"
"1575566806039","47","0.14550781","-1.0205078","-0.059570312","10.90625","13.40625","5.34375"
"1575566806039","48","0.10253906","-1.0039062","-0.052734375","6.8125","2.5625","3.40625"
"1575566806043","49","0.09375","-1.0253906","-0.060546875","7.84375","-8.0625","4.375"
"1575566806233","50","0.091796875","-1.0585938","-0.06933594","3.84375","-13.25","0.34375"
"1575566806234","51","0.06542969","-1.0498047","-0.078125","0.0","-20.53125","-2.9375"
"1575566806234","52","0.068359375","-1.0263672","-0.041015625","-7.03125","-22.15625","-4.65625"
"1575566806234","53","0.036132812","-1.0185547","-0.044921875","-5.03125","-25.15625","-5.3125"
"1575566806234","54","0.024414062","-1.0244141","-0.05859375","-9.46875","-21.8125","-5.09375"
"1575566806235","55","0.033203125","-1.0185547","-0.046875","-8.875","-17.90625","-3.96875"
"1575566806235","56","0.041015625","-0.9941406","-0.05078125","-14.40625","-15.625","-2.625"
"1575566806235","57","0.078125","-1.0302734","-0.08203125","-10.09375","-15.28125","-1.25"
"1575566806235","58","0.08496094","-1.0185547","-0.087890625","-13.3125","-22.21875","0.0"
"1575566806236","59","0.068359375","-0.9892578","-0.07714844","-10.5625","-18.25","-1.53125"
"1575566806435","60","0.048828125","-0.9824219","-0.08691406","-7.28125","-19.5","-1.90625"
"1575566806435","61","0.030273438","-0.984375","-0.07324219","-5.875","-16.8125","-1.53125"
"1575566806436","62","0.013671875","-0.9628906","-0.07519531","-9.46875","-10.5625","-3.1875"
"1575566806436","63","0.036132812","-0.9794922","-0.07910156","-7.53125","-5.03125","-4.78125"
"1575566806436","64","0.034179688","-0.9902344","-0.10253906","-4.84375","-2.40625","-3.875"
"1575566806436","65","0.048828125","-0.9980469","-0.09863281","-4.46875","-1.0","-2.46875"
"1575566806437","66","0.041015625","-1.0048828","-0.11035156","-5.8125","0.84375","-2.8125"
"1575566806437","67","0.059570312","-1.0029297","-0.12988281","-5.03125","1.5","-3.3125"
"1575566806437","68","0.061523438","-0.9921875","-0.11816406","-6.125","2.90625","-3.0"
"1575566806437","69","0.06640625","-0.99902344","-0.12011719","-6.375","4.5","-4.53125"
"1575566806833","70","0.087890625","-0.9970703","-0.15136719","-2.8125","5.28125","-3.90625"
"1575566806834","71","0.11816406","-1.0058594","-0.15136719","-2.53125","4.0625","-4.28125"
"1575566806834","72","0.109375","-0.99609375","-0.11816406","-8.875","3.15625","-4.53125"
"1575566806836","73","0.06542969","-0.96484375","-0.12988281","-8.0","0.59375","-6.53125"
"1575566806836","74","0.059570312","-0.99316406","-0.15136719","-3.0","-0.6875","-6.65625"
"1575566806836","75","0.115234375","-1.0068359","-0.16992188","-3.8125","-1.71875","-5.21875"
"1575566806837","76","0.09667969","-0.9941406","-0.15234375","-5.75","-1.0625","-4.71875"
"1575566806837","77","0.109375","-0.9921875","-0.15234375","-4.40625","0.46875","-4.84375"
"1575566806837","78","0.099609375","-1.0019531","-0.13769531","-8.6875","0.59375","-5.21875"
"1575566806837","79","0.080078125","-0.96972656","-0.15625","-6.3125","-0.75","-8.0"
"1575566807428","80","0.07421875","-0.98046875","-0.16113281","-5.15625","-2.03125","-5.875"
"1575566807429","81","0.10644531","-0.9716797","-0.1796875","-2.53125","0.46875","-3.875"
"1575566807429","82","0.11621094","-1.0166016","-0.17285156","-2.6875","2.5","-1.0625"
"1575566807429","83","0.11328125","-1.0058594","-0.1875","-3.5625","2.59375","-1.96875"
"1575566807430","84","0.1015625","-0.98339844","-0.18847656","-4.40625","3.15625","-1.53125"
"1575566807430","85","0.103515625","-0.9658203","-0.18847656","-4.78125","6.15625","-1.125"
"1575566807431","86","0.119140625","-0.97753906","-0.18554688","-3.625","7.84375","-1.0625"
"1575566807431","87","0.13085938","-1.0078125","-0.1875","-7.34375","4.9375","-1.1875"
"1575566807431","88","0.12597656","-0.984375","-0.18359375","-4.84375","7.1875","-0.625"
"1575566807432","89","0.10644531","-0.9746094","-0.17480469","-7.53125","3.71875","-0.375"
"1575566807628","90","0.1171875","-0.9638672","-0.20507812","-1.34375","0.78125","0.53125"
"1575566807629","91","0.1328125","-1.0048828","-0.19921875","-3.75","2.4375","1.875"
"1575566807629","92","0.10839844","-0.9873047","-0.19238281","-1.96875","4.0","1.625"
"1575566807629","93","0.11621094","-0.9707031","-0.19628906","-4.28125","3.65625","0.46875"
"1575566807629","94","0.115234375","-1.0019531","-0.18847656","-5.875","3.40625","0.40625"
"1575566807630","95","0.09863281","-0.9667969","-0.19628906","-4.09375","1.28125","-0.375"
"1575566807630","96","0.12011719","-0.9863281","-0.20605469","-2.09375","1.28125","0.28125"
"1575566807630","97","0.11425781","-0.984375","-0.19042969","-2.75","-0.375","0.90625"
"1575566807630","98","0.107421875","-0.9824219","-0.21191406","0.84375","-2.09375","2.25"
"1575566807631","99","0.10546875","-0.9765625","-0.21289062","1.9375","-1.65625","2.78125"
"1575566808225","100","0.10253906","-0.9951172","-0.20996094","-1.71875","-1.84375","1.6875"
"1575566808225","101","0.08886719","-0.98339844","-0.20898438","0.0","-1.78125","-0.25"
"1575566808226","102","0.07324219","-0.9765625","-0.20117188","-0.3125","0.09375","0.34375"
"1575566808226","103","0.08105469","-0.9941406","-0.19824219","1.4375","0.84375","2.0"
"1575566808226","104","0.08886719","-0.99609375","-0.1953125","3.40625","2.3125","2.5"
"1575566808226","105","0.072265625","-0.98535156","-0.17285156","0.34375","0.65625","0.96875"
"1575566808227","106","0.06347656","-0.9873047","-0.20117188","6.21875","-0.6875","3.03125"
"1575566808227","107","0.09375","-1.0244141","-0.18066406","1.03125","4.5625","3.21875"
"1575566808227","108","0.06933594","-0.99609375","-0.17480469","-1.0","-0.1875","1.875"
"1575566808228","109","0.06933594","-1.0107422","-0.16796875","-0.1875","1.5","0.09375"
"1575566808422","110","0.053710938","-0.98339844","-0.15039062","-1.96875","1.375","-0.5"
"1575566808422","111","0.060546875","-0.9902344","-0.15722656","-1.0625","4.0625","-1.78125"
"1575566808423","112","0.07128906","-1.0019531","-0.18164062","-0.6875","2.5","-2.40625"
"1575566808423","113","0.061523438","-1.0","-0.18261719","-0.75","3.84375","-3.1875"
"1575566808423","114","0.07421875","-0.98046875","-0.18359375","0.09375","4.5625","-4.40625"
"1575566808423","115","0.091796875","-0.98828125","-0.18457031","1.3125","1.03125","-3.96875"
"1575566808423","116","0.10253906","-0.99121094","-0.18945312","1.8125","1.75","-2.9375"
"1575566808424","117","0.11425781","-0.9892578","-0.18652344","1.6875","1.6875","-2.59375"
"1575566808424","118","0.11035156","-0.9873047","-0.18652344","-0.875","0.40625","-3.625"
"1575566808424","119","0.1015625","-0.99609375","-0.18066406","-3.125","1.625","-4.90625"
"1575566809018","120","0.08496094","-0.98828125","-0.19042969","-6.53125","2.0","-6.78125"
"1575566809018","121","0.11425781","-0.9921875","-0.19628906","-3.625","3.03125","-5.6875"
"1575566809018","122","0.07910156","-0.9951172","-0.17675781","-9.59375","-0.75","-6.4375"
"1575566809019","123","0.099609375","-0.9482422","-0.21875","-1.96875","-0.75","-6.71875"
"1575566809019","124","0.10839844","-1.0039062","-0.20117188","-3.375","1.9375","-3.875"
"1575566809019","125","0.103515625","-0.97753906","-0.19238281","-5.375","4.9375","-4.34375"
"1575566809020","126","0.109375","-0.99902344","-0.19824219","0.34375","4.4375","-1.40625"
"1575566809020","127","0.11328125","-0.97265625","-0.19042969","-2.21875","4.0","-2.53125"
"1575566809020","128","0.10644531","-0.98339844","-0.21875","4.75","6.15625","-1.1875"
"1575566809021","129","0.12207031","-0.984375","-0.21386719","0.34375","6.9375","-2.34375"
"1575566809218","130","0.123046875","-0.98535156","-0.19921875","3.21875","11.03125","-1.71875"
"1575566809219","131","0.12597656","-0.9736328","-0.17578125","1.21875","12.375","-1.34375"
"1575566809219","132","0.11425781","-0.97753906","-0.17578125","4.0625","13.40625","-1.0"
"1575566809220","133","0.13867188","-0.9980469","-0.18164062","2.78125","8.28125","-0.25"
"1575566809221","134","0.14160156","-0.98535156","-0.16113281","2.0625","7.375","-0.375"
"1575566809221","135","0.12597656","-0.9736328","-0.1640625","3.40625","1.625","-0.4375"
"1575566809221","136","0.109375","-0.97265625","-0.16699219","4.9375","3.03125","-1.46875"
"1575566809222","137","0.12207031","-1.0048828","-0.17871094","3.40625","2.3125","0.90625"
"1575566809222","138","0.11035156","-0.9873047","-0.16992188","5.34375","5.125","2.84375"
"1575566809222","139","0.11621094","-0.984375","-0.15332031","4.0","4.1875","1.625"
"1575566809616","140","0.1015625","-0.98828125","-0.17285156","3.78125","4.3125","1.5"
"1575566809616","141","0.1171875","-1.0058594","-0.15527344","0.96875","4.5625","2.5625"
"1575566809617","142","0.09375","-0.9765625","-0.14746094","0.53125","7.8125","2.0"
"1575566809617","143","0.10253906","-0.99316406","-0.14746094","4.3125","8.71875","1.5"
"1575566809617","144","0.11621094","-0.99902344","-0.1484375","4.5625","6.15625","3.09375"
"1575566809618","145","0.12695312","-0.99902344","-0.13671875","3.59375","4.125","3.34375"
"1575566809618","146","0.107421875","-0.9892578","-0.115234375","2.4375","1.875","2.65625"
"1575566809619","147","0.08496094","-1.0087891","-0.12988281","2.78125","1.625","1.625"
"1575566809620","148","0.09277344","-1.0185547","-0.12207031","-3.625","2.90625","-0.5625"
"1575566809620","149","0.09472656","-0.9921875","-0.12792969","-4.53125","0.71875","-2.75"
"1575566810012","150","0.057617188","-0.9609375","-0.13085938","-3.1875","2.59375","-3.4375"
"1575566810013","151","0.09863281","-0.9814453","-0.14257812","1.5625","9.6875","-0.875"
"1575566810013","152","0.14160156","-1.0107422","-0.1328125","2.96875","9.6875","3.34375"
"1575566810013","153","0.09765625","-0.99609375","-0.13964844","2.25","4.9375","2.375"
"1575566810014","154","0.095703125","-0.9863281","-0.12402344","1.875","4.75","-0.375"
"1575566810014","155","0.10058594","-0.96484375","-0.12890625","0.40625","0.71875","-2.9375"
"1575566810014","156","0.095703125","-1.0107422","-0.13867188","4.1875","2.0","-2.875"
"1575566810015","157","0.12988281","-1.0136719","-0.11816406","-1.0","2.3125","-1.65625"
"1575566810016","158","0.10839844","-0.99902344","-0.1171875","-0.875","0.65625","-0.25"
"1575566810016","159","0.099609375","-0.9824219","-0.12207031","0.34375","-0.5","0.71875"
"1575566810608","160","0.072265625","-0.9951172","-0.12109375","-0.5","1.5625","-1.0625"
"1575566810608","161","0.11425781","-1.0019531","-0.12988281","-1.59375","2.3125","-1.65625"
"1575566810608","162","0.11230469","-1.0078125","-0.12695312","-2.625","0.09375","-1.3125"
"1575566810609","163","0.095703125","-0.9863281","-0.13769531","-2.21875","-4.15625","-1.3125"
"1575566810609","164","0.09765625","-0.9980469","-0.12988281","-3.1875","-1.90625","-0.875"
"1575566810609","165","0.07910156","-0.97753906","-0.123046875","-1.25","0.59375","-1.25"
"1575566810610","166","0.12207031","-1.0078125","-0.12402344","0.53125","2.125","-0.125"
"1575566810610","167","0.087890625","-0.99902344","-0.12890625","-0.6875","0.40625","0.78125"
"1575566810610","168","0.08984375","-0.9873047","-0.12792969","-2.03125","4.75","0.0"
"1575566810612","169","0.095703125","-0.9863281","-0.12207031","-2.9375","4.0625","-0.25"
"1575566810808","170","0.095703125","-0.984375","-0.10839844","-2.875","5.34375","-0.8125"
"1575566810808","171","0.09863281","-1.0009766","-0.11621094","-1.96875","4.8125","-1.65625"
"1575566810809","172","0.08496094","-0.97265625","-0.14941406","0.96875","2.125","-1.1875"
"1575566810809","173","0.08984375","-1.0029297","-0.11035156","0.03125","4.5625","0.15625"
"1575566810809","174","0.09863281","-0.9824219","-0.115234375","0.15625","4.875","-1.125"
"1575566810809","175","0.107421875","-1.0195312","-0.13574219","2.96875","3.78125","0.34375"
"1575566810810","176","0.08984375","-0.9980469","-0.12988281","0.53125","1.3125","1.09375"
"1575566810810","177","0.08984375","-0.984375","-0.10449219","-1.34375","4.625","0.46875"
"1575566810810","178","0.09375","-0.9794922","-0.11035156","2.4375","3.46875","1.15625"
"1575566810811","179","0.083984375","-0.9980469","-0.12109375","2.90625","2.4375","0.90625"
"1575566811205","180","0.119140625","-1.0058594","-0.13964844","-0.4375","1.15625","-1.59375"
"1575566811206","181","0.11816406","-1.0185547","-0.12988281","-2.625","-0.8125","-2.9375"
"1575566811207","182","0.0703125","-0.98535156","-0.103515625","-2.40625","-0.875","-1.90625"
"1575566811207","183","0.04296875","-0.9716797","-0.09375","-1.34375","3.65625","-0.6875"
"1575566811207","184","0.1015625","-0.9863281","-0.11621094","-0.0625","5.0625","-0.875"
"1575566811208","185","0.10644531","-1.0087891","-0.12890625","-0.5","2.125","-2.34375"
"1575566811208","186","0.09667969","-1.0","-0.12109375","-1.3125","2.59375","-2.8125"
"1575566811208","187","0.076171875","-1.0058594","-0.115234375","-1.0625","1.6875","-1.65625"
"1575566811208","188","0.10449219","-1.0019531","-0.107421875","0.09375","5.90625","1.03125"
"1575566811209","189","0.09472656","-0.9902344","-0.08496094","-1.84375","2.96875","1.8125"
"1575566811602","190","0.091796875","-1.0","-0.12792969","1.21875","2.375","0.65625"
"1575566811602","191","0.10546875","-1.0146484","-0.12792969","-1.34375","1.09375","0.96875"
"1575566811602","192","0.10253906","-0.99121094","-0.119140625","-2.9375","0.96875","-0.375"
"1575566811604","193","0.08984375","-0.98339844","-0.11230469","-1.40625","0.21875","-0.6875"
"1575566811604","194","0.09863281","-1.0048828","-0.12011719","-1.96875","-0.4375","-0.4375"
"1575566811604","195","0.08984375","-0.9980469","-0.12109375","-3.5","0.0","-0.875"
"1575566811604","196","0.091796875","-0.9951172","-0.12402344","-2.59375","-0.0625","-0.4375"
"1575566811605","197","0.08496094","-1.0087891","-0.12695312","-3.125","0.90625","-1.125"
"1575566811605","198","0.078125","-1.0","-0.125","-2.75","1.5625","-2.46875"
"1575566811605","199","0.08886719","-0.9951172","-0.12109375","-2.59375","3.15625","-2.8125"
"1575566812000","200","0.09375","-0.99609375","-0.12011719","-1.34375","2.125","-2.21875"
"1575566812001","201","0.09082031","-0.9921875","-0.12207031","0.53125","1.375","-1.84375"
"1575566812001","202","0.0859375","-1.0","-0.12597656","-3.25","1.375","-2.53125"
"1575566812001","203","0.103515625","-0.9970703","-0.11328125","-2.625","3.34375","-1.40625"
"1575566812002","204","0.08886719","-0.97753906","-0.11035156","-5.5625","3.28125","-3.0625"
"1575566812004","205","0.10546875","-1.0185547","-0.14648438","-0.0625","1.4375","-2.21875"
"1575566812004","206","0.11816406","-0.99609375","-0.14355469","-3.125","-1.40625","-0.3125"
"1575566812004","207","0.09863281","-0.99902344","-0.12792969","-5.03125","-0.0625","-1.40625"
"1575566812005","208","0.103515625","-0.99316406","-0.14160156","-3.90625","1.09375","-0.8125"
"1575566812005","209","0.09863281","-0.9941406","-0.1328125","-2.6875","-1.34375","-1.53125"
"1575566812399","210","0.083984375","-0.9921875","-0.12890625","-3.125","-2.15625","-3.0625"
"1575566812400","211","0.083984375","-0.9970703","-0.11816406","-5.09375","-0.6875","-3.625"
"1575566812400","212","0.08886719","-0.9921875","-0.1328125","-3.875","-2.03125","-3.96875"
"1575566812400","213","0.0859375","-0.9863281","-0.13183594","-4.96875","-1.1875","-3.625"
"1575566812401","214","0.08105469","-0.9941406","-0.14746094","-2.625","2.25","-3.375"
"1575566812401","215","0.125","-0.9970703","-0.16210938","-2.46875","6.5","-1.46875"
"1575566812401","216","0.14453125","-0.9941406","-0.16503906","-3.1875","1.5625","1.15625"
"1575566812401","217","0.1171875","-0.9921875","-0.17382812","-3.5","-2.9375","-0.8125"
"1575566812402","218","0.0859375","-0.9550781","-0.123046875","-7.03125","-2.59375","-2.53125"
"1575566812402","219","0.06347656","-0.99316406","-0.16796875","-1.59375","-4.71875","-2.8125"
"1575566812796","220","0.09082031","-1.0224609","-0.1796875","-4.09375","0.34375","-2.59375"
"1575566812797","221","0.09667969","-0.99902344","-0.15234375","-7.8125","4.8125","-2.875"
"1575566812797","222","0.12109375","-0.98535156","-0.16796875","-5.5625","4.1875","-3.875"
"1575566812797","223","0.09765625","-0.98828125","-0.1640625","-8.125","4.375","-4.46875"
"1575566812797","224","0.1328125","-0.99316406","-0.1796875","-6.53125","5.53125","-3.8125"
"1575566812798","225","0.13085938","-0.99121094","-0.16699219","-8.5","3.65625","-4.53125"
"1575566812798","226","0.12792969","-0.97558594","-0.17578125","-5.375","2.59375","-4.03125"
"1575566812798","227","0.12402344","-0.96484375","-0.18164062","-4.46875","0.46875","-3.1875"
"1575566812798","228","0.13476562","-0.9550781","-0.19238281","-5.21875","-0.4375","-2.6875"
"1575566812800","229","0.107421875","-0.9550781","-0.19238281","-3.6875","1.375","-1.71875"
"1575566813390","230","0.15332031","-0.9921875","-0.20214844","-1.25","0.84375","-0.3125"
"1575566813390","231","0.109375","-0.9746094","-0.20898438","-1.53125","-0.6875","-0.125"
"1575566813391","232","0.13183594","-0.96484375","-0.18554688","-3.6875","1.625","-0.9375"
"1575566813391","233","0.12402344","-0.9824219","-0.20117188","-0.9375","-3.1875","0.03125"
"1575566813391","234","0.12792969","-1.0019531","-0.19628906","-2.40625","-2.03125","0.65625"
"1575566813391","235","0.1171875","-0.9892578","-0.20214844","-5.03125","1.28125","-0.75"
"1575566813392","236","0.12402344","-0.9716797","-0.203125","-2.59375","1.375","-0.4375"
"1575566813392","237","0.11621094","-0.984375","-0.20410156","-2.75","1.09375","1.875"
"1575566813392","238","0.111328125","-0.9785156","-0.19824219","-3.25","4.75","1.5"
"1575566813392","239","0.119140625","-0.98828125","-0.2109375","-1.125","2.78125","1.09375"
"1575566813589","240","0.10253906","-0.99316406","-0.21679688","-0.5","2.96875","1.15625"
"1575566813590","241","0.1171875","-0.98535156","-0.20996094","-2.28125","3.9375","1.4375"
"1575566813590","242","0.11035156","-0.9785156","-0.20214844","-2.625","2.96875","2.5"
"1575566813591","243","0.1015625","-0.98535156","-0.20800781","-1.71875","4.5","2.96875"
"1575566813591","244","0.10253906","-0.9736328","-0.20605469","-2.28125","6.09375","2.5"
"1575566813592","245","0.10253906","-0.9921875","-0.24121094","1.4375","4.875","2.0625"
"1575566813592","246","0.10546875","-0.9785156","-0.1875","-5.75","4.375","2.0"
"1575566813592","247","0.1015625","-0.97753906","-0.22460938","-0.0625","-0.625","0.65625"
"1575566813593","248","0.099609375","-0.9941406","-0.22753906","0.15625","0.78125","0.96875"
"1575566813593","249","0.1015625","-0.98535156","-0.21875","-1.0625","1.15625","0.84375"
"1575566813988","250","0.095703125","-0.97753906","-0.20117188","-1.59375","1.8125","2.0"
"1575566813988","251","0.09277344","-0.9824219","-0.1953125","-1.84375","3.28125","3.90625"
"1575566813988","252","0.08300781","-0.9794922","-0.20605469","-0.5","3.28125","2.5625"
"1575566813989","253","0.10058594","-0.9941406","-0.21386719","0.65625","2.65625","2.78125"
"1575566813990","254","0.1015625","-0.98535156","-0.19335938","-1.59375","0.59375","2.1875"
"1575566813990","255","0.087890625","-0.984375","-0.20019531","1.5","-0.4375","2.65625"
"1575566813990","256","0.07714844","-0.98828125","-0.20898438","1.3125","0.0","3.78125"
"1575566813991","257","0.087890625","-0.9873047","-0.20996094","1.6875","0.65625","3.21875"
"1575566813991","258","0.07421875","-0.9980469","-0.1953125","0.34375","-0.1875","2.3125"
"1575566813991","259","0.064453125","-0.97265625","-0.21875","1.15625","-0.125","1.3125"
"1575566814386","260","0.060546875","-0.9902344","-0.17871094","-1.84375","2.1875","0.96875"
"1575566814386","261","0.06640625","-0.9873047","-0.19140625","0.28125","0.78125","0.15625"
"1575566814387","262","0.07324219","-1.0126953","-0.20898438","1.15625","-2.53125","1.8125"
"1575566814387","263","0.043945312","-0.99316406","-0.1796875","-2.40625","-3.0","1.15625"
"1575566814387","264","0.053710938","-0.9892578","-0.171875","-0.625","0.65625","0.90625"
"1575566814389","265","0.044921875","-1.0097656","-0.19433594","-0.125","0.0","0.46875"
"1575566814389","266","0.029296875","-0.99609375","-0.18359375","-2.6875","3.9375","-0.6875"
"1575566814389","267","0.046875","-0.9863281","-0.19140625","-2.59375","6.28125","-1.34375"
"1575566814390","268","0.061523438","-0.9980469","-0.20019531","-2.15625","6.625","-1.40625"
"1575566814390","269","0.06347656","-0.9892578","-0.19433594","-0.0625","5.0625","-2.40625"
"1575566814783","270","0.07324219","-0.98046875","-0.18554688","-0.125","5.59375","-3.625"
"1575566814784","271","0.0703125","-0.9765625","-0.1953125","0.96875","4.1875","-4.59375"
"1575566814784","272","0.076171875","-0.99609375","-0.21191406","2.65625","4.25","-5.03125"
"1575566814784","273","0.09277344","-0.98535156","-0.20019531","1.75","6.8125","-5.09375"
"1575566814785","274","0.08203125","-0.9628906","-0.21484375","1.5625","4.75","-5.3125"
"1575566814785","275","0.09472656","-0.9892578","-0.17871094","2.65625","4.375","-8.0"
"1575566814785","276","0.10644531","-0.9902344","-0.21875","-1.53125","0.65625","-4.59375"
"1575566814786","277","0.10058594","-1.0039062","-0.21191406","1.28125","-0.625","-4.03125"
"1575566814787","278","0.09375","-0.9824219","-0.19140625","-2.03125","2.375","-2.46875"
"1575566814787","279","0.09472656","-0.98046875","-0.20117188","4.0625","-0.5","-2.6875"
"1575566815181","280","0.09082031","-1.0175781","-0.17285156","-3.125","2.375","-0.9375"
"1575566815181","281","0.10546875","-0.96777344","-0.17382812","2.84375","-1.90625","-3.4375"
"1575566815182","282","0.099609375","-0.99609375","-0.19824219","5.96875","-8.25","-2.15625"
"1575566815182","283","0.1171875","-0.96484375","-0.17285156","-0.5","-5.09375","-0.75"
"1575566815182","284","0.10546875","-0.97265625","-0.1640625","1.5","-5.5","-0.5625"
"1575566815182","285","0.072265625","-1.0019531","-0.16113281","3.84375","-2.40625","-0.25"
"1575566815182","286","0.046875","-0.9902344","-0.16796875","3.71875","0.65625","2.125"
"1575566815183","287","0.087890625","-0.9873047","-0.171875","6.5625","5.125","1.75"
"1575566815183","288","0.06640625","-0.99121094","-0.16601562","-0.1875","6.9375","-0.875"
"1575566815184","289","0.091796875","-1.0097656","-0.18652344","4.5625","7.375","-1.40625"
"1575566815577","290","0.091796875","-0.9785156","-0.19726562","1.4375","6.15625","-1.25"
"1575566815577","291","0.07714844","-0.97558594","-0.14355469","1.21875","7.375","-1.34375"
"1575566815578","292","0.10546875","-0.98535156","-0.16113281","4.375","7.125","-1.25"
"1575566815578","293","0.09375","-1.0097656","-0.14648438","-1.125","8.78125","0.40625"
"1575566815578","294","0.08105469","-0.9941406","-0.15820312","3.46875","9.6875","0.65625"
"1575566815578","295","0.080078125","-0.99609375","-0.15234375","3.78125","10.0625","0.78125"
"1575566815579","296","0.0859375","-0.9814453","-0.17089844","4.375","8.15625","-0.1875"
"1575566815579","297","0.09667969","-0.9970703","-0.1328125","2.0","9.375","2.0625"
"1575566815579","298","0.10058594","-1.0019531","-0.12890625","2.5625","6.5625","0.21875"
"1575566815579","299","0.09667969","-1.0166016","-0.12109375","3.59375","2.65625","2.1875"
"1575566815975","300","0.072265625","-1.0097656","-0.11621094","1.09375","2.25","0.03125"
"1575566815977","301","0.08105469","-1.0136719","-0.11035156","-2.21875","2.375","-1.34375"
"1575566815977","302","0.055664062","-0.96484375","-0.109375","-1.40625","1.3125","-2.03125"
"1575566815977","303","0.087890625","-1.0009766","-0.13183594","1.21875","5.125","-0.125"
"1575566815977","304","0.07519531","-1.0","-0.13769531","1.21875","4.5625","1.625"
"1575566815978","305","0.10644531","-1.0078125","-0.12109375","-2.03125","5.28125","1.03125"
"1575566815978","306","0.091796875","-0.98535156","-0.13769531","0.21875","-1.0","-0.375"
"1575566815978","307","0.060546875","-0.9667969","-0.15332031","2.5","-1.125","-2.46875"
"1575566815979","308","0.076171875","-1.0107422","-0.11328125","-1.40625","-0.3125","-2.09375"
"1575566815979","309","0.09082031","-0.98046875","-0.115234375","0.28125","1.3125","0.21875"
"1575566816373","310","0.10546875","-1.0185547","-0.140625","0.96875","-0.6875","1.75"
"1575566816374","311","0.0703125","-1.0029297","-0.13867188","-2.6875","-1.96875","1.6875"
"1575566816374","312","0.078125","-0.9863281","-0.12597656","-3.625","3.28125","0.71875"
"1575566816380","313","0.048828125","-0.98535156","-0.14355469","-0.75","4.0","-0.9375"
"1575566816380","314","0.068359375","-1.0273438","-0.14941406","-3.5","8.09375","-3.125"
"1575566816381","315","0.07519531","-1.0078125","-0.14550781","-4.15625","8.28125","-4.90625"
"1575566816381","316","0.078125","-0.9765625","-0.1171875","-6.125","9.4375","-5.25"
"1575566816381","317","0.07714844","-0.98535156","-0.12402344","-3.96875","11.21875","-5.15625"
"1575566816381","318","0.08300781","-1.0039062","-0.14257812","-2.28125","8.96875","-3.75"
"1575566816382","319","0.09863281","-0.9902344","-0.140625","-1.1875","7.75","-1.78125"
"1575566816772","320","0.13183594","-1.0087891","-0.14160156","-0.3125","2.84375","0.96875"
"1575566816773","321","0.103515625","-0.9873047","-0.123046875","0.65625","1.3125","2.65625"
"1575566816773","322","0.068359375","-0.984375","-0.09863281","0.0","0.21875","3.59375"
"1575566816773","323","0.041015625","-1.0107422","-0.15429688","6.625","-1.78125","2.375"
"1575566816773","324","0.103515625","-1.0234375","-0.15625","0.71875","-4.21875","-0.6875"
"1575566816775","325","0.09472656","-1.0068359","-0.10839844","-1.78125","-2.625","0.78125"
"1575566816775","326","0.03125","-0.97265625","-0.09863281","-1.34375","1.6875","0.96875"
"1575566816775","327","0.08105469","-1.0097656","-0.140625","5.34375","0.34375","2.3125"
"1575566816775","328","0.076171875","-1.0078125","-0.13574219","-2.21875","-0.1875","0.0"
"1575566816776","329","0.09082031","-0.9941406","-0.12890625","-5.875","0.34375","-1.65625"
"1575566817368","330","0.08203125","-1.0087891","-0.14160156","-4.53125","1.28125","-2.40625"
"1575566817369","331","0.11230469","-0.98828125","-0.107421875","-6.25","-0.25","-1.125"
"1575566817369","332","0.07910156","-0.98535156","-0.13378906","-1.53125","-7.09375","-0.875"
"1575566817370","333","0.068359375","-1.0039062","-0.1328125","-2.625","-8.25","-0.4375"
"1575566817370","334","0.07714844","-0.9873047","-0.15234375","-3.5625","-6.96875","-1.71875"
"1575566817370","335","0.068359375","-0.9902344","-0.12695312","-3.0","-5.375","-0.3125"
"1575566817370","336","0.061523438","-0.98046875","-0.13476562","-0.5625","-3.4375","0.65625"
"1575566817372","337","0.05078125","-0.9921875","-0.13867188","0.21875","-0.1875","1.3125"
"1575566817372","338","0.055664062","-1.0029297","-0.1328125","-0.9375","3.03125","0.65625"
"1575566817372","339","0.064453125","-1.0019531","-0.14746094","0.09375","4.25","0.28125"
"1575566817566","340","0.06738281","-0.9902344","-0.14453125","-0.5","4.0","-0.375"
"1575566817566","341","0.06933594","-0.9980469","-0.1484375","0.28125","5.59375","-1.125"
"1575566817566","342","0.064453125","-0.9814453","-0.12988281","-2.9375","4.0625","-1.40625"
"1575566817567","343","0.09082031","-1.0078125","-0.14746094","1.09375","2.71875","-0.25"
"1575566817567","344","0.08105469","-1.0048828","-0.14257812","-1.53125","1.9375","-1.0"
"1575566817567","345","0.0859375","-0.984375","-0.13671875","-1.65625","4.0","-1.71875"
"1575566817567","346","0.076171875","-0.99121094","-0.13867188","-1.65625","3.46875","-2.46875"
"1575566817568","347","0.07910156","-1.0058594","-0.13769531","-2.625","0.84375","-1.25"
"1575566817568","348","0.076171875","-0.9794922","-0.14355469","-2.40625","1.03125","-3.5"
"1575566817569","349","0.08886719","-0.99316406","-0.13183594","-4.21875","0.84375","-3.0625"
"1575566817962","350","0.068359375","-1.0136719","-0.14550781","-4.90625","-0.875","-3.8125"
"1575566817962","351","0.076171875","-1.0263672","-0.140625","-4.59375","-1.71875","-2.625"
"1575566817962","352","0.041992188","-0.9921875","-0.12597656","-7.8125","-1.25","-1.96875"
"1575566817963","353","0.04296875","-0.984375","-0.13671875","-6.0625","3.15625","-3.8125"
"1575566817963","354","0.087890625","-1.0283203","-0.16992188","-5.3125","3.53125","-3.96875"
"1575566817963","355","0.10546875","-0.98535156","-0.17285156","-5.9375","3.65625","-3.375"
"1575566817963","356","0.10449219","-0.9814453","-0.16992188","-8.0","0.84375","-4.84375"
"1575566817964","357","0.078125","-1.0009766","-0.16699219","-5.25","3.71875","-5.75"
"1575566817964","358","0.09082031","-0.9765625","-0.16503906","-6.78125","3.9375","-4.34375"
"1575566817964","359","0.09667969","-0.9921875","-0.18457031","-3.625","1.5","-4.71875"
"1575566818360","360","0.11621094","-1.0019531","-0.1953125","-4.96875","2.125","-4.65625"
"1575566818361","361","0.1015625","-0.98535156","-0.19238281","-6.96875","1.4375","-4.21875"
"1575566818361","362","0.1015625","-0.98046875","-0.20605469","-4.59375","1.9375","-3.8125"
"1575566818361","363","0.10253906","-0.9736328","-0.18359375","-6.375","2.71875","-2.46875"
"1575566818361","364","0.08984375","-0.96777344","-0.20703125","-3.1875","4.75","-2.40625"
"1575566818362","365","0.12207031","-0.99902344","-0.1953125","-3.96875","3.9375","-1.78125"
"1575566818362","366","0.10253906","-0.9638672","-0.203125","-1.40625","3.9375","-0.9375"
"1575566818362","367","0.12988281","-0.99121094","-0.1875","0.34375","2.71875","0.71875"
"1575566818362","368","0.103515625","-0.9902344","-0.18945312","-2.46875","2.0625","-0.1875"
"1575566818363","369","0.107421875","-0.9824219","-0.19921875","-2.75","0.0","-0.8125"
"1575566819156","370","0.123046875","-1.0019531","-0.19921875","-1.59375","0.03125","0.46875"
"1575566819156","371","0.11425781","-0.9736328","-0.20117188","-3.625","-0.6875","1.03125"
"1575566819157","372","0.09863281","-0.9707031","-0.2265625","0.65625","-1.0","1.875"
"1575566819158","373","0.10058594","-0.98535156","-0.19042969","-2.875","-2.53125","1.8125"
"1575566819158","374","0.09472656","-0.9814453","-0.20605469","-0.4375","-2.09375","2.4375"
"1575566819159","375","0.11035156","-0.99902344","-0.21191406","-0.75","-1.65625","1.875"
"1575566819159","376","0.08300781","-0.984375","-0.19433594","-2.28125","-2.625","2.25"
"1575566819159","377","0.080078125","-0.97558594","-0.21582031","-1.53125","-0.8125","3.40625"
"1575566819160","378","0.08203125","-0.9746094","-0.20214844","1.75","1.09375","5.125"
"1575566819160","379","0.11425781","-0.9902344","-0.20996094","2.84375","1.09375","4.875"
"1575566819352","380","0.09667969","-0.98535156","-0.20117188","1.09375","-2.15625","3.03125"
"1575566819352","381","0.05859375","-0.98046875","-0.1875","0.96875","-2.28125","1.4375"
"1575566819352","382","0.048828125","-1.0","-0.17578125","-2.34375","0.65625","-0.875"
"1575566819353","383","0.038085938","-1.0126953","-0.17871094","-0.875","2.59375","0.21875"
"1575566819353","384","0.021484375","-0.99121094","-0.16894531","-3.0","7.4375","-0.5625"
"1575566819354","385","0.051757812","-0.97558594","-0.18554688","-1.96875","8.96875","-0.5"
"1575566819354","386","0.07910156","-0.99902344","-0.19042969","-1.0","8.65625","0.90625"
"1575566819355","387","0.07714844","-1.0019531","-0.19335938","-1.65625","5.53125","0.46875"
"1575566819355","388","0.06640625","-0.9716797","-0.21582031","2.0","4.25","-0.375"
"1575566819355","389","0.109375","-0.99902344","-0.18359375","-2.75","2.125","-0.9375"
"1575566819554","390","0.06933594","-0.98046875","-0.20605469","1.4375","-2.6875","-1.96875"
"1575566819554","391","0.05859375","-0.9892578","-0.20605469","1.21875","0.78125","-2.6875"
"1575566819555","392","0.0625","-0.9902344","-0.20214844","-0.0625","2.125","-2.15625"
"1575566819555","393","0.07714844","-0.99902344","-0.21289062","0.71875","3.90625","-1.78125"
"1575566819555","394","0.072265625","-0.98535156","-0.19726562","-2.15625","4.8125","-2.46875"
"1575566819555","395","0.07324219","-0.99609375","-0.19628906","-0.8125","5.96875","-2.46875"
"1575566819555","396","0.08984375","-0.9921875","-0.19140625","-1.84375","3.03125","-3.1875"
"1575566819557","397","0.06640625","-0.9863281","-0.19726562","-0.6875","3.15625","-3.0"
"1575566819557","398","0.09667969","-0.97753906","-0.18066406","-2.28125","5.1875","-4.71875"
"1575566819557","399","0.095703125","-1.0029297","-0.20507812","0.53125","1.875","-3.375"
"1575566819950","400","0.08496094","-0.98828125","-0.19238281","-2.34375","3.34375","-3.75"
"1575566819950","401","0.10253906","-0.97753906","-0.19042969","-0.75","2.1875","-3.875"
"1575566819951","402","0.095703125","-0.9970703","-0.18847656","-1.78125","1.9375","-3.25"
"1575566819951","403","0.10253906","-1.0039062","-0.20996094","0.03125","1.3125","-2.15625"
"1575566819951","404","0.10546875","-0.9794922","-0.21289062","-0.375","0.65625","-3.4375"
"1575566819951","405","0.09277344","-0.9746094","-0.171875","-1.90625","1.4375","-3.0"
"1575566819952","406","0.095703125","-0.98339844","-0.203125","0.40625","0.34375","-2.875"
"1575566819952","407","0.10546875","-0.9941406","-0.21386719","0.0","1.625","-2.75"
"1575566819952","408","0.10449219","-0.9746094","-0.19726562","-4.15625","4.375","-3.8125"
"1575566819953","409","0.09472656","-1.0","-0.20019531","-1.53125","5.0625","-4.09375"
"1575566820547","410","0.07910156","-0.984375","-0.19921875","-3.0625","3.53125","-3.96875"
"1575566820547","411","0.13183594","-0.97753906","-0.20214844","-0.875","5.71875","-3.5"
"1575566820547","412","0.13476562","-0.9951172","-0.19140625","-6.84375","3.40625","-2.59375"
"1575566820548","413","0.08984375","-0.96972656","-0.17480469","-5.03125","3.34375","-2.875"
"1575566820548","414","0.103515625","-0.9863281","-0.20019531","-1.40625","3.9375","-1.34375"
"1575566820548","415","0.11425781","-1.0048828","-0.203125","-3.3125","2.375","-0.625"
"1575566820548","416","0.10839844","-0.984375","-0.19238281","-4.03125","2.71875","-0.375"
"1575566820549","417","0.10449219","-0.9814453","-0.21777344","1.8125","-0.9375","-1.25"
"1575566820549","418","0.115234375","-0.9785156","-0.20507812","-1.40625","-1.84375","-1.1875"
"1575566820549","419","0.109375","-0.9902344","-0.21582031","-0.1875","-2.75","0.46875"
"1575566820947","420","0.064453125","-0.97558594","-0.20996094","0.46875","1.15625","-1.65625"
"1575566820948","421","0.09277344","-0.99121094","-0.19824219","-1.65625","4.3125","0.0"
"1575566820949","422","0.11816406","-0.9824219","-0.20117188","0.09375","5.34375","2.375"
"1575566820949","423","0.10839844","-0.98339844","-0.20996094","0.09375","4.1875","2.0"
"1575566820949","424","0.109375","-0.9824219","-0.20898438","0.03125","3.34375","0.28125"
"1575566820950","425","0.1015625","-0.97265625","-0.19921875","0.65625","2.90625","0.09375"
"1575566820950","426","0.09765625","-0.9716797","-0.2109375","4.375","3.34375","-0.125"
"1575566820950","427","0.10644531","-1.0087891","-0.1953125","2.5","6.8125","1.03125"
"1575566820950","428","0.08984375","-0.96972656","-0.18457031","2.96875","7.5","0.21875"
"1575566820951","429","0.06640625","-1.0068359","-0.17871094","0.40625","7.5625","0.65625"
"1575566821342","430","0.06933594","-0.96191406","-0.19140625","-0.6875","12.875","-3.8125"
"1575566821343","431","0.14160156","-0.9970703","-0.18945312","2.1875","13.84375","-0.25"
"1575566821343","432","0.14160156","-0.9589844","-0.18554688","3.21875","7.25","0.71875"
"1575566821344","433","0.14550781","-1.0009766","-0.19140625","8.59375","2.3125","2.84375"
"1575566821345","434","0.13183594","-0.9873047","-0.16601562","4.625","-3.6875","1.4375"
"1575566821345","435","0.09472656","-0.9707031","-0.17285156","7.4375","-4.28125","2.0625"
"1575566821345","436","0.07519531","-0.99609375","-0.15917969","3.84375","-2.8125","0.65625"
"1575566821345","437","0.07714844","-1.0273438","-0.16894531","5.21875","0.84375","-0.8125"
"1575566821346","438","0.08300781","-0.9902344","-0.12988281","-1.0","3.15625","-4.09375"
"1575566821346","439","0.06542969","-0.9980469","-0.15820312","3.53125","3.65625","-5.09375"
"1575566821740","440","0.107421875","-1.0117188","-0.14746094","-1.90625","7.4375","-4.78125"
"1575566821740","441","0.087890625","-0.9892578","-0.12988281","-2.40625","5.84375","-5.5"
"1575566821740","442","0.103515625","-0.9746094","-0.15429688","0.40625","5.34375","-3.75"
"1575566821741","443","0.11230469","-1.0048828","-0.14941406","-0.5","2.90625","-2.40625"
"1575566821741","444","0.09277344","-0.9980469","-0.15625","0.0","3.09375","-2.75"
"1575566821742","445","0.11425781","-0.984375","-0.15039062","-1.59375","3.40625","-2.46875"
"1575566821743","446","0.091796875","-0.9765625","-0.14746094","-3.75","3.84375","-0.8125"
"1575566821743","447","0.12695312","-0.99902344","-0.15136719","-3.6875","4.75","-0.25"
"1575566821743","448","0.12695312","-0.98828125","-0.1640625","-2.9375","1.3125","0.71875"
"1575566821744","449","0.10644531","-0.9707031","-0.17285156","-0.3125","0.71875","0.65625"
"1575566822137","450","0.08691406","-0.9785156","-0.16503906","1.03125","0.96875","2.125"
"1575566822138","451","0.11328125","-0.99316406","-0.14941406","1.3125","2.84375","4.1875"
"1575566822138","452","0.11230469","-1.0058594","-0.15234375","2.0625","1.15625","3.53125"
"1575566822139","453","0.091796875","-0.9902344","-0.15136719","0.78125","2.125","2.3125"
"1575566822139","454","0.09082031","-0.99316406","-0.13378906","-0.5625","2.0","1.5"
"1575566822139","455","0.1015625","-0.9863281","-0.16308594","2.65625","2.5625","2.0"
"1575566822140","456","0.099609375","-0.9951172","-0.14550781","-0.375","0.59375","1.3125"
"1575566822141","457","0.10058594","-0.99609375","-0.16210938","1.5625","1.3125","-0.25"
"1575566822141","458","0.10253906","-0.99609375","-0.13769531","0.21875","0.03125","-0.1875"
"1575566822142","459","0.06933594","-0.98339844","-0.13769531","-0.25","-0.75","-1.40625"
"1575566822533","460","0.08496094","-1.0048828","-0.15429688","0.15625","-0.3125","-2.15625"
"1575566822534","461","0.08984375","-1.0166016","-0.15625","-1.96875","-0.5625","-2.53125"
"1575566822534","462","0.09863281","-1.0029297","-0.15722656","-3.8125","0.21875","-3.5"
"1575566822534","463","0.09277344","-0.99316406","-0.15039062","-4.15625","0.46875","-2.59375"
"1575566822535","464","0.07714844","-0.9824219","-0.140625","-0.9375","0.09375","-0.625"
"1575566822535","465","0.09765625","-1.0","-0.14648438","-0.8125","0.15625","-0.125"
"1575566822535","466","0.12207031","-1.0029297","-0.16308594","-1.71875","-1.125","-1.46875"
"1575566822535","467","0.10839844","-0.98828125","-0.15625","-4.46875","-1.65625","-2.59375"
"1575566822535","468","0.087890625","-0.98339844","-0.15234375","-3.0625","-1.46875","-2.03125"
"1575566822537","469","0.08691406","-0.98339844","-0.15527344","-2.15625","-0.875","-1.1875"
"1575566822932","470","0.099609375","-0.9970703","-0.16308594","-2.875","0.15625","-1.78125"
"1575566822933","471","0.1015625","-0.97753906","-0.1640625","-3.125","-0.25","-0.25"
"1575566822933","472","0.09375","-0.9951172","-0.15917969","-1.34375","1.15625","-0.5625"
"1575566822933","473","0.09277344","-0.984375","-0.15722656","-1.34375","1.5","-0.375"
"1575566822933","474","0.091796875","-1.0009766","-0.1484375","-3.3125","0.71875","0.65625"
"1575566822934","475","0.09472656","-1.0019531","-0.16601562","-0.125","2.0625","-1.0625"
"1575566822934","476","0.08691406","-0.9941406","-0.14941406","-4.78125","0.78125","-1.40625"
"1575566822934","477","0.09765625","-0.99609375","-0.17480469","-0.875","-0.8125","-2.21875"
"1575566822934","478","0.10058594","-1.0039062","-0.17675781","-4.46875","-1.0","-2.09375"
"1575566822935","479","0.083984375","-0.9941406","-0.17285156","-5.6875","0.09375","-3.8125"
"1575566823330","480","0.08691406","-0.9863281","-0.17480469","-5.3125","1.375","-4.34375"
"1575566823331","481","0.08691406","-1.0009766","-0.18652344","-7.59375","2.78125","-5.09375"
"1575566823332","482","0.09472656","-0.97753906","-0.17578125","-8.3125","7.0625","-5.5"
"1575566823332","483","0.11328125","-0.9824219","-0.19628906","-5.4375","5.71875","-3.5625"
"1575566823332","484","0.1171875","-0.9892578","-0.19238281","-5.25","4.75","-2.40625"
"1575566823332","485","0.115234375","-0.9667969","-0.18554688","-4.90625","5.40625","-2.75"
"1575566823333","486","0.125","-0.9814453","-0.19726562","-2.40625","2.90625","-2.6875"
"1575566823333","487","0.13769531","-0.9970703","-0.18847656","-3.90625","-0.625","-1.90625"
"1575566823333","488","0.11328125","-0.97753906","-0.19238281","-3.875","-0.9375","-2.46875"
"1575566823333","489","0.11425781","-0.95214844","-0.20019531","-1.0625","1.15625","-2.75"
"1575566823727","490","0.103515625","-0.9736328","-0.19433594","-2.75","1.9375","-0.875"
"1575566823728","491","0.10839844","-0.9638672","-0.20507812","-1.1875","4.0625","-0.9375"
"1575566823728","492","0.12011719","-0.9892578","-0.22851562","1.03125","3.34375","0.53125"
"1575566823729","493","0.13671875","-0.98828125","-0.234375","2.0","2.84375","0.09375"
"1575566823730","494","0.13183594","-0.9746094","-0.18847656","-3.375","2.1875","0.53125"
"1575566823730","495","0.12402344","-0.97558594","-0.20410156","-0.25","0.03125","-0.4375"
"1575566823730","496","0.1171875","-0.9921875","-0.20117188","-0.5625","-2.6875","0.65625"
"1575566823731","497","0.10253906","-0.9814453","-0.19042969","-4.15625","0.71875","-1.1875"
"1575566823731","498","0.111328125","-0.984375","-0.20117188","-3.875","2.0","-2.15625"
"1575566823731","499","0.111328125","-0.9980469","-0.20507812","-1.84375","1.15625","-1.25"
"1575566824123","500","0.109375","-0.9765625","-0.20996094","-2.6875","0.78125","-1.3125"
"1575566824124","501","0.12597656","-0.9794922","-0.19726562","-3.0625","0.03125","-0.5625"
"1575566824124","502","0.12988281","-0.97265625","-0.19335938","-2.34375","-0.375","0.40625"
"1575566824124","503","0.11230469","-0.98828125","-0.20703125","-0.875","-3.90625","0.40625"
"1575566824124","504","0.109375","-0.9951172","-0.21875","-0.1875","-3.875","-0.4375"
"1575566824125","505","0.09765625","-0.98046875","-0.203125","-1.0625","-1.3125","0.90625"
"1575566824126","506","0.109375","-0.984375","-0.20605469","-1.1875","1.4375","0.65625"
"1575566824126","507","0.099609375","-0.9873047","-0.20898438","-1.84375","1.9375","1.4375"
"1575566824126","508","0.0859375","-0.9863281","-0.20410156","-1.78125","1.9375","2.3125"
"1575566824127","509","0.091796875","-0.98535156","-0.22167969","0.65625","2.0","2.3125"
"1575566824522","510","0.09277344","-0.98535156","-0.20507812","-2.75","0.59375","2.65625"
"1575566824523","511","0.09277344","-0.98339844","-0.1953125","0.71875","2.5625","3.90625"
"1575566824523","512","0.08300781","-0.98339844","-0.20019531","-1.3125","1.625","2.71875"
"1575566824523","513","0.103515625","-0.9824219","-0.20996094","1.6875","0.84375","3.21875"
"1575566824523","514","0.08300781","-0.9951172","-0.20410156","-1.53125","-0.8125","3.71875"
"1575566824523","515","0.07421875","-0.98339844","-0.20410156","1.21875","1.5","2.65625"
"1575566824524","516","0.078125","-0.98828125","-0.203125","1.15625","1.3125","2.90625"
"1575566824525","517","0.07519531","-0.99121094","-0.20214844","0.0","1.4375","3.09375"
"1575566824525","518","0.076171875","-0.9824219","-0.19628906","0.46875","2.25","2.90625"
"1575566824525","519","0.07324219","-0.984375","-0.203125","0.40625","2.78125","3.59375"
"1575566824920","520","0.0703125","-0.9941406","-0.20410156","0.84375","1.75","2.4375"
"1575566824920","521","0.080078125","-0.9873047","-0.19824219","0.09375","2.0","1.8125"
"1575566824921","522","0.0703125","-1.0","-0.18945312","-0.5","1.375","1.09375"
"1575566824921","523","0.049804688","-0.99902344","-0.18066406","-3.0625","0.59375","0.34375"
"1575566824921","524","0.051757812","-0.9970703","-0.1875","-1.90625","2.71875","-0.5625"
"1575566824922","525","0.047851562","-0.98339844","-0.18554688","-1.90625","3.53125","-1.53125"
"1575566824922","526","0.059570312","-0.9902344","-0.18847656","-1.40625","4.1875","-2.6875"
"1575566824922","527","0.06933594","-0.9941406","-0.19726562","-1.53125","2.71875","-1.71875"
"1575566824922","528","0.057617188","-0.99316406","-0.18652344","-1.78125","1.375","-1.84375"
"1575566824924","529","0.059570312","-0.9921875","-0.19726562","1.625","3.03125","-1.59375"
"1575566825317","530","0.0625","-0.98535156","-0.18359375","0.71875","4.0","-2.15625"
"1575566825318","531","0.07714844","-0.97558594","-0.19726562","3.65625","5.0625","-2.75"
"1575566825318","532","0.09277344","-1.0078125","-0.19335938","2.0","4.4375","-2.875"
"1575566825318","533","0.076171875","-0.9814453","-0.18359375","-0.75","2.78125","-4.34375"
"1575566825318","534","0.08496094","-0.9892578","-0.18554688","-1.0","1.5625","-5.625"
"1575566825319","535","0.060546875","-0.99609375","-0.20605469","0.65625","-0.4375","-5.9375"
"1575566825319","536","0.08691406","-0.98046875","-0.18164062","-2.53125","3.28125","-5.21875"
"1575566825319","537","0.09765625","-0.98828125","-0.20800781","2.65625","1.09375","-1.78125"
"1575566825320","538","0.08691406","-0.99902344","-0.18554688","-0.1875","1.3125","-1.3125"
"1575566825320","539","0.107421875","-0.9765625","-0.19921875","4.125","0.21875","0.0"
"1575566825715","540","0.064453125","-1.0117188","-0.17578125","-1.53125","-0.75","-1.59375"
"1575566825717","541","0.111328125","-0.9765625","-0.203125","3.40625","4.6875","-0.75"
"1575566825717","542","0.08203125","-1.0078125","-0.18359375","-0.9375","-1.40625","-0.5"
"1575566825717","543","0.044921875","-0.9707031","-0.18945312","-1.90625","4.8125","-2.59375"
"1575566825718","544","0.11425781","-1.0009766","-0.1875","1.5","4.0","-0.5625"
"1575566825718","545","0.07519531","-1.0029297","-0.18066406","0.15625","1.5625","1.4375"
"1575566825718","546","0.08691406","-0.9746094","-0.15917969","-0.0625","3.9375","1.625"
"1575566825718","547","0.10839844","-0.99902344","-0.20019531","6.875","4.0","2.125"
"1575566825719","548","0.09082031","-0.99121094","-0.16699219","0.65625","1.6875","3.40625"
"1575566825719","549","0.064453125","-0.9736328","-0.15527344","3.65625","1.3125","3.65625"
"1575566826111","550","0.057617188","-1.0","-0.16601562","5.21875","2.375","2.5"
"1575566826112","551","0.091796875","-1.0039062","-0.16601562","1.3125","4.9375","2.65625"
"1575566826112","552","0.06640625","-0.9863281","-0.14453125","1.375","4.0","3.53125"
"1575566826113","553","0.053710938","-0.9970703","-0.16699219","2.0","6.6875","2.84375"
"1575566826113","554","0.07519531","-1.0019531","-0.17089844","0.78125","7.375","2.0"
"1575566826114","555","0.051757812","-0.9951172","-0.15332031","-0.9375","4.6875","2.0625"
"1575566826114","556","0.046875","-0.9902344","-0.14648438","3.03125","3.71875","2.4375"
"1575566826114","557","0.068359375","-1.0185547","-0.15039062","1.15625","2.5625","1.5625"
"1575566826114","558","0.0546875","-0.99316406","-0.13085938","-0.375","2.84375","0.40625"
"1575566826115","559","0.038085938","-0.98535156","-0.12988281","-0.0625","2.59375","0.34375"
"1575566826509","560","0.052734375","-1.0146484","-0.16210938","-1.0625","0.03125","-0.8125"
"1575566826509","561","0.06347656","-1.0068359","-0.16015625","-3.6875","0.34375","-2.03125"
"1575566826509","562","0.030273438","-0.9785156","-0.13476562","-1.71875","0.59375","-0.5625"
"1575566826510","563","0.020507812","-0.98828125","-0.14648438","0.40625","2.125","-1.3125"
"1575566826510","564","0.05859375","-1.0107422","-0.18261719","-1.71875","3.40625","-4.09375"
"1575566826511","565","0.0859375","-1.0087891","-0.1640625","-5.875","3.84375","-6.53125"
"1575566826511","566","0.049804688","-0.9814453","-0.13476562","-2.21875","2.84375","-4.34375"
"1575566826512","567","0.026367188","-0.96777344","-0.14160156","-1.78125","4.5","-3.25"
"1575566826512","568","0.0703125","-0.9980469","-0.16992188","-0.375","6.625","-3.125"
"1575566826512","569","0.09765625","-1.0292969","-0.18457031","-2.21875","2.84375","-4.59375"
"1575566826907","570","0.09765625","-1.0117188","-0.17578125","0.40625","-0.3125","-3.3125"
"1575566826908","571","0.06933594","-0.9746094","-0.13574219","-0.1875","-1.34375","-1.34375"
"1575566826908","572","0.046875","-0.9736328","-0.13574219","0.0","1.3125","-0.4375"
"1575566826908","573","0.06347656","-0.98828125","-0.14160156","-1.0625","4.625","0.0"
"1575566826908","574","0.068359375","-1.0078125","-0.16503906","-0.3125","3.15625","0.09375"
"1575566826909","575","0.07714844","-0.99609375","-0.16113281","-1.0625","4.0625","-1.71875"
"1575566826909","576","0.08203125","-0.9902344","-0.14550781","-1.65625","3.9375","-1.59375"
"1575566826910","577","0.0703125","-0.9902344","-0.14160156","-0.875","3.28125","-1.53125"
"1575566826911","578","0.080078125","-0.9892578","-0.14648438","0.78125","2.71875","-1.125"
"1575566826911","579","0.0859375","-0.99902344","-0.15429688","0.78125","1.375","-1.25"
"1575566827305","580","0.08203125","-1.0039062","-0.16210938","-1.0","1.03125","-1.84375"
"1575566827305","581","0.08105469","-0.9970703","-0.1484375","-1.0625","0.90625","-1.96875"
"1575566827306","582","0.060546875","-0.984375","-0.15039062","-1.40625","1.03125","-1.78125"
"1575566827306","583","0.072265625","-1.0009766","-0.14648438","-1.125","4.3125","-1.3125"
"1575566827306","584","0.0703125","-0.9980469","-0.1640625","-1.71875","2.84375","-2.09375"
"1575566827306","585","0.087890625","-0.9873047","-0.18554688","2.0","3.21875","-1.84375"
"1575566827307","586","0.07910156","-1.0","-0.13378906","-3.0","3.28125","-2.21875"
"1575566827307","587","0.06347656","-0.9658203","-0.14648438","-0.5625","0.09375","-2.15625"
"1575566827307","588","0.08496094","-1.0","-0.15039062","1.09375","-0.875","-1.3125"
"1575566827309","589","0.09277344","-1.0234375","-0.1484375","-5.625","2.0","-4.78125"
"1575566827898","590","0.10839844","-1.0234375","-0.15136719","-6.4375","-2.53125","-4.71875"
"1575566827898","591","0.03515625","-1.0058594","-0.1640625","-4.84375","-4.03125","-2.53125"
"1575566827899","592","0.03515625","-0.9765625","-0.14648438","-8.25","4.8125","-3.8125"
"1575566827899","593","0.095703125","-0.9941406","-0.15429688","-6.78125","9.625","-4.65625"
"1575566827899","594","0.103515625","-1.0097656","-0.17089844","-5.21875","7.84375","-4.46875"
"1575566827900","595","0.10253906","-0.9794922","-0.17773438","-5.15625","5.28125","-4.78125"
"1575566827900","596","0.1328125","-0.98046875","-0.1875","-3.1875","1.28125","-3.625"
"1575566827900","597","0.10058594","-0.9902344","-0.18457031","-5.75","1.09375","-6.1875"
"1575566827900","598","0.115234375","-0.97558594","-0.18945312","-3.375","3.03125","-4.46875"
"1575566827901","599","0.11328125","-0.98339844","-0.19824219","-2.28125","2.0625","-4.09375"
"1575566828098","600","0.11425781","-0.9873047","-0.20214844","-4.96875","3.9375","-2.625"
"1575566828100","601","0.12597656","-0.9746094","-0.19726562","-3.4375","3.84375","-1.25"
"1575566828101","602","0.095703125","-0.95996094","-0.21582031","2.96875","3.03125","-1.84375"
"1575566828101","603","0.11621094","-0.9941406","-0.17578125","-1.71875","2.0","-1.46875"
"1575566828101","604","0.11621094","-0.97753906","-0.17675781","-3.4375","1.9375","-2.46875"
"1575566828101","605","0.103515625","-0.98828125","-0.19726562","-0.875","1.625","-1.1875"
"1575566828102","606","0.11035156","-0.9902344","-0.19238281","-1.84375","-0.5","-0.75"
"1575566828102","607","0.10644531","-0.9902344","-0.19335938","-1.0625","0.15625","-1.3125"
"1575566828102","608","0.09375","-0.98339844","-0.18457031","-1.40625","1.03125","0.71875"
"1575566828103","609","0.1015625","-0.9892578","-0.19433594","0.09375","2.96875","1.21875"
"1575566828498","610","0.12109375","-0.9892578","-0.19238281","-2.53125","1.3125","0.09375"
"1575566828498","611","0.10546875","-0.9824219","-0.18945312","-1.84375","1.28125","0.96875"
"1575566828498","612","0.10253906","-0.984375","-0.19433594","-0.625","0.59375","1.4375"
"1575566828500","613","0.12109375","-0.98828125","-0.19140625","-0.9375","-0.25","2.0"
"1575566828500","614","0.10253906","-0.984375","-0.19140625","-1.78125","-3.25","2.375"
"1575566828500","615","0.08496094","-0.9814453","-0.19238281","-0.6875","-2.15625","1.8125"
"1575566828501","616","0.08886719","-0.99316406","-0.19042969","-1.0","-1.53125","2.4375"
"1575566828501","617","0.10546875","-0.97753906","-0.20117188","-1.0625","-1.96875","2.4375"
"1575566828501","618","0.1015625","-0.9921875","-0.19335938","-0.4375","-1.84375","2.5625"
"1575566828501","619","0.080078125","-0.9951172","-0.19238281","-3.5625","-2.28125","2.4375"
"1575566829289","620","0.076171875","-0.9785156","-0.20800781","0.21875","-1.125","2.375"
"1575566829290","621","0.076171875","-0.9824219","-0.18652344","-2.9375","0.34375","2.375"
"1575566829290","622","0.08300781","-0.9970703","-0.20214844","-0.3125","-0.0625","2.125"
"1575566829290","623","0.080078125","-0.9794922","-0.18652344","-2.21875","0.71875","2.1875"
"1575566829291","624","0.0703125","-0.9902344","-0.20019531","-2.6875","1.03125","2.0"
"1575566829292","625","0.078125","-0.9921875","-0.20507812","-0.6875","1.9375","2.0"
"1575566829293","626","0.07714844","-0.99316406","-0.19628906","0.59375","-0.1875","2.4375"
"1575566829293","627","0.06640625","-0.98339844","-0.18652344","-1.125","-1.0","0.34375"
"1575566829293","628","0.051757812","-0.99316406","-0.17382812","-2.21875","0.15625","-0.5"
"1575566829294","629","0.041015625","-1.0185547","-0.20507812","-0.4375","0.34375","-1.125"
"1575566829489","630","0.0546875","-0.9980469","-0.18359375","-4.65625","2.125","-0.8125"
"1575566829490","631","0.053710938","-0.97558594","-0.171875","-3.8125","3.15625","0.21875"
"1575566829491","632","0.055664062","-0.9921875","-0.19433594","-0.875","3.34375","-1.0"
"1575566829491","633","0.06640625","-0.98828125","-0.18457031","0.46875","3.09375","-0.6875"
"1575566829491","634","0.07128906","-1.0","-0.19824219","0.84375","2.5625","1.375"
"1575566829491","635","0.076171875","-0.99121094","-0.19628906","0.34375","0.40625","0.28125"
"1575566829492","636","0.064453125","-0.984375","-0.203125","0.09375","1.875","-0.9375"
"1575566829493","637","0.059570312","-0.9951172","-0.20214844","-0.5625","2.90625","-1.53125"
"1575566829493","638","0.048828125","-0.99609375","-0.20507812","1.875","2.65625","-1.34375"
"1575566829494","639","0.07421875","-0.9873047","-0.19628906","-1.0","4.0625","-3.125"
"1575566829886","640","0.072265625","-0.98046875","-0.20214844","-0.875","4.75","-4.65625"
"1575566829886","641","0.083984375","-0.99121094","-0.19726562","-0.5","4.9375","-5.875"
"1575566829887","642","0.09082031","-0.9873047","-0.1875","-1.125","3.15625","-6.0625"
"1575566829887","643","0.08300781","-1.0","-0.1953125","0.28125","1.03125","-7.21875"
"1575566829887","644","0.11035156","-1.0048828","-0.1953125","-0.5","-1.59375","-4.46875"
"1575566829887","645","0.07324219","-0.9628906","-0.1796875","-5.15625","0.46875","-6.3125"
"1575566829888","646","0.08105469","-0.97753906","-0.19824219","-1.59375","0.46875","-4.46875"
"1575566829888","647","0.07324219","-0.9921875","-0.21679688","-0.3125","3.34375","-3.96875"
"1575566829888","648","0.059570312","-0.9970703","-0.21582031","0.78125","6.46875","-2.09375"
"1575566829890","649","0.10839844","-0.9794922","-0.19042969","-1.125","10.0","-2.21875"
"1575566830090","650","0.10839844","-0.97753906","-0.21191406","4.3125","6.34375","0.03125"
"1575566830091","651","0.125","-0.99121094","-0.21191406","5.59375","5.21875","-0.6875"
"1575566830091","652","0.09765625","-0.9863281","-0.19433594","4.3125","2.375","1.09375"
"1575566830091","653","0.12695312","-0.9785156","-0.18847656","2.65625","4.25","2.78125"
"1575566830091","654","0.10644531","-1.0","-0.18164062","1.3125","2.0625","1.5625"
"1575566830092","655","0.099609375","-0.9902344","-0.16699219","2.65625","3.71875","3.65625"
"1575566830092","656","0.048828125","-0.9863281","-0.18554688","7.5","2.0625","2.84375"
"1575566830092","657","0.043945312","-1.0058594","-0.14257812","3.21875","6.03125","1.375"
"1575566830092","658","0.055664062","-0.9814453","-0.1484375","2.84375","7.125","0.46875"
"1575566830093","659","0.06738281","-1.0107422","-0.14257812","2.1875","10.25","-0.5625"
"1575566830484","660","0.07128906","-0.99121094","-0.14941406","1.3125","8.84375","-1.0"
"1575566830484","661","0.076171875","-0.99609375","-0.1640625","4.25","11.15625","0.96875"
"1575566830485","662","0.099609375","-1.0029297","-0.16699219","3.40625","9.9375","2.1875"
"1575566830485","663","0.10644531","-0.9951172","-0.13867188","0.40625","8.59375","2.125"
"1575566830485","664","0.091796875","-0.9951172","-0.15136719","0.53125","3.53125","0.78125"
"1575566830486","665","0.08886719","-1.0029297","-0.14453125","-0.875","0.90625","0.78125"
"1575566830486","666","0.08300781","-0.98339844","-0.14257812","-2.28125","0.90625","-0.625"
"1575566830486","667","0.068359375","-1.0019531","-0.15917969","-1.59375","0.09375","-0.1875"
"1575566830487","668","0.08203125","-1.0019531","-0.15234375","-1.84375","0.09375","-0.1875"
"1575566830487","669","0.055664062","-0.9951172","-0.15234375","-1.3125","1.75","-1.125"
"1575566830882","670","0.059570312","-0.99609375","-0.15722656","0.09375","2.0625","-1.53125"
"1575566830883","671","0.0859375","-1.0117188","-0.14746094","-5.3125","4.6875","-1.84375"
"1575566830883","672","0.09863281","-0.98535156","-0.14550781","-6.3125","5.1875","-3.0"
"1575566830884","673","0.06738281","-0.9716797","-0.14648438","-6.65625","3.34375","-3.3125"
"1575566830885","674","0.06640625","-0.9970703","-0.15917969","-1.78125","5.1875","-3.5"
"1575566830885","675","0.053710938","-0.9794922","-0.17089844","-3.875","6.09375","-2.59375"
"1575566830885","676","0.14648438","-1.0263672","-0.20117188","0.34375","2.96875","-2.6875"
"1575566830885","677","0.11425781","-0.99902344","-0.16699219","-2.28125","-3.6875","-1.71875"
"1575566830886","678","0.047851562","-0.9716797","-0.14550781","-0.4375","-0.6875","-1.84375"
"1575566830886","679","0.05078125","-0.9824219","-0.15039062","1.5625","2.4375","-1.125"
"1575566831280","680","0.07714844","-1.0107422","-0.16308594","0.0","1.6875","-1.53125"
"1575566831280","681","0.07128906","-0.9970703","-0.16503906","-1.3125","2.65625","-2.21875"
"1575566831281","682","0.078125","-0.99316406","-0.15429688","0.09375","5.34375","-1.59375"
"1575566831281","683","0.07714844","-0.9814453","-0.16113281","0.03125","6.03125","-0.8125"
"1575566831281","684","0.08886719","-0.9921875","-0.171875","1.03125","3.78125","-1.90625"
"1575566831281","685","0.08496094","-1.0029297","-0.16113281","1.03125","2.84375","-1.59375"
"1575566831282","686","0.095703125","-0.99609375","-0.14355469","-0.75","2.71875","-0.8125"
"1575566831282","687","0.09765625","-0.9980469","-0.14550781","2.0","1.09375","-0.75"
"1575566831283","688","0.095703125","-0.99609375","-0.15332031","-0.9375","0.90625","-1.0"
"1575566831283","689","0.08203125","-0.9921875","-0.15136719","-1.40625","1.15625","-1.59375"
"1575566831677","690","0.10058594","-0.9921875","-0.14941406","-0.0625","2.1875","-1.1875"
"1575566831677","691","0.08496094","-0.9765625","-0.16992188","2.0625","1.375","-1.96875"
"1575566831677","692","0.09765625","-0.99902344","-0.13476562","-1.0","1.375","-1.125"
"1575566831678","693","0.087890625","-0.9785156","-0.14648438","-0.5","1.9375","-3.25"
"1575566831678","694","0.095703125","-1.0048828","-0.15527344","1.5","2.96875","-1.0625"
"1575566831678","695","0.08984375","-1.0019531","-0.15429688","-0.5625","3.40625","-1.125"
"1575566831678","696","0.10644531","-0.99121094","-0.16113281","-1.25","4.25","-1.96875"
"1575566831680","697","0.10058594","-1.0048828","-0.14550781","-1.40625","1.9375","-2.46875"
"1575566831680","698","0.0859375","-0.9970703","-0.15136719","-0.25","0.34375","-1.65625"
"1575566831680","699","0.076171875","-0.9951172","-0.15039062","-2.15625","-1.53125","-1.84375"
"1575566832273","700","0.087890625","-0.9980469","-0.13964844","-4.21875","-0.625","-2.8125"
"1575566832273","701","0.087890625","-0.9941406","-0.15429688","-2.21875","1.5","-2.28125"
"1575566832273","702","0.11328125","-1.0117188","-0.171875","-3.25","2.96875","-2.8125"
"1575566832274","703","0.107421875","-0.98828125","-0.16015625","-5.3125","3.71875","-2.625"
"1575566832274","704","0.09863281","-0.9873047","-0.16699219","-4.65625","3.03125","-3.8125"
"1575566832274","705","0.11621094","-0.9863281","-0.17285156","-5.5","2.5","-4.03125"
"1575566832274","706","0.125","-0.99316406","-0.16796875","-7.59375","2.4375","-4.03125"
"1575566832275","707","0.12792969","-0.9902344","-0.16503906","-6.90625","-2.875","-5.03125"
"1575566832275","708","0.119140625","-0.99316406","-0.16796875","-6.3125","-3.625","-4.03125"
"1575566832276","709","0.107421875","-0.9873047","-0.16503906","-8.5625","-5.75","-2.53125"
"1575566832472","710","0.09375","-0.984375","-0.19140625","-3.8125","-1.0","-0.6875"
"1575566832473","711","0.10253906","-0.9951172","-0.1953125","-1.96875","-1.59375","-0.5625"
"1575566832473","712","0.08984375","-1.0224609","-0.22265625","-1.71875","-2.625","0.78125"
"1575566832473","713","0.123046875","-0.9863281","-0.18652344","-7.21875","-0.875","4.1875"
"1575566832473","714","0.10449219","-0.93359375","-0.1796875","-7.03125","3.28125","-1.78125"
"1575566832474","715","0.119140625","-0.9707031","-0.18164062","-1.78125","6.09375","-3.96875"
"1575566832474","716","0.1328125","-1.0136719","-0.19140625","-4.65625","2.4375","-0.25"
"1575566832474","717","0.111328125","-0.9716797","-0.203125","-1.59375","2.125","-1.0625"
"1575566832474","718","0.09082031","-0.99316406","-0.21289062","1.625","-0.4375","-0.75"
"1575566832475","719","0.12207031","-0.99609375","-0.18945312","0.96875","0.65625","0.84375"
"1575566832871","720","0.09863281","-0.96972656","-0.18164062","-2.03125","0.34375","0.03125"
"1575566832873","721","0.109375","-0.98535156","-0.20117188","1.625","-0.125","-0.25"
"1575566832874","722","0.111328125","-0.9941406","-0.203125","-0.8125","-0.6875","1.15625"
"1575566832874","723","0.107421875","-0.98046875","-0.19921875","-1.0","-0.25","1.625"
"1575566832874","724","0.103515625","-0.9863281","-0.20117188","1.09375","-1.3125","1.21875"
"1575566832875","725","0.09082031","-0.9902344","-0.20214844","-1.125","-0.5625","2.0"
"1575566832875","726","0.099609375","-0.9707031","-0.19433594","-1.78125","1.09375","0.78125"
"1575566832875","727","0.08984375","-0.9873047","-0.20214844","-1.84375","0.59375","0.40625"
"1575566832875","728","0.109375","-0.9873047","-0.21679688","0.53125","1.625","1.21875"
"1575566832876","729","0.10839844","-0.9824219","-0.18457031","-2.28125","0.65625","0.53125"
"1575566833267","730","0.10546875","-0.9746094","-0.20800781","1.9375","-2.28125","1.375"
"1575566833268","731","0.10058594","-0.9951172","-0.20214844","0.90625","-1.96875","1.5625"
"1575566833268","732","0.103515625","-0.99609375","-0.18359375","-1.53125","-3.0","1.375"
"1575566833269","733","0.059570312","-0.98535156","-0.19335938","0.21875","-4.53125","0.15625"
"1575566833270","734","0.029296875","-1.0019531","-0.18457031","-1.84375","-0.3125","1.03125"
"1575566833270","735","0.025390625","-1.0146484","-0.16113281","-5.09375","7.75","-0.6875"
"1575566833271","736","0.01953125","-0.9902344","-0.16894531","-3.1875","8.96875","0.53125"
"1575566833271","737","0.0546875","-0.984375","-0.17285156","-0.75","14.5625","2.84375"
"1575566833271","738","0.115234375","-1.0009766","-0.18066406","-1.125","11.34375","2.375"
"1575566833271","739","0.10253906","-0.9824219","-0.18945312","1.15625","4.25","1.5625"
"1575566833864","740","0.07714844","-0.9921875","-0.16894531","-0.375","2.59375","0.28125"
"1575566833864","741","0.072265625","-0.9892578","-0.1875","-0.25","1.09375","-0.9375"
"1575566833865","742","0.07714844","-0.9970703","-0.20507812","-0.125","-0.375","-0.875"
"1575566833865","743","0.07910156","-0.9873047","-0.18945312","-1.65625","0.59375","-2.6875"
"1575566833865","744","0.076171875","-0.98828125","-0.18164062","-1.90625","2.125","-2.15625"
"1575566833866","745","0.06933594","-0.9921875","-0.16992188","-1.65625","1.8125","-2.34375"
"1575566833867","746","0.08203125","-1.0","-0.20019531","2.5","1.5","-3.1875"
"1575566833867","747","0.07910156","-0.9824219","-0.17382812","-3.6875","0.96875","-4.71875"
"1575566833867","748","0.07421875","-0.9658203","-0.18847656","-0.5625","2.1875","-6.59375"
"1575566833868","749","0.10058594","-0.984375","-0.20214844","1.5","4.3125","-6.53125"
"1575566834061","750","0.12011719","-1.0214844","-0.21386719","0.40625","0.84375","-4.84375"
"1575566834061","751","0.09667969","-0.9707031","-0.19042969","-1.65625","1.09375","-5.25"
"1575566834061","752","0.09765625","-0.9794922","-0.20507812","2.0","2.0","-4.15625"
"1575566834062","753","0.12597656","-0.9863281","-0.20800781","3.71875","1.75","-3.875"
"1575566834062","754","0.09667969","-0.9765625","-0.19238281","-0.3125","3.71875","-3.375"
"1575566834062","755","0.109375","-0.9902344","-0.20800781","6.46875","6.34375","-1.84375"
"1575566834062","756","0.13183594","-0.99316406","-0.19824219","5.59375","5.125","-0.5625"
"1575566834064","757","0.1015625","-0.97753906","-0.18261719","5.90625","2.5625","-0.625"
"1575566834064","758","0.09375","-0.99609375","-0.18554688","5.59375","7.5","1.5625"
"1575566834064","759","0.16015625","-1.0068359","-0.1796875","6.6875","6.03125","0.90625"
"1575566834855","760","0.09277344","-0.9921875","-0.17675781","0.84375","1.5625","-0.25"
"1575566834855","761","0.078125","-0.9746094","-0.16503906","-0.125","5.40625","0.65625"
"1575566834856","762","0.08105469","-0.9902344","-0.15917969","0.09375","9.6875","2.65625"
"1575566834856","763","0.111328125","-1.0126953","-0.15625","1.5625","8.34375","2.4375"
"1575566834856","764","0.11035156","-0.97558594","-0.17285156","0.21875","7.125","-0.8125"
"1575566834857","765","0.12109375","-1.0097656","-0.14355469","-3.5","9.1875","-1.25"
"1575566834857","766","0.09082031","-0.9638672","-0.14257812","-5.5625","7.75","-1.59375"
"1575566834857","767","0.07910156","-1.0068359","-0.16015625","-1.96875","11.53125","0.34375"
"1575566834857","768","0.072265625","-0.9785156","-0.14648438","-2.9375","14.09375","0.15625"
"1575566834859","769","0.12988281","-0.9951172","-0.14160156","0.53125","13.84375","1.4375"
"1575566835451","770","0.13085938","-1.0097656","-0.12988281","-1.40625","8.09375","1.8125"
"1575566835451","771","0.13867188","-1.0039062","-0.1328125","-2.46875","0.59375","0.53125"
"1575566835452","772","0.1171875","-0.98046875","-0.13769531","0.71875","-9.0","1.09375"
"1575566835452","773","0.07128906","-0.97558594","-0.14941406","-0.125","-10.40625","2.0"
"1575566835452","774","0.07421875","-1.0107422","-0.1640625","2.4375","-8.9375","3.90625"
"1575566835453","775","0.08886719","-0.98535156","-0.15429688","1.5","-7.78125","3.21875"
"1575566835453","776","0.076171875","-0.9873047","-0.15429688","2.1875","-6.1875","3.71875"
"1575566835453","777","0.0625","-0.9951172","-0.16113281","2.3125","-5.3125","2.5625"
"1575566835453","778","0.0703125","-0.9980469","-0.15917969","0.90625","-1.0625","2.0"
"1575566835454","779","0.076171875","-0.99316406","-0.16699219","0.09375","-0.125","-0.5625"
"1575566835647","780","0.052734375","-0.99902344","-0.14746094","-2.03125","0.40625","-1.65625"
"1575566835648","781","0.07421875","-0.9941406","-0.15527344","-2.46875","5.53125","-2.8125"
"1575566835648","782","0.080078125","-1.0185547","-0.17285156","-1.40625","5.0","-2.6875"
"1575566835649","783","0.09277344","-1.0039062","-0.17285156","-2.875","6.625","-3.96875"
"1575566835649","784","0.0546875","-0.9814453","-0.13574219","-2.09375","6.625","-2.09375"
"1575566835650","785","0.08496094","-0.9873047","-0.14257812","2.5","5.78125","-1.53125"
"1575566835650","786","0.11035156","-1.0107422","-0.15234375","1.03125","2.125","-0.625"
"1575566835650","787","0.072265625","-0.9863281","-0.13574219","-0.25","0.84375","-1.1875"
"1575566835651","788","0.09277344","-1.0009766","-0.14746094","0.09375","1.09375","-1.1875"
"1575566835651","789","0.08984375","-0.99316406","-0.15136719","-0.6875","-0.5625","-2.09375"
"1575566835652","790","0.07714844","-0.99609375","-0.15039062","-0.3125","-1.90625","-1.78125"
"1575566835653","791","0.07324219","-1.0009766","-0.14746094","0.71875","-0.625","-0.75"
"1575566835653","792","0.087890625","-1.0019531","-0.14550781","-0.25","-0.9375","-0.875"
"1575566835654","793","0.078125","-0.99902344","-0.14355469","0.0","0.15625","-2.28125"
"1575566835654","794","0.080078125","-1.0","-0.15039062","0.46875","1.3125","-1.65625"
"1575566835654","795","0.07324219","-0.99902344","-0.140625","-0.875","2.0","-1.90625"
"1575566835655","796","0.07910156","-0.9980469","-0.15039062","-2.09375","2.0625","-2.625"
"1575566835655","797","0.09375","-0.99609375","-0.14453125","-2.21875","2.3125","-2.03125"
"1575566835655","798","0.09765625","-1.0048828","-0.13671875","-3.3125","-0.5625","-2.59375"
"1575566835656","799","0.08691406","-0.98339844","-0.14257812","-6.3125","-0.875","-4.09375"
"1575566836048","800","0.09082031","-0.9970703","-0.14941406","-5.25","-0.5","-3.75"
"1575566836049","801","0.091796875","-0.9921875","-0.18261719","-2.15625","-2.34375","-3.5"
"1575566836049","802","0.087890625","-0.99609375","-0.13574219","-8.1875","-2.40625","-2.875"
"1575566836049","803","0.080078125","-0.9707031","-0.1484375","-6.0625","-0.5","-3.625"
"1575566836049","804","0.08886719","-0.99316406","-0.18261719","-2.09375","-0.1875","-1.84375"
"1575566836050","805","0.09375","-1.0019531","-0.17773438","-4.09375","-0.75","-2.875"
"1575566836050","806","0.09472656","-0.9902344","-0.16113281","-9.65625","0.65625","-4.59375"
"1575566836050","807","0.099609375","-0.9814453","-0.17480469","-6.5","0.84375","-4.03125"
"1575566836050","808","0.08691406","-0.9736328","-0.18261719","-2.625","0.90625","-1.78125"
"1575566836051","809","0.109375","-0.984375","-0.1953125","0.03125","1.15625","-0.875"
"1575566836446","810","0.10058594","-0.9892578","-0.1875","-1.65625","0.78125","0.21875"
"1575566836447","811","0.10253906","-0.9873047","-0.16992188","-4.28125","1.8125","-0.75"
"1575566836447","812","0.095703125","-0.9736328","-0.171875","-3.875","2.5","-1.71875"
"1575566836447","813","0.115234375","-0.99609375","-0.16992188","-3.875","1.625","-0.6875"
"1575566836448","814","0.091796875","-0.96875","-0.18945312","-3.96875","3.15625","-1.25"
"1575566836448","815","0.10839844","-0.984375","-0.20117188","-2.15625","4.3125","-0.5"
"1575566836448","816","0.123046875","-0.9951172","-0.1953125","-1.84375","1.75","-0.1875"
"1575566836450","817","0.10644531","-0.98535156","-0.19140625","-3.90625","-1.0","0.71875"
"1575566836450","818","0.103515625","-0.9824219","-0.18652344","1.5","0.96875","1.75"
"1575566836450","819","0.09765625","-0.9941406","-0.19042969","-1.71875","-0.25","1.21875"
"1575566836845","820","0.1171875","-0.9921875","-0.19726562","-2.46875","-2.40625","0.71875"
"1575566836845","821","0.099609375","-0.9892578","-0.20800781","-3.625","-4.09375","0.28125"
"1575566836845","822","0.08886719","-0.9941406","-0.19921875","-3.625","-3.0","-1.40625"
"1575566836846","823","0.0859375","-0.9746094","-0.19335938","-3.6875","-2.09375","-1.0"
"1575566836846","824","0.09667969","-0.9873047","-0.19042969","-3.8125","0.09375","0.65625"
"1575566836846","825","0.09765625","-0.984375","-0.19921875","-1.96875","0.28125","0.03125"
"1575566836847","826","0.083984375","-0.99316406","-0.20019531","-2.625","-0.5625","0.78125"
"1575566836847","827","0.09667969","-0.98339844","-0.19726562","-1.40625","-0.25","1.03125"
"1575566836847","828","0.078125","-0.9873047","-0.19628906","-2.03125","-0.5","1.375"
"1575566836849","829","0.076171875","-0.97558594","-0.1953125","-0.9375","2.3125","1.09375"
"1575566837637","830","0.08886719","-0.9951172","-0.19726562","-1.125","1.6875","1.3125"
"1575566837637","831","0.07128906","-0.98828125","-0.203125","-0.3125","2.1875","0.53125"
"1575566837637","832","0.08886719","-0.9863281","-0.20507812","-0.375","3.40625","0.40625"
"1575566837638","833","0.08300781","-0.9707031","-0.2109375","-1.90625","2.375","0.34375"
"1575566837638","834","0.06933594","-0.99121094","-0.1953125","-0.8125","4.875","1.3125"
"1575566837638","835","0.08886719","-0.9863281","-0.19824219","-0.625","4.875","-0.4375"
"1575566837638","836","0.0859375","-0.9892578","-0.21289062","0.09375","0.53125","0.46875"
"1575566837639","837","0.09667969","-0.9941406","-0.203125","-1.71875","0.40625","0.40625"
"1575566837639","838","0.07910156","-0.98339844","-0.20214844","-2.28125","-0.25","-0.25"
"1575566837639","839","0.07519531","-0.99316406","-0.21386719","0.59375","-0.8125","0.09375"
"1575566837835","840","0.06347656","-1.0136719","-0.19726562","-2.40625","-1.90625","0.84375"
"1575566837836","841","0.056640625","-0.97265625","-0.19140625","-2.40625","-0.4375","0.40625"
"1575566837837","842","0.061523438","-0.984375","-0.19140625","0.0","1.03125","0.65625"
"1575566837837","843","0.060546875","-0.9951172","-0.18554688","-2.03125","0.59375","0.40625"
"1575566837837","844","0.045898438","-0.984375","-0.18945312","-1.1875","1.09375","0.34375"
"1575566837838","845","0.056640625","-0.9902344","-0.19433594","-0.625","2.59375","0.53125"
"1575566837838","846","0.061523438","-0.9921875","-0.19335938","-2.21875","3.84375","-0.375"
"1575566837838","847","0.061523438","-0.99121094","-0.19726562","-1.59375","5.84375","-1.0"
"1575566837838","848","0.072265625","-0.98535156","-0.19921875","-1.71875","7.3125","-1.78125"
"1575566837839","849","0.07324219","-0.9736328","-0.2265625","2.4375","7.625","-2.9375"
"1575566838036","850","0.09375","-0.97558594","-0.19042969","0.53125","9.5","-3.3125"
"1575566838036","851","0.08496094","-0.9892578","-0.19921875","0.90625","6.03125","-4.40625"
"1575566838036","852","0.09375","-0.9863281","-0.21289062","1.6875","5.125","-3.90625"
"1575566838038","853","0.10449219","-0.9824219","-0.1953125","-4.34375","4.8125","-5.875"
"1575566838038","854","0.09472656","-1.0039062","-0.19628906","0.34375","3.53125","-5.5"
"1575566838039","855","0.09765625","-0.9824219","-0.20898438","-2.34375","1.9375","-2.34375"
"1575566838039","856","0.09863281","-0.9785156","-0.20214844","2.0","4.9375","-1.78125"
"1575566838039","857","0.10839844","-0.9609375","-0.20507812","2.3125","4.75","-2.53125"
"1575566838039","858","0.103515625","-0.99609375","-0.20898438","5.125","0.34375","-1.3125"
"1575566838040","859","0.0625","-0.9609375","-0.18847656","-0.1875","5.71875","-3.0"
"1575566838435","860","0.10253906","-1.0234375","-0.19824219","4.5625","5.40625","-1.53125"
"1575566838435","861","0.083984375","-0.9863281","-0.19726562","-0.4375","6.875","-3.125"
"1575566838435","862","0.109375","-0.9921875","-0.1953125","2.65625","8.71875","-0.3125"
"1575566838436","863","0.09375","-0.984375","-0.19140625","5.59375","6.875","-1.0"
"1575566838436","864","0.12597656","-0.9980469","-0.18945312","6.21875","6.15625","2.125"
"1575566838437","865","0.09863281","-0.9707031","-0.16894531","3.03125","2.78125","3.09375"
"1575566838438","866","0.09765625","-1.0146484","-0.15625","5.34375","2.1875","2.375"
"1575566838438","867","0.09375","-0.9892578","-0.14355469","1.03125","-1.25","1.375"
"1575566838438","868","0.055664062","-0.9863281","-0.13867188","4.0","-2.03125","0.65625"
"1575566838438","869","0.07128906","-0.99121094","-0.15234375","2.5","-0.4375","0.90625"
"1575566838832","870","0.109375","-1.0175781","-0.15820312","3.09375","1.09375","0.96875"
"1575566838832","871","0.068359375","-0.9951172","-0.140625","-0.0625","-0.3125","1.875"
"1575566838833","872","0.052734375","-0.9863281","-0.14160156","2.5625","1.21875","3.03125"
"1575566838833","873","0.055664062","-0.98828125","-0.14648438","-1.34375","3.71875","-0.4375"
"1575566838833","874","0.06542969","-1.0048828","-0.15625","-0.0625","6.28125","1.21875"
"1575566838833","875","0.09082031","-0.9980469","-0.13769531","-0.5625","6.5","1.3125"
"1575566838834","876","0.064453125","-0.9921875","-0.14941406","0.96875","5.59375","0.0"
"1575566838835","877","0.06640625","-1.0068359","-0.15429688","0.03125","6.9375","-0.6875"
"1575566838835","878","0.0703125","-1.0009766","-0.14648438","-1.125","7.5","-1.125"
"1575566838836","879","0.07128906","-1.0048828","-0.14453125","-2.34375","8.65625","-1.59375"
"1575566839230","880","0.07910156","-0.9921875","-0.14648438","-1.84375","7.75","-1.84375"
"1575566839230","881","0.078125","-1.0087891","-0.14746094","-1.71875","7.1875","-1.78125"
"1575566839230","882","0.09082031","-1.0078125","-0.14648438","-2.21875","7.75","-0.9375"
"1575566839231","883","0.07324219","-0.97265625","-0.15234375","-2.46875","6.8125","-2.03125"
"1575566839231","884","0.0703125","-1.0","-0.13574219","-3.4375","5.1875","-3.6875"
"1575566839231","885","0.06542969","-0.9951172","-0.15136719","-4.09375","5.96875","-5.625"
"1575566839231","886","0.09277344","-1.0107422","-0.18457031","-1.46875","2.71875","-3.4375"
"1575566839232","887","0.09667969","-0.9941406","-0.16210938","-4.84375","2.84375","-2.46875"
"1575566839232","888","0.07910156","-0.984375","-0.14550781","-6.53125","4.25","-1.59375"
"1575566839233","889","0.09375","-1.0009766","-0.17871094","-3.4375","4.625","-1.65625"
"1575566839626","890","0.11425781","-0.98535156","-0.16503906","-3.875","4.9375","-2.21875"
"1575566839626","891","0.08496094","-0.9863281","-0.16699219","-1.90625","2.5","-1.53125"
"1575566839626","892","0.078125","-0.9814453","-0.15332031","0.21875","2.90625","-1.1875"
"1575566839627","893","0.09667969","-0.98828125","-0.15917969","0.71875","2.65625","-1.71875"
"1575566839627","894","0.12207031","-0.9980469","-0.15917969","-0.8125","3.03125","-2.6875"
"1575566839627","895","0.095703125","-0.98535156","-0.15234375","-0.125","2.0","-3.125"
"1575566839627","896","0.099609375","-0.9921875","-0.16992188","1.03125","1.09375","-2.875"
"1575566839628","897","0.10644531","-0.98046875","-0.15917969","0.65625","0.53125","-1.84375"
"1575566839628","898","0.11328125","-0.9941406","-0.14941406","0.84375","1.21875","-2.03125"
"1575566839628","899","0.099609375","-1.0029297","-0.16210938","0.21875","-1.25","-2.28125"
"1575566840024","900","0.109375","-0.98828125","-0.15722656","1.15625","-0.625","-1.71875"
"1575566840026","901","0.11328125","-1.0048828","-0.15332031","-0.6875","-2.875","-1.90625"
"1575566840026","902","0.10253906","-0.9892578","-0.15917969","-0.4375","-2.21875","-1.71875"
"1575566840027","903","0.09082031","-0.9824219","-0.12792969","-2.21875","-2.03125","-1.96875"
"1575566840027","904","0.09863281","-1.0009766","-0.16210938","0.28125","-3.25","-1.46875"
"1575566840027","905","0.109375","-0.9980469","-0.15722656","-2.75","-2.53125","-1.125"
"1575566840028","906","0.10058594","-0.9902344","-0.15722656","-2.59375","-0.5625","-1.1875"
"1575566840028","907","0.08300781","-0.9863281","-0.15625","-1.25","-0.25","0.15625"
"1575566840028","908","0.10546875","-0.9921875","-0.15917969","-0.9375","2.0","0.71875"
"1575566840028","909","0.09667969","-0.99609375","-0.15820312","-1.3125","2.5","0.15625"
"1575566840422","910","0.10058594","-0.99121094","-0.16113281","-2.21875","1.9375","0.46875"
"1575566840423","911","0.08203125","-0.98828125","-0.1640625","-1.40625","2.4375","-0.625"
"1575566840423","912","0.099609375","-0.9902344","-0.16894531","-0.1875","2.125","-0.625"
"1575566840424","913","0.10644531","-0.99609375","-0.16308594","-1.71875","2.59375","-1.0625"
"1575566840425","914","0.10546875","-0.9970703","-0.16308594","-1.34375","1.28125","-1.3125"
"1575566840425","915","0.1171875","-0.9980469","-0.16015625","-0.9375","-1.59375","-0.6875"
"1575566840425","916","0.10644531","-1.0029297","-0.15917969","-2.46875","-3.625","-1.65625"
"1575566840425","917","0.09082031","-0.9980469","-0.17089844","-2.46875","-4.21875","-1.78125"
"1575566840426","918","0.08105469","-0.99121094","-0.15625","-2.9375","-3.25","-1.0"
"1575566840426","919","0.05859375","-0.9736328","-0.17578125","0.34375","-1.0625","-1.84375"
"1575566840819","920","0.0703125","-0.98828125","-0.14257812","-1.96875","3.28125","0.09375"
"1575566840820","921","0.08691406","-0.984375","-0.16308594","-2.21875","6.15625","-1.71875"
"1575566840820","922","0.109375","-1.0166016","-0.18261719","-0.6875","5.28125","-1.125"
"1575566840820","923","0.115234375","-0.9951172","-0.15820312","-3.875","4.625","-1.90625"
"1575566840821","924","0.0859375","-0.9863281","-0.15625","-4.28125","3.15625","-2.53125"
"1575566840822","925","0.083984375","-0.9873047","-0.16992188","-3.1875","3.28125","-2.28125"
"1575566840822","926","0.09667969","-0.9873047","-0.15429688","-8.4375","5.53125","-1.96875"
"1575566840823","927","0.08203125","-0.9716797","-0.1640625","-7.8125","9.75","-5.375"
"1575566840823","928","0.11328125","-0.9980469","-0.1875","-0.5625","7.84375","-2.03125"
"1575566840823","929","0.11621094","-0.9824219","-0.18359375","-2.40625","6.09375","-1.3125"
"1575566841217","930","0.125","-0.97753906","-0.16796875","-1.96875","4.875","-3.375"
"1575566841218","931","0.10546875","-0.98828125","-0.16503906","-3.375","3.40625","-4.90625"
"1575566841218","932","0.12402344","-0.99609375","-0.18554688","-3.6875","0.84375","-4.59375"
"1575566841219","933","0.10058594","-0.9951172","-0.18945312","-2.9375","1.28125","-3.125"
"1575566841219","934","0.11035156","-0.98535156","-0.19238281","-5.75","2.90625","-2.625"
"1575566841219","935","0.11035156","-0.99316406","-0.19238281","-5.5","3.28125","-1.96875"
"1575566841220","936","0.12695312","-0.9785156","-0.20605469","-3.0","5.1875","-1.1875"
"1575566841221","937","0.12988281","-0.9765625","-0.22363281","0.53125","3.78125","-0.625"
"1575566841222","938","0.13476562","-0.97753906","-0.18066406","-4.90625","2.59375","-1.3125"
"1575566841222","939","0.12109375","-0.9580078","-0.19433594","-0.875","1.15625","-1.34375"
"1575566841617","940","0.12792969","-1.0058594","-0.20898438","2.25","-1.25","-0.375"
"1575566841617","941","0.13574219","-0.9980469","-0.203125","-2.15625","-3.1875","0.09375"
"1575566841618","942","0.109375","-0.97558594","-0.18847656","-1.71875","-2.9375","-0.8125"
"1575566841618","943","0.12109375","-0.9814453","-0.19628906","3.59375","-4.21875","-1.125"
"1575566841618","944","0.10839844","-0.9980469","-0.18359375","11.75","-9.0625","0.40625"
"1575566841618","945","0.091796875","-0.9785156","-0.19140625","4.25","-6.25","0.65625"
"1575566841619","946","0.123046875","-0.9736328","-0.18847656","1.8125","-1.34375","-0.6875"
"1575566841619","947","0.123046875","-0.9892578","-0.19238281","-0.625","-3.90625","-1.1875"
"1575566841619","948","0.12695312","-1.0","-0.1953125","-3.0","-4.96875","-3.5625"
"1575566841620","949","0.11425781","-0.9863281","-0.17382812","-3.5625","-4.15625","-0.75"
"1575566842409","950","0.095703125","-0.96191406","-0.17382812","-0.9375","-1.40625","-0.5"
"1575566842410","951","0.103515625","-0.99609375","-0.19238281","2.71875","1.03125","2.1875"
"1575566842410","952","0.12011719","-1.0166016","-0.19628906","1.09375","2.65625","1.375"
"1575566842410","953","0.10253906","-0.97753906","-0.18164062","-3.0","1.3125","0.53125"
"1575566842411","954","0.09765625","-0.9824219","-0.18066406","-1.59375","0.59375","-0.3125"
"1575566842411","955","0.10449219","-0.9951172","-0.18457031","0.03125","0.03125","0.0"
"1575566842411","956","0.09765625","-0.9746094","-0.19726562","0.71875","-0.4375","1.21875"
"1575566842411","957","0.095703125","-0.9873047","-0.16308594","-0.9375","0.84375","2.65625"
"1575566842412","958","0.09863281","-0.9873047","-0.1953125","2.0","2.125","3.03125"
"1575566842412","959","0.09765625","-0.99902344","-0.18554688","-0.9375","2.3125","4.125"
"1575566842604","960","0.103515625","-0.9892578","-0.20019531","-1.34375","2.4375","3.71875"
"1575566842605","961","0.10839844","-0.984375","-0.1953125","-1.0625","2.25","4.0625"
"1575566842605","962","0.08984375","-0.98046875","-0.19433594","-0.3125","0.90625","3.21875"
"1575566842606","963","0.08984375","-0.9736328","-0.20019531","3.46875","1.5","3.59375"
"1575566842606","964","0.09472656","-0.9921875","-0.18554688","3.34375","1.5","3.34375"
"1575566842606","965","0.083984375","-0.99316406","-0.17382812","1.9375","-0.125","2.96875"
"1575566842606","966","0.043945312","-1.0019531","-0.15820312","1.4375","1.5625","1.625"
"1575566842607","967","0.049804688","-1.0126953","-0.14257812","-1.0","4.0625","0.53125"
"1575566842607","968","0.030273438","-1.0068359","-0.14550781","-2.9375","3.9375","-0.5"
"1575566842607","969","0.047851562","-0.9873047","-0.15136719","-1.84375","11.34375","-1.90625"
"1575566842808","970","0.080078125","-1.0019531","-0.16699219","-1.1875","8.15625","-1.96875"
"1575566842808","971","0.1015625","-0.99902344","-0.1640625","-2.28125","6.03125","-1.0"
"1575566842808","972","0.09277344","-0.9794922","-0.15039062","-1.53125","0.71875","-0.6875"
"1575566842809","973","0.08203125","-0.9970703","-0.16210938","0.09375","-1.0","-1.25"
"1575566842810","974","0.07519531","-0.9921875","-0.1796875","-0.6875","-2.9375","-1.53125"
"1575566842811","975","0.07324219","-0.9824219","-0.17480469","-0.375","-1.125","-2.875"
"1575566842811","976","0.06933594","-0.9980469","-0.15527344","-0.25","-1.0","-3.125"
"1575566842811","977","0.083984375","-1.0009766","-0.17773438","0.15625","-2.625","-3.375"
"1575566842811","978","0.08691406","-0.9892578","-0.18457031","-0.8125","-1.34375","-4.28125"
"1575566842812","979","0.087890625","-0.9941406","-0.16992188","-0.875","0.78125","-5.3125"
"1575566843204","980","0.111328125","-0.984375","-0.16894531","-2.21875","1.28125","-5.15625"
"1575566843205","981","0.09863281","-0.99609375","-0.17773438","-2.09375","-1.3125","-4.65625"
"1575566843205","982","0.08496094","-0.9863281","-0.17871094","-3.3125","-1.125","-4.15625"
"1575566843205","983","0.07324219","-0.9921875","-0.18261719","-3.96875","1.9375","-3.8125"
"1575566843205","984","0.08203125","-0.9628906","-0.18945312","-2.40625","8.53125","-3.0625"
"1575566843207","985","0.09375","-1.0019531","-0.18066406","-4.15625","13.09375","-1.46875"
"1575566843208","986","0.08984375","-0.96972656","-0.18847656","-1.59375","14.8125","-2.9375"
"1575566843208","987","0.13476562","-1.0029297","-0.18554688","-0.5625","12.3125","-1.25"
"1575566843209","988","0.11230469","-0.9824219","-0.18457031","-1.125","8.84375","-1.34375"
"1575566843209","989","0.08691406","-0.99121094","-0.15722656","-5.03125","6.09375","-2.21875"
"1575566843601","990","0.099609375","-0.9765625","-0.16992188","-4.09375","6.75","-2.625"
"1575566843601","991","0.095703125","-0.9814453","-0.171875","-2.9375","8.28125","-1.0"
"1575566843601","992","0.1015625","-0.97265625","-0.18164062","-1.0","6.5","-1.96875"
"1575566843602","993","0.08691406","-0.9892578","-0.19140625","-0.1875","4.6875","-0.6875"
"1575566843602","994","0.12109375","-1.0019531","-0.17578125","-1.0","6.875","-1.59375"
"1575566843602","995","0.11328125","-0.9794922","-0.18164062","0.28125","4.4375","-1.71875"
"1575566843602","996","0.11328125","-0.9785156","-0.18359375","2.0625","3.21875","-0.875"
"1575566843603","997","0.107421875","-0.96484375","-0.18359375","1.15625","6.15625","0.21875"
"1575566843604","998","0.11328125","-0.9873047","-0.19042969","3.90625","7.5","0.0"
"1575566843604","999","0.11621094","-0.98046875","-0.19042969","5.0625","8.59375","1.15625"
"1575566844395","1000","0.11328125","-1.0126953","-0.17089844","2.65625","5.34375","2.71875"
"1575566844396","1001","0.09863281","-0.96777344","-0.13964844","0.03125","8.59375","0.65625"
"1575566844396","1002","0.08984375","-1.0097656","-0.1484375","3.03125","3.71875","1.3125"
"1575566844397","1003","0.080078125","-1.0126953","-0.16308594","0.0","5.53125","-1.53125"
"1575566844397","1004","0.11328125","-1.0019531","-0.14257812","-4.46875","9.5","-2.59375"
"1575566844397","1005","0.080078125","-0.9707031","-0.14257812","-2.9375","10.40625","-2.21875"
"1575566844397","1006","0.109375","-0.9824219","-0.16210938","-0.0625","12.875","-1.125"
"1575566844398","1007","0.12890625","-0.99609375","-0.18261719","1.5","8.90625","-1.3125"
"1575566844398","1008","0.16601562","-0.9892578","-0.15820312","-0.75","7.1875","0.15625"
"1575566844400","1009","0.13183594","-0.9736328","-0.14160156","2.65625","1.3125","0.21875"
"1575566844592","1010","0.07519531","-1.0048828","-0.1484375","2.0625","-2.875","-0.375"
"1575566844593","1011","0.09082031","-1.0","-0.14550781","2.125","0.03125","0.96875"
"1575566844593","1012","0.0390625","-0.9736328","-0.115234375","-0.6875","1.8125","0.21875"
"1575566844593","1013","0.09277344","-1.0","-0.12792969","-0.125","9.09375","0.0"
"1575566844594","1014","0.12402344","-1.0253906","-0.14941406","-0.8125","5.28125","2.3125"
"1575566844594","1015","0.12109375","-0.9970703","-0.16308594","-2.28125","4.625","0.09375"
"1575566844594","1016","0.13183594","-0.99316406","-0.14550781","-2.15625","4.0","0.78125"
"1575566844594","1017","0.11816406","-0.9814453","-0.14941406","-0.75","-1.0625","0.90625"
"1575566844595","1018","0.08203125","-0.9785156","-0.14648438","-2.21875","-1.65625","-0.3125"
"1575566844595","1019","0.06347656","-0.9873047","-0.15625","-1.71875","0.65625","-0.9375"
"1575566844795","1020","0.072265625","-0.98828125","-0.15722656","-1.96875","2.65625","-0.5625"
"1575566844796","1021","0.08300781","-1.0048828","-0.17871094","-2.28125","5.1875","-1.53125"
"1575566844797","1022","0.13378906","-1.0175781","-0.16699219","-4.84375","6.09375","-2.53125"
"1575566844797","1023","0.15625","-1.0185547","-0.16503906","-6.4375","1.375","-3.125"
"1575566844797","1024","0.115234375","-0.9707031","-0.15722656","-5.625","-1.125","-2.75"
"1575566844798","1025","0.09863281","-0.9785156","-0.1640625","-2.9375","-2.53125","-1.46875"
"1575566844798","1026","0.09667969","-0.98339844","-0.15527344","-2.53125","-2.34375","-1.53125"
"1575566844798","1027","0.083984375","-0.9892578","-0.16015625","-1.65625","-2.03125","-1.90625"
"1575566844798","1028","0.11035156","-0.99121094","-0.18164062","-0.625","0.46875","-3.125"
"1575566844799","1029","0.107421875","-1.0048828","-0.16015625","-5.09375","-0.25","-4.46875"
"1575566845191","1030","0.10644531","-0.9746094","-0.17285156","-1.1875","2.0625","-5.5625"
"1575566845191","1031","0.11230469","-0.99609375","-0.17871094","-2.59375","1.9375","-3.6875"
"1575566845191","1032","0.1171875","-0.9814453","-0.1796875","-2.75","1.4375","-4.78125"
"1575566845192","1033","0.12011719","-0.9951172","-0.16992188","-1.34375","1.5625","-3.5"
"1575566845193","1034","0.10253906","-0.97753906","-0.16503906","-0.8125","0.09375","-1.65625"
"1575566845193","1035","0.095703125","-0.96191406","-0.16015625","-0.75","1.28125","0.0"
"1575566845193","1036","0.10644531","-0.9951172","-0.1875","2.0","1.6875","-0.375"
"1575566845193","1037","0.13867188","-1.0029297","-0.18066406","-1.25","0.84375","-0.4375"
"1575566845194","1038","0.10839844","-0.984375","-0.16796875","-1.25","-0.375","0.65625"
"1575566845194","1039","0.107421875","-0.98535156","-0.15234375","1.8125","-0.625","1.4375"
"1575566845589","1040","0.11328125","-0.99609375","-0.171875","4.5","-3.0625","2.90625"
"1575566845589","1041","0.10839844","-0.9980469","-0.15039062","0.0","-0.625","1.75"
"1575566845590","1042","0.11425781","-0.9794922","-0.15625","1.21875","0.34375","0.53125"
"1575566845590","1043","0.10839844","-0.99316406","-0.16503906","2.59375","-1.0625","0.46875"
"1575566845590","1044","0.11230469","-0.9951172","-0.16113281","2.1875","0.0","0.84375"
"1575566845591","1045","0.087890625","-0.9814453","-0.14746094","-1.0625","-1.25","1.375"
"1575566845592","1046","0.08886719","-0.9814453","-0.14550781","2.5625","2.65625","1.3125"
"1575566845592","1047","0.09765625","-0.9941406","-0.15234375","0.0","3.40625","0.21875"
"1575566845592","1048","0.111328125","-1.0087891","-0.18066406","3.21875","2.0","1.6875"
"1575566845593","1049","0.10253906","-1.0019531","-0.15234375","-1.125","0.21875","1.4375"
"1575566845986","1050","0.083984375","-0.9863281","-0.14550781","0.09375","1.75","0.65625"
"1575566845987","1051","0.08300781","-0.99121094","-0.14941406","0.65625","3.46875","0.15625"
"1575566845987","1052","0.109375","-1.0009766","-0.15234375","-1.0625","3.40625","0.78125"
"1575566845987","1053","0.10253906","-0.9970703","-0.15722656","-1.0625","3.9375","0.0"
"1575566845988","1054","0.10449219","-0.9941406","-0.15820312","-1.53125","2.0","-0.625"
"1575566845988","1055","0.08300781","-0.99316406","-0.15039062","-1.65625","1.5","-1.0625"
"1575566845988","1056","0.10253906","-0.9951172","-0.15917969","-1.96875","0.59375","-1.34375"
"1575566845990","1057","0.10546875","-0.9863281","-0.16113281","-1.1875","-1.65625","-0.5"
"1575566845990","1058","0.09082031","-1.0058594","-0.15234375","-1.84375","-3.375","1.03125"
"1575566845990","1059","0.076171875","-0.984375","-0.14355469","-2.21875","-1.65625","1.21875"
"1575566846780","1060","0.07128906","-0.9921875","-0.1328125","-5.5","1.28125","0.40625"
"1575566846781","1061","0.08203125","-0.9980469","-0.13671875","-6.53125","2.78125","-0.4375"
"1575566846781","1062","0.059570312","-1.0048828","-0.16015625","-6.3125","-1.65625","-0.625"
"1575566846781","1063","0.064453125","-0.9941406","-0.16699219","-3.8125","3.84375","-0.625"
"1575566846781","1064","0.09082031","-0.97265625","-0.12988281","-7.46875","5.71875","0.0"
"1575566846782","1065","0.064453125","-0.98535156","-0.18066406","0.90625","-0.6875","-0.4375"
"1575566846782","1066","0.06347656","-0.99121094","-0.18261719","1.21875","1.21875","0.34375"
"1575566846782","1067","0.07128906","-1.0048828","-0.16308594","-3.1875","9.09375","-0.6875"
"1575566846782","1068","0.09375","-0.9941406","-0.15820312","-5.4375","7.75","-1.0625"
"1575566846784","1069","0.109375","-0.9951172","-0.17773438","-3.8125","5.40625","-2.09375"
"1575566846978","1070","0.11230469","-1.0048828","-0.18652344","-4.65625","2.90625","-3.5625"
"1575566846979","1071","0.080078125","-0.9863281","-0.18554688","-6.84375","-2.09375","-4.59375"
"1575566846979","1072","0.083984375","-0.98046875","-0.18652344","-6.0625","0.28125","-4.65625"
"1575566846979","1073","0.095703125","-0.97265625","-0.1953125","-5.03125","2.3125","-4.46875"
"1575566846980","1074","0.10644531","-0.9951172","-0.18359375","-5.875","4.625","-4.46875"
"1575566846980","1075","0.11328125","-0.97558594","-0.2109375","-3.3125","2.96875","-5.25"
"1575566846980","1076","0.10839844","-0.98535156","-0.20117188","-4.65625","2.3125","-4.40625"
"1575566846980","1077","0.123046875","-0.984375","-0.19628906","-3.90625","0.84375","-2.6875"
"1575566846980","1078","0.123046875","-0.9892578","-0.19726562","-5.09375","-2.625","-2.03125"
"1575566846981","1079","0.087890625","-0.9707031","-0.22460938","0.15625","-1.84375","-2.8125"
"1575566847179","1080","0.10449219","-0.9921875","-0.20117188","-3.3125","2.1875","-1.59375"
"1575566847180","1081","0.109375","-0.97753906","-0.19726562","-4.28125","2.65625","-2.40625"
"1575566847181","1082","0.09277344","-0.98828125","-0.21289062","-2.59375","3.15625","-2.03125"
"1575566847181","1083","0.1328125","-0.99121094","-0.19335938","-7.34375","8.78125","-2.21875"
"1575566847182","1084","0.107421875","-0.95996094","-0.23535156","-0.125","4.1875","-3.875"
"1575566847182","1085","0.10839844","-1.0029297","-0.22558594","-1.90625","0.59375","-0.3125"
"1575566847182","1086","0.10839844","-0.97753906","-0.18261719","-5.03125","2.3125","0.21875"
"1575566847182","1087","0.115234375","-0.98828125","-0.203125","-1.90625","2.59375","0.40625"
"1575566847183","1088","0.12597656","-0.99121094","-0.20410156","-3.4375","3.84375","1.75"
"1575566847183","1089","0.111328125","-0.97265625","-0.20507812","-5.875","4.875","0.96875"
"1575566847576","1090","0.1328125","-0.98535156","-0.203125","-2.8125","2.4375","0.46875"
"1575566847576","1091","0.10253906","-0.97753906","-0.21191406","-3.3125","-2.46875","1.03125"
"1575566847576","1092","0.11328125","-0.97265625","-0.21875","-1.25","-2.03125","0.65625"
"1575566847578","1093","0.103515625","-1.0009766","-0.21875","-1.125","-3.5","0.34375"
"1575566847578","1094","0.099609375","-0.9794922","-0.22167969","-0.1875","-1.84375","2.125"
"1575566847579","1095","0.103515625","-0.97558594","-0.23046875","-1.125","-3.25","1.09375"
"1575566847579","1096","0.09765625","-0.99121094","-0.22167969","3.46875","0.65625","1.875"
"1575566847579","1097","0.076171875","-0.9628906","-0.21777344","-0.4375","1.28125","1.3125"
"1575566847580","1098","0.111328125","-0.98046875","-0.22363281","4.4375","1.625","2.5625"
"1575566847580","1099","0.091796875","-0.9951172","-0.22460938","1.21875","0.21875","0.09375"
"1575566847975","1100","0.09277344","-1.0048828","-0.22167969","1.6875","1.21875","1.03125"
"1575566847975","1101","0.08984375","-0.9902344","-0.20019531","0.0","-0.125","0.03125"
"1575566847975","1102","0.0859375","-0.9951172","-0.20800781","-0.0625","-1.0","0.03125"
"1575566847976","1103","0.07910156","-0.99609375","-0.1953125","-0.5","0.40625","-1.40625"
"1575566847976","1104","0.078125","-0.9785156","-0.19726562","-1.0625","0.34375","-1.96875"
"1575566847977","1105","0.07324219","-0.9902344","-0.19824219","-0.375","1.28125","-1.3125"
"1575566847978","1106","0.076171875","-0.9941406","-0.1875","-1.40625","1.9375","-1.65625"
"1575566847978","1107","0.091796875","-0.98339844","-0.19335938","0.09375","3.65625","-1.78125"
"1575566847978","1108","0.08984375","-0.9824219","-0.20703125","0.34375","2.375","-1.78125"
"1575566847978","1109","0.10058594","-0.9902344","-0.20605469","0.09375","4.1875","-1.84375"
"1575566848372","1110","0.10058594","-0.9765625","-0.20214844","-0.5625","5.40625","-4.78125"
"1575566848373","1111","0.15917969","-0.9941406","-0.19824219","2.5","2.3125","-3.875"
"1575566848373","1112","0.07910156","-0.97558594","-0.1875","-5.375","-2.46875","-6.4375"
"1575566848373","1113","0.12011719","-0.984375","-0.21582031","0.0","0.34375","-3.4375"
"1575566848373","1114","0.053710938","-0.98828125","-0.19238281","-4.15625","-0.5625","-4.53125"
"1575566848374","1115","0.111328125","-0.97558594","-0.23339844","0.84375","6.09375","-1.1875"
"1575566848374","1116","0.107421875","-0.99121094","-0.18945312","-3.875","3.71875","-0.4375"
"1575566848375","1117","0.07910156","-0.96484375","-0.20605469","2.90625","5.34375","-0.8125"
"1575566848376","1118","0.13671875","-1.0048828","-0.2109375","1.09375","7.375","-1.0625"
"1575566848376","1119","0.12890625","-0.97753906","-0.203125","-2.75","2.71875","0.34375"
"1575566848770","1120","0.10839844","-0.9707031","-0.20605469","1.6875","2.5","-0.1875"
"1575566848770","1121","0.08984375","-0.99609375","-0.21875","2.65625","5.0625","-1.46875"
"1575566848770","1122","0.076171875","-0.99121094","-0.20410156","4.0","7.375","0.03125"
"1575566848771","1123","0.16601562","-0.98046875","-0.18261719","4.5625","6.46875","-0.625"
"1575566848771","1124","0.09765625","-0.98828125","-0.17675781","4.6875","-2.03125","0.46875"
"1575566848771","1125","0.10546875","-0.9941406","-0.15917969","4.3125","-2.09375","2.78125"
"1575566848771","1126","0.080078125","-0.9863281","-0.19628906","7.0625","-1.78125","2.65625"
"1575566848772","1127","0.12011719","-0.99609375","-0.20410156","4.0625","0.21875","0.78125"
"1575566848772","1128","0.080078125","-0.9746094","-0.18164062","0.0","3.03125","2.3125"
"1575566848773","1129","0.080078125","-0.97265625","-0.16601562","4.0625","8.28125","1.4375"
"1575566849363","1130","0.10449219","-1.0205078","-0.1796875","5.34375","3.53125","1.21875"
"1575566849364","1131","0.09472656","-0.98339844","-0.17675781","5.0625","4.1875","0.65625"
"1575566849364","1132","0.095703125","-0.99316406","-0.14453125","0.84375","2.71875","0.0"
"1575566849364","1133","0.091796875","-0.99121094","-0.16796875","5.34375","0.40625","-0.25"
"1575566849365","1134","0.10253906","-1.0166016","-0.14941406","1.3125","3.03125","2.5625"
"1575566849365","1135","0.08984375","-0.99902344","-0.14355469","0.40625","4.5625","2.3125"
"1575566849365","1136","0.08496094","-1.0048828","-0.12988281","-1.3125","3.53125","2.4375"
"1575566849366","1137","0.044921875","-0.9980469","-0.13378906","-3.1875","4.625","2.125"
"1575566849366","1138","0.057617188","-0.984375","-0.123046875","-5.25","8.53125","-0.75"
"1575566849366","1139","0.07324219","-1.0058594","-0.14746094","-1.125","6.28125","0.03125"
"1575566849563","1140","0.06738281","-0.99609375","-0.14160156","-1.71875","5.34375","0.84375"
"1575566849565","1141","0.055664062","-0.984375","-0.15429688","1.3125","4.125","-0.25"
"1575566849565","1142","0.05859375","-1.0078125","-0.15625","2.90625","5.53125","0.96875"
"1575566849565","1143","0.08203125","-1.0078125","-0.14453125","-0.75","7.1875","0.84375"
"1575566849565","1144","0.09277344","-1.0","-0.13378906","-1.96875","8.65625","0.09375"
"1575566849566","1145","0.08886719","-0.9609375","-0.123046875","-5.25","8.40625","-2.8125"
"1575566849566","1146","0.07128906","-0.98828125","-0.14550781","-5.625","6.40625","-3.75"
"1575566849566","1147","0.076171875","-1.0195312","-0.15917969","-5.875","8.96875","-5.5"
"1575566849566","1148","0.11425781","-1.0039062","-0.19335938","-4.90625","1.9375","-4.34375"
"1575566849567","1149","0.11816406","-0.97265625","-0.19433594","-0.8125","-1.78125","-1.46875"
"1575566850157","1150","0.0859375","-0.98828125","-0.14941406","-3.875","0.09375","0.65625"
"1575566850157","1151","0.076171875","-0.9785156","-0.1484375","1.75","1.4375","1.5"
"1575566850157","1152","0.078125","-0.9902344","-0.15039062","-0.8125","0.84375","0.90625"
"1575566850159","1153","0.09082031","-1.0097656","-0.17675781","-1.90625","0.84375","-2.59375"
"1575566850159","1154","0.09863281","-1.0039062","-0.16308594","-1.34375","-1.0625","-2.34375"
"1575566850160","1155","0.08496094","-0.98828125","-0.17675781","0.96875","-2.53125","-1.71875"
"1575566850160","1156","0.076171875","-0.9746094","-0.14550781","-1.34375","1.9375","-1.96875"
"1575566850160","1157","0.07714844","-0.98828125","-0.15625","-0.25","2.96875","-1.71875"
"1575566850160","1158","0.083984375","-1.0019531","-0.17285156","0.03125","4.1875","-1.59375"
"1575566850161","1159","0.10839844","-1.0009766","-0.16503906","-2.34375","3.84375","-1.53125"
"1575566850360","1160","0.091796875","-0.97753906","-0.15820312","-1.25","3.84375","-2.6875"
"1575566850360","1161","0.07714844","-0.9902344","-0.15820312","2.65625","2.65625","-2.09375"
"1575566850361","1162","0.0859375","-1.0039062","-0.15917969","1.03125","2.65625","-0.5625"
"1575566850361","1163","0.10449219","-0.9892578","-0.14648438","-1.125","2.65625","-1.34375"
"1575566850361","1164","0.091796875","-0.97753906","-0.14941406","1.5","1.6875","-0.5625"
"1575566850362","1165","0.1015625","-1.0","-0.16113281","0.65625","1.75","0.21875"
"1575566850363","1166","0.080078125","-0.9667969","-0.17578125","2.0","2.84375","-0.1875"
"1575566850363","1167","0.076171875","-0.9951172","-0.13183594","-3.4375","7.84375","0.15625"
"1575566850363","1168","0.07128906","-0.9863281","-0.15332031","-0.5","5.96875","0.71875"
"1575566850364","1169","0.08984375","-1.0126953","-0.18066406","2.65625","3.90625","3.21875"
"1575566850956","1170","0.1015625","-1.0068359","-0.17089844","-1.40625","1.75","2.25"
"1575566850956","1171","0.083984375","-0.99121094","-0.14257812","-4.59375","3.46875","-0.3125"
"1575566850957","1172","0.08300781","-0.99121094","-0.15429688","-1.34375","1.9375","-1.25"
"1575566850957","1173","0.087890625","-0.98535156","-0.15429688","-2.21875","1.28125","-2.34375"
"1575566850957","1174","0.099609375","-0.9951172","-0.14941406","-0.25","0.90625","-2.46875"
"1575566850958","1175","0.083984375","-0.99316406","-0.13964844","-0.375","-0.0625","-2.03125"
"1575566850958","1176","0.08105469","-0.9824219","-0.14941406","1.5625","-0.1875","-1.3125"
"1575566850960","1177","0.107421875","-0.9892578","-0.1484375","1.3125","-0.25","-1.71875"
"1575566850960","1178","0.10058594","-1.0126953","-0.1484375","1.4375","-1.0625","-1.34375"
"1575566850960","1179","0.06347656","-0.99121094","-0.1328125","0.59375","-2.28125","-0.5"
"1575566851153","1180","0.07324219","-0.9785156","-0.140625","1.3125","1.8125","-1.71875"
"1575566851154","1181","0.09472656","-1.0068359","-0.15136719","-0.25","1.9375","-2.40625"
"1575566851154","1182","0.10546875","-0.9970703","-0.14746094","0.0","2.65625","-2.6875"
"1575566851154","1183","0.072265625","-0.99316406","-0.13867188","-3.0625","0.03125","-2.28125"
"1575566851155","1184","0.09375","-1.0087891","-0.14453125","-0.125","2.1875","-1.1875"
"1575566851155","1185","0.111328125","-1.0019531","-0.1328125","-4.21875","0.78125","-3.5625"
"1575566851155","1186","0.080078125","-0.9794922","-0.16015625","-0.6875","-0.25","-5.21875"
"1575566851155","1187","0.099609375","-1.0048828","-0.16015625","-1.125","2.1875","-3.3125"
"1575566851156","1188","0.103515625","-0.984375","-0.15332031","-2.46875","1.6875","-3.25"
"1575566851157","1189","0.09667969","-0.99121094","-0.14160156","-2.53125","3.15625","-3.875"
"1575566851553","1190","0.09277344","-0.99609375","-0.13574219","-3.125","1.3125","-3.125"
"1575566851554","1191","0.09765625","-0.99316406","-0.15527344","-4.09375","1.03125","-4.71875"
"1575566851554","1192","0.11035156","-0.99121094","-0.15332031","-5.75","1.28125","-4.40625"
"1575566851554","1193","0.103515625","-1.0029297","-0.14453125","-7.8125","1.625","-5.3125"
"1575566851555","1194","0.07519531","-1.0","-0.15332031","-7.21875","2.84375","-4.90625"
"1575566851555","1195","0.11328125","-1.0009766","-0.17089844","-6.0625","4.9375","-4.21875"
"1575566851555","1196","0.1015625","-0.97753906","-0.19140625","-6.78125","-0.375","-3.125"
"1575566851555","1197","0.0625","-0.9501953","-0.1640625","-7.09375","8.40625","-4.53125"
"1575566851556","1198","0.10839844","-0.9863281","-0.17285156","-7.875","15.4375","-7.03125"
"1575566851556","1199","0.13476562","-1.0","-0.18261719","-4.78125","12.0","-6.0625"
"1575566852345","1200","0.18164062","-1.0078125","-0.2109375","-2.34375","7.5","-2.8125"
"1575566852347","1201","0.14746094","-0.9501953","-0.1953125","-2.34375","2.25","0.0"
"1575566852348","1202","0.1796875","-0.9716797","-0.16796875","0.65625","-2.03125","-1.1875"
"1575566852348","1203","0.12109375","-0.9638672","-0.17285156","1.9375","-5.75","-0.375"
"1575566852348","1204","0.14160156","-1.015625","-0.19628906","1.5625","-4.59375","1.375"
"1575566852349","1205","0.11425781","-1.0214844","-0.20117188","-4.96875","-8.5625","0.40625"
"1575566852349","1206","0.11328125","-0.9736328","-0.19335938","-11.71875","-3.96875","1.6875"
"1575566852349","1207","0.109375","-0.96191406","-0.20605469","-7.46875","-0.375","0.65625"
"1575566852350","1208","0.15429688","-0.97558594","-0.19824219","-6.375","2.78125","-0.6875"
"1575566852350","1209","0.14648438","-0.9902344","-0.22265625","-4.46875","-0.6875","0.78125"
"1575566852541","1210","0.11425781","-0.98535156","-0.22460938","-3.5","-6.3125","0.71875"
"1575566852541","1211","0.07519531","-0.9765625","-0.21386719","-0.3125","-3.96875","-1.84375"
"1575566852541","1212","0.125","-0.9951172","-0.20410156","1.09375","-0.6875","-0.375"
"1575566852542","1213","0.13574219","-1.0214844","-0.23144531","8.65625","-4.03125","0.96875"
"1575566852542","1214","0.119140625","-1.0273438","-0.21972656","-2.28125","-3.90625","0.53125"
"1575566852542","1215","0.10644531","-0.9394531","-0.17089844","-1.34375","-0.9375","0.34375"
"1575566852543","1216","0.109375","-0.95703125","-0.18164062","2.78125","1.3125","1.3125"
"1575566852543","1217","0.12109375","-0.9941406","-0.20605469","-0.6875","2.5","0.0"
"1575566852543","1218","0.08886719","-0.96972656","-0.18945312","-5.375","0.15625","-1.53125"
"1575566852543","1219","0.111328125","-0.99316406","-0.22949219","1.4375","0.40625","-1.71875"
"1575566852743","1220","0.12109375","-0.9638672","-0.16113281","-3.0625","-2.03125","-1.0625"
"1575566852744","1221","0.103515625","-0.96875","-0.2109375","0.09375","-1.3125","-0.875"
"1575566852744","1222","0.109375","-0.984375","-0.19140625","-1.34375","-0.5","1.21875"
"1575566852744","1223","0.107421875","-0.98339844","-0.19042969","-1.84375","2.65625","2.0"
"1575566852744","1224","0.09863281","-0.9658203","-0.19628906","1.15625","2.0625","2.5"
"1575566852746","1225","0.10644531","-1.0019531","-0.21484375","0.0","3.03125","1.5625"
"1575566852746","1226","0.11035156","-0.9736328","-0.21289062","2.59375","-1.1875","3.21875"
"1575566852746","1227","0.1015625","-1.0","-0.20214844","-2.8125","1.3125","2.78125"
"1575566852746","1228","0.09472656","-0.9628906","-0.20703125","0.28125","0.03125","3.21875"
"1575566852747","1229","0.09667969","-0.9824219","-0.20605469","0.96875","2.78125","4.75"
"1575566853141","1230","0.07714844","-0.97265625","-0.20507812","-0.5","1.15625","3.03125"
"1575566853141","1231","0.11230469","-1.0097656","-0.20996094","1.5","1.3125","3.71875"
"1575566853141","1232","0.10058594","-0.9980469","-0.20214844","-1.78125","-2.625","2.71875"
"1575566853142","1233","0.05078125","-0.97753906","-0.19140625","-3.0","-2.75","0.53125"
"1575566853142","1234","0.08691406","-1.0146484","-0.18066406","0.46875","-1.34375","-0.875"
"1575566853142","1235","0.059570312","-0.9794922","-0.1875","-2.40625","-4.09375","-1.40625"
"1575566853142","1236","0.057617188","-0.9980469","-0.1875","-2.59375","-0.3125","-1.1875"
"1575566853143","1237","0.056640625","-0.9941406","-0.18359375","-3.5","-0.625","-2.28125"
"1575566853144","1238","0.05859375","-0.98828125","-0.19335938","-3.25","2.84375","-1.46875"
"1575566853144","1239","0.07910156","-0.9941406","-0.20019531","-1.34375","0.34375","-1.46875"
"1575566853735","1240","0.07421875","-0.9863281","-0.19824219","-3.0625","4.6875","-2.53125"
"1575566853735","1241","0.09277344","-0.9794922","-0.20703125","-0.1875","4.3125","-2.875"
"1575566853736","1242","0.103515625","-0.9902344","-0.21191406","0.09375","5.46875","-2.59375"
"1575566853736","1243","0.119140625","-0.97558594","-0.20996094","-1.46875","4.375","-4.53125"
"1575566853736","1244","0.12109375","-0.9902344","-0.21972656","4.0","2.71875","-5.03125"
"1575566853737","1245","0.045898438","-0.9550781","-0.17871094","-5.875","-0.6875","-8.0625"
"1575566853737","1246","0.119140625","-0.984375","-0.21875","6.21875","3.65625","-5.75"
"1575566853737","1247","0.11035156","-1.0117188","-0.20996094","1.625","3.78125","-2.59375"
"1575566853737","1248","0.08886719","-0.9609375","-0.19628906","0.28125","4.0","-3.6875"
"1575566853739","1249","0.07714844","-0.984375","-0.19921875","3.03125","7.125","0.03125"
"1575566853936","1250","0.12109375","-0.9794922","-0.18554688","1.15625","10.71875","-2.46875"
"1575566853937","1251","0.14257812","-1.0322266","-0.203125","4.0","4.0","-0.3125"
"1575566853937","1252","0.047851562","-0.95703125","-0.19628906","0.90625","7.125","-1.65625"
"1575566853937","1253","0.16601562","-1.0019531","-0.17871094","4.875","8.59375","1.3125"
"1575566853938","1254","0.07324219","-0.97265625","-0.16699219","-1.96875","4.375","-2.46875"
"1575566853938","1255","0.11035156","-0.99121094","-0.19726562","5.65625","6.5625","0.84375"
"1575566853938","1256","0.09277344","-1.0039062","-0.18945312","1.875","6.5625","-0.1875"
"1575566853938","1257","0.10546875","-0.9824219","-0.16503906","1.09375","6.15625","-0.1875"
"1575566853939","1258","0.12402344","-0.9921875","-0.18066406","2.65625","4.4375","2.1875"
"1575566853939","1259","0.10253906","-0.9873047","-0.16210938","0.21875","3.46875","1.8125"
"1575566854335","1260","0.10449219","-0.98828125","-0.18359375","1.625","3.71875","2.65625"
"1575566854337","1261","0.09472656","-0.98535156","-0.17773438","0.0","2.4375","2.5"
"1575566854337","1262","0.10839844","-0.9765625","-0.15820312","1.09375","1.3125","4.4375"
"1575566854337","1263","0.12890625","-1.0195312","-0.15332031","4.9375","-4.03125","3.59375"
"1575566854337","1264","0.053710938","-0.9980469","-0.13671875","-0.3125","-8.0","2.96875"
"1575566854338","1265","0.029296875","-1.0009766","-0.13476562","0.59375","-3.625","0.0"
"1575566854338","1266","0.015625","-1.0019531","-0.15625","0.28125","4.4375","-1.3125"
"1575566854338","1267","0.06542969","-0.9736328","-0.1484375","3.65625","13.03125","2.96875"
"1575566854338","1268","0.095703125","-1.0058594","-0.14453125","2.71875","12.5","5.78125"
"1575566854339","1269","0.07714844","-1.0126953","-0.14257812","4.25","14.15625","8.59375"
"1575566854928","1270","0.080078125","-0.98828125","-0.119140625","-1.34375","12.0","8.15625"
"1575566854928","1271","0.07128906","-0.96191406","-0.140625","3.21875","8.46875","9.6875"
"1575566854929","1272","0.068359375","-1.0068359","-0.140625","5.0","2.71875","14.5"
"1575566854930","1273","0.08691406","-0.98828125","-0.12792969","3.90625","1.4375","16.53125"
"1575566854931","1274","0.032226562","-0.99316406","-0.13476562","8.78125","-1.65625","18.1875"
"1575566854931","1275","0.02734375","-1.0029297","-0.111328125","5.53125","0.03125","20.1875"
"1575566854931","1276","-0.018554688","-0.9628906","-0.09375","7.0625","-0.375","19.6875"
"1575566854932","1277","-0.001953125","-0.9716797","-0.09472656","13.71875","0.78125","20.75"
"1575566854932","1278","-0.020507812","-1.0019531","-0.080078125","12.875","-0.875","19.5625"
"1575566854932","1279","-0.01953125","-1.0019531","-0.091796875","13.09375","-3.125","15.84375"
