"# PR data"
"# Start time: 20191119T215557"
"# Subject: diana"
"# Activity type: Knee extension"
"# Correctness: Correct"
"# Notes: "
""
"timestamp","seq","accel_x","accel_y","accel_z","gyro_x","gyro_y","gyro_z"
"1574200557404","0","0.4267578","-0.9013672","-0.021484375","0.96875","2.0","-0.8125"
"1574200557405","1","0.42382812","-0.8964844","-0.017578125","1.21875","3.03125","-0.375"
"1574200557405","2","0.42773438","-0.9003906","-0.028320312","0.0","2.78125","-0.8125"
"1574200557405","3","0.4267578","-0.89941406","-0.02734375","-0.5625","2.375","-1.25"
"1574200557406","4","0.42773438","-0.8984375","-0.020507812","-0.875","3.34375","-1.40625"
"1574200557406","5","0.42773438","-0.9013672","-0.013671875","-1.53125","3.15625","-1.84375"
"1574200557406","6","0.43066406","-0.8984375","-0.01171875","-2.8125","1.3125","-3.125"
"1574200557407","7","0.43066406","-0.88671875","-0.02734375","-1.3125","0.59375","-3.96875"
"1574200557407","8","0.42578125","-0.8847656","-0.016601562","1.3125","1.5625","-5.15625"
"1574200557408","9","0.4296875","-0.8886719","-0.0234375","-1.25","0.59375","-4.90625"
"1574200557802","10","0.4423828","-0.89746094","-0.018554688","4.0625","1.875","-3.90625"
"1574200557803","11","0.44628906","-0.8955078","-0.0048828125","1.03125","-1.65625","-7.40625"
"1574200557803","12","0.44335938","-0.8808594","0.001953125","5.46875","-0.4375","-9.0"
"1574200557805","13","0.44140625","-0.87109375","-0.009765625","6.03125","-2.28125","-12.90625"
"1574200557805","14","0.43066406","-0.9189453","0.018554688","4.5","-2.8125","-13.1875"
"1574200557805","15","0.44335938","-0.9042969","0.0146484375","2.0","-3.0625","-15.40625"
"1574200557805","16","0.45898438","-0.9121094","-0.016601562","-2.59375","-5.21875","-16.4375"
"1574200557806","17","0.49609375","-0.9111328","-0.01171875","-8.8125","-7.71875","-17.46875"
"1574200557806","18","0.50097656","-0.8652344","-0.030273438","-13.625","-11.0","-18.625"
"1574200557806","19","0.52734375","-0.859375","-0.03515625","-22.40625","-16.5","-18.09375"
"1574200558201","20","0.53125","-0.8046875","-0.068359375","-25.65625","-22.0","-21.25"
"1574200558202","21","0.5019531","-0.77246094","-0.07421875","-13.125","-14.46875","-12.59375"
"1574200558202","22","0.5654297","-0.8535156","-0.091796875","-8.3125","-9.125","-11.3125"
"1574200558202","23","0.55371094","-0.8417969","-0.09765625","-10.15625","-11.1875","-11.84375"
"1574200558203","24","0.57421875","-0.8535156","-0.11035156","-12.78125","-6.0","-9.0"
"1574200558204","25","0.55859375","-0.80078125","-0.12695312","-15.75","-10.03125","-9.53125"
"1574200558204","26","0.55566406","-0.8095703","-0.14746094","-8.5625","-2.59375","-3.6875"
"1574200558205","27","0.56347656","-0.8017578","-0.15039062","-11.3125","-1.53125","-2.40625"
"1574200558205","28","0.5957031","-0.8261719","-0.16894531","-6.5","-3.90625","-3.0625"
"1574200558205","29","0.5839844","-0.8232422","-0.16015625","-5.9375","-5.5625","0.03125"
"1574200558597","30","0.58984375","-0.8027344","-0.16503906","-4.65625","-7.8125","5.21875"
"1574200558597","31","0.51953125","-0.78027344","-0.15234375","9.09375","-5.5625","6.46875"
"1574200558597","32","0.5341797","-0.77734375","-0.18359375","10.3125","-2.8125","9.5"
"1574200558598","33","0.5361328","-0.7890625","-0.15039062","14.75","0.09375","6.9375"
"1574200558598","34","0.53222656","-0.8076172","-0.12988281","24.40625","-0.6875","4.6875"
"1574200558598","35","0.56152344","-0.9013672","-0.0859375","23.3125","4.875","6.5625"
"1574200558598","36","0.4970703","-0.9003906","-0.06542969","25.375","1.15625","7.0"
"1574200558600","37","0.54589844","-0.8564453","-0.051757812","22.3125","-8.75","4.5625"
"1574200558601","38","0.48339844","-0.8466797","-0.08691406","16.84375","-5.15625","7.375"
"1574200558601","39","0.49902344","-0.8222656","-0.087890625","16.34375","-8.375","5.0625"
"1574200558994","40","0.50390625","-0.8623047","-0.09277344","12.5625","-4.65625","3.34375"
"1574200558994","41","0.5341797","-0.8964844","-0.068359375","7.0625","-5.75","0.21875"
"1574200558995","42","0.5185547","-0.875","-0.109375","-4.21875","-3.4375","-0.375"
"1574200558995","43","0.5136719","-0.8486328","-0.1015625","-9.65625","-3.8125","-1.84375"
"1574200558995","44","0.51171875","-0.85839844","-0.1171875","-9.90625","-0.3125","-1.1875"
"1574200558995","45","0.5058594","-0.8535156","-0.08886719","-7.9375","2.375","-1.1875"
"1574200558995","46","0.5136719","-0.8486328","-0.11230469","-5.21875","0.59375","-1.78125"
"1574200558996","47","0.49902344","-0.8339844","-0.10253906","-8.4375","0.90625","-3.4375"
"1574200558996","48","0.515625","-0.875","-0.09765625","-3.5","2.90625","-0.75"
"1574200558997","49","0.5126953","-0.8378906","-0.1328125","-6.3125","0.59375","-2.21875"
"1574200559392","50","0.5292969","-0.8691406","-0.10058594","-6.59375","2.3125","-1.59375"
"1574200559393","51","0.4970703","-0.859375","-0.10058594","-9.65625","2.90625","-0.5625"
"1574200559393","52","0.5107422","-0.81933594","-0.12792969","-6.0625","4.6875","-2.09375"
"1574200559393","53","0.5126953","-0.8671875","-0.12207031","-5.375","9.75","-1.71875"
"1574200559393","54","0.52734375","-0.7871094","-0.16015625","-4.84375","3.84375","-5.21875"
"1574200559394","55","0.53125","-0.8613281","-0.13671875","-10.34375","7.5","-2.75"
"1574200559394","56","0.51464844","-0.8251953","-0.13378906","-3.0","6.8125","-5.03125"
"1574200559394","57","0.52441406","-0.8515625","-0.12207031","-3.25","9.5","-1.1875"
"1574200559394","58","0.515625","-0.8486328","-0.10644531","7.8125","12.75","2.65625"
"1574200559395","59","0.43359375","-0.80371094","-0.12988281","13.03125","10.375","3.46875"
"1574200559790","60","0.62402344","-0.8574219","-0.13671875","4.3125","11.9375","-1.78125"
"1574200559792","61","0.50390625","-0.80078125","-0.08105469","5.21875","12.0625","2.125"
"1574200559792","62","0.5488281","-0.8486328","-0.09082031","5.21875","9.5625","-1.125"
"1574200559792","63","0.51464844","-0.87597656","-0.034179688","6.875","12.875","3.21875"
"1574200559793","64","0.49121094","-0.85253906","-0.052734375","9.25","12.375","4.9375"
"1574200559793","65","0.49121094","-0.86621094","-0.029296875","8.46875","14.15625","9.03125"
"1574200559793","66","0.49609375","-0.8408203","-0.06347656","2.5","8.90625","6.5625"
"1574200559794","67","0.4873047","-0.9003906","-9.765625E-4","4.5625","15.84375","9.6875"
"1574200559794","68","0.5263672","-0.84765625","-0.0546875","-3.625","5.0625","1.5625"
"1574200559794","69","0.5078125","-0.85253906","-0.051757812","-9.40625","8.96875","0.09375"
"1574200560187","70","0.515625","-0.9003906","-0.040039062","-11.5","7.4375","-2.15625"
"1574200560188","71","0.5126953","-0.83203125","-0.033203125","-17.40625","5.71875","-0.8125"
"1574200560188","72","0.48535156","-0.92578125","-0.02734375","-17.84375","9.1875","0.78125"
"1574200560189","73","0.47265625","-0.82910156","-0.045898438","-8.125","3.28125","5.21875"
"1574200560190","74","0.48339844","-0.890625","-0.057617188","-15.53125","4.9375","4.375"
"1574200560190","75","0.4580078","-0.92089844","-0.05859375","-18.5","2.4375","7.8125"
"1574200560190","76","0.42382812","-0.8691406","-0.047851562","-16.375","1.28125","8.59375"
"1574200560190","77","0.4248047","-0.8857422","-0.09667969","-19.0","3.59375","9.5"
"1574200560191","78","0.4453125","-0.84277344","-0.11816406","-10.4375","3.53125","12.875"
"1574200560191","79","0.45703125","-0.91308594","-0.08300781","0.28125","6.5625","11.71875"
"1574200560979","80","0.44433594","-0.921875","-0.08691406","-7.15625","3.46875","7.8125"
"1574200560980","81","0.47265625","-0.8535156","-0.13574219","-10.625","-1.125","0.46875"
"1574200560980","82","0.45410156","-0.9375","-0.1171875","-24.5","-11.125","-2.21875"
"1574200560980","83","0.44433594","-0.88964844","-0.16015625","-31.6875","-15.09375","-4.53125"
"1574200560980","84","0.4658203","-0.8652344","-0.1796875","-26.5","-11.25","-5.9375"
"1574200560981","85","0.43945312","-0.890625","-0.17578125","-16.5625","-8.5","-4.09375"
"1574200560982","86","0.42871094","-0.8730469","-0.18164062","-15.9375","-4.65625","-3.96875"
"1574200560982","87","0.4482422","-0.84472656","-0.20410156","-8.4375","-2.09375","-4.71875"
"1574200560982","88","0.44921875","-0.85546875","-0.20800781","-5.9375","0.65625","-3.25"
"1574200560983","89","0.43847656","-0.90527344","-0.20507812","-9.125","0.03125","-2.46875"
"1574200561178","90","0.45898438","-0.87402344","-0.234375","-16.375","0.46875","-1.40625"
"1574200561179","91","0.45214844","-0.8876953","-0.2529297","-5.3125","9.625","0.40625"
"1574200561179","92","0.44140625","-0.859375","-0.23535156","-3.75","10.40625","4.1875"
"1574200561179","93","0.43554688","-0.79296875","-0.265625","-1.46875","9.875","4.0625"
"1574200561180","94","0.45410156","-0.8876953","-0.23242188","0.15625","10.25","5.34375"
"1574200561180","95","0.4296875","-0.86328125","-0.22070312","10.71875","17.1875","11.03125"
"1574200561180","96","0.44726562","-0.9316406","-0.17578125","12.25","18.40625","14.3125"
"1574200561181","97","0.40820312","-0.89746094","-0.16992188","15.65625","25.125","21.59375"
"1574200561182","98","0.38183594","-0.91308594","-0.14453125","12.25","25.875","27.03125"
"1574200561182","99","0.37109375","-0.890625","-0.13671875","5.59375","15.71875","22.125"
"1574200561380","100","0.39648438","-0.88671875","-0.1171875","9.8125","9.125","23.0625"
"1574200561381","101","0.37695312","-0.9140625","-0.115234375","11.15625","12.375","14.15625"
"1574200561381","102","0.38964844","-0.95214844","-0.119140625","14.15625","16.28125","10.0625"
"1574200561381","103","0.39648438","-0.9267578","-0.12402344","4.0","8.84375","2.84375"
"1574200561381","104","0.38964844","-0.9296875","-0.14746094","-2.53125","5.1875","-1.59375"
"1574200561382","105","0.38476562","-0.9267578","-0.140625","-7.40625","2.5","-4.03125"
"1574200561382","106","0.38671875","-0.9189453","-0.15332031","-5.5625","1.375","-6.0"
"1574200561382","107","0.37597656","-0.91308594","-0.14453125","-5.25","-1.96875","-7.21875"
"1574200561383","108","0.36621094","-0.92578125","-0.15039062","-3.90625","-5.6875","-9.34375"
"1574200561384","109","0.4033203","-0.8701172","-0.16796875","-7.71875","-11.25","-9.65625"
"1574200562175","110","0.3828125","-0.9433594","-0.13671875","-4.59375","-13.8125","-10.625"
"1574200562176","111","0.4169922","-0.8574219","-0.19140625","-1.46875","-17.90625","-10.4375"
"1574200562176","112","0.40820312","-0.9794922","-0.13476562","-1.1875","-13.03125","-13.4375"
"1574200562176","113","0.40625","-0.8232422","-0.21972656","1.28125","-12.96875","-12.78125"
"1574200562177","114","0.41503906","-1.0224609","-0.1484375","0.71875","-4.90625","-10.28125"
"1574200562177","115","0.39648438","-0.8017578","-0.17871094","0.40625","-6.1875","-4.59375"
"1574200562177","116","0.41210938","-0.97265625","-0.16601562","-0.875","-0.5625","-1.125"
"1574200562178","117","0.3984375","-0.86816406","-0.14648438","3.90625","0.84375","-1.1875"
"1574200562178","118","0.3779297","-0.9394531","-0.15332031","1.875","4.125","2.84375"
"1574200562178","119","0.40234375","-0.90234375","-0.123046875","4.5625","4.4375","2.0"
"1574200562371","120","0.3486328","-0.9091797","-0.14550781","5.53125","7.90625","7.375"
"1574200562371","121","0.41992188","-0.87402344","-0.13085938","12.625","7.8125","2.0"
"1574200562372","122","0.37695312","-0.93847656","-0.1484375","11.9375","12.5","4.8125"
"1574200562372","123","0.42285156","-0.8925781","-0.09082031","12.5","12.25","-3.625"
"1574200562372","124","0.4111328","-0.9091797","-0.13183594","8.71875","10.71875","1.6875"
"1574200562372","125","0.3935547","-0.96191406","-0.072265625","9.25","13.40625","1.3125"
"1574200562373","126","0.42089844","-0.8486328","-0.109375","7.5","3.65625","-5.25"
"1574200562373","127","0.40039062","-0.9589844","-0.07714844","6.46875","6.03125","-6.5"
"1574200562373","128","0.41308594","-0.8798828","-0.078125","8.96875","-1.84375","-15.8125"
"1574200562373","129","0.43652344","-0.89160156","-0.119140625","-1.78125","-7.59375","-21.375"
"1574200562772","130","0.4716797","-0.92578125","-0.087890625","-4.15625","-7.59375","-22.53125"
"1574200562772","131","0.51464844","-0.7988281","-0.13183594","3.28125","-18.25","-16.3125"
"1574200562773","132","0.5488281","-0.9921875","-0.15429688","3.9375","-27.34375","-22.0"
"1574200562774","133","0.36914062","-0.9707031","-0.09765625","0.03125","-14.71875","-19.375"
"1574200562775","134","0.2939453","-0.91503906","-0.068359375","-20.84375","1.6875","-27.3125"
"1574200562775","135","0.41992188","-0.859375","-0.05859375","-6.1875","9.625","-25.40625"
"1574200562775","136","0.4814453","-0.7919922","-0.095703125","-5.25","14.21875","-4.84375"
"1574200562775","137","0.46875","-0.8496094","-0.095703125","1.15625","14.5","-2.59375"
"1574200562776","138","0.5361328","-0.84472656","-0.08496094","7.125","8.59375","1.03125"
"1574200562776","139","0.51464844","-0.8857422","-0.09667969","10.84375","14.28125","3.90625"
"1574200562969","140","0.5078125","-0.8642578","-0.036132812","7.0","3.21875","-5.6875"
"1574200562970","141","0.515625","-0.89746094","-0.05078125","0.46875","-0.875","-12.28125"
"1574200562970","142","0.5419922","-0.88964844","-0.06933594","-9.65625","-1.65625","-10.09375"
"1574200562970","143","0.5175781","-0.765625","-0.061523438","2.25","-5.15625","-5.5"
"1574200562970","144","0.484375","-0.84765625","-0.06347656","5.34375","-1.1875","-7.09375"
"1574200562972","145","0.53125","-0.87109375","-0.048828125","3.21875","0.65625","-3.0"
"1574200562972","146","0.5527344","-0.8222656","-0.061523438","2.1875","-4.03125","-5.03125"
"1574200562972","147","0.5722656","-0.8623047","-0.041015625","4.3125","-9.21875","-5.5625"
"1574200562973","148","0.5722656","-0.86816406","-0.07324219","-0.375","-11.6875","-4.34375"
"1574200562973","149","0.5751953","-0.80566406","-0.08300781","-5.75","-10.625","-7.9375"
"1574200563368","150","0.50878906","-0.83691406","-0.11425781","0.21875","-11.125","-6.125"
"1574200563368","151","0.57421875","-0.80859375","-0.099609375","-1.0","-11.5625","-7.9375"
"1574200563369","152","0.5654297","-0.86621094","-0.08105469","-7.65625","-7.15625","-5.6875"
"1574200563369","153","0.57714844","-0.8642578","-0.1328125","-7.40625","-6.96875","-6.71875"
"1574200563369","154","0.5605469","-0.796875","-0.14746094","-7.71875","-12.96875","-2.34375"
"1574200563369","155","0.54296875","-0.81933594","-0.1328125","-7.15625","-14.25","0.03125"
"1574200563370","156","0.5673828","-0.88183594","-0.09277344","-25.09375","-29.875","-1.53125"
"1574200563371","157","0.48339844","-0.73339844","-0.19433594","-34.75","-27.59375","-6.1875"
"1574200563372","158","0.47558594","-0.7626953","-0.16210938","-12.34375","-18.4375","-10.625"
"1574200563372","159","0.5332031","-0.7871094","-0.24316406","2.59375","-12.53125","-4.65625"
"1574200563765","160","0.5527344","-0.82714844","-0.22265625","6.9375","-1.59375","-0.75"
"1574200563765","161","0.5361328","-0.8417969","-0.2265625","13.21875","-5.4375","3.46875"
"1574200563766","162","0.5605469","-0.8144531","-0.2529297","9.4375","-7.28125","4.4375"
"1574200563766","163","0.5498047","-0.83691406","-0.23535156","5.0625","-5.25","2.84375"
"1574200563766","164","0.52734375","-0.7763672","-0.22851562","4.6875","-7.78125","-0.25"
"1574200563766","165","0.53515625","-0.8261719","-0.24511719","0.40625","-5.375","-2.03125"
"1574200563767","166","0.5439453","-0.82910156","-0.19433594","1.9375","-0.625","-0.25"
"1574200563767","167","0.53222656","-0.8359375","-0.20605469","0.40625","0.15625","1.21875"
"1574200563767","168","0.52441406","-0.8203125","-0.21289062","0.65625","1.5625","0.09375"
"1574200563769","169","0.52441406","-0.8222656","-0.21386719","-1.0","6.21875","0.53125"
"1574200564555","170","0.5136719","-0.79296875","-0.23535156","3.21875","8.34375","1.3125"
"1574200564556","171","0.5810547","-0.8652344","-0.20703125","-0.875","7.4375","-1.90625"
"1574200564556","172","0.5136719","-0.8105469","-0.18457031","-4.15625","8.15625","-0.75"
"1574200564557","173","0.52734375","-0.80371094","-0.21972656","-3.75","9.1875","-1.0625"
"1574200564557","174","0.5283203","-0.8076172","-0.20214844","-5.15625","12.125","3.34375"
"1574200564557","175","0.5361328","-0.81347656","-0.19824219","1.09375","11.03125","1.3125"
"1574200564557","176","0.5253906","-0.8388672","-0.19628906","-0.0625","13.34375","2.84375"
"1574200564558","177","0.53222656","-0.8203125","-0.18847656","-1.3125","12.5625","1.625"
"1574200564558","178","0.5283203","-0.8046875","-0.17089844","4.5625","15.65625","3.34375"
"1574200564559","179","0.56640625","-0.81152344","-0.19335938","1.15625","11.53125","0.96875"
"1574200564560","180","0.53222656","-0.8261719","-0.16894531","-1.53125","10.65625","2.5"
"1574200564562","181","0.5449219","-0.8017578","-0.171875","1.4375","12.375","4.1875"
"1574200564562","182","0.55078125","-0.8798828","-0.125","10.1875","17.6875","7.125"
"1574200564562","183","0.4970703","-0.81152344","-0.15039062","2.96875","13.15625","8.03125"
"1574200564563","184","0.5283203","-0.8496094","-0.09082031","13.28125","17.5","14.75"
"1574200564563","185","0.49609375","-0.8496094","-0.14355469","8.28125","10.84375","10.46875"
"1574200564563","186","0.5","-0.8544922","-0.11230469","4.8125","14.09375","9.5"
"1574200564563","187","0.52246094","-0.89941406","-0.09765625","-0.625","9.75","4.1875"
"1574200564564","188","0.4716797","-0.85058594","-0.12011719","-18.5625","5.96875","0.90625"
"1574200564564","189","0.51953125","-0.8857422","-0.107421875","-25.53125","8.96875","1.3125"
"1574200564956","190","0.48242188","-0.8730469","-0.13476562","-23.5","5.28125","5.59375"
"1574200564956","191","0.5410156","-0.8457031","-0.1640625","-52.75","-11.3125","-3.5"
"1574200564957","192","0.51171875","-0.8388672","-0.1640625","-33.65625","-8.5","-4.65625"
"1574200564958","193","0.43066406","-0.88964844","-0.17871094","-18.09375","2.1875","-1.96875"
"1574200564958","194","0.47265625","-0.89453125","-0.21191406","-22.78125","4.9375","8.71875"
"1574200564958","195","0.49609375","-0.8408203","-0.24316406","-17.34375","-3.5","5.78125"
"1574200564959","196","0.46875","-0.8652344","-0.20898438","-6.5","0.59375","6.21875"
"1574200564959","197","0.40625","-0.89160156","-0.20605469","-11.4375","-1.65625","9.9375"
"1574200564959","198","0.43066406","-0.8798828","-0.22558594","-5.875","6.625","7.125"
"1574200564959","199","0.46875","-0.83984375","-0.23925781","-1.34375","4.625","5.0625"
"1574200565355","200","0.44433594","-0.8652344","-0.22949219","-4.46875","0.84375","2.0625"
"1574200565356","201","0.4609375","-0.8955078","-0.23925781","-11.6875","-2.875","-3.1875"
"1574200565356","202","0.46972656","-0.8769531","-0.24414062","-10.75","-4.96875","-7.15625"
"1574200565356","203","0.4814453","-0.86328125","-0.2783203","-11.96875","-7.40625","-6.25"
"1574200565356","204","0.47460938","-0.83496094","-0.30664062","-14.46875","-10.28125","-5.5"
"1574200565357","205","0.5078125","-0.7998047","-0.33789062","-11.375","-9.0625","-6.3125"
"1574200565357","206","0.4716797","-0.875","-0.3125","-10.03125","-1.3125","-3.75"
"1574200565358","207","0.4658203","-0.7919922","-0.31933594","-4.65625","-0.9375","-3.6875"
"1574200565359","208","0.4482422","-0.83496094","-0.31347656","1.8125","6.15625","2.0"
"1574200565359","209","0.40722656","-0.8173828","-0.30371094","1.15625","14.875","1.3125"
"1574200565754","210","0.43066406","-0.76953125","-0.3251953","1.75","12.9375","6.15625"
"1574200565754","211","0.45996094","-0.87890625","-0.31347656","9.6875","14.5","9.5"
"1574200565755","212","0.4404297","-0.8671875","-0.28320312","10.46875","11.59375","7.625"
"1574200565755","213","0.4296875","-0.8808594","-0.24121094","14.75","14.8125","12.5"
"1574200565755","214","0.4404297","-0.84375","-0.25195312","19.625","16.15625","13.15625"
"1574200565755","215","0.4814453","-0.8359375","-0.21679688","26.53125","13.84375","14.375"
"1574200565756","216","0.44335938","-0.8876953","-0.203125","26.65625","14.9375","10.46875"
"1574200565757","217","0.45507812","-0.8769531","-0.19824219","20.25","12.25","5.53125"
"1574200565757","218","0.45214844","-0.89746094","-0.18652344","12.625","10.84375","2.90625"
"1574200565758","219","0.46191406","-0.8808594","-0.18945312","4.5625","3.34375","-3.6875"
"1574200566347","220","0.45996094","-0.89941406","-0.18359375","-3.8125","-2.28125","-4.71875"
"1574200566348","221","0.4267578","-0.9003906","-0.17382812","-10.625","-2.59375","-6.125"
"1574200566348","222","0.44335938","-0.87402344","-0.203125","-7.8125","-3.75","-6.53125"
"1574200566348","223","0.43652344","-0.875","-0.19726562","-10.28125","0.90625","-8.9375"
"1574200566348","224","0.484375","-0.8154297","-0.1953125","-10.09375","-9.125","-11.96875"
"1574200566349","225","0.46777344","-0.9199219","-0.20703125","0.96875","-7.59375","-5.9375"
"1574200566349","226","0.44628906","-0.8330078","-0.19238281","0.84375","-8.9375","-0.75"
"1574200566349","227","0.4794922","-0.8808594","-0.2109375","-9.84375","-5.5625","-0.6875"
"1574200566349","228","0.4921875","-0.8417969","-0.23046875","-4.59375","-8.6875","-4.90625"
"1574200566351","229","0.46875","-0.8925781","-0.22558594","-8.25","-9.96875","-6.375"
"1574200566547","230","0.453125","-0.8388672","-0.24414062","1.9375","-2.03125","-8.6875"
"1574200566547","231","0.4580078","-0.8720703","-0.26464844","0.15625","-5.8125","-4.09375"
"1574200566547","232","0.42382812","-0.85546875","-0.23828125","6.625","-3.0625","-3.875"
"1574200566547","233","0.44726562","-0.84277344","-0.23730469","8.53125","-0.5","-1.46875"
"1574200566548","234","0.4482422","-0.87402344","-0.23535156","17.625","1.5625","-2.09375"
"1574200566548","235","0.48046875","-0.80566406","-0.22460938","14.8125","-1.71875","-3.5"
"1574200566548","236","0.41601562","-0.9140625","-0.21972656","19.625","3.34375","2.25"
"1574200566548","237","0.4140625","-0.8769531","-0.16894531","12.5","4.25","1.15625"
"1574200566549","238","0.5029297","-0.80566406","-0.20019531","9.6875","1.5","-0.4375"
"1574200566549","239","0.45117188","-0.9736328","-0.14453125","13.53125","2.1875","-1.96875"
"1574200566945","240","0.45507812","-0.87597656","-0.12402344","8.84375","0.96875","-3.125"
"1574200566946","241","0.48632812","-0.8535156","-0.18066406","0.34375","4.125","-6.0625"
"1574200566946","242","0.46875","-0.921875","-0.12988281","-3.3125","1.3125","-9.84375"
"1574200566946","243","0.4423828","-0.83691406","-0.15917969","-2.53125","6.75","-8.0625"
"1574200566947","244","0.48632812","-0.85546875","-0.13769531","-5.875","5.0625","-14.90625"
"1574200566947","245","0.46777344","-0.8535156","-0.14746094","4.75","2.4375","-19.4375"
"1574200566947","246","0.5800781","-0.90625","-0.09765625","-4.46875","-6.96875","-16.3125"
"1574200566950","247","0.47070312","-0.87597656","-0.10449219","-10.34375","-7.53125","-16.375"
"1574200566950","248","0.5136719","-0.8466797","-0.13378906","-5.25","-2.875","-14.84375"
"1574200566950","249","0.5488281","-0.9033203","-0.15917969","-9.96875","-10.75","-11.1875"
"1574200567537","250","0.5361328","-0.86035156","-0.14453125","-13.8125","-14.65625","-13.5625"
"1574200567545","251","0.5234375","-0.7949219","-0.18457031","-21.375","-14.34375","-11.25"
"1574200567546","252","0.49121094","-0.83496094","-0.24316406","-14.65625","-7.78125","-12.40625"
"1574200567546","253","0.48339844","-0.86035156","-0.25976562","-11.96875","5.34375","-5.03125"
"1574200567547","254","0.5439453","-0.81933594","-0.25195312","-18.375","8.09375","-9.125"
"1574200567547","255","0.56640625","-0.7832031","-0.26660156","-16.5","5.1875","-13.875"
"1574200567547","256","0.5361328","-0.7939453","-0.25195312","-10.9375","2.125","-3.0625"
"1574200567548","257","0.5722656","-0.79785156","-0.2265625","4.5625","8.21875","6.6875"
"1574200567548","258","0.53515625","-0.79003906","-0.23046875","4.0625","-2.59375","11.53125"
"1574200567549","259","0.52441406","-0.77441406","-0.27539062","4.0625","-9.0","2.78125"
"1574200567739","260","0.578125","-0.8076172","-0.23828125","-6.90625","-13.1875","-3.6875"
"1574200567740","261","0.58203125","-0.80078125","-0.25585938","-6.0625","-11.375","-10.4375"
"1574200567740","262","0.5566406","-0.79589844","-0.28710938","-2.8125","-7.34375","-6.0"
"1574200567740","263","0.53027344","-0.8339844","-0.31933594","-11.0","-1.40625","-7.46875"
"1574200567740","264","0.5908203","-0.7421875","-0.3623047","-18.4375","-9.21875","-4.84375"
"1574200567742","265","0.5419922","-0.7089844","-0.26464844","-15.59375","-3.5625","1.8125"
"1574200567742","266","0.5234375","-0.75878906","-0.25976562","-5.5","1.28125","0.0"
"1574200567743","267","0.56933594","-0.79589844","-0.2578125","0.09375","-3.5625","1.8125"
"1574200567743","268","0.5673828","-0.75878906","-0.27148438","2.71875","-8.9375","-2.75"
"1574200567743","269","0.51660156","-0.7861328","-0.296875","12.6875","-0.3125","-1.40625"
"1574200568138","270","0.5136719","-0.7753906","-0.31152344","19.09375","7.125","4.6875"
"1574200568139","271","0.57128906","-0.8828125","-0.33691406","9.4375","-2.28125","5.34375"
"1574200568139","272","0.57910156","-0.8359375","-0.3203125","1.03125","-15.40625","-1.0"
"1574200568139","273","0.46972656","-0.7519531","-0.27441406","2.1875","-5.15625","5.46875"
"1574200568140","274","0.5595703","-0.82421875","-0.3173828","6.34375","1.6875","3.21875"
"1574200568140","275","0.54589844","-0.7832031","-0.27246094","7.8125","0.34375","5.0"
"1574200568140","276","0.51171875","-0.8310547","-0.28710938","2.0625","-2.09375","-0.625"
"1574200568141","277","0.50683594","-0.7939453","-0.2919922","-2.21875","1.375","0.0"
"1574200568142","278","0.51464844","-0.82910156","-0.3046875","0.21875","3.53125","-0.5625"
"1574200568142","279","0.53808594","-0.85058594","-0.26953125","0.96875","1.21875","-1.40625"
"1574200568534","280","0.515625","-0.796875","-0.3310547","1.3125","4.375","-2.21875"
"1574200568534","281","0.50683594","-0.8300781","-0.27148438","-1.53125","7.96875","-2.21875"
"1574200568535","282","0.53125","-0.8183594","-0.265625","1.6875","6.03125","-4.09375"
"1574200568535","283","0.5253906","-0.82421875","-0.27929688","-4.59375","5.1875","-6.53125"
"1574200568535","284","0.5205078","-0.8125","-0.26953125","-1.125","8.96875","-5.6875"
"1574200568535","285","0.53515625","-0.8251953","-0.2998047","-11.5","5.1875","-5.15625"
"1574200568536","286","0.5605469","-0.81640625","-0.2998047","-9.96875","2.59375","-10.34375"
"1574200568536","287","0.5390625","-0.78808594","-0.27929688","-8.5","6.28125","-4.34375"
"1574200568536","288","0.58984375","-0.78027344","-0.3203125","-9.125","7.96875","-3.625"
"1574200568537","289","0.5498047","-0.71972656","-0.3017578","-16.96875","0.59375","-5.6875"
"1574200568931","290","0.55371094","-0.79003906","-0.29101562","-5.875","9.1875","-3.5"
"1574200568932","291","0.56933594","-0.78027344","-0.2998047","0.21875","11.71875","-2.21875"
"1574200568932","292","0.5126953","-0.7626953","-0.29003906","4.6875","21.78125","2.78125"
"1574200568933","293","0.5410156","-0.796875","-0.2705078","8.71875","14.8125","1.09375"
"1574200568933","294","0.56933594","-0.7783203","-0.27441406","13.28125","21.28125","0.90625"
"1574200568933","295","0.55566406","-0.7890625","-0.22265625","11.59375","21.15625","2.4375"
"1574200568933","296","0.5732422","-0.7675781","-0.23339844","8.59375","10.1875","-1.46875"
"1574200568934","297","0.5449219","-0.85058594","-0.21484375","4.375","13.53125","0.84375"
"1574200568934","298","0.5517578","-0.8564453","-0.20410156","-2.59375","7.75","-3.75"
"1574200568934","299","0.59472656","-0.8330078","-0.21484375","-14.125","-5.375","-4.46875"
"1574200569331","300","0.5722656","-0.82910156","-0.22460938","-8.625","3.65625","-4.78125"
"1574200569332","301","0.5410156","-0.79785156","-0.20996094","-5.15625","10.125","2.5625"
"1574200569333","302","0.53027344","-0.7988281","-0.20703125","-7.8125","4.25","4.5625"
"1574200569333","303","0.5","-0.8544922","-0.1953125","-6.84375","8.96875","0.96875"
"1574200569333","304","0.57128906","-0.78222656","-0.21875","-9.34375","14.09375","-1.0"
"1574200569334","305","0.5996094","-0.79296875","-0.22167969","-6.3125","24.34375","0.65625"
"1574200569334","306","0.53125","-0.80859375","-0.22851562","0.03125","16.09375","-2.46875"
"1574200569334","307","0.515625","-0.85058594","-0.19140625","-5.09375","10.3125","1.8125"
"1574200569335","308","0.56640625","-0.82421875","-0.20117188","2.71875","13.71875","6.15625"
"1574200569335","309","0.59375","-0.7734375","-0.2265625","1.4375","2.5","1.625"
"1574200569728","310","0.59375","-0.8251953","-0.24902344","-6.1875","-7.46875","-3.3125"
"1574200569729","311","0.59375","-0.7998047","-0.2421875","-19.53125","-12.28125","-7.28125"
"1574200569729","312","0.5761719","-0.7285156","-0.25976562","-21.125","-2.59375","-10.6875"
"1574200569730","313","0.55078125","-0.7480469","-0.2939453","-10.28125","4.9375","-4.03125"
"1574200569731","314","0.58984375","-0.78027344","-0.27148438","1.5","13.15625","-2.09375"
"1574200569731","315","0.6191406","-0.8183594","-0.21875","-4.53125","9.4375","-2.75"
"1574200569731","316","0.59375","-0.7246094","-0.2421875","-0.375","8.40625","5.34375"
"1574200569732","317","0.5439453","-0.78125","-0.2578125","-3.75","6.28125","4.75"
"1574200569732","318","0.5673828","-0.78515625","-0.26367188","0.0","2.0","6.03125"
"1574200569732","319","0.55078125","-0.7675781","-0.25","4.0","4.5625","8.90625"
"1574200570124","320","0.5839844","-0.8154297","-0.22851562","4.3125","7.375","1.8125"
"1574200570124","321","0.5595703","-0.7207031","-0.25195312","-1.3125","-4.21875","0.09375"
"1574200570124","322","0.58203125","-0.80566406","-0.26660156","10.375","4.9375","8.46875"
"1574200570124","323","0.5683594","-0.7998047","-0.23535156","7.5625","0.34375","6.28125"
"1574200570125","324","0.5517578","-0.7998047","-0.21484375","7.84375","-2.9375","5.34375"
"1574200570126","325","0.5498047","-0.7919922","-0.23632812","3.90625","0.96875","1.8125"
"1574200570126","326","0.5800781","-0.8251953","-0.203125","2.375","0.84375","0.65625"
"1574200570127","327","0.5576172","-0.828125","-0.22851562","0.90625","-6.65625","-2.53125"
"1574200570127","328","0.52246094","-0.8222656","-0.22949219","-4.03125","-1.78125","1.03125"
"1574200570127","329","0.53125","-0.8105469","-0.24121094","-0.8125","1.15625","1.4375"
"1574200570920","330","0.52734375","-0.7988281","-0.24902344","-3.96875","3.46875","1.21875"
"1574200570920","331","0.5283203","-0.8076172","-0.24023438","-2.9375","3.40625","-1.53125"
"1574200570920","332","0.5566406","-0.80371094","-0.23144531","3.53125","2.65625","-3.875"
"1574200570921","333","0.5048828","-0.7949219","-0.21972656","21.96875","9.5","-0.125"
"1574200570921","334","0.5810547","-0.8144531","-0.18164062","31.71875","-7.40625","3.09375"
"1574200570921","335","0.5527344","-0.8251953","-0.2763672","11.75","-2.15625","-0.375"
"1574200570921","336","0.4951172","-0.85058594","-0.18359375","-0.375","-2.8125","-1.78125"
"1574200570924","337","0.52734375","-0.7949219","-0.22558594","2.4375","-5.25","0.71875"
"1574200570924","338","0.5341797","-0.8613281","-0.18945312","-1.34375","-0.5625","-2.28125"
"1574200570924","339","0.53515625","-0.8105469","-0.19238281","4.0","4.0","-1.40625"
"1574200571115","340","0.54003906","-0.83203125","-0.16113281","1.03125","6.46875","-2.53125"
"1574200571116","341","0.5253906","-0.79589844","-0.16308594","5.40625","9.8125","-3.375"
"1574200571116","342","0.5605469","-0.82714844","-0.15136719","7.0","11.03125","0.71875"
"1574200571116","343","0.5625","-0.7949219","-0.171875","11.59375","8.21875","1.5"
"1574200571117","344","0.5761719","-0.81933594","-0.16796875","9.9375","9.125","7.5"
"1574200571117","345","0.53808594","-0.82128906","-0.18261719","13.03125","9.9375","4.1875"
"1574200571117","346","0.5410156","-0.8183594","-0.17480469","6.03125","10.46875","2.96875"
"1574200571117","347","0.52734375","-0.93652344","-0.13476562","1.375","4.5625","1.75"
"1574200571118","348","0.5419922","-0.8105469","-0.21386719","-5.9375","-1.53125","-3.8125"
"1574200571119","349","0.5546875","-0.8691406","-0.17773438","-6.3125","-4.96875","-4.09375"
"1574200571317","350","0.51953125","-0.8408203","-0.10644531","-6.5","-0.5","-5.21875"
"1574200571318","351","0.5234375","-0.8144531","-0.115234375","-5.625","0.21875","-3.875"
"1574200571318","352","0.53515625","-0.87597656","-0.10546875","-0.5625","2.375","-4.34375"
"1574200571318","353","0.53125","-0.7841797","-0.10058594","5.46875","5.34375","-9.0625"
"1574200571318","354","0.5517578","-0.8027344","-0.087890625","6.28125","-2.28125","-7.03125"
"1574200571319","355","0.52441406","-0.87109375","-0.09277344","10.96875","-0.1875","-2.40625"
"1574200571319","356","0.54785156","-0.859375","-0.13378906","1.375","4.0625","-1.25"
"1574200571319","357","0.6074219","-0.875","-0.12402344","-2.6875","-1.90625","-2.8125"
"1574200571319","358","0.5683594","-0.87109375","-0.076171875","-7.03125","-4.65625","1.5"
"1574200571320","359","0.45507812","-0.8574219","-0.07324219","1.9375","-21.75","3.21875"
"1574200571714","360","0.6113281","-0.7265625","-0.024414062","19.5625","-36.8125","-4.21875"
"1574200571716","361","0.54003906","-0.8300781","-0.19433594","36.1875","-3.8125","8.21875"
"1574200571717","362","0.48242188","-0.84472656","-0.18457031","12.0","-5.4375","-8.0625"
"1574200571717","363","0.6015625","-0.83691406","-0.16992188","-12.40625","-8.1875","-15.03125"
"1574200571717","364","0.5810547","-0.85253906","-0.21582031","-30.84375","-9.0","-15.09375"
"1574200571717","365","0.54003906","-0.80371094","-0.2109375","-32.78125","-8.0","-11.625"
"1574200571718","366","0.58496094","-0.78808594","-0.20800781","-30.09375","-4.78125","-11.0"
"1574200571718","367","0.53222656","-0.72558594","-0.22851562","-24.25","-2.53125","-4.71875"
"1574200571718","368","0.57910156","-0.7441406","-0.20410156","-11.25","-1.53125","-2.09375"
"1574200571719","369","0.55566406","-0.73046875","-0.22363281","-2.625","2.84375","-1.78125"
"1574200572112","370","0.60546875","-0.7998047","-0.22558594","8.59375","7.25","-0.625"
"1574200572113","371","0.5576172","-0.8339844","-0.21875","13.03125","6.875","4.4375"
"1574200572113","372","0.59472656","-0.8544922","-0.22558594","13.15625","3.46875","5.21875"
"1574200572114","373","0.56347656","-0.8652344","-0.19628906","0.03125","0.71875","7.5"
"1574200572115","374","0.5625","-0.8066406","-0.20800781","-12.21875","-8.0625","1.3125"
"1574200572115","375","0.52246094","-0.77441406","-0.19921875","-15.75","-11.375","-3.0"
"1574200572115","376","0.5283203","-0.7597656","-0.21289062","-9.46875","0.84375","-4.15625"
"1574200572115","377","0.5644531","-0.77734375","-0.20703125","2.90625","9.03125","3.40625"
"1574200572116","378","0.59765625","-0.8017578","-0.23144531","9.25","4.0625","4.9375"
"1574200572116","379","0.55371094","-0.81347656","-0.22753906","1.625","-0.4375","4.125"
"1574200572509","380","0.5800781","-0.80078125","-0.24023438","0.28125","1.3125","1.3125"
"1574200572509","381","0.54785156","-0.8183594","-0.25390625","-6.71875","1.9375","-1.65625"
"1574200572510","382","0.57714844","-0.8251953","-0.23339844","-7.09375","2.375","-0.625"
"1574200572510","383","0.5595703","-0.8144531","-0.2421875","-6.84375","5.53125","3.21875"
"1574200572510","384","0.57128906","-0.78808594","-0.2421875","-1.34375","2.5","-3.6875"
"1574200572511","385","0.5410156","-0.7314453","-0.20605469","6.34375","12.25","4.1875"
"1574200572511","386","0.53222656","-0.7939453","-0.25878906","0.0","12.0625","4.6875"
"1574200572511","387","0.59375","-0.7792969","-0.203125","0.40625","10.71875","-1.0"
"1574200572512","388","0.5078125","-0.81640625","-0.22460938","3.09375","18.0","7.5"
"1574200572512","389","0.5751953","-0.8017578","-0.20703125","8.34375","16.53125","3.03125"
"1574200573103","390","0.51953125","-0.7714844","-0.18261719","6.5625","16.28125","5.90625"
"1574200573104","391","0.53027344","-0.7988281","-0.20996094","7.6875","10.84375","6.46875"
"1574200573104","392","0.52734375","-0.82910156","-0.15527344","13.0","18.84375","11.28125"
"1574200573104","393","0.49902344","-0.8378906","-0.14355469","4.0","17.1875","10.90625"
"1574200573104","394","0.5498047","-0.8359375","-0.13964844","13.84375","17.1875","8.84375"
"1574200573105","395","0.53515625","-0.8691406","-0.109375","15.1875","14.9375","4.6875"
"1574200573105","396","0.5205078","-0.85058594","-0.09472656","13.59375","13.84375","5.59375"
"1574200573106","397","0.5214844","-0.8613281","-0.08496094","18.78125","16.21875","6.6875"
"1574200573107","398","0.4873047","-0.86621094","-0.08886719","8.46875","4.875","5.90625"
"1574200573107","399","0.49609375","-0.88378906","-0.05859375","-1.84375","5.28125","6.5625"
"1574200573502","400","0.5029297","-0.8798828","-0.041992188","-2.28125","6.15625","1.875"
"1574200573503","401","0.4794922","-0.8359375","-0.068359375","-10.5","5.1875","-1.0"
"1574200573503","402","0.46875","-0.88964844","-0.034179688","-8.375","15.4375","-1.90625"
"1574200573503","403","0.4951172","-0.88671875","-0.041992188","-3.3125","14.28125","-2.28125"
"1574200573503","404","0.51660156","-0.8544922","-0.08300781","-2.6875","7.625","-2.15625"
"1574200573504","405","0.4970703","-0.89160156","-0.0703125","-4.34375","9.5","-0.9375"
"1574200573504","406","0.4873047","-0.8955078","-0.078125","-0.875","10.3125","4.5625"
"1574200573504","407","0.4638672","-0.9082031","-0.07324219","-10.21875","3.59375","5.78125"
"1574200573505","408","0.46875","-0.91503906","-0.07324219","-15.34375","3.28125","3.40625"
"1574200573506","409","0.47558594","-0.9160156","-0.06933594","-20.78125","10.40625","-1.78125"
"1574200573703","410","0.5546875","-0.82910156","-0.05078125","-8.0625","12.4375","-8.0"
"1574200573703","411","0.47558594","-0.75097656","-0.052734375","0.15625","2.71875","-6.84375"
"1574200573703","412","0.45214844","-0.91015625","-0.10058594","2.1875","5.34375","-1.40625"
"1574200573704","413","0.50390625","-0.9404297","-0.107421875","-15.6875","-1.84375","-3.25"
"1574200573704","414","0.54589844","-0.8808594","-0.13574219","-26.625","-9.15625","-12.65625"
"1574200573704","415","0.5205078","-0.8691406","-0.12988281","-29.96875","-7.40625","-10.625"
"1574200573704","416","0.5097656","-0.77734375","-0.16699219","-28.53125","-7.09375","-14.1875"
"1574200573705","417","0.5566406","-0.76660156","-0.21484375","-24.5625","-9.84375","-10.40625"
"1574200573705","418","0.5371094","-0.7998047","-0.21972656","-15.75","-8.0625","-9.34375"
"1574200573705","419","0.53808594","-0.7841797","-0.19238281","-8.75","-1.0","-5.875"
"1574200574495","420","0.53808594","-0.8378906","-0.1875","8.71875","8.84375","1.21875"
"1574200574496","421","0.5019531","-0.81640625","-0.16308594","18.34375","7.8125","4.0"
"1574200574496","422","0.53027344","-0.7734375","-0.18847656","34.40625","7.375","12.625"
"1574200574497","423","0.49804688","-0.8339844","-0.18261719","46.0625","15.1875","20.0"
"1574200574497","424","0.5205078","-0.8623047","-0.12109375","29.65625","12.25","13.15625"
"1574200574497","425","0.5566406","-0.86816406","-0.10058594","26.53125","5.65625","9.9375"
"1574200574497","426","0.51953125","-0.87402344","-0.06640625","26.40625","9.03125","6.46875"
"1574200574498","427","0.5107422","-0.8779297","-0.0859375","10.71875","9.375","6.46875"
"1574200574498","428","0.4765625","-0.86621094","-0.049804688","5.46875","4.125","4.125"
"1574200574498","429","0.4345703","-0.9589844","-0.06542969","-10.03125","14.5625","2.0625"
"1574200574692","430","0.51660156","-0.8457031","-0.06542969","-17.84375","3.9375","-7.03125"
"1574200574693","431","0.47851562","-0.8144531","-0.043945312","-4.46875","-0.8125","4.8125"
"1574200574693","432","0.44140625","-0.8701172","-0.056640625","3.71875","11.40625","3.53125"
"1574200574695","433","0.49414062","-0.87109375","-0.0859375","1.3125","7.5","0.65625"
"1574200574695","434","0.4951172","-0.9003906","-0.06542969","-11.125","7.1875","-3.0"
"1574200574695","435","0.51171875","-0.8496094","-0.051757812","-10.15625","-3.6875","-6.375"
"1574200574696","436","0.5185547","-0.8408203","-0.09765625","-13.375","-9.40625","-7.09375"
"1574200574696","437","0.5205078","-0.8730469","-0.07421875","-12.21875","-7.65625","-8.8125"
"1574200574696","438","0.50097656","-0.828125","-0.10839844","-4.78125","-10.40625","-7.28125"
"1574200574696","439","0.5341797","-0.89453125","-0.09082031","-7.59375","-15.03125","-4.71875"
"1574200574894","440","0.5058594","-0.91308594","-0.10839844","-22.65625","-38.53125","-14.96875"
"1574200574894","441","0.4794922","-0.74316406","-0.20800781","-31.03125","-26.9375","-15.28125"
"1574200574895","442","0.484375","-0.79003906","-0.17675781","-1.90625","-13.4375","0.0"
"1574200574895","443","0.5","-0.8388672","-0.2109375","-1.1875","-6.90625","0.15625"
"1574200574895","444","0.5029297","-0.8408203","-0.17773438","6.6875","4.375","0.96875"
"1574200574897","445","0.48632812","-0.8544922","-0.15820312","7.625","7.5","4.375"
"1574200574897","446","0.5136719","-0.88183594","-0.13867188","13.53125","9.5","4.0"
"1574200574898","447","0.48339844","-0.83496094","-0.14257812","14.875","13.40625","4.125"
"1574200574898","448","0.5136719","-0.84472656","-0.12207031","16.28125","14.15625","4.1875"
"1574200574898","449","0.47460938","-0.8964844","-0.103515625","12.9375","14.09375","3.21875"
"1574200575293","450","0.51953125","-0.85058594","-0.109375","9.9375","9.9375","-2.34375"
"1574200575293","451","0.546875","-0.8261719","-0.16113281","3.90625","2.78125","-4.90625"
"1574200575293","452","0.5419922","-0.953125","-0.091796875","-3.4375","4.75","-11.96875"
"1574200575294","453","0.45703125","-0.82714844","-0.12109375","-2.28125","-0.5625","-13.0625"
"1574200575294","454","0.5","-0.8300781","-0.09667969","-5.6875","4.875","-12.21875"
"1574200575294","455","0.5292969","-0.8828125","-0.06347656","-6.53125","-2.15625","-11.0625"
"1574200575294","456","0.51464844","-0.8417969","-0.07128906","-4.40625","-4.84375","-14.78125"
"1574200575296","457","0.5371094","-0.84277344","-0.091796875","3.46875","-3.96875","-9.40625"
"1574200575296","458","0.53515625","-0.859375","-0.07910156","4.0625","1.875","-6.78125"
"1574200575297","459","0.59277344","-0.8388672","-0.0703125","3.9375","-6.53125","-16.1875"
"1574200575886","460","0.5761719","-0.8154297","-0.08984375","5.28125","-12.71875","-14.71875"
"1574200575886","461","0.5439453","-0.86035156","-0.0859375","-12.34375","-13.25","-11.6875"
"1574200575887","462","0.5917969","-0.86621094","-0.072265625","-5.4375","-10.03125","-5.25"
"1574200575887","463","0.53027344","-0.7890625","-0.046875","18.34375","-15.75","4.375"
"1574200575887","464","0.5185547","-0.7607422","-0.10546875","32.09375","-12.84375","6.03125"
"1574200575887","465","0.5517578","-0.8300781","-0.115234375","7.5","-9.15625","2.0"
"1574200575887","466","0.59375","-0.8408203","-0.11621094","-14.0","-20.03125","-6.96875"
"1574200575888","467","0.6015625","-0.82910156","-0.15527344","-28.34375","-22.59375","-9.84375"
"1574200575888","468","0.5625","-0.8144531","-0.19042969","-32.71875","-15.34375","-13.6875"
"1574200575889","469","0.57421875","-0.8232422","-0.25097656","-44.375","-13.75","-14.71875"
"1574200576086","470","0.54003906","-0.7783203","-0.24511719","-37.625","-3.125","-8.1875"
"1574200576086","471","0.5859375","-0.7050781","-0.22265625","-23.8125","4.625","-3.625"
"1574200576087","472","0.5966797","-0.7373047","-0.2109375","-10.21875","-2.21875","0.84375"
"1574200576087","473","0.5605469","-0.75878906","-0.18066406","6.875","0.53125","2.84375"
"1574200576087","474","0.60839844","-0.7871094","-0.18945312","11.46875","-0.5625","10.46875"
"1574200576087","475","0.53515625","-0.7890625","-0.20507812","26.09375","-6.3125","28.71875"
"1574200576088","476","0.6298828","-0.90527344","-0.27929688","17.25","-5.5625","26.28125"
"1574200576088","477","0.5253906","-0.81152344","-0.25878906","-13.3125","-35.71875","20.25"
"1574200576088","478","0.4423828","-0.8027344","-0.29882812","-20.84375","-24.4375","14.5"
"1574200576088","479","0.42578125","-0.7939453","-0.29003906","-15.625","-10.6875","4.375"
"1574200576484","480","0.5332031","-0.8652344","-0.265625","-0.6875","1.5625","-4.90625"
"1574200576485","481","0.5625","-0.828125","-0.3310547","0.84375","1.875","-5.09375"
"1574200576485","482","0.53808594","-0.7988281","-0.28710938","0.28125","1.75","-6.53125"
"1574200576485","483","0.4375","-0.81152344","-0.29101562","-2.21875","0.84375","5.78125"
"1574200576485","484","0.49902344","-0.7998047","-0.29589844","-4.40625","2.78125","3.34375"
"1574200576486","485","0.4873047","-0.8232422","-0.28710938","0.65625","6.21875","3.21875"
"1574200576486","486","0.50390625","-0.8515625","-0.27929688","2.25","8.59375","-2.59375"
"1574200576487","487","0.5019531","-0.828125","-0.26953125","-2.40625","12.0","-2.21875"
"1574200576487","488","0.49414062","-0.7890625","-0.28320312","5.90625","9.8125","-2.75"
"1574200576487","489","0.50390625","-0.87402344","-0.26171875","-0.5625","14.4375","1.09375"
"1574200576882","490","0.51660156","-0.8027344","-0.26464844","9.5625","12.0625","-2.15625"
"1574200576882","491","0.49414062","-0.81640625","-0.24316406","9.5","16.84375","-1.0625"
"1574200576883","492","0.5048828","-0.8574219","-0.2578125","0.03125","16.15625","-8.125"
"1574200576884","493","0.546875","-0.8095703","-0.20996094","2.375","14.375","-6.0625"
"1574200576885","494","0.50878906","-0.8613281","-0.24121094","-3.4375","18.28125","-7.28125"
"1574200576885","495","0.5527344","-0.7998047","-0.21777344","1.15625","15.0625","-6.3125"
"1574200576885","496","0.51171875","-0.8222656","-0.17675781","2.5","19.5625","4.6875"
"1574200576886","497","0.5878906","-0.77734375","-0.15234375","16.53125","14.5","4.0625"
"1574200576886","498","0.5488281","-0.7685547","-0.17675781","18.71875","10.90625","16.65625"
"1574200576886","499","0.5605469","-0.8515625","-0.18359375","20.0","3.03125","16.15625"
"1574200577280","500","0.5126953","-0.9550781","-0.15234375","11.8125","12.625","16.21875"
"1574200577281","501","0.48828125","-0.80859375","-0.16503906","6.875","-0.5","7.125"
"1574200577281","502","0.46484375","-0.8388672","-0.140625","-8.5","5.1875","8.59375"
"1574200577281","503","0.45996094","-0.89746094","-0.12988281","-3.90625","9.875","2.4375"
"1574200577281","504","0.5019531","-0.83203125","-0.15332031","-10.5625","9.1875","-4.09375"
"1574200577283","505","0.47558594","-0.91015625","-0.10449219","-14.84375","17.3125","-4.71875"
"1574200577283","506","0.4765625","-0.88183594","-0.13574219","-18.8125","11.75","-7.9375"
"1574200577283","507","0.49023438","-0.8535156","-0.16894531","-18.875","10.96875","-4.46875"
"1574200577284","508","0.49902344","-0.8691406","-0.13476562","-12.65625","14.9375","1.3125"
"1574200577284","509","0.46679688","-0.8935547","-0.15234375","-18.21875","13.09375","2.375"
"1574200577679","510","0.46679688","-0.8955078","-0.17675781","-21.375","12.1875","3.65625"
"1574200577679","511","0.4765625","-0.89453125","-0.15917969","-13.25","18.65625","4.8125"
"1574200577680","512","0.5371094","-0.84375","-0.125","-9.65625","16.78125","2.65625"
"1574200577680","513","0.453125","-0.82714844","-0.14160156","1.375","17.0625","3.03125"
"1574200577680","514","0.3935547","-0.9169922","-0.125","10.46875","23.53125","12.25"
"1574200577680","515","0.44726562","-0.85253906","-0.115234375","10.375","23.0","10.84375"
"1574200577681","516","0.5517578","-0.81640625","-0.21875","-4.46875","10.65625","0.84375"
"1574200577682","517","0.5419922","-0.9423828","-0.19335938","-8.8125","5.28125","-6.53125"
"1574200577682","518","0.52441406","-0.8359375","-0.24023438","-15.09375","-11.4375","-12.03125"
"1574200577683","519","0.50878906","-0.8330078","-0.18164062","-20.875","-6.4375","-9.90625"
"1574200578274","520","0.5048828","-0.81347656","-0.19238281","-12.15625","-7.71875","-14.3125"
"1574200578274","521","0.47558594","-0.8232422","-0.18261719","-5.3125","-2.53125","-8.25"
"1574200578274","522","0.4736328","-0.86621094","-0.19433594","2.3125","0.46875","0.53125"
"1574200578275","523","0.47265625","-0.83691406","-0.16015625","17.75","7.5625","9.375"
"1574200578275","524","0.46484375","-0.85058594","-0.14746094","27.9375","10.46875","10.25"
"1574200578275","525","0.47851562","-0.85253906","-0.13476562","32.6875","13.96875","8.84375"
"1574200578275","526","0.47558594","-0.85253906","-0.12890625","35.3125","16.65625","5.34375"
"1574200578276","527","0.5234375","-0.8808594","-0.11035156","32.21875","13.71875","0.96875"
"1574200578276","528","0.5097656","-0.89453125","-0.09472656","20.75","8.46875","0.96875"
"1574200578277","529","0.5361328","-0.8964844","-0.10058594","3.03125","5.21875","-3.5625"
"1574200578670","530","0.5214844","-0.78222656","-0.109375","-11.96875","0.90625","-3.5625"
"1574200578671","531","0.49609375","-0.8701172","-0.056640625","1.03125","-2.625","2.1875"
"1574200578671","532","0.48828125","-0.87402344","-0.11328125","1.75","-0.5625","5.78125"
"1574200578671","533","0.5234375","-0.88671875","-0.12011719","-2.625","-1.84375","5.78125"
"1574200578671","534","0.4921875","-0.8876953","-0.1015625","-8.5","-5.09375","4.375"
"1574200578672","535","0.4560547","-0.8486328","-0.08886719","-7.03125","-5.75","-0.1875"
"1574200578672","536","0.4716797","-0.8486328","-0.12011719","-6.25","-4.34375","-0.375"
"1574200578672","537","0.46875","-0.8847656","-0.07421875","-3.125","0.46875","-2.34375"
"1574200578672","538","0.46191406","-0.86621094","-0.095703125","-0.9375","-3.0625","-1.125"
"1574200578673","539","0.47460938","-0.92871094","-0.08300781","-0.4375","0.96875","1.5"
"1574200578870","540","0.46777344","-0.84765625","-0.10253906","-1.78125","0.96875","-1.34375"
"1574200578872","541","0.4765625","-0.86035156","-0.11621094","-2.46875","-1.25","-1.90625"
"1574200578872","542","0.46875","-0.89453125","-0.10253906","-0.125","2.71875","-2.46875"
"1574200578872","543","0.4482422","-0.87109375","-0.111328125","-2.53125","6.75","-1.40625"
"1574200578873","544","0.49023438","-0.8642578","-0.09765625","1.15625","4.9375","-1.125"
"1574200578873","545","0.4404297","-0.91503906","-0.0859375","2.125","7.375","0.96875"
"1574200578873","546","0.46875","-0.8486328","-0.11035156","6.875","9.03125","0.0"
"1574200578873","547","0.4736328","-0.88183594","-0.060546875","6.8125","10.1875","1.625"
"1574200578874","548","0.45507812","-0.90234375","-0.07324219","7.5","9.25","-0.5625"
"1574200578874","549","0.48632812","-0.85839844","-0.078125","6.5625","9.6875","0.90625"
