"# PR data"
"# Start time: 20191119T220447"
"# Subject: diana"
"# Activity type: Leg slide"
"# Correctness: Correct"
"# Notes: "
""
"timestamp","seq","accel_x","accel_y","accel_z","gyro_x","gyro_y","gyro_z"
"1574201088067","0","0.5253906","-0.7939453","-0.28710938","11.46875","-14.53125","-5.75"
"1574201088068","1","0.5048828","-0.8095703","-0.30371094","15.90625","-13.5","-11.1875"
"1574201088068","2","0.53808594","-0.8300781","-0.29492188","18.46875","-15.28125","-15.09375"
"1574201088068","3","0.57714844","-0.79296875","-0.2548828","11.875","-27.0625","-10.5625"
"1574201088069","4","0.5126953","-0.78222656","-0.2861328","4.3125","-19.71875","0.53125"
"1574201088071","5","0.4921875","-0.8222656","-0.30078125","4.625","-6.84375","2.65625"
"1574201088072","6","0.46777344","-0.83984375","-0.31445312","8.65625","-5.375","-0.375"
"1574201088072","7","0.5029297","-0.8222656","-0.30078125","5.53125","-3.5","-4.65625"
"1574201088072","8","0.5292969","-0.8173828","-0.2998047","1.6875","0.28125","-5.8125"
"1574201088073","9","0.52246094","-0.81347656","-0.31347656","-4.09375","0.28125","-3.6875"
"1574201088664","10","0.54003906","-0.79003906","-0.3203125","-5.09375","4.8125","-2.03125"
"1574201088665","11","0.5097656","-0.8066406","-0.3203125","-6.3125","7.96875","0.34375"
"1574201088665","12","0.49414062","-0.8251953","-0.30859375","-8.375","12.875","0.28125"
"1574201088666","13","0.5234375","-0.8076172","-0.31445312","-7.40625","17.375","2.78125"
"1574201088666","14","0.53125","-0.796875","-0.30273438","-10.9375","16.28125","3.65625"
"1574201088667","15","0.5419922","-0.79785156","-0.3046875","-8.9375","13.65625","5.34375"
"1574201088667","16","0.5332031","-0.79785156","-0.30273438","-8.1875","16.03125","7.25"
"1574201088667","17","0.5107422","-0.8183594","-0.31054688","-6.125","13.90625","6.6875"
"1574201088668","18","0.5136719","-0.80859375","-0.27929688","-3.90625","10.65625","4.875"
"1574201088668","19","0.52246094","-0.8046875","-0.2939453","-2.40625","9.625","3.46875"
"1574201088862","20","0.5175781","-0.7753906","-0.31445312","0.65625","3.34375","3.09375"
"1574201088862","21","0.5341797","-0.80859375","-0.296875","0.15625","3.71875","1.875"
"1574201088862","22","0.5332031","-0.82714844","-0.29589844","0.28125","1.21875","0.46875"
"1574201088863","23","0.52441406","-0.81152344","-0.27539062","3.03125","0.96875","2.1875"
"1574201088863","24","0.51464844","-0.8076172","-0.28710938","3.59375","0.09375","1.09375"
"1574201088864","25","0.5576172","-0.80078125","-0.27539062","5.96875","-5.4375","-3.5"
"1574201088864","26","0.5214844","-0.79589844","-0.31152344","7.96875","-5.4375","-3.8125"
"1574201088865","27","0.5029297","-0.8046875","-0.28027344","10.53125","-9.15625","-3.8125"
"1574201088865","28","0.5292969","-0.8095703","-0.29882812","11.21875","-9.21875","-1.84375"
"1574201088865","29","0.49902344","-0.7832031","-0.28125","20.625","-4.90625","3.34375"
"1574201089259","30","0.5078125","-0.8359375","-0.2607422","21.53125","-5.875","5.90625"
"1574201089259","31","0.4814453","-0.8408203","-0.25195312","24.9375","-2.09375","6.15625"
"1574201089260","32","0.50878906","-0.8173828","-0.21582031","30.0","-2.875","6.46875"
"1574201089260","33","0.4892578","-0.8701172","-0.19824219","23.25","0.21875","4.0625"
"1574201089260","34","0.46777344","-0.8652344","-0.22460938","24.75","0.21875","3.71875"
"1574201089260","35","0.52734375","-0.8496094","-0.18652344","18.65625","-0.3125","0.40625"
"1574201089261","36","0.53125","-0.8623047","-0.16210938","20.25","1.5625","2.3125"
"1574201089262","37","0.4638672","-0.8613281","-0.17382812","14.03125","-0.6875","4.0"
"1574201089262","38","0.45214844","-0.85546875","-0.17871094","7.375","5.65625","6.03125"
"1574201089263","39","0.5","-0.89160156","-0.16601562","5.78125","13.71875","0.34375"
"1574201090053","40","0.49804688","-0.8779297","-0.18164062","10.1875","10.71875","-5.5"
"1574201090054","41","0.54785156","-0.8652344","-0.16503906","14.8125","7.8125","-15.28125"
"1574201090054","42","0.53515625","-0.8388672","-0.16894531","18.34375","7.90625","-18.75"
"1574201090054","43","0.49804688","-0.8408203","-0.099609375","16.09375","0.90625","-19.78125"
"1574201090054","44","0.51953125","-0.8330078","-0.11816406","14.21875","-2.15625","-16.96875"
"1574201090055","45","0.5371094","-0.84375","-0.09765625","8.96875","-4.53125","-16.9375"
"1574201090055","46","0.5214844","-0.8574219","-0.11230469","6.28125","-1.0","-14.0625"
"1574201090056","47","0.54296875","-0.8359375","-0.12011719","1.8125","0.65625","-10.75"
"1574201090056","48","0.59765625","-0.76171875","-0.083984375","1.9375","-5.75","-7.21875"
"1574201090057","49","0.62109375","-0.7451172","-0.07519531","11.65625","-9.59375","-4.03125"
"1574201090251","50","0.59765625","-0.83984375","-0.1015625","12.5625","-23.75","-4.34375"
"1574201090252","51","0.50097656","-0.9160156","-0.10546875","1.9375","-15.15625","-3.1875"
"1574201090252","52","0.5185547","-0.84765625","-0.11425781","6.625","-10.9375","4.125"
"1574201090252","53","0.60253906","-0.8330078","-0.091796875","-4.15625","-3.375","9.25"
"1574201090252","54","0.546875","-0.8378906","-0.10546875","-5.9375","2.84375","7.8125"
"1574201090253","55","0.49804688","-0.82910156","-0.087890625","-5.09375","2.5","8.28125"
"1574201090253","56","0.5605469","-0.82910156","-0.08496094","-6.125","4.9375","3.71875"
"1574201090253","57","0.5722656","-0.8222656","-0.05078125","3.71875","7.625","1.09375"
"1574201090253","58","0.48828125","-0.7734375","-0.07519531","11.15625","4.8125","2.375"
"1574201090253","59","0.53515625","-0.78125","-0.048828125","9.03125","1.3125","-2.40625"
"1574201090652","60","0.5859375","-0.8251953","-0.05859375","12.1875","-1.34375","-1.78125"
"1574201090654","61","0.55566406","-0.8652344","-0.06933594","3.65625","-10.40625","-4.78125"
"1574201090654","62","0.5654297","-0.8388672","-0.083984375","1.28125","-5.21875","-2.46875"
"1574201090655","63","0.5449219","-0.81152344","-0.1015625","4.75","-10.75","-0.75"
"1574201090655","64","0.5498047","-0.83691406","-0.08105469","0.09375","-4.71875","-4.78125"
"1574201090655","65","0.5751953","-0.8339844","-0.09472656","0.40625","-1.125","-5.5"
"1574201090655","66","0.6064453","-0.8378906","-0.06738281","-0.875","-5.4375","-9.59375"
"1574201090656","67","0.5546875","-0.77441406","-0.11621094","7.96875","-17.53125","-0.1875"
"1574201090656","68","0.45898438","-0.86816406","-0.03515625","-8.3125","0.34375","-2.59375"
"1574201090656","69","0.5644531","-0.8496094","-0.17675781","-1.84375","1.28125","4.3125"
"1574201090850","70","0.5214844","-0.8876953","-0.07519531","-15.21875","2.59375","3.90625"
"1574201090850","71","0.50878906","-0.87109375","-0.11425781","-7.03125","7.96875","-1.65625"
"1574201090850","72","0.56347656","-0.7861328","-0.10058594","-6.4375","0.96875","2.0"
"1574201090852","73","0.5449219","-0.78027344","-0.07421875","-1.125","2.65625","5.40625"
"1574201090852","74","0.49414062","-0.8564453","-0.12695312","-5.8125","-2.59375","8.71875"
"1574201090852","75","0.51953125","-0.82714844","-0.09863281","2.3125","-3.90625","13.84375"
"1574201090852","76","0.4296875","-0.8769531","-0.123046875","-2.59375","4.9375","21.65625"
"1574201090853","77","0.51464844","-0.93066406","-0.12109375","-9.0625","7.96875","11.9375"
"1574201090853","78","0.49609375","-0.8300781","-0.08886719","-2.46875","3.03125","20.0625"
"1574201090853","79","0.46484375","-0.9160156","-0.13867188","-19.375","10.53125","12.625"
"1574201091247","80","0.44628906","-0.83203125","-0.16992188","-18.9375","16.46875","12.375"
"1574201091247","81","0.55859375","-0.86035156","-0.15136719","-20.71875","8.96875","-0.625"
"1574201091247","82","0.5185547","-0.87402344","-0.15625","-20.03125","12.8125","-4.09375"
"1574201091248","83","0.4560547","-0.83496094","-0.12890625","-16.5","6.5","0.0"
"1574201091248","84","0.48535156","-0.859375","-0.14550781","-24.6875","9.875","0.96875"
"1574201091248","85","0.5","-0.87597656","-0.17089844","-27.59375","11.75","12.625"
"1574201091248","86","0.45507812","-0.9433594","-0.16992188","-35.21875","27.5","35.09375"
"1574201091249","87","0.4013672","-1.03125","-0.21191406","-34.625","25.375","34.28125"
"1574201091249","88","0.50683594","-0.82714844","-0.2705078","-35.15625","7.75","28.625"
"1574201091249","89","0.49804688","-0.6386719","-0.23339844","-12.46875","-0.375","12.75"
"1574201091645","90","0.46972656","-0.7675781","-0.24414062","-10.75","-10.75","-12.65625"
"1574201091645","91","0.31152344","-0.9423828","-0.2998047","1.28125","-15.75","-14.71875"
"1574201091645","92","0.3515625","-0.8808594","-0.33984375","0.21875","4.375","-13.375"
"1574201091645","93","0.46679688","-0.86328125","-0.31640625","1.8125","0.09375","-20.53125"
"1574201091645","94","0.4267578","-0.82128906","-0.22851562","13.53125","-7.34375","-28.03125"
"1574201091645","95","0.41308594","-0.90722656","-0.29785156","-1.65625","-21.5625","-25.96875"
"1574201091646","96","0.4814453","-0.8388672","-0.3642578","10.125","-16.96875","-35.28125"
"1574201091646","97","0.44140625","-0.82128906","-0.26660156","7.96875","-25.34375","-44.21875"
"1574201091646","98","0.42089844","-0.95214844","-0.26953125","10.3125","-12.59375","-26.625"
"1574201091647","99","0.4033203","-0.8935547","-0.24414062","10.71875","4.0625","-10.28125"
"1574201092240","100","0.3984375","-0.8496094","-0.2109375","8.03125","19.21875","-1.71875"
"1574201092241","101","0.4267578","-0.8339844","-0.1875","1.75","19.46875","-4.15625"
"1574201092241","102","0.4814453","-0.79003906","-0.25390625","-5.875","12.125","-13.8125"
"1574201092241","103","0.56347656","-0.8066406","-0.25585938","-8.75","-9.40625","-23.09375"
"1574201092242","104","0.52246094","-0.88183594","-0.25585938","-10.34375","-6.65625","-25.03125"
"1574201092242","105","0.4482422","-0.9638672","-0.28222656","3.21875","2.3125","-8.9375"
"1574201092242","106","0.44628906","-0.9042969","-0.31152344","-7.875","7.0625","8.90625"
"1574201092242","107","0.46972656","-0.90625","-0.25683594","-14.3125","24.65625","20.1875"
"1574201092243","108","0.17773438","-0.953125","-0.15722656","-5.75","62.59375","37.71875"
"1574201092244","109","0.42285156","-0.7705078","-0.2265625","-17.59375","58.6875","17.0625"
"1574201092440","110","0.5761719","-0.62890625","-0.25390625","-3.4375","58.28125","4.1875"
"1574201092441","111","0.4326172","-0.6640625","-0.17773438","10.375","69.125","-6.59375"
"1574201092441","112","1.0","-0.64941406","-0.026367188","0.90625","17.75","-38.65625"
"1574201092441","113","1.0117188","-1.1347656","-0.19140625","-14.0","-16.8125","-7.34375"
"1574201092442","114","0.15429688","-0.8652344","0.0048828125","-11.5625","42.15625","40.4375"
"1574201092442","115","0.6699219","-0.53222656","-0.08691406","13.65625","6.15625","-23.28125"
"1574201092442","116","0.8847656","-0.7548828","-0.14746094","6.46875","0.53125","-16.96875"
"1574201092442","117","0.4423828","-0.8691406","-0.087890625","1.4375","-12.84375","4.25"
"1574201092443","118","0.6201172","-0.75","-0.08105469","-5.75","8.84375","-4.71875"
"1574201092443","119","0.68847656","-0.75683594","-0.2529297","8.65625","-19.4375","0.40625"
"1574201092838","120","0.5810547","-0.9326172","-0.23046875","-8.5","-23.03125","2.375"
"1574201092839","121","0.47265625","-0.96972656","-0.21679688","-5.4375","-10.28125","3.40625"
"1574201092840","122","0.375","-0.7451172","-0.28808594","-3.1875","-22.65625","5.34375"
"1574201092840","123","0.47070312","-0.6308594","-0.28320312","9.75","-21.6875","-7.59375"
"1574201092840","124","0.5","-0.8808594","-0.18652344","-6.0","-0.25","-2.40625"
"1574201092840","125","0.6796875","-0.86621094","-0.22949219","-9.96875","3.9375","3.71875"
"1574201092840","126","0.7919922","-0.7480469","-0.13085938","17.6875","-17.53125","-0.3125"
"1574201092841","127","0.546875","-0.8222656","-0.15722656","16.03125","-15.875","-9.78125"
"1574201092841","128","0.5","-0.7861328","-0.22167969","11.34375","-14.78125","-9.125"
"1574201092841","129","0.5751953","-0.7001953","-0.15039062","22.4375","-11.125","-6.84375"
"1574201093630","130","0.60546875","-0.7734375","-0.14648438","14.09375","-12.28125","-7.875"
"1574201093631","131","0.63378906","-0.796875","-0.22460938","22.1875","-20.28125","-17.59375"
"1574201093631","132","0.54785156","-0.81152344","-0.125","30.4375","-29.9375","-13.8125"
"1574201093632","133","0.5488281","-0.7919922","-0.19921875","24.9375","-31.8125","-10.40625"
"1574201093633","134","0.5996094","-0.7998047","-0.16894531","21.53125","-30.28125","-5.5"
"1574201093633","135","0.49316406","-0.8828125","-0.11328125","15.5625","-24.0625","10.59375"
"1574201093633","136","0.5234375","-0.84375","-0.1796875","5.28125","-17.21875","17.5"
"1574201093634","137","0.54003906","-0.8408203","-0.1953125","-1.0","-17.78125","6.6875"
"1574201093634","138","0.5332031","-0.8261719","-0.16796875","-8.0","0.03125","6.875"
"1574201093634","139","0.5732422","-0.7392578","-0.14453125","-4.28125","22.03125","7.6875"
"1574201093635","140","0.4609375","-0.8203125","-0.23046875","7.3125","-2.21875","8.84375"
"1574201093635","141","0.46972656","-0.89941406","-0.22167969","8.71875","2.71875","1.21875"
"1574201093635","142","0.5996094","-0.8232422","-0.20703125","33.375","-4.65625","-16.9375"
"1574201093635","143","0.5488281","-0.7636719","-0.17480469","37.21875","-22.90625","-25.59375"
"1574201093636","144","0.5332031","-0.82910156","-0.111328125","22.3125","-9.78125","-18.5625"
"1574201093637","145","0.53515625","-0.890625","-0.20507812","3.90625","6.5625","-7.21875"
"1574201093637","146","0.64941406","-0.79589844","-0.17285156","5.34375","-7.28125","-8.1875"
"1574201093637","147","0.64941406","-0.77734375","-0.125","4.5","-14.0","-16.5"
"1574201093638","148","0.5283203","-0.7890625","-0.13769531","1.15625","-21.625","-6.125"
"1574201093638","149","0.515625","-0.75","-0.14160156","-2.34375","-10.21875","3.90625"
"1574201094031","150","0.7089844","-0.7753906","-0.17480469","-14.0","-19.96875","7.625"
"1574201094031","151","0.5703125","-0.8095703","-0.19433594","-5.375","-17.59375","23.125"
"1574201094032","152","0.45507812","-0.8417969","-0.19140625","-11.625","-6.78125","24.40625"
"1574201094032","153","0.5498047","-0.8378906","-0.23242188","-16.0","1.75","18.53125"
"1574201094032","154","0.52734375","-0.8183594","-0.17578125","-19.375","4.125","24.59375"
"1574201094032","155","0.45996094","-0.81347656","-0.20410156","-9.96875","15.0","31.71875"
"1574201094033","156","0.5449219","-0.86621094","-0.18945312","-17.65625","12.0","16.90625"
"1574201094033","157","0.5517578","-0.79003906","-0.19433594","-1.25","6.75","12.9375"
"1574201094034","158","0.48242188","-0.86621094","-0.19433594","-2.21875","4.75","5.90625"
"1574201094034","159","0.49609375","-0.83691406","-0.17675781","6.5","-1.125","6.46875"
"1574201094624","160","0.4736328","-0.9003906","-0.22070312","-3.625","5.71875","2.375"
"1574201094624","161","0.5341797","-0.83496094","-0.19726562","3.71875","5.90625","2.0625"
"1574201094625","162","0.51953125","-0.8095703","-0.1015625","7.125","8.59375","6.34375"
"1574201094625","163","0.42089844","-0.8828125","-0.2685547","9.75","-3.4375","-5.9375"
"1574201094625","164","0.65234375","-0.7324219","-0.06640625","15.5625","7.5625","8.28125"
"1574201094625","165","0.3203125","-0.9375","-0.2265625","10.78125","-7.21875","-16.75"
"1574201094626","166","0.5722656","-0.83496094","-0.13671875","18.28125","7.5625","8.59375"
"1574201094626","167","0.4013672","-0.8925781","-0.16796875","-4.65625","-0.4375","-3.0625"
"1574201094626","168","0.4296875","-0.9248047","-0.22265625","8.84375","13.0","6.875"
"1574201094628","169","0.46777344","-0.8925781","-0.14746094","-12.15625","6.5","8.15625"
"1574201094824","170","0.32910156","-0.93359375","-0.21875","-15.03125","30.8125","10.375"
"1574201094824","171","0.48632812","-0.8486328","-0.16503906","-9.40625","19.5625","11.71875"
"1574201094825","172","0.48828125","-0.84472656","-0.11621094","-9.46875","22.125","2.0625"
"1574201094825","173","0.4921875","-0.93066406","-0.15917969","-3.8125","15.78125","-5.625"
"1574201094825","174","0.55078125","-0.81152344","-0.17578125","-9.34375","13.59375","-8.75"
"1574201094825","175","0.57714844","-0.73339844","-0.16308594","-9.28125","5.96875","-2.09375"
"1574201094826","176","0.5595703","-0.8105469","-0.21484375","-22.21875","4.8125","-7.34375"
"1574201094826","177","0.4794922","-0.90625","-0.25390625","-15.28125","3.9375","-5.5"
"1574201094827","178","0.3828125","-0.9472656","-0.22167969","-13.75","14.15625","7.90625"
"1574201094827","179","0.4111328","-0.9345703","-0.14550781","-21.75","32.8125","33.0625"
"1574201095224","180","0.3935547","-0.8955078","-0.23730469","-21.0","31.0625","43.5"
"1574201095225","181","0.3798828","-0.9355469","-0.21386719","-29.25","32.03125","42.90625"
"1574201095226","182","0.3544922","-0.8339844","-0.2421875","-14.34375","30.25","33.4375"
"1574201095226","183","0.44726562","-0.8408203","-0.234375","-15.40625","26.09375","18.28125"
"1574201095226","184","0.40039062","-0.93652344","-0.20703125","-16.0625","19.875","11.9375"
"1574201095227","185","0.33984375","-0.8925781","-0.23339844","-1.71875","6.5","8.84375"
"1574201095227","186","0.36816406","-0.84765625","-0.22753906","3.03125","8.59375","-1.0625"
"1574201095227","187","0.32910156","-0.9394531","-0.2607422","12.4375","-3.25","-6.84375"
"1574201095227","188","0.2763672","-0.96972656","-0.21582031","12.3125","-2.34375","-11.0625"
"1574201095228","189","0.359375","-0.96875","-0.1875","3.28125","-6.71875","-5.8125"
"1574201095620","190","0.26171875","-0.94628906","-0.25976562","7.3125","-3.0","5.40625"
"1574201095620","191","0.26660156","-0.9941406","-0.21679688","5.34375","6.5625","1.03125"
"1574201095621","192","0.3203125","-1.0478516","-0.15234375","-5.625","15.4375","11.9375"
"1574201095621","193","0.28515625","-0.8417969","-0.19140625","2.375","21.96875","8.15625"
"1574201095621","194","0.32910156","-0.85546875","-0.13671875","-4.28125","19.34375","18.53125"
"1574201095622","195","0.26367188","-0.87109375","-0.2109375","-1.84375","4.5","12.625"
"1574201095622","196","0.3154297","-0.94433594","-0.15820312","-0.4375","3.15625","-0.6875"
"1574201095622","197","0.27246094","-0.9355469","-0.16113281","4.0","-2.46875","-6.59375"
"1574201095623","198","0.25976562","-0.95410156","-0.16601562","6.9375","5.65625","-5.5625"
"1574201095623","199","0.32910156","-0.9199219","-0.19140625","6.15625","-1.1875","-10.28125"
"1574201096611","200","0.35058594","-0.9863281","-0.15429688","3.53125","-2.9375","-11.25"
"1574201096612","201","0.2841797","-0.9707031","-0.15234375","9.9375","5.125","-17.03125"
"1574201096612","202","0.4404297","-0.9140625","-0.15332031","-0.1875","-6.4375","-16.375"
"1574201096613","203","0.3154297","-0.9189453","-0.21972656","6.9375","-10.21875","-7.15625"
"1574201096614","204","0.3076172","-0.9199219","-0.08203125","1.8125","-5.9375","-11.5"
"1574201096614","205","0.35546875","-0.94628906","-0.19921875","0.40625","1.5","-9.53125"
"1574201096615","206","0.32128906","-0.95703125","-0.07714844","-0.875","6.03125","-7.09375"
"1574201096615","207","0.43164062","-0.9189453","-0.21875","-4.53125","15.4375","-12.71875"
"1574201096615","208","0.37890625","-0.9169922","-0.1796875","8.53125","-0.5625","-9.125"
"1574201096615","209","0.45898438","-0.8642578","-0.0546875","-6.3125","3.28125","-9.96875"
"1574201096616","210","0.32910156","-0.9189453","-0.18554688","-0.75","20.4375","3.21875"
"1574201096616","211","0.43359375","-0.83496094","-0.12597656","-11.125","6.5","-2.6875"
"1574201096617","212","0.44335938","-0.87109375","-0.18066406","-1.78125","7.3125","-9.46875"
"1574201096617","213","0.35742188","-0.91503906","-0.18066406","1.375","-1.78125","-8.4375"
"1574201096617","214","0.39746094","-0.9140625","-0.10449219","-8.6875","7.75","-3.125"
"1574201096617","215","0.4814453","-0.90527344","-0.25878906","-2.59375","5.96875","-7.28125"
"1574201096618","216","0.44921875","-0.92089844","-0.16015625","-9.21875","-8.1875","-9.21875"
"1574201096618","217","0.38867188","-0.9140625","-0.15234375","-0.625","-6.375","0.65625"
"1574201096618","218","0.35839844","-0.92089844","-0.203125","-7.21875","1.5","-0.9375"
"1574201096619","219","0.35839844","-0.91308594","-0.171875","-6.25","4.8125","-1.125"
"1574201096814","220","0.41796875","-0.84277344","-0.1875","5.40625","8.84375","0.15625"
"1574201096815","221","0.39746094","-0.87890625","-0.20703125","7.3125","-0.625","-6.90625"
"1574201096815","222","0.3701172","-0.8408203","-0.18945312","15.3125","4.875","-10.03125"
"1574201096815","223","0.38476562","-0.6845703","-0.15722656","33.1875","11.9375","-17.40625"
"1574201096815","224","0.7294922","-0.9824219","-0.17089844","25.0625","5.0","-32.96875"
"1574201096816","225","0.6425781","-1.0625","-0.109375","47.84375","-28.9375","-54.34375"
"1574201096816","226","0.4296875","-0.8955078","0.0087890625","57.53125","-18.3125","-31.6875"
"1574201096817","227","0.42285156","-0.6503906","-0.1015625","41.375","-16.3125","-22.84375"
"1574201096817","228","0.5957031","-0.81347656","-0.029296875","23.0","-13.0625","-24.25"
"1574201096818","229","0.5966797","-0.921875","-0.016601562","25.1875","-13.9375","-25.96875"
"1574201097211","230","0.56347656","-0.9375","-0.059570312","18.1875","-12.09375","-14.40625"
"1574201097211","231","0.60839844","-0.84375","-0.0087890625","5.46875","-3.6875","-9.40625"
"1574201097212","232","0.578125","-0.7441406","-0.043945312","-5.4375","4.5","-8.0625"
"1574201097212","233","0.57714844","-0.7236328","-0.0146484375","0.78125","1.75","-11.25"
"1574201097212","234","0.6777344","-0.73339844","0.061523438","3.59375","-4.90625","-17.03125"
"1574201097213","235","0.6699219","-0.7675781","0.0","1.28125","-1.53125","-14.53125"
"1574201097213","236","0.6357422","-0.7685547","-0.037109375","-8.25","-5.625","-3.3125"
"1574201097213","237","0.5761719","-0.7675781","0.0029296875","-8.625","-1.125","0.71875"
"1574201097213","238","0.63183594","-0.75","0.001953125","-5.8125","1.6875","3.40625"
"1574201097214","239","0.60839844","-0.7841797","-0.009765625","-6.5","-1.1875","9.03125"
"1574201098003","240","0.59765625","-0.8027344","-0.034179688","-9.125","-1.84375","9.8125"
"1574201098005","241","0.6015625","-0.82910156","-0.053710938","-8.0","-2.625","9.25"
"1574201098005","242","0.58691406","-0.79003906","-0.046875","-4.21875","-5.4375","8.59375"
"1574201098005","243","0.5751953","-0.7519531","-0.029296875","-3.90625","-7.875","9.5"
"1574201098006","244","0.5605469","-0.8066406","-0.04296875","-7.9375","-10.5625","10.46875"
"1574201098006","245","0.5908203","-0.8144531","-0.060546875","-5.21875","-2.6875","11.9375"
"1574201098007","246","0.5810547","-0.7939453","-0.04296875","-3.90625","-3.125","14.5"
"1574201098007","247","0.59472656","-0.78027344","-0.057617188","3.71875","-3.5","7.125"
"1574201098007","248","0.6298828","-0.7939453","-0.044921875","-0.5","-7.28125","10.1875"
"1574201098008","249","0.4716797","-0.8535156","-0.08496094","-7.59375","0.59375","9.6875"
"1574201098201","250","0.6074219","-0.8417969","-0.068359375","-5.6875","3.34375","10.90625"
"1574201098202","251","0.4873047","-0.8642578","-0.109375","-12.03125","-0.5","7.5"
"1574201098202","252","0.57128906","-0.8496094","-0.053710938","-5.4375","1.09375","12.9375"
"1574201098203","253","0.47753906","-0.86035156","-0.15136719","-6.25","0.15625","4.8125"
"1574201098203","254","0.46484375","-0.85839844","-0.07714844","-11.5","6.28125","12.25"
"1574201098204","255","0.54785156","-0.7919922","-0.078125","3.28125","-1.46875","16.40625"
"1574201098204","256","0.44726562","-0.9013672","-0.13964844","-7.9375","-0.5","8.28125"
"1574201098204","257","0.45410156","-0.8232422","-0.09667969","-9.34375","-5.5625","16.65625"
"1574201098204","258","0.5058594","-0.875","-0.04296875","-14.125","-5.625","19.9375"
"1574201098205","259","0.4404297","-0.98828125","-0.17285156","-24.1875","3.28125","10.25"
"1574201098602","260","0.42773438","-0.9472656","-0.16894531","-30.71875","10.65625","6.21875"
"1574201098603","261","0.47460938","-0.84375","-0.15820312","-17.78125","6.09375","1.875"
"1574201098603","262","0.38378906","-0.8828125","-0.14746094","-22.59375","8.96875","5.125"
"1574201098603","263","0.43164062","-0.8935547","-0.2109375","-16.3125","19.15625","6.15625"
"1574201098603","264","0.5283203","-0.8378906","-0.09667969","0.0","25.8125","32.28125"
"1574201098605","265","0.44726562","-0.8886719","-0.14355469","-14.53125","5.1875","35.3125"
"1574201098605","266","0.24902344","-1.0117188","-0.21582031","-8.8125","13.78125","24.71875"
"1574201098605","267","0.3955078","-0.8828125","-0.20507812","-18.75","13.09375","30.1875"
"1574201098605","268","0.48046875","-0.8310547","-0.24707031","-7.78125","-2.28125","5.78125"
"1574201098606","269","0.30664062","-0.95703125","-0.1875","-12.96875","-1.3125","-6.3125"
"1574201098800","270","0.20703125","-1.0273438","-0.22753906","-4.15625","10.84375","7.375"
"1574201098801","271","0.33496094","-0.8701172","-0.22070312","-10.5625","13.78125","7.25"
"1574201098801","272","0.33398438","-0.8027344","-0.24316406","1.3125","16.84375","-1.0625"
"1574201098801","273","0.29882812","-0.89941406","-0.17089844","8.46875","13.28125","-8.9375"
"1574201098801","274","0.30566406","-1.0273438","-0.21289062","3.53125","13.15625","-3.625"
"1574201098801","275","0.32617188","-1.0068359","-0.23242188","-1.0","27.625","-1.59375"
"1574201098802","276","0.38671875","-0.9433594","-0.18652344","-2.9375","18.34375","2.0"
"1574201098803","277","0.33789062","-0.8613281","-0.17382812","2.90625","17.75","-0.5"
"1574201098803","278","0.34375","-0.8701172","-0.13574219","5.90625","7.90625","-4.90625"
"1574201098803","279","0.36523438","-0.92089844","-0.17773438","7.25","2.1875","-1.78125"
"1574201099197","280","0.36035156","-0.9580078","-0.16601562","5.53125","-1.0625","-2.40625"
"1574201099198","281","0.33984375","-0.92285156","-0.14355469","7.0625","-1.96875","-5.9375"
"1574201099198","282","0.36035156","-0.9316406","-0.1875","6.28125","-4.90625","-7.09375"
"1574201099198","283","0.3408203","-0.9423828","-0.16699219","3.59375","-5.5625","-10.625"
"1574201099199","284","0.38476562","-0.9316406","-0.15136719","3.71875","-15.53125","-17.40625"
"1574201099199","285","0.37304688","-0.90625","-0.17871094","-1.90625","-10.15625","-16.9375"
"1574201099199","286","0.40625","-0.93847656","-0.19042969","6.5","-18.03125","-7.9375"
"1574201099200","287","0.26171875","-0.93847656","-0.1640625","-2.8125","-5.21875","-3.875"
"1574201099200","288","0.42089844","-0.84472656","-0.23535156","3.9375","-5.75","-14.0"
"1574201099200","289","0.42382812","-0.9433594","-0.21582031","6.15625","-10.34375","-6.59375"
"1574201099596","290","0.3076172","-0.9013672","-0.119140625","-2.40625","20.96875","0.40625"
"1574201099597","291","0.44921875","-0.9589844","-0.234375","-2.21875","10.65625","-1.90625"
"1574201099597","292","0.44140625","-0.88183594","-0.08300781","-8.5","19.40625","10.84375"
"1574201099597","293","0.3330078","-0.83691406","-0.19238281","-7.09375","34.96875","6.8125"
"1574201099597","294","0.4423828","-0.8935547","-0.140625","-10.21875","14.3125","4.4375"
"1574201099598","295","0.41503906","-0.89746094","-0.12597656","-14.59375","23.53125","4.4375"
"1574201099598","296","0.32910156","-0.9433594","-0.15429688","-8.1875","8.78125","13.40625"
"1574201099599","297","0.38183594","-0.9111328","-0.14550781","-15.75","15.78125","-0.375"
"1574201099599","298","0.49121094","-0.9033203","-0.22363281","-5.8125","12.4375","-3.90625"
"1574201099599","299","0.3544922","-0.8857422","-0.16308594","-4.34375","0.78125","0.0"
"1574201100389","300","0.39648438","-0.8457031","-0.14355469","0.46875","4.6875","3.46875"
"1574201100391","301","0.3857422","-0.95996094","-0.22949219","-8.9375","-0.5625","1.3125"
"1574201100391","302","0.32910156","-0.97753906","-0.1953125","-9.65625","-5.875","4.125"
"1574201100391","303","0.32128906","-0.9042969","-0.2265625","-1.71875","8.21875","1.6875"
"1574201100391","304","0.40820312","-0.7373047","-0.18066406","9.9375","8.28125","-7.46875"
"1574201100392","305","0.45898438","-0.7783203","-0.13476562","23.71875","11.8125","-14.71875"
"1574201100392","306","0.51953125","-0.9814453","-0.15234375","26.78125","-6.125","-33.84375"
"1574201100392","307","0.5283203","-0.95214844","-0.0703125","39.40625","-10.75","-35.46875"
"1574201100393","308","0.48339844","-0.8496094","-0.041992188","49.53125","-8.8125","-36.5"
"1574201100393","309","0.45410156","-0.7910156","-0.029296875","35.25","-21.5625","-28.09375"
"1574201100586","310","0.4970703","-0.90722656","-0.048828125","19.15625","-11.71875","-22.90625"
"1574201100587","311","0.5361328","-0.8847656","-0.078125","14.5625","-27.53125","-16.625"
"1574201100587","312","0.5439453","-0.9013672","-0.083984375","8.65625","-12.90625","-9.28125"
"1574201100588","313","0.50390625","-0.8613281","-0.061523438","-0.5","-6.84375","7.375"
"1574201100589","314","0.4765625","-0.7783203","-0.08105469","2.375","-5.875","8.21875"
"1574201100589","315","0.56640625","-0.8339844","-0.043945312","9.1875","-13.5","10.90625"
"1574201100589","316","0.52441406","-0.90625","-0.051757812","2.96875","-12.09375","29.84375"
"1574201100589","317","0.4716797","-0.90722656","-0.1015625","-2.03125","-11.4375","34.34375"
"1574201100590","318","0.453125","-0.8574219","-0.076171875","-3.8125","-5.25","31.78125"
"1574201100590","319","0.44140625","-0.8798828","-0.055664062","-8.5625","-6.0","29.09375"
"1574201100987","320","0.4267578","-0.8955078","-0.048828125","-5.875","-7.53125","21.78125"
"1574201100987","321","0.45898438","-0.88378906","-0.046875","-1.90625","-7.59375","12.375"
"1574201100988","322","0.38867188","-0.9355469","-0.11425781","-2.46875","-3.1875","8.28125"
"1574201100988","323","0.42382812","-0.8925781","-0.060546875","11.65625","-8.875","15.1875"
"1574201100988","324","0.3828125","-0.92285156","-0.01171875","11.8125","0.34375","9.6875"
"1574201100989","325","0.40234375","-0.9042969","-0.07421875","-0.6875","3.40625","1.6875"
"1574201100990","326","0.39746094","-0.90234375","-0.018554688","1.375","-0.1875","3.34375"
"1574201100990","327","0.42382812","-0.9121094","-0.059570312","2.90625","0.84375","1.4375"
"1574201100990","328","0.45703125","-0.9140625","-0.059570312","11.65625","-1.1875","-4.59375"
"1574201100991","329","0.51464844","-0.8652344","-0.0107421875","21.15625","-5.8125","-11.96875"
"1574201101383","330","0.55566406","-0.8457031","-0.030273438","37.34375","-18.75","-25.90625"
"1574201101383","331","0.51660156","-0.8232422","0.016601562","28.4375","-12.15625","-39.03125"
"1574201101383","332","0.3828125","-0.9199219","-0.022460938","17.375","-35.40625","-22.53125"
"1574201101384","333","0.5214844","-0.8779297","0.034179688","-3.0","-21.125","-2.09375"
"1574201101384","334","0.3984375","-0.8261719","-0.0107421875","-15.59375","-7.53125","13.96875"
"1574201101384","335","0.30566406","-1.0917969","-0.125","-47.6875","11.53125","10.0625"
"1574201101385","336","0.14941406","-0.9423828","-0.26367188","-26.625","23.375","18.78125"
"1574201101386","337","0.33984375","-1.0068359","-0.10644531","-31.25","10.96875","-0.25"
"1574201101386","338","0.3330078","-0.97753906","-0.12695312","-12.46875","22.25","-0.125"
"1574201101387","339","0.19921875","-0.9199219","-0.12792969","-20.53125","23.25","4.0"
"1574201101780","340","0.3310547","-0.92578125","-0.14746094","-29.6875","24.8125","-3.125"
"1574201101781","341","0.31152344","-0.9169922","-0.15917969","-16.0625","18.96875","1.09375"
"1574201101781","342","0.29492188","-0.9472656","-0.13183594","-17.78125","24.21875","1.875"
"1574201101781","343","0.33398438","-0.9169922","-0.19140625","-12.21875","22.5","6.03125"
"1574201101781","344","0.3232422","-0.8925781","-0.16308594","-9.40625","21.96875","8.03125"
"1574201101782","345","0.3046875","-0.99902344","-0.16601562","-8.1875","13.46875","6.46875"
"1574201101782","346","0.3125","-0.9111328","-0.171875","-3.125","6.8125","9.9375"
"1574201101782","347","0.3388672","-0.8535156","-0.16210938","-0.4375","8.28125","16.09375"
"1574201101782","348","0.42382812","-0.98535156","-0.10546875","-11.375","19.6875","7.6875"
"1574201101783","349","0.58203125","-1.0527344","-0.10449219","-30.28125","20.5625","1.5625"
"1574201102179","350","0.45703125","-0.9189453","-0.033203125","-12.96875","20.25","2.125"
"1574201102180","351","0.34277344","-0.8222656","-0.10546875","-23.34375","31.96875","13.71875"
"1574201102180","352","0.5214844","-0.83203125","0.028320312","-33.59375","43.1875","20.90625"
"1574201102180","353","0.3935547","-0.9296875","-0.15039062","-23.5","28.0625","23.59375"
"1574201102181","354","0.33984375","-1.0234375","-0.09375","-35.78125","31.84375","32.03125"
"1574201102181","355","0.35253906","-0.9316406","-0.24511719","-16.5625","25.6875","22.8125"
"1574201102181","356","0.3076172","-0.86035156","-0.19140625","1.625","22.25","21.65625"
"1574201102181","357","0.38867188","-0.93652344","-0.25585938","-0.9375","-3.75","-13.5"
"1574201102182","358","0.3232422","-0.9160156","-0.22460938","0.40625","-0.75","-15.9375"
"1574201102182","359","0.27539062","-0.9296875","-0.34765625","7.3125","-17.78125","-23.28125"
"1574201102578","360","0.27929688","-0.9375","-0.24316406","-2.875","-4.59375","-18.9375"
"1574201102578","361","0.3125","-0.8808594","-0.20605469","-2.21875","4.875","-18.25"
"1574201102579","362","0.3125","-0.921875","-0.2529297","10.125","-3.6875","-13.5"
"1574201102579","363","0.21777344","-0.953125","-0.20410156","1.375","5.34375","-10.5625"
"1574201102579","364","0.39257812","-0.9326172","-0.25097656","4.75","2.25","-11.0"
"1574201102580","365","0.2763672","-0.95996094","-0.1484375","7.625","15.65625","1.21875"
"1574201102580","366","0.2861328","-0.9248047","-0.21191406","6.03125","20.96875","0.0"
"1574201102580","367","0.32617188","-0.953125","-0.12988281","1.5625","24.15625","5.65625"
"1574201102580","368","0.3642578","-0.88671875","-0.21191406","0.90625","23.1875","4.6875"
"1574201102581","369","0.31054688","-0.8564453","-0.109375","-0.25","18.59375","4.5625"
"1574201103170","370","0.37597656","-0.91308594","-0.18652344","0.65625","3.71875","-1.40625"
"1574201103171","371","0.31835938","-0.9628906","-0.107421875","1.75","5.0","-3.25"
"1574201103171","372","0.35742188","-0.9091797","-0.16015625","13.0","-1.1875","-8.625"
"1574201103173","373","0.34375","-0.92285156","-0.1171875","9.03125","3.03125","-3.0"
"1574201103173","374","0.31054688","-0.9003906","-0.17089844","2.0","-5.8125","-4.71875"
"1574201103173","375","0.37597656","-0.9765625","-0.10839844","2.78125","-2.53125","-5.4375"
"1574201103174","376","0.2998047","-0.9736328","-0.17382812","3.9375","-8.25","-5.375"
"1574201103174","377","0.4296875","-0.93847656","-0.12402344","7.4375","-8.1875","-9.15625"
"1574201103174","378","0.30078125","-0.93359375","-0.13769531","10.65625","-9.65625","0.65625"
"1574201103174","379","0.41308594","-0.93066406","-0.16210938","-0.8125","-9.0625","-4.84375"
"1574201103371","380","0.3779297","-0.91503906","-0.12109375","7.84375","-16.5","1.3125"
"1574201103371","381","0.2783203","-0.92578125","-0.16894531","11.65625","-17.34375","0.15625"
"1574201103372","382","0.35839844","-0.9404297","-0.05859375","-2.34375","-4.71875","-2.28125"
"1574201103372","383","0.37597656","-0.94140625","-0.17089844","6.15625","-0.1875","5.90625"
"1574201103372","384","0.2783203","-0.9248047","-0.11621094","6.625","-3.1875","4.4375"
"1574201103373","385","0.3720703","-0.8642578","-0.10839844","-4.15625","-1.125","-2.46875"
"1574201103374","386","0.34375","-0.9238281","-0.15234375","6.40625","-5.5","-1.53125"
"1574201103374","387","0.2939453","-0.8935547","-0.10058594","2.90625","-5.8125","-7.53125"
"1574201103374","388","0.36035156","-0.9746094","-0.14160156","-3.3125","0.65625","-7.8125"
"1574201103374","389","0.38183594","-0.9355469","-0.12695312","-1.125","-1.1875","-11.90625"
"1574201103768","390","0.3125","-0.9453125","-0.15917969","-3.1875","-5.625","-7.59375"
"1574201103768","391","0.28808594","-0.94140625","-0.13964844","-6.90625","-2.75","-8.5625"
"1574201103769","392","0.4248047","-0.8339844","-0.16601562","-3.1875","4.8125","-11.625"
"1574201103769","393","0.4375","-0.8330078","-0.103515625","11.28125","9.5625","-20.09375"
"1574201103769","394","0.5810547","-0.96191406","-0.140625","32.46875","-20.65625","-29.375"
"1574201103769","395","0.45996094","-0.9716797","-0.07714844","39.40625","-9.46875","-25.46875"
"1574201103770","396","0.44726562","-0.7939453","-0.0146484375","49.0","-13.125","-24.6875"
"1574201103771","397","0.5800781","-0.76464844","-0.032226562","44.25","-23.03125","-31.375"
"1574201103771","398","0.5107422","-0.91308594","-0.0068359375","36.71875","-25.03125","-26.3125"
"1574201103771","399","0.4560547","-0.9189453","0.016601562","35.4375","-28.875","-12.09375"
"1574201104167","400","0.4267578","-0.88183594","0.0068359375","22.4375","-23.21875","-8.375"
"1574201104168","401","0.4248047","-0.9091797","-0.024414062","9.875","-13.875","-3.8125"
"1574201104168","402","0.4736328","-0.9248047","-0.0234375","0.96875","2.25","-7.34375"
"1574201104168","403","0.546875","-0.90527344","0.021484375","-4.34375","5.84375","-6.96875"
"1574201104168","404","0.5205078","-0.91796875","0.017578125","-8.3125","25.0","-12.71875"
"1574201104169","405","0.55566406","-0.8027344","0.016601562","-4.96875","25.5","-20.15625"
"1574201104169","406","0.5361328","-0.67578125","0.04296875","-3.625","17.5625","-25.03125"
"1574201104169","407","0.5986328","-0.72265625","0.044921875","-0.6875","12.1875","-37.375"
"1574201104169","408","0.6591797","-0.78027344","0.061523438","-0.875","10.3125","-37.0"
"1574201104171","409","0.6513672","-0.8017578","0.056640625","1.5625","6.875","-32.25"
"1574201104960","410","0.5986328","-0.7529297","0.033203125","2.65625","2.4375","-28.6875"
"1574201104961","411","0.65234375","-0.6933594","0.0625","2.90625","4.3125","-25.53125"
"1574201104961","412","0.65625","-0.7548828","0.053710938","-5.09375","3.84375","-22.96875"
"1574201104961","413","0.7558594","-0.70703125","0.03125","2.90625","-8.0","-18.625"
"1574201104962","414","0.66503906","-0.7050781","0.03125","8.40625","-13.625","-13.625"
"1574201104962","415","0.61328125","-0.73046875","0.036132812","-0.8125","-9.90625","-7.03125"
"1574201104962","416","0.7324219","-0.72265625","0.028320312","2.90625","-3.1875","-7.71875"
"1574201104963","417","0.6933594","-0.7158203","0.015625","3.03125","-9.40625","-0.875"
"1574201104963","418","0.64746094","-0.72558594","-0.00390625","1.15625","-6.25","6.875"
"1574201104963","419","0.59765625","-0.6894531","0.0390625","-7.53125","0.15625","15.65625"
"1574201105356","420","0.734375","-0.6972656","-0.00390625","-7.875","1.4375","13.96875"
"1574201105356","421","0.7265625","-0.81152344","0.0087890625","-5.8125","1.03125","10.84375"
"1574201105357","422","0.66015625","-0.8154297","-0.025390625","-5.875","-1.34375","22.9375"
"1574201105357","423","0.58984375","-0.7626953","-0.0029296875","-17.09375","7.625","20.375"
"1574201105358","424","0.58496094","-0.7685547","-9.765625E-4","-18.6875","7.0625","21.40625"
"1574201105358","425","0.55859375","-0.76171875","-0.056640625","-20.34375","8.53125","27.4375"
"1574201105358","426","0.59375","-0.7753906","0.01171875","-22.28125","7.4375","27.34375"
"1574201105359","427","0.54296875","-0.7919922","-0.0107421875","-26.75","7.75","29.59375"
"1574201105359","428","0.52734375","-0.85253906","-0.072265625","-27.53125","12.3125","23.46875"
"1574201105359","429","0.5595703","-0.91308594","-0.0048828125","-31.5625","11.34375","19.46875"
"1574201105555","430","0.5341797","-0.8876953","-0.12792969","-19.59375","10.65625","13.65625"
"1574201105555","431","0.52734375","-0.8730469","-0.05859375","-24.5625","17.625","7.8125"
"1574201105556","432","0.5234375","-0.8144531","-0.13867188","-25.46875","20.5625","20.4375"
"1574201105557","433","0.38085938","-0.96777344","0.0078125","-23.75","42.53125","43.6875"
"1574201105557","434","0.47070312","-1.0195312","-0.060546875","-43.40625","52.65625","44.1875"
"1574201105558","435","0.5595703","-0.88671875","-0.22558594","-49.34375","41.125","55.46875"
"1574201105558","436","0.39648438","-0.8125","-0.12011719","-33.9375","24.03125","48.375"
"1574201105558","437","0.48632812","-0.8515625","-0.17675781","-25.53125","15.5625","25.25"
"1574201105559","438","0.26171875","-0.8330078","-0.20507812","-22.59375","17.0","10.71875"
"1574201105559","439","0.359375","-0.93066406","-0.17480469","-15.625","10.53125","4.4375"
"1574201105755","440","0.41601562","-0.9453125","-0.24023438","-5.8125","15.125","3.09375"
"1574201105756","441","0.29785156","-0.9433594","-0.18359375","-0.875","4.625","5.59375"
"1574201105756","442","0.34570312","-0.9628906","-0.19921875","-6.5","3.46875","11.28125"
"1574201105756","443","0.3076172","-0.8886719","-0.2109375","-2.59375","-1.46875","10.1875"
"1574201105757","444","0.296875","-0.9033203","-0.19140625","-0.1875","-4.21875","7.125"
"1574201105757","445","0.23144531","-0.9267578","-0.21875","-0.1875","-2.28125","7.375"
"1574201105757","446","0.2548828","-0.91015625","-0.21191406","0.09375","4.6875","5.21875"
"1574201105757","447","0.27246094","-0.9814453","-0.17871094","1.3125","9.9375","5.0"
"1574201105758","448","0.26464844","-0.95410156","-0.19238281","2.125","13.40625","1.5625"
"1574201105758","449","0.31445312","-0.921875","-0.13769531","8.90625","18.53125","0.65625"
"1574201106155","450","0.27539062","-0.8798828","-0.15625","-0.75","15.25","-0.9375"
"1574201106155","451","0.3017578","-0.90722656","-0.14941406","1.375","2.65625","-6.25"
"1574201106155","452","0.3408203","-0.9765625","-0.1796875","3.84375","-3.125","-9.40625"
"1574201106156","453","0.28027344","-0.9785156","-0.14160156","9.3125","-3.875","-9.46875"
"1574201106156","454","0.34179688","-0.94140625","-0.19824219","11.65625","-11.25","-9.28125"
"1574201106156","455","0.25878906","-0.9511719","-0.14941406","7.0625","-7.34375","-4.65625"
"1574201106156","456","0.31347656","-0.9296875","-0.18847656","8.28125","-11.0","-6.4375"
"1574201106158","457","0.33398438","-0.9892578","-0.15429688","1.375","-4.59375","-4.40625"
"1574201106158","458","0.29589844","-0.98046875","-0.18066406","-1.65625","9.3125","2.78125"
"1574201106159","459","0.3017578","-0.94921875","-0.13769531","0.0","8.15625","5.78125"
