"# PR data"
"# Start time: 20191119T215258"
"# Subject: diana"
"# Activity type: Sit to stand"
"# Correctness: Correct"
"# Notes: "
""
"timestamp","seq","accel_x","accel_y","accel_z","gyro_x","gyro_y","gyro_z"
"1574200378340","0","0.3125","-0.9658203","-0.080078125","13.28125","16.21875","-2.03125"
"1574200378341","1","0.3232422","-0.9169922","-0.056640625","19.46875","12.9375","1.03125"
"1574200378341","2","0.296875","-0.9501953","-0.024414062","36.90625","19.8125","16.15625"
"1574200378344","3","0.2919922","-1.0263672","-0.0146484375","33.84375","15.71875","12.5"
"1574200378344","4","0.32128906","-1.0273438","-0.046875","22.4375","13.53125","2.25"
"1574200378345","5","0.31640625","-0.97753906","-0.017578125","-8.75","6.09375","-14.71875"
"1574200378345","6","0.29101562","-0.91503906","-0.017578125","-19.84375","5.28125","-21.4375"
"1574200378345","7","0.296875","-0.9716797","0.0078125","-26.6875","5.84375","-18.625"
"1574200378346","8","0.28027344","-1.0126953","0.00390625","-35.40625","-0.375","-21.375"
"1574200378346","9","0.27734375","-0.9707031","-0.032226562","-36.09375","-3.6875","-22.40625"
"1574200378730","10","0.296875","-0.921875","-0.044921875","-30.09375","-1.25","-18.8125"
"1574200378730","11","0.32617188","-0.9013672","-0.061523438","-15.875","4.1875","-14.0"
"1574200378731","12","0.3544922","-0.92285156","-0.08496094","-9.34375","3.03125","-11.125"
"1574200378732","13","0.38964844","-0.89160156","-0.119140625","-8.0","0.34375","-10.21875"
"1574200378732","14","0.39453125","-0.94921875","-0.10253906","-9.28125","-0.4375","-7.53125"
"1574200378733","15","0.39257812","-0.9580078","-0.099609375","-12.65625","-0.625","-9.84375"
"1574200378733","16","0.3857422","-0.8964844","-0.12890625","-28.03125","-10.03125","-17.09375"
"1574200378733","17","0.36621094","-0.84277344","-0.18359375","-14.65625","-14.125","-9.125"
"1574200378734","18","0.3876953","-0.9082031","-0.16894531","3.90625","5.46875","1.09375"
"1574200378734","19","0.41210938","-0.8779297","-0.1875","10.46875","7.25","2.4375"
"1574200379521","20","0.40625","-0.90722656","-0.18457031","11.03125","6.15625","6.8125"
"1574200379521","21","0.39453125","-0.9316406","-0.16796875","9.5","8.46875","7.25"
"1574200379522","22","0.40039062","-0.9111328","-0.16308594","8.59375","5.90625","6.46875"
"1574200379522","23","0.40429688","-0.9326172","-0.16699219","6.46875","1.875","3.53125"
"1574200379522","24","0.38183594","-0.94433594","-0.14746094","-4.53125","-5.09375","0.90625"
"1574200379523","25","0.40625","-0.95214844","-0.13964844","-2.03125","-5.15625","-1.3125"
"1574200379523","26","0.36621094","-0.9560547","-0.140625","-14.25","-0.5625","-1.71875"
"1574200379524","27","0.328125","-0.88378906","-0.119140625","-1.71875","-0.875","-6.59375"
"1574200379524","28","0.31445312","-0.8144531","-0.12988281","6.8125","0.78125","0.09375"
"1574200379524","29","0.296875","-0.95703125","-0.068359375","0.78125","16.53125","8.03125"
"1574200379719","30","0.33789062","-0.9160156","-0.10644531","13.53125","14.375","5.34375"
"1574200379720","31","0.3701172","-0.8955078","-0.107421875","14.75","15.96875","10.0625"
"1574200379720","32","0.3671875","-0.8935547","-0.1171875","24.71875","14.21875","16.21875"
"1574200379720","33","0.38085938","-0.9355469","-0.08886719","22.5","21.40625","23.0625"
"1574200379721","34","0.35058594","-0.9824219","-0.072265625","27.75","25.75","15.1875"
"1574200379721","35","0.34472656","-0.953125","-0.0126953125","16.28125","12.75","18.40625"
"1574200379721","36","0.24316406","-0.91796875","0.024414062","-9.46875","-0.875","14.15625"
"1574200379723","37","0.072265625","-0.8154297","0.115234375","51.5625","39.59375","35.1875"
"1574200379723","38","0.13476562","-0.7949219","0.14746094","108.0625","39.96875","59.3125"
"1574200379723","39","0.20214844","-0.88671875","0.2421875","137.25","46.5625","75.3125"
"1574200380124","40","0.15527344","-1.0058594","0.24902344","163.375","41.5625","59.1875"
"1574200380125","41","0.16894531","-1.2626953","0.39746094","111.875","34.21875","48.3125"
"1574200380125","42","0.16210938","-1.2314453","0.46191406","10.1875","18.53125","-9.21875"
"1574200380126","43","0.040039062","-0.8935547","0.46679688","-16.125","-6.59375","-3.75"
"1574200380126","44","0.00390625","-0.9121094","0.44726562","-32.78125","-6.71875","-22.0625"
"1574200380126","45","0.03515625","-0.8779297","0.40820312","-51.28125","-6.65625","-26.03125"
"1574200380127","46","0.10644531","-0.90234375","0.35351562","-64.28125","-11.375","-32.0625"
"1574200380127","47","0.13964844","-0.93652344","0.3154297","-67.09375","-14.59375","-35.71875"
"1574200380127","48","0.18359375","-1.0449219","0.2685547","-78.875","-21.8125","-44.9375"
"1574200380128","49","0.25976562","-0.9482422","0.15820312","-69.28125","-25.65625","-48.78125"
"1574200380318","50","0.23828125","-0.89746094","0.125","-79.3125","-25.71875","-48.46875"
"1574200380318","51","0.3076172","-0.9160156","0.06933594","-78.875","-32.96875","-38.96875"
"1574200380319","52","0.24804688","-0.8642578","0.01953125","-37.4375","-12.71875","-27.71875"
"1574200380319","53","0.3359375","-0.8730469","-0.049804688","-28.53125","-6.90625","-22.21875"
"1574200380319","54","0.35058594","-0.9550781","-0.07421875","-34.5","-18.03125","-20.875"
"1574200380319","55","0.39648438","-0.8847656","-0.1171875","-10.15625","-4.40625","-9.53125"
"1574200380320","56","0.4111328","-0.90527344","-0.13183594","-7.875","0.90625","-7.40625"
"1574200380320","57","0.3955078","-0.8876953","-0.12597656","-13.0625","-3.90625","-10.5"
"1574200380320","58","0.4111328","-0.92578125","-0.11425781","-11.84375","-3.375","-6.78125"
"1574200380320","59","0.3779297","-0.93066406","-0.11621094","-2.28125","3.03125","-4.46875"
"1574200380715","60","0.3466797","-0.8779297","-0.11425781","-6.3125","-3.4375","-4.40625"
"1574200380716","61","0.34472656","-0.93066406","-0.0859375","-5.21875","-1.0","0.34375"
"1574200380717","62","0.35351562","-0.90722656","-0.09082031","5.0","5.125","2.1875"
"1574200380718","63","0.36621094","-0.92871094","-0.083984375","3.40625","5.0625","3.34375"
"1574200380718","64","0.37402344","-0.93652344","-0.076171875","4.75","4.875","2.96875"
"1574200380719","65","0.35742188","-0.8798828","-0.10253906","4.0","4.0625","3.90625"
"1574200380719","66","0.35742188","-0.953125","-0.07421875","8.71875","8.46875","9.5625"
"1574200380719","67","0.3671875","-0.94628906","-0.06738281","12.9375","7.25","6.46875"
"1574200380719","68","0.35546875","-0.90722656","-0.06347656","9.5","5.53125","7.375"
"1574200380720","69","0.34472656","-0.9736328","-0.041015625","10.0625","7.375","6.46875"
"1574200381113","70","0.3466797","-0.9394531","-0.040039062","6.875","6.15625","4.5625"
"1574200381114","71","0.32910156","-0.9580078","-0.022460938","2.5625","4.875","2.84375"
"1574200381114","72","0.33007812","-0.9355469","-0.026367188","-0.8125","0.84375","0.53125"
"1574200381115","73","0.30859375","-0.89453125","-0.029296875","-11.375","-6.125","-0.5625"
"1574200381116","74","0.29296875","-0.88378906","0.005859375","2.65625","-9.90625","11.28125"
"1574200381116","75","0.28222656","-0.91796875","0.0078125","28.96875","4.25","31.78125"
"1574200381116","76","0.29589844","-0.95996094","-0.057617188","49.0","10.46875","35.875"
"1574200381117","77","0.31640625","-0.8828125","0.0078125","61.1875","6.8125","38.6875"
"1574200381117","78","0.22070312","-0.8408203","0.053710938","72.5","3.90625","46.25"
"1574200381117","79","0.103515625","-0.80078125","0.15234375","141.84375","23.84375","70.90625"
"1574200381510","80","0.1640625","-0.8857422","0.24707031","179.84375","32.46875","74.625"
"1574200381510","81","0.111328125","-0.95214844","0.3486328","161.0","31.71875","67.96875"
"1574200381510","82","0.06542969","-0.9716797","0.42089844","140.125","30.3125","62.375"
"1574200381510","83","0.076171875","-0.9472656","0.54589844","104.71875","37.71875","58.09375"
"1574200381511","84","0.018554688","-0.8847656","0.6640625","78.84375","24.875","49.25"
"1574200381512","85","-0.06640625","-0.7626953","0.6640625","44.96875","15.1875","29.53125"
"1574200381512","86","-0.19335938","-0.6953125","0.7080078","46.5625","19.75","22.25"
"1574200381512","87","-0.20507812","-0.640625","0.6933594","26.15625","20.3125","12.5"
"1574200381513","88","-0.21582031","-0.6064453","0.7246094","19.875","24.8125","14.15625"
"1574200381513","89","-0.22167969","-0.5966797","0.74609375","10.71875","23.1875","5.59375"
"1574200381909","90","-0.19335938","-0.62890625","0.7314453","9.8125","20.5625","9.125"
"1574200381910","91","-0.22558594","-0.63964844","0.7597656","-0.8125","12.1875","2.5"
"1574200381910","92","-0.234375","-0.64941406","0.7421875","-3.25","9.09375","-3.6875"
"1574200381910","93","-0.19628906","-0.640625","0.7294922","-2.46875","6.625","-0.375"
"1574200381911","94","-0.1953125","-0.6904297","0.71777344","-5.875","5.84375","-3.0"
"1574200381911","95","-0.17675781","-0.6611328","0.69140625","-8.0","1.15625","-3.1875"
"1574200381911","96","-0.17675781","-0.6660156","0.671875","-8.125","0.96875","-4.28125"
"1574200381913","97","-0.17382812","-0.6875","0.67285156","-5.5","2.65625","-1.34375"
"1574200381913","98","-0.19335938","-0.6669922","0.66796875","-5.3125","2.4375","-0.3125"
"1574200381914","99","-0.14453125","-0.6923828","0.63671875","-1.1875","4.75","2.375"
"1574200382699","100","-0.1796875","-0.69921875","0.66015625","-0.6875","7.4375","3.90625"
"1574200382700","101","-0.16015625","-0.6845703","0.6503906","6.34375","5.40625","7.25"
"1574200382700","102","-0.15820312","-0.72753906","0.6669922","8.84375","11.03125","9.03125"
"1574200382701","103","-0.1875","-0.67578125","0.6699219","-0.4375","10.78125","5.90625"
"1574200382701","104","-0.22753906","-0.67871094","0.71875","8.71875","10.84375","11.53125"
"1574200382701","105","-0.24414062","-0.625","0.7011719","5.53125","12.5","5.65625"
"1574200382702","106","-0.2607422","-0.61328125","0.70996094","9.9375","14.625","7.5"
"1574200382702","107","-0.28515625","-0.6142578","0.7207031","8.21875","13.53125","7.125"
"1574200382702","108","-0.2890625","-0.58691406","0.7138672","8.15625","9.6875","2.125"
"1574200382703","109","-0.2705078","-0.61035156","0.6923828","1.6875","6.34375","-1.59375"
"1574200382703","110","-0.28125","-0.6152344","0.7080078","-3.5","1.3125","-3.4375"
"1574200382703","111","-0.28808594","-0.63671875","0.7167969","-5.15625","1.75","-1.34375"
"1574200382704","112","-0.28320312","-0.6386719","0.72265625","-6.65625","2.78125","-1.65625"
"1574200382704","113","-0.23535156","-0.6455078","0.69628906","-1.1875","-5.625","-0.6875"
"1574200382704","114","-0.18847656","-0.63378906","0.6796875","13.34375","-12.46875","7.25"
"1574200382704","115","-0.12792969","-0.7626953","0.6933594","35.1875","-6.71875","30.625"
"1574200382705","116","-0.3125","-0.8642578","0.97753906","15.3125","11.40625","35.9375"
"1574200382705","117","-0.33789062","-0.86328125","1.0869141","0.78125","18.53125","20.25"
"1574200382705","118","-0.3251953","-0.96777344","1.0","-30.46875","-3.90625","-15.625"
"1574200382706","119","-0.33691406","-0.87597656","0.95703125","-65.09375","-21.75","-18.6875"
"1574200383099","120","-0.25976562","-0.9667969","0.83984375","-101.40625","-32.1875","-37.375"
"1574200383100","121","-0.22363281","-1.0019531","0.7294922","-131.125","-30.46875","-62.9375"
"1574200383100","122","-0.16699219","-1.0244141","0.66308594","-154.0625","-24.0","-84.125"
"1574200383100","123","-0.12597656","-1.0576172","0.49121094","-144.25","-18.8125","-106.71875"
"1574200383101","124","-0.032226562","-0.88964844","0.36035156","-110.84375","-16.75","-112.8125"
"1574200383101","125","-0.01171875","-0.74121094","0.24707031","-110.25","-22.46875","-102.90625"
"1574200383101","126","0.037109375","-0.64453125","0.13574219","-100.28125","-23.34375","-95.53125"
"1574200383101","127","0.015625","-0.56933594","0.080078125","-91.625","-16.96875","-91.625"
"1574200383102","128","-0.052734375","-0.37597656","0.036132812","-79.125","-18.3125","-81.375"
"1574200383102","129","0.013671875","-0.27734375","0.076171875","-93.875","-8.75","-64.59375"
"1574200383498","130","0.08984375","-0.40722656","0.13964844","-89.75","19.9375","-69.46875"
"1574200383499","131","0.29492188","-1.0507812","0.16894531","-92.1875","37.875","-46.15625"
"1574200383499","132","0.57128906","-1.4853516","-0.17675781","-50.84375","29.28125","-27.40625"
"1574200383500","133","0.48242188","-0.6425781","-0.046875","-13.8125","8.28125","-12.71875"
"1574200383500","134","0.35351562","-0.56152344","-0.01171875","-28.09375","-0.25","-2.46875"
"1574200383500","135","0.38378906","-1.0869141","-0.22265625","-26.9375","18.34375","-9.0"
"1574200383501","136","0.47851562","-0.921875","-0.14160156","-11.4375","14.75","-18.375"
"1574200383501","137","0.40722656","-0.8144531","-0.080078125","-13.125","9.75","-1.46875"
"1574200383501","138","0.4296875","-0.93359375","-0.19335938","-7.46875","4.875","-5.8125"
"1574200383501","139","0.42773438","-0.87597656","-0.16992188","-3.5","10.40625","-3.90625"
"1574200384292","140","0.40039062","-0.8623047","-0.1328125","-3.8125","8.78125","-0.8125"
"1574200384293","141","0.46972656","-0.9248047","-0.14746094","-3.5","8.78125","-1.53125"
"1574200384293","142","0.3935547","-0.8964844","-0.15234375","-1.84375","8.53125","0.96875"
"1574200384293","143","0.4169922","-0.8935547","-0.125","0.78125","7.375","0.46875"
"1574200384293","144","0.42773438","-0.8652344","-0.15039062","4.5625","6.15625","1.3125"
"1574200384295","145","0.42285156","-0.8876953","-0.12597656","2.25","6.21875","1.8125"
"1574200384295","146","0.44433594","-0.9765625","-0.10644531","4.5625","11.03125","6.03125"
"1574200384296","147","0.3779297","-0.8613281","-0.025390625","21.46875","9.5625","20.375"
"1574200384296","148","0.31347656","-0.734375","0.018554688","40.09375","5.78125","41.5625"
"1574200384296","149","0.18847656","-0.48242188","0.060546875","68.40625","-6.3125","67.5"
"1574200384489","150","0.0390625","-0.35253906","0.0390625","90.875","14.09375","85.875"
"1574200384490","151","-0.046875","-0.66015625","0.07421875","28.25","42.34375","53.875"
"1574200384490","152","0.24414062","-0.8300781","0.10449219","46.5625","39.0625","51.125"
"1574200384490","153","0.2705078","-0.7763672","0.0859375","63.8125","12.5","65.09375"
"1574200384491","154","0.036132812","-0.78515625","0.12792969","47.28125","3.90625","58.40625"
"1574200384491","155","0.11035156","-0.875","0.119140625","29.90625","20.84375","43.5"
"1574200384491","156","0.07128906","-0.9160156","0.18652344","23.4375","-5.25","44.96875"
"1574200384492","157","0.0078125","-1.2441406","0.2265625","-15.875","-10.625","40.15625"
"1574200384492","158","0.091796875","-1.2158203","0.16015625","-5.375","-14.34375","9.25"
"1574200384492","159","-0.09472656","-1.3457031","0.32421875","-36.21875","-9.78125","12.1875"
"1574200384691","160","0.06640625","-1.6328125","0.21289062","-48.65625","-17.03125","-21.75"
"1574200384691","161","0.5126953","-1.6816406","0.15820312","-57.8125","-36.6875","-57.75"
"1574200384692","162","0.22753906","-1.6914062","0.15527344","-16.125","1.75","-72.9375"
"1574200384692","163","0.29882812","-1.0332031","-0.041015625","11.71875","3.46875","-68.625"
"1574200384692","164","0.24707031","-0.78808594","-0.005859375","4.5","-2.21875","-36.03125"
"1574200384692","165","0.14453125","-0.6894531","-0.018554688","-35.59375","-13.8125","-39.625"
"1574200384692","166","0.25195312","-0.82714844","0.033203125","-44.09375","-16.75","-38.90625"
"1574200384693","167","0.19726562","-1.0117188","0.038085938","-38.71875","-14.78125","-22.0625"
"1574200384693","168","0.28027344","-0.984375","0.0126953125","-23.34375","-9.34375","-25.65625"
"1574200384694","169","0.37890625","-1.0214844","-0.044921875","-33.34375","-13.25","-26.3125"
"1574200385286","170","0.38378906","-0.9970703","-0.08105469","-30.46875","-14.3125","-21.875"
"1574200385287","171","0.3720703","-0.82714844","-0.09472656","-24.375","-8.375","-17.40625"
"1574200385287","172","0.375","-0.83203125","-0.115234375","-16.6875","-1.46875","-13.375"
"1574200385287","173","0.3984375","-0.88378906","-0.115234375","-12.84375","0.21875","-11.90625"
"1574200385287","174","0.41210938","-0.91015625","-0.1328125","-11.125","3.59375","-8.5625"
"1574200385288","175","0.43652344","-0.9160156","-0.14746094","-9.78125","-0.4375","-7.46875"
"1574200385288","176","0.4169922","-0.9091797","-0.13574219","-7.34375","0.59375","-5.875"
"1574200385288","177","0.39160156","-0.90527344","-0.14648438","-2.46875","0.46875","-6.0625"
"1574200385289","178","0.3544922","-0.8984375","-0.13964844","-2.15625","1.9375","-3.25"
"1574200385289","179","0.375","-0.91308594","-0.12597656","-3.4375","2.25","-1.84375"
"1574200385485","180","0.38085938","-0.92089844","-0.12890625","-3.0","1.28125","-1.1875"
"1574200385485","181","0.3671875","-0.9189453","-0.13476562","-2.34375","0.84375","-0.3125"
"1574200385486","182","0.37402344","-0.92285156","-0.123046875","-2.21875","1.15625","0.09375"
"1574200385486","183","0.38476562","-0.93066406","-0.09472656","-7.03125","-4.71875","-3.3125"
"1574200385486","184","0.34472656","-0.75878906","-0.14550781","9.4375","-5.5625","7.25"
"1574200385486","185","0.35546875","-0.9189453","-0.12597656","18.59375","-0.25","18.84375"
"1574200385487","186","0.34472656","-0.828125","-0.13671875","35.25","3.53125","27.8125"
"1574200385487","187","0.35839844","-0.89746094","-0.07519531","49.0","4.1875","39.46875"
"1574200385487","188","0.28515625","-0.8798828","-0.095703125","73.03125","11.59375","50.65625"
"1574200385487","189","0.25","-0.8300781","-0.05859375","103.25","17.0625","65.53125"
"1574200386280","190","0.2861328","-0.9140625","0.05859375","121.9375","18.1875","79.40625"
"1574200386280","191","0.21484375","-1.0947266","0.095703125","81.65625","13.28125","57.53125"
"1574200386281","192","0.1328125","-0.85839844","0.18945312","129.1875","29.71875","56.75"
"1574200386282","193","0.18457031","-0.94628906","0.296875","136.53125","26.96875","75.53125"
"1574200386282","194","0.020507812","-0.9248047","0.47851562","115.71875","41.25","50.78125"
"1574200386283","195","-0.09863281","-0.89160156","0.5722656","111.875","41.3125","53.34375"
"1574200386283","196","-0.083984375","-0.92285156","0.6357422","69.5","37.9375","35.375"
"1574200386283","197","-0.10253906","-0.71191406","0.55371094","60.84375","34.21875","30.0625"
"1574200386283","198","-0.140625","-0.7578125","0.67871094","67.125","29.71875","38.625"
"1574200386284","199","-0.22070312","-0.6933594","0.6699219","18.34375","17.6875","23.1875"
"1574200386477","200","-0.2861328","-0.6513672","0.7324219","29.9375","16.78125","17.0625"
"1574200386477","201","-0.23632812","-0.6513672","0.70410156","25.4375","16.40625","10.59375"
"1574200386478","202","-0.21777344","-0.7060547","0.734375","9.9375","10.1875","5.78125"
"1574200386478","203","-0.24902344","-0.6582031","0.69140625","-0.3125","2.1875","3.09375"
"1574200386478","204","-0.25","-0.69628906","0.7080078","-11.1875","4.8125","-2.15625"
"1574200386479","205","-0.24023438","-0.65722656","0.70703125","-11.0625","3.59375","-3.3125"
"1574200386480","206","-0.19824219","-0.6982422","0.6875","-10.875","0.78125","-5.625"
"1574200386482","207","-0.20605469","-0.6933594","0.6582031","-8.75","0.15625","-5.6875"
"1574200386483","208","-0.17773438","-0.7109375","0.64941406","-8.8125","2.90625","-3.6875"
"1574200386483","209","-0.16699219","-0.7080078","0.6347656","-9.0","0.21875","-5.25"
"1574200386678","210","-0.17578125","-0.7011719","0.63183594","-6.65625","0.15625","-2.6875"
"1574200386678","211","-0.16796875","-0.7314453","0.6503906","-3.875","1.3125","-1.90625"
"1574200386679","212","-0.17675781","-0.7109375","0.625","-4.71875","0.59375","-2.6875"
"1574200386679","213","-0.1640625","-0.73339844","0.6308594","-5.5","0.96875","-1.59375"
"1574200386679","214","-0.203125","-0.7265625","0.66503906","-4.15625","3.71875","-1.34375"
"1574200386680","215","-0.1796875","-0.7089844","0.6152344","-2.21875","3.40625","-0.4375"
"1574200386680","216","-0.18847656","-0.7324219","0.63378906","-5.09375","4.0625","-1.59375"
"1574200386681","217","-0.20898438","-0.70410156","0.6455078","-6.59375","2.59375","-0.6875"
"1574200386682","218","-0.1796875","-0.7089844","0.6171875","-3.75","2.375","0.34375"
"1574200386682","219","-0.19628906","-0.7167969","0.63964844","-5.3125","2.78125","-1.0"
"1574200387074","220","-0.19726562","-0.71972656","0.63671875","-2.75","2.96875","0.03125"
"1574200387075","221","-0.1875","-0.7207031","0.6376953","-1.96875","1.03125","-0.5625"
"1574200387075","222","-0.18945312","-0.7285156","0.62597656","-1.53125","2.1875","-1.0625"
"1574200387075","223","-0.20214844","-0.72265625","0.6191406","0.46875","1.09375","-1.34375"
"1574200387076","224","-0.15722656","-0.7558594","0.61328125","1.9375","-3.0","0.65625"
"1574200387076","225","-0.123046875","-0.7558594","0.60058594","15.78125","-3.3125","14.625"
"1574200387076","226","-0.09863281","-1.0429688","0.8339844","18.78125","17.1875","30.6875"
"1574200387076","227","-0.36523438","-0.984375","1.0185547","4.75","21.34375","18.28125"
"1574200387077","228","-0.28515625","-0.97265625","0.8486328","-12.59375","10.0","9.375"
"1574200387077","229","-0.2861328","-1.0175781","0.80566406","-42.1875","1.625","-7.46875"
"1574200387472","230","-0.18457031","-0.9277344","0.7265625","-51.09375","-13.5625","-17.28125"
"1574200387472","231","-0.18554688","-1.0078125","0.65527344","-77.78125","-20.71875","-34.5"
"1574200387473","232","-0.13378906","-1.0585938","0.60546875","-120.5625","-17.65625","-61.59375"
"1574200387473","233","-0.15039062","-1.0605469","0.48535156","-135.09375","-14.96875","-87.1875"
"1574200387473","234","-0.03125","-1.0273438","0.39648438","-126.65625","-18.625","-105.375"
"1574200387473","235","0.0546875","-0.92089844","0.2548828","-104.75","-21.875","-105.59375"
"1574200387474","236","0.09082031","-0.8359375","0.17382812","-103.90625","-28.34375","-104.3125"
"1574200387474","237","0.07910156","-0.6953125","0.087890625","-87.90625","-31.4375","-101.09375"
"1574200387474","238","0.115234375","-0.6123047","0.068359375","-79.25","-32.1875","-87.65625"
"1574200387474","239","0.06933594","-0.5048828","0.024414062","-79.125","-40.90625","-76.8125"
"1574200388071","240","0.09472656","-0.4111328","0.016601562","-71.375","-43.53125","-55.5625"
"1574200388072","241","0.09472656","-0.34375","-0.0048828125","-52.875","-27.46875","-54.9375"
"1574200388073","242","0.1875","-0.7294922","0.20117188","-66.40625","3.84375","-31.9375"
"1574200388073","243","0.4189453","-1.6337891","-0.16308594","-63.8125","24.34375","-18.6875"
"1574200388073","244","0.54296875","-0.89746094","-0.1953125","6.8125","5.0","-14.53125"
"1574200388074","245","0.32714844","-0.4609375","0.05859375","-5.6875","-9.46875","-3.8125"
"1574200388074","246","0.375","-0.9824219","-0.19628906","-32.4375","5.71875","-4.78125"
"1574200388074","247","0.5126953","-0.99609375","-0.1796875","2.90625","15.1875","-10.4375"
"1574200388075","248","0.3486328","-0.80859375","-0.08203125","0.09375","8.34375","7.125"
"1574200388075","249","0.42578125","-0.8984375","-0.20410156","-4.78125","6.5","-4.84375"
"1574200388464","250","0.46679688","-0.8935547","-0.19726562","-0.0625","3.34375","-0.5"
"1574200388465","251","0.36914062","-0.9013672","-0.14355469","-4.71875","9.625","3.34375"
"1574200388465","252","0.41992188","-0.89453125","-0.18066406","2.5","9.5625","2.90625"
"1574200388465","253","0.43359375","-0.875","-0.17480469","0.21875","6.8125","4.1875"
"1574200388466","254","0.39453125","-0.94433594","-0.16113281","-3.0","12.9375","3.40625"
"1574200388466","255","0.38867188","-0.85058594","-0.14160156","7.5","5.53125","3.53125"
"1574200388466","256","0.4267578","-0.8876953","-0.14550781","6.5625","2.78125","4.6875"
"1574200388467","257","0.38183594","-0.9765625","-0.119140625","6.34375","11.9375","9.03125"
"1574200388467","258","0.33007812","-0.86035156","-0.02734375","19.9375","7.90625","19.03125"
"1574200388467","259","0.25","-0.765625","-0.036132812","38.1875","2.90625","35.1875"
"1574200388666","260","0.27734375","-0.65527344","-0.0029296875","52.40625","2.375","44.0"
"1574200388667","261","0.19140625","-0.42773438","0.043945312","78.71875","-12.34375","57.125"
"1574200388667","262","0.05859375","-0.66796875","0.0","45.53125","-12.09375","42.90625"
"1574200388667","263","0.07714844","-0.7441406","0.028320312","43.3125","23.125","36.78125"
"1574200388667","264","0.17382812","-0.61621094","0.038085938","42.46875","-5.03125","40.5625"
"1574200388669","265","0.1171875","-0.8027344","0.07714844","11.71875","1.75","28.4375"
"1574200388670","266","0.19824219","-0.8701172","0.06640625","29.15625","1.03125","28.5"
"1574200388670","267","0.16992188","-1.0175781","0.1484375","6.21875","2.3125","16.09375"
"1574200388671","268","0.18945312","-1.0917969","0.10546875","9.4375","-6.96875","21.09375"
"1574200388671","269","0.06738281","-1.2675781","0.23632812","-14.84375","-3.6875","11.40625"
"1574200389064","270","0.045898438","-1.4277344","0.1875","-27.78125","3.84375","-4.71875"
"1574200389064","271","0.30078125","-1.5048828","0.19140625","-28.34375","-2.46875","-19.0"
"1574200389064","272","0.3984375","-1.5244141","0.032226562","-29.125","-11.625","-30.40625"
"1574200389064","273","0.6484375","-1.6396484","-0.047851562","-19.96875","-9.0","-36.8125"
"1574200389065","274","0.36523438","-1.1728516","-0.11328125","5.71875","-12.53125","-45.1875"
"1574200389065","275","0.20898438","-0.68359375","-0.06542969","-32.25","-5.21875","-29.3125"
"1574200389065","276","0.2705078","-0.5810547","-0.09765625","-20.40625","0.65625","-28.28125"
"1574200389066","277","0.34765625","-0.87597656","-0.04296875","-21.625","-1.65625","-15.40625"
"1574200389067","278","0.31152344","-1.0400391","-0.060546875","-11.6875","2.1875","-14.65625"
"1574200389067","279","0.3828125","-0.9609375","-0.0703125","-17.84375","0.03125","-20.34375"
"1574200389461","280","0.4189453","-1.0048828","-0.08886719","-12.78125","-4.40625","-17.34375"
"1574200389461","281","0.3388672","-0.9248047","-0.078125","-10.40625","-13.25","-25.03125"
"1574200389462","282","0.32617188","-0.85546875","-0.064453125","-3.375","-9.0625","-18.5"
"1574200389462","283","0.38671875","-0.90625","-0.12207031","-4.84375","-8.0","-6.65625"
"1574200389462","284","0.3564453","-0.8886719","-0.08984375","-7.53125","-8.125","-14.125"
"1574200389463","285","0.3955078","-0.89941406","-0.11328125","3.53125","-6.65625","-3.8125"
"1574200389463","286","0.3857422","-0.90527344","-0.09277344","1.75","1.5","5.34375"
"1574200389463","287","0.36328125","-0.88671875","-0.091796875","2.0","2.84375","7.8125"
"1574200389464","288","0.36914062","-0.9277344","-0.09375","11.8125","5.78125","14.75"
"1574200389464","289","0.35058594","-0.8779297","-0.10058594","17.875","11.15625","17.875"
"1574200389858","290","0.3720703","-0.93847656","-0.0703125","18.28125","10.375","16.65625"
"1574200389859","291","0.36328125","-0.9873047","-0.057617188","19.09375","9.9375","15.0"
"1574200389859","292","0.34277344","-0.9199219","-0.041015625","13.28125","3.90625","10.71875"
"1574200389859","293","0.22753906","-0.890625","0.034179688","10.71875","6.875","20.1875"
"1574200389860","294","0.13476562","-0.83203125","0.0390625","15.96875","7.5","22.9375"
"1574200389860","295","0.19433594","-0.80371094","0.01953125","63.46875","19.34375","45.03125"
"1574200389860","296","0.19628906","-0.8310547","0.0546875","106.3125","22.3125","75.3125"
"1574200389860","297","0.1796875","-0.8544922","0.09082031","155.375","28.78125","94.28125"
"1574200389861","298","0.24609375","-1.140625","0.23730469","182.125","34.28125","91.21875"
"1574200389861","299","0.091796875","-1.1035156","0.36816406","140.1875","48.8125","73.53125"
"1574200390452","300","0.041992188","-0.9345703","0.5136719","146.28125","37.75","63.65625"
"1574200390454","301","-0.033203125","-0.8808594","0.5810547","102.875","34.15625","53.75"
"1574200390454","302","-0.11816406","-0.77441406","0.6347656","71.21875","40.03125","38.375"
"1574200390454","303","-0.15917969","-0.6669922","0.703125","55.21875","34.90625","38.625"
"1574200390455","304","-0.24023438","-0.6513672","0.6982422","43.0","37.71875","31.25"
"1574200390455","305","-0.24511719","-0.5908203","0.6748047","44.65625","24.15625","35.5625"
"1574200390455","306","-0.3203125","-0.56933594","0.7480469","36.90625","24.71875","30.125"
"1574200390456","307","-0.36035156","-0.5654297","0.80078125","38.5625","27.09375","18.71875"
"1574200390456","308","-0.3330078","-0.55078125","0.7626953","26.46875","18.71875","9.9375"
"1574200390457","309","-0.328125","-0.5761719","0.78222656","13.03125","14.28125","6.46875"
"1574200390652","310","-0.328125","-0.55371094","0.7578125","4.0","8.59375","5.53125"
"1574200390652","311","-0.32714844","-0.5859375","0.7548828","-9.21875","3.9375","-2.9375"
"1574200390653","312","-0.33496094","-0.5878906","0.7626953","-13.0625","1.28125","-6.1875"
"1574200390654","313","-0.31640625","-0.56933594","0.73828125","-15.34375","-1.46875","-7.28125"
"1574200390654","314","-0.28710938","-0.60546875","0.7373047","-10.09375","-0.8125","-5.8125"
"1574200390654","315","-0.29589844","-0.59765625","0.7294922","-11.0625","-2.28125","-5.3125"
"1574200390655","316","-0.26757812","-0.59472656","0.6982422","-7.59375","-0.625","-4.15625"
"1574200390655","317","-0.2783203","-0.61816406","0.69628906","-4.84375","1.28125","-2.625"
"1574200390655","318","-0.2734375","-0.61621094","0.70410156","-2.625","3.59375","-0.6875"
"1574200390656","319","-0.28125","-0.61328125","0.70703125","0.78125","3.65625","-1.78125"
"1574200391049","320","-0.28027344","-0.62890625","0.7216797","0.40625","3.65625","0.09375"
"1574200391050","321","-0.27929688","-0.6201172","0.69628906","-3.96875","1.5625","-1.46875"
"1574200391050","322","-0.2734375","-0.64453125","0.7246094","-4.34375","2.65625","1.5"
"1574200391050","323","-0.29589844","-0.6689453","0.7763672","-3.25","0.96875","5.46875"
"1574200391051","324","-0.25","-0.74121094","0.7783203","-11.71875","4.25","9.5"
"1574200391052","325","-0.3330078","-0.7324219","0.82128906","-22.34375","3.15625","-2.28125"
"1574200391052","326","-0.3359375","-0.7451172","0.8203125","-34.5","-0.9375","-5.21875"
"1574200391052","327","-0.2734375","-0.6923828","0.7236328","-26.8125","-5.15625","-11.0"
"1574200391053","328","-0.3173828","-0.671875","0.6972656","-31.75","-6.125","-11.78125"
"1574200391053","329","-0.24902344","-0.6933594","0.6279297","-23.6875","-10.4375","-11.6875"
"1574200391449","330","-0.21875","-0.7705078","0.65722656","-30.40625","-13.1875","-23.21875"
"1574200391449","331","-0.18066406","-0.5986328","0.4765625","-60.5625","-23.5625","-49.9375"
"1574200391450","332","-0.21484375","-0.48828125","0.4296875","-50.78125","-10.6875","-10.03125"
"1574200391450","333","-0.25976562","-0.49902344","0.58203125","-11.4375","-0.6875","-10.21875"
"1574200391450","334","-0.29296875","-0.95410156","0.7001953","-12.40625","9.3125","7.25"
"1574200391450","335","-0.19921875","-1.1855469","0.8125","-15.46875","0.0","-15.8125"
"1574200391451","336","-0.12597656","-1.2666016","0.734375","-54.9375","-11.3125","-30.15625"
"1574200391452","337","-0.13964844","-1.1787109","0.6953125","-59.03125","-13.0625","-48.53125"
"1574200391453","338","-0.07128906","-1.1679688","0.5966797","-66.40625","-14.46875","-59.34375"
"1574200391453","339","9.765625E-4","-1.1650391","0.46484375","-79.46875","-18.15625","-71.5625"
"1574200391845","340","0.07324219","-1.0556641","0.38964844","-89.0","-28.9375","-91.875"
"1574200391846","341","0.1015625","-0.90625","0.27246094","-81.5625","-30.34375","-89.84375"
"1574200391846","342","0.09082031","-0.9082031","0.21972656","-93.40625","-37.84375","-81.1875"
"1574200391846","343","0.076171875","-0.78808594","0.15527344","-87.65625","-34.5625","-86.1875"
"1574200391846","344","0.099609375","-0.5859375","0.099609375","-70.6875","-29.9375","-59.40625"
"1574200391847","345","0.025390625","-0.43359375","0.072265625","-60.3125","-25.46875","-51.09375"
"1574200391847","346","0.02734375","-0.29882812","0.07128906","-62.28125","-17.21875","-44.09375"
"1574200391847","347","0.115234375","-0.49609375","0.05078125","-68.375","-0.3125","-52.75"
"1574200391847","348","0.21484375","-0.9042969","0.07910156","-71.5625","13.78125","-46.53125"
"1574200391849","349","0.45117188","-1.3369141","0.07324219","-54.34375","38.375","-22.0625"
"1574200392442","350","0.48242188","-0.92871094","-0.13574219","-26.25","10.3125","-9.53125"
"1574200392443","351","0.3701172","-0.6064453","-0.0048828125","-21.1875","2.0","-16.625"
"1574200392443","352","0.3046875","-0.92871094","-0.10253906","-35.90625","16.21875","-0.3125"
"1574200392443","353","0.44628906","-1.0205078","-0.14257812","-21.3125","15.25","-16.375"
"1574200392443","354","0.46289062","-0.80078125","-0.0625","-12.65625","10.84375","-2.875"
"1574200392444","355","0.375","-0.91503906","-0.15722656","-14.125","1.28125","-1.96875"
"1574200392444","356","0.45214844","-0.8925781","-0.1484375","-6.3125","6.03125","-7.40625"
"1574200392444","357","0.40429688","-0.90527344","-0.14257812","-9.21875","4.125","-0.75"
"1574200392445","358","0.41210938","-0.8720703","-0.125","-0.625","2.96875","-2.8125"
"1574200392445","359","0.41601562","-0.8486328","-0.16308594","2.3125","0.71875","-1.78125"
"1574200392639","360","0.453125","-0.92285156","-0.15722656","-2.59375","1.9375","-3.875"
"1574200392641","361","0.4658203","-0.9267578","-0.14941406","0.71875","2.5","-3.5625"
"1574200392641","362","0.44140625","-0.86035156","-0.15527344","3.9375","-2.03125","-2.75"
"1574200392642","363","0.4453125","-0.9140625","-0.15429688","-0.4375","1.6875","-1.78125"
"1574200392642","364","0.42578125","-0.9121094","-0.12988281","1.15625","3.46875","0.15625"
"1574200392642","365","0.40039062","-0.89453125","-0.10253906","1.03125","2.96875","3.78125"
"1574200392642","366","0.41601562","-0.8876953","-0.08984375","6.9375","4.875","5.90625"
"1574200392643","367","0.37402344","-0.8613281","-0.047851562","17.1875","1.375","17.1875"
"1574200392643","368","0.375","-0.85546875","-0.08203125","25.125","1.03125","29.09375"
"1574200392643","369","0.19628906","-0.703125","0.022460938","33.84375","6.15625","33.5"
"1574200393038","370","0.21679688","-0.6386719","0.0078125","49.59375","-2.8125","33.4375"
"1574200393038","371","0.31933594","-0.6464844","-0.0234375","51.75","-13.5","35.15625"
"1574200393038","372","0.044921875","-0.6308594","0.057617188","53.9375","-8.9375","38.9375"
"1574200393039","373","0.10644531","-0.6582031","0.036132812","45.75","-1.59375","33.8125"
"1574200393040","374","0.12792969","-0.7480469","0.109375","35.6875","0.78125","45.34375"
"1574200393040","375","0.19824219","-0.8613281","0.0146484375","30.125","-2.9375","37.75"
"1574200393040","376","0.14257812","-0.859375","0.103515625","26.53125","-0.5","34.34375"
"1574200393041","377","0.14257812","-1.0546875","0.17578125","3.90625","5.34375","19.8125"
"1574200393041","378","0.19140625","-1.2285156","0.034179688","2.71875","2.65625","18.40625"
"1574200393041","379","0.1796875","-1.1738281","0.26757812","-4.71875","-2.15625","11.8125"
"1574200393436","380","0.0390625","-1.3271484","0.15332031","-23.8125","-0.4375","-15.21875"
"1574200393437","381","0.23632812","-1.4101562","0.25683594","-19.90625","-1.3125","-7.46875"
"1574200393437","382","0.4921875","-1.5380859","-0.024414062","-36.09375","-12.46875","-30.84375"
"1574200393438","383","0.51464844","-1.5068359","0.026367188","-31.4375","-16.4375","-36.34375"
"1574200393438","384","0.44140625","-1.0673828","-0.15820312","-21.0625","-19.375","-49.40625"
"1574200393439","385","0.35351562","-0.8671875","-0.1171875","-47.125","-13.5","-48.0625"
"1574200393440","386","0.26757812","-0.6748047","-0.125","-45.59375","-26.625","-44.9375"
"1574200393440","387","0.39648438","-0.78222656","-0.1171875","-24.78125","-2.15625","-22.84375"
"1574200393440","388","0.39648438","-0.99609375","-0.14550781","-29.96875","5.71875","-21.4375"
"1574200393441","389","0.42773438","-0.90722656","-0.13085938","-16.9375","2.375","-20.21875"
"1574200393833","390","0.42578125","-0.88671875","-0.14746094","-13.75","2.59375","-15.6875"
"1574200393834","391","0.4296875","-0.9199219","-0.14746094","-10.15625","2.4375","-15.21875"
"1574200393834","392","0.4013672","-0.82714844","-0.13183594","-3.875","1.9375","-9.40625"
"1574200393834","393","0.38964844","-0.85839844","-0.140625","-2.6875","5.84375","-6.25"
"1574200393835","394","0.42285156","-0.8886719","-0.13964844","2.71875","1.5","-2.34375"
"1574200393835","395","0.40722656","-0.9033203","-0.14257812","5.59375","4.8125","3.71875"
"1574200393835","396","0.40527344","-0.89453125","-0.11425781","5.78125","5.125","6.5625"
"1574200393837","397","0.39160156","-0.8730469","-0.11816406","15.0","8.84375","13.96875"
"1574200393837","398","0.37695312","-0.8535156","-0.11621094","20.5","11.40625","20.0"
"1574200393838","399","0.3798828","-0.91796875","-0.11621094","25.75","10.84375","26.59375"
"1574200394231","400","0.4033203","-0.9560547","-0.08496094","26.03125","11.59375","26.0"
"1574200394232","401","0.35742188","-0.95703125","-0.068359375","26.96875","12.5","24.46875"
"1574200394232","402","0.3466797","-0.9453125","-0.05078125","27.8125","6.21875","22.9375"
"1574200394232","403","0.2861328","-1.0214844","0.0390625","12.0625","9.8125","18.0625"
"1574200394233","404","0.21484375","-0.85058594","0.052734375","11.8125","2.0","7.625"
"1574200394233","405","0.15722656","-0.8701172","0.038085938","7.3125","-10.75","20.4375"
"1574200394233","406","0.20507812","-0.8144531","0.048828125","45.09375","8.46875","33.5"
"1574200394233","407","0.20117188","-0.87402344","0.09765625","70.40625","19.625","61.3125"
"1574200394233","408","0.14550781","-0.921875","0.08300781","107.90625","23.53125","78.21875"
"1574200394235","409","0.107421875","-0.8144531","0.18554688","163.3125","29.71875","94.96875"
"1574200394628","410","0.13769531","-1.0273438","0.30078125","182.40625","32.8125","85.5625"
"1574200394629","411","0.12597656","-1.015625","0.3984375","149.9375","36.71875","77.0"
"1574200394629","412","-0.107421875","-0.9902344","0.64453125","133.34375","53.4375","57.96875"
"1574200394629","413","-0.10839844","-0.8144531","0.65527344","93.0","31.25","60.78125"
"1574200394629","414","-0.1171875","-0.80566406","0.6640625","66.9375","37.09375","45.5625"
"1574200394630","415","-0.19628906","-0.671875","0.7050781","46.4375","27.375","38.625"
"1574200394630","416","-0.30664062","-0.61816406","0.72558594","34.46875","25.3125","34.90625"
"1574200394630","417","-0.28710938","-0.5527344","0.7236328","20.625","14.5","26.96875"
"1574200394630","418","-0.34179688","-0.5283203","0.75390625","23.65625","16.34375","22.09375"
"1574200394630","419","-0.3203125","-0.5078125","0.7080078","28.71875","9.8125","12.9375"
"1574200395025","420","-0.33789062","-0.56640625","0.7783203","20.375","10.59375","14.5"
"1574200395026","421","-0.34570312","-0.55566406","0.7734375","7.125","6.46875","7.8125"
"1574200395026","422","-0.32421875","-0.5957031","0.76171875","2.84375","5.40625","3.46875"
"1574200395026","423","-0.3642578","-0.5888672","0.7861328","-11.625","6.15625","0.40625"
"1574200395027","424","-0.34472656","-0.57128906","0.7470703","-13.1875","4.6875","-3.625"
"1574200395027","425","-0.31152344","-0.6015625","0.7373047","-16.125","1.9375","-5.21875"
"1574200395027","426","-0.31640625","-0.59472656","0.7402344","-14.71875","1.625","-6.78125"
"1574200395028","427","-0.29589844","-0.60253906","0.7011719","-16.75","-1.65625","-8.75"
"1574200395028","428","-0.29296875","-0.609375","0.6845703","-14.125","-2.40625","-5.75"
"1574200395028","429","-0.29101562","-0.6230469","0.6826172","-13.0625","-0.6875","-3.4375"
"1574200395820","430","-0.28027344","-0.6689453","0.69140625","-10.5","1.6875","-2.40625"
"1574200395820","431","-0.25683594","-0.66503906","0.6738281","-11.375","1.9375","-0.8125"
"1574200395821","432","-0.29785156","-0.6699219","0.7138672","-9.21875","2.3125","-0.875"
"1574200395822","433","-0.27246094","-0.67089844","0.69140625","-8.125","6.75","3.65625"
"1574200395822","434","-0.27441406","-0.6484375","0.6621094","-6.59375","5.71875","2.84375"
"1574200395823","435","-0.2763672","-0.640625","0.6777344","-0.6875","6.5","7.8125"
"1574200395823","436","-0.31152344","-0.6298828","0.6669922","-9.0625","2.25","0.53125"
"1574200395823","437","-0.31640625","-0.59277344","0.6328125","-2.875","2.59375","-2.03125"
"1574200395823","438","-0.2998047","-0.6123047","0.6640625","-1.53125","4.875","4.3125"
"1574200395824","439","-0.3017578","-0.6279297","0.67089844","3.34375","0.84375","4.375"
"1574200396017","440","-0.30078125","-0.69628906","0.7392578","9.3125","-2.15625","13.84375"
"1574200396017","441","-0.36132812","-0.7138672","0.7890625","13.40625","1.4375","12.625"
"1574200396018","442","-0.3095703","-0.8378906","0.8671875","0.90625","4.0","8.46875"
"1574200396018","443","-0.38378906","-0.734375","0.7285156","-27.1875","-5.09375","-20.15625"
"1574200396018","444","-0.31933594","-0.67871094","0.7080078","-26.03125","-5.6875","-11.6875"
"1574200396019","445","-0.35839844","-0.82128906","0.8125","-28.15625","3.65625","-10.875"
"1574200396020","446","-0.359375","-0.921875","0.8574219","-44.3125","-5.5","-15.28125"
"1574200396020","447","-0.3017578","-1.0449219","0.7734375","-65.1875","-13.5","-33.46875"
"1574200396023","448","-0.19140625","-1.0771484","0.70410156","-101.6875","-17.84375","-45.25"
"1574200396023","449","-0.24511719","-1.0654297","0.59277344","-115.8125","-12.53125","-62.9375"
"1574200396617","450","-0.1875","-1.0742188","0.47460938","-120.875","-11.125","-77.46875"
"1574200396618","451","-0.07128906","-1.0214844","0.37597656","-96.5","-12.28125","-92.3125"
"1574200396618","452","-0.053710938","-0.8769531","0.296875","-83.34375","-11.5625","-93.34375"
"1574200396618","453","-0.01953125","-0.7998047","0.21191406","-77.09375","-15.9375","-94.25"
"1574200396618","454","0.025390625","-0.7363281","0.16894531","-78.8125","-17.46875","-87.34375"
"1574200396619","455","0.030273438","-0.70996094","0.12695312","-80.28125","-17.59375","-82.71875"
"1574200396619","456","0.0546875","-0.625","0.091796875","-86.75","-17.40625","-83.09375"
"1574200396620","457","0.0390625","-0.5029297","0.08496094","-82.09375","-16.9375","-71.84375"
"1574200396621","458","0.111328125","-0.5283203","0.0087890625","-65.9375","-18.03125","-58.84375"
"1574200396621","459","0.2763672","-0.6796875","0.08496094","-52.6875","4.5","-51.28125"
"1574200396810","460","0.3642578","-1.0576172","0.07128906","-53.65625","8.40625","-39.0625"
"1574200396810","461","0.3564453","-1.1513672","-0.11621094","-32.4375","2.71875","-29.6875"
"1574200396811","462","0.36132812","-0.78125","-0.10644531","-17.09375","-11.1875","-25.78125"
"1574200396811","463","0.34570312","-0.7451172","-0.060546875","-25.59375","-1.46875","-12.71875"
"1574200396811","464","0.40820312","-0.97265625","-0.14648438","-25.96875","12.3125","-15.03125"
"1574200396812","465","0.45410156","-0.9277344","-0.17089844","-8.3125","8.21875","-10.15625"
"1574200396812","466","0.36523438","-0.82421875","-0.12597656","-8.4375","5.28125","-2.46875"
"1574200396812","467","0.4345703","-0.9042969","-0.16113281","-8.625","12.4375","-2.34375"
"1574200396812","468","0.4404297","-0.89160156","-0.18554688","-5.09375","10.78125","-1.0"
"1574200396813","469","0.37890625","-0.8701172","-0.13085938","-7.59375","10.84375","-1.53125"
"1574200397213","470","0.4501953","-0.9238281","-0.15625","-4.90625","12.1875","-0.125"
"1574200397214","471","0.4326172","-0.87402344","-0.171875","-1.84375","8.96875","1.5625"
"1574200397214","472","0.4013672","-0.89453125","-0.12890625","-4.65625","8.96875","2.65625"
"1574200397214","473","0.4423828","-0.9140625","-0.14355469","-1.34375","9.1875","1.15625"
"1574200397214","474","0.38671875","-0.87890625","-0.12792969","0.65625","8.59375","5.21875"
"1574200397215","475","0.38476562","-0.88964844","-0.115234375","1.875","7.8125","7.90625"
"1574200397215","476","0.43652344","-0.8828125","-0.15625","4.5625","5.78125","4.9375"
"1574200397215","477","0.4111328","-0.90527344","-0.13183594","5.21875","1.6875","5.0625"
"1574200397215","478","0.41210938","-0.93359375","-0.14746094","1.5625","2.78125","3.59375"
"1574200397215","479","0.40722656","-0.9160156","-0.14160156","3.34375","2.90625","2.0625"
"1574200397807","480","0.38671875","-0.8769531","-0.103515625","4.75","2.125","4.5625"
"1574200397809","481","0.3642578","-0.93359375","-0.08203125","5.21875","6.8125","9.03125"
"1574200397810","482","0.3466797","-0.8847656","-0.08105469","16.53125","3.40625","16.65625"
"1574200397810","483","0.3466797","-0.84765625","-0.08886719","20.4375","3.90625","19.34375"
"1574200397810","484","0.32128906","-0.8105469","-0.0546875","27.875","9.9375","18.65625"
"1574200397811","485","0.34765625","-0.85546875","-0.041015625","29.09375","2.375","26.03125"
"1574200397811","486","0.27734375","-0.8955078","-0.0546875","32.46875","4.5625","28.0"
"1574200397811","487","0.20898438","-0.6591797","0.04296875","47.21875","4.0","30.4375"
"1574200397812","488","0.34472656","-0.84375","0.021484375","32.9375","9.8125","29.34375"
"1574200397812","489","0.07714844","-0.6308594","0.05859375","67.0625","-11.90625","59.96875"
"1574200398007","490","0.12402344","-0.4375","0.0703125","72.0625","-1.1875","67.3125"
"1574200398008","491","-0.044921875","-0.4111328","0.08203125","70.34375","-3.0625","58.46875"
"1574200398008","492","-0.01953125","-0.7158203","0.29882812","43.6875","17.375","74.8125"
"1574200398008","493","0.0126953125","-0.96191406","0.15527344","62.53125","3.09375","66.625"
"1574200398009","494","0.087890625","-1.0712891","0.2607422","28.1875","-4.09375","63.46875"
"1574200398009","495","-0.27929688","-1.3007812","0.32617188","14.5625","-2.875","44.71875"
"1574200398009","496","0.051757812","-1.2333984","0.43847656","20.4375","-7.53125","28.375"
"1574200398009","497","-0.18652344","-1.5673828","0.37695312","-24.84375","-4.96875","15.5625"
"1574200398010","498","0.026367188","-1.453125","0.48535156","3.40625","-14.65625","-3.3125"
"1574200398010","499","0.1015625","-1.4599609","0.27246094","-14.40625","-10.5","3.65625"
"1574200398608","500","0.078125","-1.4375","0.31835938","21.90625","-6.4375","-11.5"
"1574200398608","501","0.15917969","-0.9111328","0.17480469","15.25","-3.25","-20.46875"
"1574200398609","502","0.12011719","-0.91308594","0.12402344","-8.8125","-6.53125","-10.875"
"1574200398609","503","0.11035156","-0.81933594","0.13085938","-18.03125","-6.0625","-24.125"
"1574200398609","504","0.09277344","-0.9326172","0.20703125","-22.84375","-3.0","-20.15625"
"1574200398610","505","0.059570312","-1.0078125","0.24023438","-23.03125","-9.65625","-23.8125"
"1574200398611","506","0.11328125","-0.96777344","0.22558594","-22.84375","-4.03125","-16.75"
"1574200398611","507","0.12207031","-0.97265625","0.20019531","-12.03125","-6.84375","-13.75"
"1574200398612","508","0.10058594","-0.9345703","0.19042969","-8.0","-5.25","-8.5625"
"1574200398612","509","0.07128906","-0.9501953","0.18847656","0.34375","1.8125","-2.15625"
"1574200398802","510","0.1015625","-0.9267578","0.19238281","7.5","3.46875","-0.1875"
"1574200398802","511","0.09082031","-0.9511719","0.18359375","12.375","6.875","0.78125"
"1574200398802","512","0.1015625","-0.97753906","0.21972656","12.625","7.8125","4.125"
"1574200398802","513","0.08984375","-0.9746094","0.21386719","19.6875","7.8125","2.71875"
"1574200398803","514","0.08886719","-0.94433594","0.22070312","21.28125","3.78125","6.34375"
"1574200398803","515","0.047851562","-0.8925781","0.24609375","26.21875","1.03125","9.375"
"1574200398803","516","0.009765625","-0.86816406","0.26171875","37.9375","13.0","16.90625"
"1574200398804","517","-0.009765625","-0.8183594","0.3046875","64.875","21.59375","30.625"
"1574200398805","518","-0.0146484375","-0.8720703","0.3564453","93.1875","23.4375","42.78125"
"1574200398805","519","-0.015625","-0.87597656","0.38378906","111.625","32.9375","45.09375"
"1574200399399","520","-0.0068359375","-0.9140625","0.49414062","117.0625","39.84375","51.75"
"1574200399400","521","-0.123046875","-0.9375","0.6640625","90.375","39.71875","36.125"
"1574200399400","522","-0.0859375","-0.7470703","0.58203125","72.25","26.03125","32.40625"
"1574200399400","523","-0.16308594","-0.78027344","0.7060547","50.78125","30.5625","32.53125"
"1574200399401","524","-0.20117188","-0.6591797","0.68847656","39.71875","24.40625","25.75"
"1574200399401","525","-0.25","-0.6533203","0.7060547","29.59375","18.28125","23.71875"
"1574200399401","526","-0.31445312","-0.61621094","0.7138672","23.84375","17.1875","22.4375"
"1574200399401","527","-0.2841797","-0.5595703","0.7783203","25.4375","13.96875","19.8125"
"1574200399402","528","-0.28320312","-0.63671875","0.7216797","4.4375","10.59375","14.625"
"1574200399403","529","-0.29003906","-0.5996094","0.73535156","-13.25","5.1875","2.1875"
"1574200399596","530","-0.29882812","-0.5878906","0.7324219","-5.9375","5.59375","-0.375"
"1574200399596","531","-0.27929688","-0.6269531","0.71972656","-4.53125","2.84375","-0.8125"
"1574200399597","532","-0.30859375","-0.63671875","0.7265625","-8.4375","3.46875","-1.125"
"1574200399597","533","-0.27734375","-0.6376953","0.6933594","-10.03125","1.9375","-2.6875"
"1574200399597","534","-0.2705078","-0.6425781","0.68847656","-9.78125","1.28125","-1.78125"
"1574200399597","535","-0.27734375","-0.63964844","0.6826172","-9.34375","0.03125","-2.75"
"1574200399598","536","-0.27246094","-0.64941406","0.6591797","-5.5","0.90625","-3.0625"
"1574200399598","537","-0.2685547","-0.6611328","0.6738281","-5.5625","1.6875","-1.3125"
"1574200399598","538","-0.28320312","-0.65234375","0.65625","-7.78125","3.03125","-1.0625"
"1574200399598","539","-0.26757812","-0.6582031","0.6503906","-5.25","2.5","-0.5"
"1574200400587","540","-0.25976562","-0.6699219","0.65527344","-5.625","2.0625","1.5"
"1574200400588","541","-0.28710938","-0.67089844","0.6660156","-11.1875","4.0","0.03125"
"1574200400589","542","-0.2685547","-0.67871094","0.6738281","-3.75","3.40625","-0.6875"
"1574200400589","543","-0.24316406","-0.69628906","0.6591797","-8.25","2.1875","1.3125"
"1574200400589","544","-0.2919922","-0.6904297","0.68359375","-19.0","1.09375","-2.21875"
"1574200400590","545","-0.28808594","-0.6464844","0.66015625","-10.40625","-3.3125","-3.0625"
"1574200400590","546","-0.24609375","-0.69921875","0.63183594","-12.21875","-3.4375","-1.53125"
"1574200400590","547","-0.28027344","-0.6435547","0.61621094","-12.71875","-1.46875","-3.875"
"1574200400591","548","-0.27539062","-0.703125","0.6640625","-1.65625","-3.6875","0.21875"
"1574200400592","549","-0.22363281","-0.7441406","0.6113281","-14.65625","-5.625","-1.46875"
"1574200400787","550","-0.23730469","-0.734375","0.6279297","-0.0625","-3.0625","7.90625"
"1574200400788","551","-0.22167969","-0.8515625","0.70410156","-3.8125","1.03125","13.0"
"1574200400788","552","-0.29003906","-0.80371094","0.6621094","-32.0","1.28125","-9.84375"
"1574200400790","553","-0.3310547","-0.6982422","0.6923828","-12.71875","4.375","0.65625"
"1574200400790","554","-0.30078125","-0.80371094","0.72265625","-9.90625","2.59375","2.3125"
"1574200400790","555","-0.38183594","-0.85546875","0.7675781","0.40625","8.21875","8.21875"
"1574200400791","556","-0.34765625","-0.9501953","0.7783203","-14.40625","5.40625","3.46875"
"1574200400791","557","-0.28125","-0.9863281","0.7216797","-27.40625","-2.6875","-8.8125"
"1574200400791","558","-0.27539062","-0.9560547","0.6796875","-47.625","-6.65625","-25.15625"
"1574200400791","559","-0.24511719","-0.99316406","0.6191406","-54.09375","-8.8125","-34.4375"
"1574200400984","560","-0.18359375","-1.0351562","0.56152344","-67.875","-18.9375","-48.96875"
"1574200400985","561","-0.16113281","-1.0117188","0.5097656","-75.40625","-19.375","-67.15625"
"1574200400985","562","-0.16699219","-1.0048828","0.43066406","-72.09375","-16.0625","-75.53125"
"1574200400985","563","-0.052734375","-0.9121094","0.36621094","-72.46875","-13.5625","-86.1875"
"1574200400986","564","0.0048828125","-0.8564453","0.29492188","-77.90625","-20.28125","-91.3125"
"1574200400987","565","0.015625","-0.8076172","0.24023438","-70.15625","-20.09375","-95.96875"
"1574200400987","566","0.07910156","-0.68847656","0.19042969","-64.46875","-25.65625","-83.5"
"1574200400988","567","0.09765625","-0.6425781","0.17382812","-61.1875","-25.09375","-73.8125"
"1574200400988","568","0.056640625","-0.54296875","0.11425781","-60.4375","-24.125","-75.53125"
"1574200400988","569","0.119140625","-0.546875","0.13769531","-52.75","-11.71875","-68.625"
"1574200401186","570","0.203125","-0.5283203","0.13574219","-48.53125","-16.4375","-56.53125"
"1574200401187","571","0.24414062","-0.71777344","0.29003906","-50.0","-2.40625","-43.78125"
"1574200401187","572","0.24511719","-1.2871094","0.08984375","-46.875","8.65625","-29.0"
"1574200401187","573","0.44335938","-1.0419922","-0.07519531","-13.875","14.5625","-24.84375"
"1574200401188","574","0.42089844","-0.58203125","0.09765625","-23.15625","4.75","-15.53125"
"1574200401188","575","0.38378906","-0.93066406","-0.033203125","-44.8125","-1.53125","-6.90625"
"1574200401188","576","0.40429688","-0.99121094","-0.078125","-16.9375","13.90625","-20.78125"
"1574200401188","577","0.3828125","-0.7988281","0.032226562","-19.53125","15.375","-4.59375"
"1574200401189","578","0.4189453","-0.9267578","-0.07421875","-21.25","9.1875","-4.40625"
"1574200401189","579","0.5029297","-0.90527344","-0.107421875","-12.78125","10.53125","-8.25"
"1574200401585","580","0.39453125","-0.875","-0.0390625","-16.5","10.3125","-4.09375"
"1574200401585","581","0.39941406","-0.90722656","-0.064453125","-11.78125","8.21875","0.0"
"1574200401585","582","0.46875","-0.8955078","-0.09082031","-7.34375","11.09375","-1.1875"
"1574200401586","583","0.40625","-0.8779297","-0.068359375","-7.15625","8.15625","0.96875"
"1574200401586","584","0.4423828","-0.9140625","-0.061523438","-4.84375","5.34375","2.0625"
"1574200401586","585","0.4482422","-0.9042969","-0.08691406","2.65625","4.0","0.65625"
"1574200401587","586","0.39746094","-0.88378906","-0.0546875","3.40625","4.0625","4.0625"
"1574200401587","587","0.41796875","-0.93066406","-0.044921875","5.59375","6.15625","7.625"
"1574200401587","588","0.3564453","-0.89746094","0.01953125","15.0625","12.875","22.1875"
"1574200401588","589","0.25097656","-0.8076172","0.049804688","26.09375","14.3125","42.15625"
"1574200401983","590","0.22460938","-0.68359375","0.030273438","45.75","12.625","56.125"
"1574200401983","591","0.16308594","-0.5595703","0.087890625","54.1875","13.15625","66.28125"
"1574200401984","592","0.12011719","-0.6035156","0.06738281","65.84375","13.28125","57.34375"
"1574200401984","593","0.09667969","-0.6513672","0.08105469","56.0625","10.375","53.03125"
"1574200401984","594","0.11035156","-0.83203125","0.1015625","42.28125","14.15625","34.71875"
"1574200401984","595","0.17578125","-0.78515625","0.14355469","56.5","10.0625","50.65625"
"1574200401985","596","0.12988281","-0.8408203","0.107421875","32.21875","-3.8125","36.96875"
"1574200401985","597","0.080078125","-0.80859375","0.23925781","23.0625","-3.6875","30.0625"
"1574200401985","598","0.024414062","-1.0400391","0.3486328","10.0","-2.21875","24.03125"
"1574200401985","599","0.091796875","-1.2597656","0.28515625","3.59375","1.375","16.40625"
"1574200402578","600","0.107421875","-1.1455078","0.2529297","-3.90625","-17.09375","12.25"
"1574200402579","601","0.0146484375","-1.1650391","0.38867188","-31.09375","-9.96875","-10.40625"
"1574200402579","602","0.15234375","-1.3964844","0.35351562","-43.09375","-15.09375","-9.0625"
"1574200402579","603","0.27929688","-1.6328125","0.234375","-45.96875","-34.0625","-26.4375"
"1574200402579","604","0.34960938","-1.5273438","0.19140625","-50.90625","-14.96875","-46.875"
"1574200402580","605","0.3330078","-1.203125","0.0390625","-46.34375","-16.25","-52.09375"
"1574200402580","606","0.29589844","-0.93847656","-0.047851562","-25.59375","-19.3125","-32.375"
"1574200402580","607","0.20996094","-0.6855469","-0.024414062","-37.4375","0.65625","-30.84375"
"1574200402580","608","0.29785156","-0.6699219","-9.765625E-4","-24.0","-4.53125","-24.1875"
"1574200402581","609","0.30371094","-0.93847656","-0.009765625","-29.5","-8.0","-15.9375"
"1574200402776","610","0.3388672","-0.94921875","-0.017578125","-7.78125","-6.4375","-17.78125"
"1574200402776","611","0.3876953","-0.9560547","-0.053710938","-12.34375","-4.78125","-11.0"
"1574200402777","612","0.3642578","-1.0292969","-0.052734375","-8.5","-1.40625","-14.59375"
"1574200402777","613","0.375","-0.921875","-0.06738281","-0.625","-5.15625","-10.75"
"1574200402777","614","0.2939453","-0.88183594","-0.052734375","-4.15625","-3.3125","-5.6875"
"1574200402778","615","0.2939453","-0.9033203","-0.057617188","1.6875","1.4375","-5.375"
"1574200402778","616","0.30566406","-0.92578125","-0.041015625","1.5","-0.5","0.0"
"1574200402779","617","0.3095703","-0.9501953","-0.041992188","6.03125","1.5625","3.65625"
"1574200402779","618","0.29882812","-0.9375","-0.028320312","12.1875","4.125","7.125"
"1574200402779","619","0.26757812","-0.9199219","-0.01953125","13.53125","6.46875","14.3125"
"1574200403173","620","0.29003906","-0.94921875","-0.015625","19.5625","9.6875","16.53125"
"1574200403174","621","0.28515625","-0.953125","0.017578125","19.34375","13.28125","23.53125"
"1574200403174","622","0.2626953","-1.0039062","0.020507812","11.40625","10.59375","17.6875"
"1574200403174","623","0.28320312","-1.0029297","0.043945312","17.0625","8.46875","13.28125"
"1574200403174","624","0.21582031","-0.93652344","0.08691406","13.71875","9.9375","12.0625"
"1574200403191","625","0.13867188","-0.87597656","0.14257812","16.65625","13.15625","20.0625"
"1574200403191","626","0.07519531","-0.8408203","0.123046875","8.09375","-4.90625","20.6875"
"1574200403191","627","0.15234375","-0.8222656","0.09472656","61.5625","5.53125","43.5"
"1574200403191","628","0.14355469","-0.8417969","0.1171875","84.15625","29.90625","70.59375"
"1574200403192","629","0.115234375","-0.87402344","0.17773438","121.9375","26.90625","83.65625"
"1574200403572","630","0.0546875","-0.87402344","0.25683594","149.40625","21.78125","95.5625"
"1574200403573","631","0.11425781","-1.0859375","0.3955078","174.90625","25.875","90.9375"
"1574200403573","632","-0.07519531","-0.96484375","0.5","145.3125","41.375","71.9375"
"1574200403573","633","-0.04296875","-0.86621094","0.65234375","137.1875","26.90625","66.875"
"1574200403573","634","-0.19921875","-0.734375","0.6972656","98.4375","32.8125","53.75"
"1574200403574","635","-0.2548828","-0.67871094","0.7597656","77.9375","41.5","48.875"
"1574200403574","636","-0.25390625","-0.61328125","0.8261719","42.84375","34.90625","42.15625"
"1574200403575","637","-0.41015625","-0.47070312","0.82128906","34.40625","24.75","39.65625"
"1574200403576","638","-0.38964844","-0.45703125","0.7285156","42.84375","17.625","28.1875"
"1574200403576","639","-0.42382812","-0.46972656","0.7861328","28.0625","24.40625","20.0"
"1574200403970","640","-0.37695312","-0.40039062","0.7861328","15.1875","13.40625","5.53125"
"1574200403970","641","-0.34277344","-0.5107422","0.74316406","3.78125","7.125","11.71875"
"1574200403971","642","-0.4658203","-0.42773438","0.7890625","-3.25","3.84375","10.71875"
"1574200403971","643","-0.39257812","-0.5371094","0.7792969","-7.21875","2.0","-1.90625"
"1574200403971","644","-0.4140625","-0.5019531","0.78125","-17.71875","-0.8125","-6.84375"
"1574200403971","645","-0.4140625","-0.5136719","0.7949219","-16.9375","-1.1875","-3.125"
"1574200403972","646","-0.38671875","-0.52734375","0.76464844","-11.25","-0.875","-5.5"
"1574200403972","647","-0.390625","-0.5214844","0.75","-18.5625","-1.90625","-5.875"
"1574200403972","648","-0.37597656","-0.52734375","0.71777344","-8.625","-1.0625","-4.03125"
"1574200403973","649","-0.37695312","-0.5341797","0.7236328","-14.34375","0.59375","-6.1875"
"1574200404565","650","-0.36132812","-0.5253906","0.7001953","-6.59375","0.59375","-5.625"
"1574200404565","651","-0.37890625","-0.5576172","0.72265625","-3.375","2.1875","-2.53125"
"1574200404565","652","-0.3310547","-0.5644531","0.7167969","-3.25","-1.0625","-3.25"
"1574200404565","653","-0.3359375","-0.5957031","0.7050781","-8.0","-1.90625","-4.78125"
"1574200404566","654","-0.36328125","-0.5800781","0.73535156","-10.75","0.59375","-3.5"
"1574200404566","655","-0.3515625","-0.58984375","0.71875","-11.6875","0.15625","-4.46875"
"1574200404566","656","-0.3359375","-0.5761719","0.7138672","-14.84375","-1.0625","-1.71875"
"1574200404567","657","-0.35058594","-0.57128906","0.7236328","-5.9375","-0.4375","0.09375"
"1574200404567","658","-0.34960938","-0.6064453","0.75097656","11.09375","-15.34375","-0.875"
"1574200404567","659","-0.37597656","-0.625","0.82421875","10.65625","-1.34375","15.1875"
"1574200404765","660","-0.3408203","-0.6328125","0.81640625","6.28125","0.15625","10.46875"
"1574200404767","661","-0.3671875","-0.8076172","0.8144531","-12.90625","-0.625","-7.78125"
"1574200404768","662","-0.3779297","-0.5126953","0.6953125","-43.28125","1.625","-22.40625"
"1574200404768","663","-0.30566406","-0.47265625","0.65625","-23.6875","-1.125","-12.53125"
"1574200404768","664","-0.2607422","-0.4580078","0.55078125","-15.15625","-1.53125","-18.5"
"1574200404769","665","-0.3544922","-0.5527344","0.74316406","25.75","1.875","9.9375"
"1574200404769","666","-0.32617188","-0.6982422","0.82421875","5.78125","6.46875","15.4375"
"1574200404769","667","-0.3642578","-0.93066406","0.9111328","-18.3125","3.71875","1.15625"
"1574200404770","668","-0.38085938","-0.9550781","0.9013672","-44.03125","-10.875","-20.9375"
"1574200404770","669","-0.3564453","-0.9355469","0.88964844","-69.78125","-8.8125","-37.4375"
"1574200405161","670","-0.29589844","-0.9667969","0.79296875","-91.5625","-11.375","-51.28125"
"1574200405161","671","-0.21386719","-1.0263672","0.6591797","-97.3125","-20.15625","-60.875"
"1574200405162","672","-0.15429688","-1.0673828","0.5917969","-106.9375","-20.53125","-76.3125"
"1574200405163","673","-0.19824219","-1.046875","0.48242188","-107.625","-13.125","-94.875"
"1574200405163","674","-0.06738281","-0.8779297","0.34179688","-91.6875","-23.09375","-96.625"
"1574200405163","675","0.0107421875","-0.7949219","0.27734375","-91.09375","-18.5625","-92.59375"
"1574200405164","676","-0.013671875","-0.7675781","0.24121094","-85.71875","-19.375","-97.0"
"1574200405164","677","0.10644531","-0.61621094","0.20800781","-64.40625","-30.90625","-82.53125"
"1574200405164","678","0.041015625","-0.6142578","0.15722656","-64.78125","-28.6875","-74.46875"
"1574200405164","679","0.08203125","-0.57714844","0.16601562","-50.5","-11.78125","-66.3125"
"1574200405755","680","0.16308594","-0.70996094","0.25","-20.34375","-12.28125","-53.3125"
"1574200405756","681","0.17480469","-0.70410156","0.02734375","11.09375","-45.4375","-54.03125"
"1574200405756","682","0.21679688","-0.5263672","0.28125","-45.78125","-9.46875","-37.0625"
"1574200405757","683","0.1484375","-1.0986328","0.21386719","-76.5","16.59375","-51.03125"
"1574200405757","684","0.43945312","-1.1142578","-0.12597656","-29.4375","1.03125","-14.46875"
"1574200405758","685","0.4580078","-0.578125","0.13085938","-26.3125","3.28125","-22.65625"
"1574200405759","686","0.35742188","-0.9013672","0.025390625","-63.1875","-6.84375","-18.25"
"1574200405759","687","0.39746094","-1.0351562","-0.0859375","-26.6875","12.125","-16.96875"
"1574200405759","688","0.42871094","-0.7841797","0.021484375","-18.25","11.65625","-9.59375"
"1574200405759","689","0.3984375","-0.88671875","-0.026367188","-17.65625","13.09375","-1.25"
"1574200405957","690","0.49121094","-0.88378906","-0.08984375","-8.4375","9.625","-6.65625"
"1574200405957","691","0.4375","-0.8808594","-0.049804688","-14.25","10.125","-4.59375"
"1574200405958","692","0.4189453","-0.8769531","-0.043945312","-8.9375","8.84375","1.8125"
"1574200405958","693","0.45214844","-0.88964844","-0.055664062","-4.15625","7.0625","1.3125"
"1574200405958","694","0.42089844","-0.8925781","-0.06738281","-7.03125","5.96875","-0.875"
"1574200405958","695","0.42382812","-0.8984375","-0.043945312","-2.6875","3.15625","1.5"
"1574200405958","696","0.44140625","-0.90234375","-0.061523438","-0.375","5.0","2.65625"
"1574200405960","697","0.40527344","-0.9091797","-0.033203125","0.65625","7.375","4.375"
"1574200405960","698","0.35742188","-0.9160156","-0.0146484375","8.15625","9.25","12.0625"
"1574200405960","699","0.3486328","-0.8574219","0.022460938","18.125","15.0625","21.03125"
"1574200406750","700","0.31640625","-0.82421875","0.026367188","27.15625","20.1875","28.1875"
"1574200406750","701","0.22753906","-0.72265625","0.072265625","45.40625","11.15625","37.875"
"1574200406750","702","0.203125","-0.7441406","0.08496094","46.875","22.8125","38.1875"
"1574200406751","703","0.22558594","-0.63964844","0.080078125","68.03125","11.59375","53.8125"
"1574200406751","704","0.11816406","-0.6279297","0.09667969","54.0","23.0625","45.28125"
"1574200406751","705","0.0859375","-0.65234375","0.18066406","51.5","14.3125","36.71875"
"1574200406752","706","0.17871094","-0.67285156","0.103515625","63.34375","6.03125","50.09375"
"1574200406752","707","0.1328125","-0.79785156","0.20214844","43.3125","11.03125","49.71875"
"1574200406752","708","0.08203125","-0.8261719","0.29785156","51.6875","15.71875","42.90625"
"1574200406754","709","0.15527344","-1.0117188","0.2626953","39.21875","12.1875","40.21875"
"1574200406946","710","0.15039062","-0.97753906","0.30664062","36.375","-2.8125","38.0625"
"1574200406947","711","-0.09765625","-1.1484375","0.5498047","11.59375","14.5","30.4375"
"1574200406947","712","0.20605469","-1.2919922","0.31640625","-1.125","-19.53125","15.1875"
"1574200406947","713","0.03515625","-1.1826172","0.5732422","-2.40625","-15.09375","12.75"
"1574200406948","714","0.0078125","-1.3457031","0.515625","-39.0625","-15.9375","-6.59375"
"1574200406948","715","0.29492188","-1.6269531","0.40527344","-58.0625","-33.03125","-35.0625"
"1574200406948","716","0.14257812","-1.2529297","0.33789062","-72.34375","-27.0625","-76.4375"
"1574200406949","717","0.22363281","-0.9902344","0.19335938","-56.21875","-16.1875","-66.3125"
"1574200406949","718","0.29003906","-0.9501953","0.059570312","-32.90625","-6.65625","-47.5"
"1574200406949","719","0.24121094","-0.7714844","0.041015625","-35.96875","-6.375","-32.5"
"1574200407149","720","0.27539062","-0.8232422","0.060546875","-43.71875","-7.03125","-22.28125"
"1574200407151","721","0.3330078","-0.9628906","0.038085938","-38.15625","-7.28125","-25.15625"
"1574200407151","722","0.359375","-0.91796875","0.017578125","-27.1875","-6.0625","-25.46875"
"1574200407151","723","0.35742188","-0.890625","-0.0107421875","-19.96875","-9.84375","-20.84375"
"1574200407152","724","0.36914062","-0.953125","-0.0126953125","-22.125","-6.90625","-14.59375"
"1574200407152","725","0.359375","-0.890625","-0.029296875","-13.25","-4.65625","-10.21875"
"1574200407152","726","0.34570312","-0.91796875","-0.0146484375","-7.03125","-1.46875","-2.75"
"1574200407153","727","0.3515625","-0.91308594","-0.037109375","-1.65625","-0.4375","0.15625"
"1574200407153","728","0.38964844","-0.90625","-0.0390625","3.90625","1.8125","0.46875"
"1574200407153","729","0.375","-0.95996094","-0.0029296875","4.125","6.21875","2.90625"
"1574200407546","730","0.34277344","-0.9394531","-0.0126953125","9.125","7.625","2.78125"
"1574200407546","731","0.3310547","-0.9140625","0.0068359375","11.40625","6.34375","6.46875"
"1574200407547","732","0.31640625","-0.9189453","0.025390625","10.71875","5.34375","8.71875"
"1574200407548","733","0.29101562","-0.93066406","0.03515625","17.1875","9.03125","11.8125"
"1574200407548","734","0.28125","-0.93847656","0.072265625","12.625","4.9375","13.03125"
"1574200407549","735","0.22753906","-0.8808594","0.115234375","17.875","8.59375","18.125"
"1574200407549","736","0.20996094","-0.86621094","0.06640625","15.0","2.125","21.96875"
"1574200407549","737","0.18847656","-0.8652344","0.08105469","52.84375","13.84375","40.21875"
"1574200407550","738","0.20703125","-0.83203125","0.107421875","87.09375","24.65625","59.375"
"1574200407550","739","0.14746094","-0.8232422","0.15917969","117.21875","38.0625","76.65625"
"1574200408146","740","0.20800781","-0.96972656","0.2861328","127.90625","39.15625","84.8125"
"1574200408146","741","0.19042969","-1.046875","0.35742188","113.09375","26.03125","71.28125"
"1574200408146","742","0.09375","-0.92285156","0.38671875","124.75","36.3125","73.09375"
"1574200408146","743","-0.064453125","-0.91015625","0.5800781","126.5","46.375","65.15625"
"1574200408147","744","-0.08984375","-0.8613281","0.6796875","97.40625","39.15625","61.75"
"1574200408148","745","-0.13769531","-0.6845703","0.65527344","65.46875","32.5625","39.0625"
"1574200408148","746","-0.24316406","-0.5703125","0.73046875","70.34375","26.78125","40.375"
"1574200408149","747","-0.36035156","-0.5253906","0.76660156","81.09375","28.1875","54.1875"
"1574200408150","748","-0.40429688","-0.5048828","0.81640625","71.34375","31.125","42.96875"
"1574200408150","749","-0.3251953","-0.46972656","0.7832031","70.3125","29.34375","32.46875"
"1574200408341","750","-0.31347656","-0.5097656","0.8066406","38.0","19.53125","24.09375"
"1574200408342","751","-0.3544922","-0.47558594","0.7939453","19.875","13.0","14.3125"
"1574200408342","752","-0.38671875","-0.45996094","0.86035156","12.1875","16.40625","10.84375"
"1574200408342","753","-0.37109375","-0.45507812","0.8798828","-0.1875","9.875","-1.53125"
"1574200408343","754","-0.36914062","-0.4921875","0.82910156","-10.03125","5.28125","-4.59375"
"1574200408343","755","-0.3798828","-0.43847656","0.83203125","-19.25","1.3125","-7.03125"
"1574200408343","756","-0.36132812","-0.45996094","0.81640625","-14.3125","2.90625","-7.8125"
"1574200408345","757","-0.34570312","-0.4453125","0.7753906","-8.625","4.8125","-4.46875"
"1574200408346","758","-0.34960938","-0.45214844","0.78027344","-2.625","1.9375","-4.34375"
"1574200408346","759","-0.34472656","-0.4765625","0.7597656","1.09375","2.1875","-2.34375"
"1574200409136","760","-0.32617188","-0.4873047","0.7597656","4.6875","2.375","-4.40625"
"1574200409137","761","-0.3330078","-0.5097656","0.78125","-1.96875","1.5","-2.53125"
"1574200409137","762","-0.33496094","-0.5234375","0.765625","-3.0625","1.28125","-1.65625"
"1574200409137","763","-0.32421875","-0.53027344","0.7734375","-5.15625","2.59375","1.625"
"1574200409137","764","-0.31152344","-0.57421875","0.7753906","-11.6875","5.1875","2.0625"
"1574200409138","765","-0.34375","-0.5546875","0.7832031","-21.75","1.3125","-3.875"
"1574200409138","766","-0.36914062","-0.47753906","0.75390625","-25.84375","1.5","-6.53125"
"1574200409138","767","-0.3623047","-0.46679688","0.74902344","-11.6875","5.84375","-0.875"
"1574200409138","768","-0.3486328","-0.48828125","0.7470703","-3.0625","2.3125","4.5625"
"1574200409140","769","-0.36621094","-0.51660156","0.7861328","4.8125","1.03125","11.03125"
"1574200409334","770","-0.3955078","-0.55566406","0.8232422","4.25","6.21875","10.59375"
"1574200409335","771","-0.3095703","-0.70996094","0.76171875","-34.25","-5.75","-10.5"
"1574200409335","772","-0.37890625","-0.47558594","0.6923828","-46.09375","-9.28125","-25.15625"
"1574200409335","773","-0.328125","-0.3251953","0.6015625","-21.75","-2.40625","-8.875"
"1574200409336","774","-0.29492188","-0.5390625","0.67285156","9.9375","0.21875","-4.78125"
"1574200409336","775","-0.33691406","-0.62890625","0.7792969","13.90625","-7.28125","-4.53125"
"1574200409336","776","-0.390625","-0.6748047","0.9482422","26.59375","-0.9375","22.375"
"1574200409336","777","-0.3876953","-0.8808594","1.0410156","-3.5625","6.9375","19.03125"
"1574200409337","778","-0.41503906","-0.83203125","0.96484375","-26.1875","0.59375","-3.90625"
"1574200409337","779","-0.4091797","-0.8144531","0.9355469","-51.03125","-3.96875","-19.65625"
"1574200409534","780","-0.29882812","-0.8154297","0.8515625","-61.28125","-6.53125","-35.28125"
"1574200409534","781","-0.2998047","-0.85546875","0.83496094","-63.0625","-10.5","-41.75"
"1574200409535","782","-0.25195312","-0.8857422","0.7578125","-86.625","-15.09375","-53.84375"
"1574200409535","783","-0.24804688","-0.9941406","0.66796875","-91.875","-16.5625","-62.875"
"1574200409535","784","-0.18261719","-0.9277344","0.56347656","-92.71875","-12.78125","-68.125"
"1574200409535","785","-0.09472656","-0.80078125","0.43359375","-88.28125","-13.75","-89.0625"
"1574200409536","786","-0.020507812","-0.70410156","0.3720703","-88.875","-17.65625","-99.4375"
"1574200409536","787","-0.030273438","-0.7314453","0.26171875","-79.84375","-25.78125","-93.53125"
"1574200409536","788","0.06347656","-0.62109375","0.24707031","-79.84375","-34.8125","-82.53125"
"1574200409537","789","-0.0078125","-0.61621094","0.21582031","-82.78125","-29.5","-81.25"
"1574200409932","790","0.06640625","-0.6308594","0.17773438","-77.34375","-28.40625","-77.28125"
"1574200409933","791","0.083984375","-0.67285156","0.15429688","-82.90625","-18.6875","-70.5625"
"1574200409933","792","0.21386719","-0.69628906","0.078125","-72.90625","-20.46875","-63.5"
"1574200409934","793","0.22949219","-0.6621094","0.1796875","-59.53125","-15.9375","-52.1875"
"1574200409935","794","0.14160156","-0.85546875","0.24707031","-51.40625","-5.625","-39.4375"
"1574200409935","795","0.31152344","-1.2421875","-0.028320312","-28.15625","2.3125","-22.46875"
"1574200409935","796","0.43066406","-0.7705078","0.0126953125","2.65625","9.5","-20.84375"
"1574200409936","797","0.33203125","-0.7089844","0.061523438","-20.15625","-2.46875","-4.53125"
"1574200409936","798","0.42089844","-1.0761719","-0.049804688","-32.3125","5.28125","-13.375"
"1574200409936","799","0.42089844","-0.8779297","-0.025390625","-9.15625","3.9375","-16.75"
"1574200410330","800","0.31152344","-0.84277344","0.056640625","-15.75","6.28125","-8.625"
"1574200410330","801","0.50878906","-0.9609375","-0.08203125","-21.9375","1.3125","-15.9375"
"1574200410331","802","0.453125","-0.8925781","-0.059570312","-12.15625","-0.0625","-13.6875"
"1574200410331","803","0.3203125","-0.9033203","-0.0048828125","-16.5","2.96875","-6.59375"
"1574200410331","804","0.46972656","-0.89941406","-0.072265625","-13.75","4.0625","-8.875"
"1574200410333","805","0.4189453","-0.87597656","-0.0546875","-11.90625","4.5","-3.90625"
"1574200410333","806","0.4140625","-0.92871094","-0.0546875","-12.46875","6.21875","-3.3125"
"1574200410334","807","0.4453125","-0.8798828","-0.0703125","-6.78125","6.09375","-1.40625"
"1574200410334","808","0.42773438","-0.93652344","-0.06640625","-6.65625","7.84375","7.5"
"1574200410334","809","0.35742188","-0.9326172","0.0126953125","0.28125","14.625","14.625"
"1574200410726","810","0.3359375","-0.8544922","0.00390625","16.09375","11.8125","25.5"
"1574200410726","811","0.30664062","-0.7734375","-0.03125","36.0625","11.9375","37.8125"
"1574200410727","812","0.24902344","-0.74121094","0.05859375","44.0625","23.375","49.4375"
"1574200410727","813","0.1796875","-0.71875","0.08984375","48.15625","19.21875","42.28125"
"1574200410727","814","0.23535156","-0.62890625","0.043945312","64.0625","6.15625","51.0625"
"1574200410728","815","0.15625","-0.7919922","0.095703125","39.84375","11.40625","28.78125"
"1574200410728","816","0.06347656","-0.72753906","0.13183594","57.46875","9.25","34.15625"
"1574200410729","817","0.26171875","-0.7080078","0.140625","53.6875","-0.4375","51.5625"
"1574200410729","818","0.07128906","-0.75","0.17871094","44.46875","-17.78125","23.4375"
"1574200410729","819","0.06933594","-0.8330078","0.3671875","35.8125","4.25","28.90625"
"1574200411323","820","0.17871094","-1.0742188","0.17578125","34.03125","16.84375","19.09375"
"1574200411324","821","0.17871094","-0.9638672","0.19726562","34.71875","-17.34375","42.65625"
"1574200411324","822","-0.046875","-1.1464844","0.4423828","3.03125","20.3125","35.25"
"1574200411324","823","0.21484375","-1.1015625","0.22363281","-1.0625","5.46875","8.59375"
"1574200411325","824","0.12597656","-1.0947266","0.4169922","7.25","4.0625","10.375"
"1574200411325","825","-0.0703125","-1.2216797","0.3544922","-30.84375","-1.0625","-8.6875"
"1574200411325","826","0.2607422","-1.4052734","0.40820312","-50.4375","-27.71875","-23.09375"
"1574200411325","827","0.27539062","-1.4570312","0.22070312","-67.75","-25.53125","-38.71875"
"1574200411326","828","0.44628906","-1.3310547","0.14941406","-33.875","-17.84375","-51.96875"
"1574200411327","829","0.34472656","-1.1123047","0.0703125","-27.3125","-17.40625","-38.34375"
"1574200411522","830","0.28222656","-0.8515625","-0.034179688","-29.8125","-8.0","-34.1875"
"1574200411523","831","0.34277344","-0.7441406","0.00390625","-32.96875","1.5","-33.03125"
"1574200411523","832","0.3203125","-0.82714844","0.032226562","-40.46875","-5.75","-30.59375"
"1574200411523","833","0.32128906","-0.90527344","0.05859375","-26.8125","-4.96875","-27.40625"
"1574200411523","834","0.32128906","-0.93652344","0.055664062","-20.34375","-2.03125","-20.65625"
"1574200411524","835","0.359375","-0.9501953","0.0029296875","-14.25","1.03125","-14.90625"
"1574200411524","836","0.3798828","-0.9248047","-0.0029296875","-11.84375","-0.25","-8.625"
"1574200411524","837","0.3701172","-0.9160156","-0.024414062","-5.5","-5.03125","-5.875"
"1574200411524","838","0.3466797","-0.88378906","-0.02734375","-5.5625","-3.5625","-2.09375"
"1574200411525","839","0.3544922","-0.84765625","-0.030273438","-1.125","2.90625","2.84375"
"1574200411920","840","0.3515625","-0.91015625","0.001953125","9.03125","1.875","10.375"
"1574200411922","841","0.34570312","-0.95703125","-0.032226562","16.34375","7.25","16.09375"
"1574200411922","842","0.3408203","-1.0","0.029296875","11.71875","10.0625","16.90625"
"1574200411922","843","0.36621094","-0.9628906","0.0107421875","20.1875","2.25","11.15625"
"1574200411923","844","0.2998047","-0.8671875","0.041015625","12.9375","1.6875","13.03125"
"1574200411923","845","0.20410156","-0.8408203","0.07910156","12.375","4.6875","23.25"
"1574200411923","846","0.15722656","-0.8691406","0.06738281","21.03125","-4.46875","29.53125"
"1574200411924","847","0.18359375","-0.828125","0.068359375","66.625","12.25","53.15625"
"1574200411924","848","0.15136719","-0.82910156","0.12207031","97.03125","30.4375","74.8125"
"1574200411924","849","0.17285156","-0.8466797","0.22265625","116.8125","26.03125","84.59375"
"1574200412316","850","0.20410156","-0.9296875","0.25878906","133.40625","26.71875","85.0"
"1574200412317","851","0.15136719","-1.1044922","0.36035156","149.59375","26.40625","73.40625"
"1574200412317","852","-0.11035156","-0.94140625","0.5517578","137.375","41.375","65.34375"
"1574200412318","853","-0.07519531","-0.8466797","0.64746094","123.40625","34.09375","61.4375"
"1574200412319","854","-0.13378906","-0.7841797","0.59765625","105.09375","30.625","55.28125"
"1574200412319","855","-0.17675781","-0.62402344","0.59277344","91.96875","27.5","54.71875"
"1574200412320","856","-0.3154297","-0.5761719","0.765625","73.71875","31.0","48.625"
"1574200412320","857","-0.3408203","-0.57910156","0.875","53.03125","30.5625","40.9375"
"1574200412320","858","-0.33203125","-0.4873047","0.84277344","48.625","27.375","42.46875"
"1574200412321","859","-0.35058594","-0.48339844","0.859375","28.25","22.75","35.25"
"1574200412910","860","-0.38183594","-0.42285156","0.8359375","26.78125","14.3125","23.0625"
"1574200412911","861","-0.36132812","-0.47460938","0.8154297","9.375","8.21875","7.5"
"1574200412911","862","-0.35742188","-0.47558594","0.83691406","-11.78125","5.0625","-1.78125"
"1574200412911","863","-0.37890625","-0.44921875","0.8642578","-19.0","-2.625","-4.84375"
"1574200412911","864","-0.3671875","-0.4814453","0.79296875","-24.125","-3.4375","-3.1875"
"1574200412913","865","-0.38476562","-0.46484375","0.7949219","-21.8125","-0.375","-7.03125"
"1574200412913","866","-0.3544922","-0.5048828","0.7871094","-26.375","-3.0625","-12.59375"
"1574200412914","867","-0.2998047","-0.50390625","0.72753906","-21.6875","-3.125","-11.3125"
"1574200412914","868","-0.3173828","-0.53027344","0.7529297","-21.375","-6.3125","-9.53125"
"1574200412914","869","-0.2890625","-0.5439453","0.7080078","-17.59375","-6.0","-8.875"
"1574200413111","870","-0.28320312","-0.59765625","0.73339844","-13.75","-4.96875","-6.3125"
"1574200413111","871","-0.2939453","-0.58984375","0.7011719","-14.0","-6.53125","-7.21875"
"1574200413112","872","-0.30078125","-0.6230469","0.73828125","-12.96875","0.0","-3.5"
"1574200413112","873","-0.26660156","-0.5966797","0.6953125","-9.78125","-1.96875","-4.84375"
"1574200413112","874","-0.25878906","-0.62402344","0.7109375","-10.28125","0.40625","-1.25"
"1574200413112","875","-0.29101562","-0.5722656","0.703125","-10.28125","-0.0625","-3.96875"
"1574200413113","876","-0.27734375","-0.60546875","0.6904297","-6.84375","-0.625","-2.875"
"1574200413114","877","-0.27734375","-0.59375","0.70996094","-8.875","1.9375","-2.46875"
"1574200413114","878","-0.27246094","-0.6044922","0.7089844","-4.71875","-0.6875","-3.3125"
"1574200413115","879","-0.29101562","-0.6152344","0.72558594","-3.0625","0.46875","-1.0"
"1574200413509","880","-0.32910156","-0.6660156","0.64160156","-7.59375","-31.03125","-13.875"
"1574200413509","881","-0.26660156","-0.60058594","0.7011719","-2.15625","-1.0625","-1.84375"
"1574200413510","882","-0.26660156","-0.62890625","0.71484375","-4.71875","-1.0","-5.09375"
"1574200413510","883","-0.26464844","-0.6152344","0.69628906","-5.4375","-0.375","-4.53125"
"1574200413510","884","-0.2578125","-0.6308594","0.70703125","-4.28125","-1.40625","-3.375"
"1574200413510","885","-0.25976562","-0.66308594","0.7109375","-6.78125","0.0","-3.4375"
"1574200413511","886","-0.21875","-0.6933594","0.7128906","-7.65625","-3.6875","-3.875"
"1574200413511","887","-0.19628906","-0.7597656","0.77734375","-8.3125","-6.0625","-1.0"
"1574200413511","888","-0.25","-0.8359375","0.8466797","-9.65625","-3.5","1.625"
"1574200413512","889","-0.25390625","-0.8095703","0.86621094","-20.59375","4.0625","-4.21875"
"1574200413907","890","-0.28710938","-0.8300781","0.83984375","-29.625","2.0625","-13.625"
"1574200413907","891","-0.3095703","-0.828125","0.82910156","-25.65625","1.6875","-16.4375"
"1574200413908","892","-0.22558594","-0.82910156","0.72265625","-34.0625","-10.15625","-27.25"
"1574200413908","893","-0.14355469","-0.9111328","0.68847656","-47.875","-15.21875","-41.46875"
"1574200413908","894","-0.123046875","-0.9248047","0.6533203","-79.46875","-26.625","-54.40625"
"1574200413908","895","-0.11328125","-0.93359375","0.60253906","-98.28125","-32.84375","-61.1875"
"1574200413909","896","-0.057617188","-1.0068359","0.53125","-110.5625","-31.375","-74.0625"
"1574200413909","897","-0.0107421875","-0.9628906","0.4326172","-98.21875","-19.65625","-77.28125"
"1574200413909","898","0.057617188","-0.91503906","0.375","-93.21875","-16.96875","-82.59375"
"1574200413909","899","0.05078125","-0.9033203","0.33007812","-90.84375","-18.375","-88.9375"
"1574200414304","900","0.13867188","-0.82910156","0.24316406","-65.03125","-13.75","-71.84375"
"1574200414306","901","0.140625","-0.8203125","0.2265625","-60.0625","-13.125","-62.875"
"1574200414306","902","0.16210938","-0.7939453","0.15234375","-66.96875","-4.59375","-62.8125"
"1574200414307","903","0.20410156","-0.6826172","0.115234375","-55.5","-6.65625","-58.96875"
"1574200414307","904","0.20507812","-0.6152344","0.06933594","-62.28125","3.71875","-56.53125"
"1574200414307","905","0.21679688","-0.6064453","0.07128906","-60.0","3.65625","-43.59375"
"1574200414308","906","0.28125","-0.6376953","0.05078125","-68.625","-1.40625","-42.125"
"1574200414308","907","0.38476562","-0.6875","0.125","-65.3125","3.34375","-36.28125"
"1574200414308","908","0.40039062","-0.921875","0.041015625","-44.6875","-2.625","-27.78125"
"1574200414309","909","0.30273438","-1.0703125","-0.06640625","-36.625","6.9375","-15.34375"
"1574200414900","910","0.45898438","-0.8613281","-0.12207031","-26.8125","12.1875","-5.5"
"1574200414900","911","0.52441406","-0.69921875","-0.057617188","-19.65625","10.0","-6.90625"
"1574200414901","912","0.4765625","-0.9003906","-0.095703125","-28.28125","11.34375","-7.9375"
"1574200414902","913","0.43066406","-0.9003906","-0.13671875","-11.84375","7.75","-5.15625"
"1574200414903","914","0.43164062","-0.82128906","-0.091796875","-10.03125","10.53125","-1.96875"
"1574200414903","915","0.50878906","-0.8935547","-0.14746094","-10.15625","8.53125","0.71875"
"1574200414903","916","0.4736328","-0.8652344","-0.140625","-7.21875","4.1875","-1.84375"
"1574200414904","917","0.4345703","-0.8857422","-0.10449219","-7.46875","7.84375","0.71875"
"1574200414904","918","0.4423828","-0.9326172","-0.12695312","-4.71875","7.96875","3.34375"
"1574200414904","919","0.40039062","-0.91015625","-0.09472656","4.5625","11.40625","9.5"
"1574200415299","920","0.35839844","-0.85839844","-0.034179688","11.71875","16.40625","19.53125"
"1574200415299","921","0.36132812","-0.83691406","-0.048828125","17.3125","14.8125","23.90625"
"1574200415300","922","0.33496094","-0.81640625","-0.026367188","28.625","17.0","26.03125"
"1574200415300","923","0.2861328","-0.74609375","0.01953125","36.90625","12.0625","32.75"
"1574200415300","924","0.2763672","-0.78125","0.01953125","39.09375","4.6875","32.21875"
"1574200415302","925","0.21777344","-0.7363281","-9.765625E-4","48.1875","4.0625","36.0625"
"1574200415302","926","0.12402344","-0.6123047","0.068359375","55.09375","8.34375","42.84375"
"1574200415302","927","0.23242188","-0.67089844","0.028320312","33.25","18.78125","34.71875"
"1574200415302","928","0.28125","-0.64453125","0.08691406","58.09375","6.03125","30.875"
"1574200415303","929","0.21679688","-0.8125","0.099609375","42.21875","-2.9375","34.90625"
"1574200415498","930","0.13671875","-0.86621094","0.12011719","52.71875","-0.9375","37.15625"
"1574200415498","931","0.2783203","-0.9667969","0.23535156","33.96875","-5.4375","46.6875"
"1574200415498","932","0.15039062","-1.1777344","0.12207031","21.84375","-16.0625","29.53125"
"1574200415499","933","0.25097656","-1.0419922","0.3330078","26.34375","-16.25","36.0"
"1574200415499","934","0.07910156","-1.2470703","0.25195312","-9.65625","-21.5","2.90625"
"1574200415499","935","0.22460938","-1.2792969","0.32128906","-5.75","-22.21875","0.34375"
"1574200415499","936","0.034179688","-1.296875","0.33398438","-26.6875","-14.25","2.0"
"1574200415501","937","0.40234375","-1.4248047","0.18945312","-36.5625","-33.03125","-32.0625"
"1574200415501","938","0.33984375","-1.1943359","0.12597656","-44.9375","-15.46875","-42.75"
"1574200415501","939","0.33691406","-1.0771484","0.09472656","-42.8125","-25.28125","-46.59375"
"1574200415895","940","0.41992188","-1.0332031","-0.02734375","-49.40625","-19.0625","-44.21875"
"1574200415895","941","0.35546875","-0.8925781","-0.032226562","-41.03125","-15.46875","-37.5"
"1574200415896","942","0.31445312","-0.8261719","-0.0126953125","-34.625","-11.71875","-26.75"
"1574200415896","943","0.359375","-0.8642578","-0.061523438","-25.46875","-10.03125","-18.21875"
"1574200415897","944","0.36621094","-0.90234375","-0.052734375","-17.59375","-5.5","-16.125"
"1574200415900","945","0.38085938","-0.8808594","-0.059570312","-11.625","-4.65625","-13.375"
"1574200415900","946","0.41796875","-0.95996094","-0.09667969","-9.46875","-1.71875","-8.1875"
"1574200415901","947","0.41992188","-0.88671875","-0.10839844","-1.1875","-0.3125","-7.9375"
"1574200415901","948","0.4033203","-0.8730469","-0.099609375","-3.90625","1.8125","0.65625"
"1574200415903","949","0.3876953","-0.9033203","-0.07519531","0.78125","5.125","0.96875"
"1574200416293","950","0.359375","-0.88378906","-0.07324219","9.125","5.34375","6.03125"
"1574200416294","951","0.36328125","-0.9013672","-0.055664062","15.0625","11.71875","11.15625"
"1574200416294","952","0.37695312","-0.92871094","-0.056640625","17.375","13.15625","15.1875"
"1574200416294","953","0.36816406","-0.96484375","-0.021484375","16.28125","10.71875","18.125"
"1574200416295","954","0.35058594","-0.9658203","-0.0126953125","19.40625","6.5625","14.5"
"1574200416295","955","0.29785156","-0.859375","0.015625","25.8125","8.90625","16.65625"
"1574200416295","956","0.23144531","-0.8730469","0.076171875","30.3125","15.3125","23.96875"
"1574200416295","957","0.21582031","-0.8769531","0.08105469","41.5625","20.84375","28.90625"
"1574200416296","958","0.19238281","-0.8720703","0.12597656","66.28125","28.3125","43.375"
"1574200416296","959","0.23535156","-0.82714844","0.123046875","94.40625","29.03125","59.25"
"1574200417085","960","0.2734375","-0.90527344","0.18847656","88.71875","28.5","69.5"
"1574200417086","961","0.20117188","-1.0615234","0.20898438","93.5","29.46875","54.90625"
"1574200417086","962","0.16796875","-1.0273438","0.35742188","97.28125","36.71875","50.59375"
"1574200417087","963","-0.0107421875","-0.9033203","0.46191406","92.5","40.4375","43.75"
"1574200417087","964","-0.020507812","-0.83691406","0.46484375","91.21875","42.65625","41.65625"
"1574200417087","965","-0.07714844","-0.7626953","0.5888672","91.59375","43.8125","50.46875"
"1574200417087","966","-0.15136719","-0.64746094","0.62109375","102.53125","42.46875","55.59375"
"1574200417088","967","-0.18359375","-0.7060547","0.69140625","102.15625","43.9375","55.96875"
"1574200417088","968","-0.21875","-0.62890625","0.74316406","96.84375","36.125","49.3125"
"1574200417088","969","-0.203125","-0.6269531","0.7949219","79.03125","32.6875","45.03125"
"1574200417287","970","-0.25878906","-0.5605469","0.84472656","59.1875","22.1875","36.3125"
"1574200417287","971","-0.29492188","-0.4921875","0.8408203","50.8125","8.90625","36.96875"
"1574200417288","972","-0.3642578","-0.50683594","0.84375","25.375","8.03125","19.8125"
"1574200417289","973","-0.34277344","-0.48828125","0.84472656","12.625","4.3125","1.5625"
"1574200417290","974","-0.31054688","-0.48046875","0.8310547","0.34375","1.625","-6.25"
"1574200417290","975","-0.28515625","-0.4814453","0.8183594","-3.8125","1.03125","-6.59375"
"1574200417290","976","-0.31152344","-0.4736328","0.83496094","-7.34375","-2.40625","-4.46875"
"1574200417290","977","-0.32714844","-0.48046875","0.8144531","-8.8125","-0.0625","-2.75"
"1574200417291","978","-0.30371094","-0.4765625","0.8125","-8.4375","1.9375","-1.65625"
"1574200417291","979","-0.28222656","-0.4892578","0.79785156","-7.21875","0.71875","-3.0625"
"1574200417679","980","-0.26757812","-0.50390625","0.77734375","-8.5625","-0.0625","-4.84375"
"1574200417680","981","-0.27441406","-0.50683594","0.78515625","-8.0625","-0.1875","-3.8125"
"1574200417680","982","-0.26367188","-0.53125","0.7841797","-10.34375","0.90625","-5.25"
"1574200417680","983","-0.27148438","-0.5107422","0.77441406","-9.53125","-0.6875","-3.875"
"1574200417680","984","-0.27148438","-0.5341797","0.78808594","-10.9375","-0.0625","-4.40625"
"1574200417681","985","-0.2734375","-0.5361328","0.78222656","-13.125","-0.6875","-6.3125"
"1574200417682","986","-0.26660156","-0.5234375","0.7636719","-11.5","-0.5","-5.25"
"1574200417682","987","-0.28125","-0.51660156","0.77246094","-12.84375","-1.40625","-5.8125"
"1574200417682","988","-0.25","-0.52441406","0.7470703","-9.90625","-0.9375","-2.40625"
"1574200417682","989","-0.24804688","-0.55078125","0.75683594","-3.5625","0.84375","-1.53125"
"1574200417881","990","-0.24804688","-0.5410156","0.7626953","-6.125","-0.5625","-1.25"
"1574200417882","991","-0.25390625","-0.5673828","0.7626953","-1.96875","0.34375","-0.8125"
"1574200417882","992","-0.23730469","-0.5761719","0.7636719","-5.03125","0.59375","-1.0625"
"1574200417883","993","-0.24414062","-0.60058594","0.76171875","-4.53125","-0.25","0.28125"
"1574200417883","994","-0.21289062","-0.6513672","0.81152344","-9.125","-2.03125","3.53125"
"1574200417883","995","-0.2548828","-0.71875","0.8847656","-16.0","-0.3125","2.96875"
"1574200417883","996","-0.30859375","-0.72265625","0.96972656","-17.53125","1.375","6.03125"
"1574200417885","997","-0.2998047","-0.75097656","0.90234375","-25.28125","-3.625","-1.71875"
"1574200417885","998","-0.2626953","-0.78808594","0.8671875","-39.3125","-5.25","-11.625"
"1574200417885","999","-0.26367188","-0.7128906","0.8388672","-42.625","-16.96875","-15.46875"
"1574200418480","1000","-0.18847656","-0.7919922","0.7753906","-43.28125","-21.6875","-21.625"
"1574200418480","1001","-0.15820312","-0.8310547","0.76660156","-59.71875","-25.34375","-32.5"
"1574200418481","1002","-0.16113281","-0.8486328","0.75683594","-67.40625","-29.25","-38.40625"
"1574200418481","1003","-0.109375","-0.90722656","0.6669922","-69.96875","-33.21875","-39.3125"
"1574200418481","1004","-0.09082031","-0.94433594","0.6191406","-79.375","-31.15625","-52.3125"
"1574200418482","1005","-0.02734375","-0.8779297","0.5371094","-88.6875","-26.875","-62.75"
"1574200418482","1006","0.0146484375","-0.8613281","0.47851562","-96.75","-26.4375","-72.84375"
"1574200418482","1007","0.034179688","-0.83496094","0.37695312","-99.9375","-25.90625","-77.65625"
"1574200418482","1008","0.109375","-0.734375","0.2841797","-92.59375","-20.21875","-74.59375"
"1574200418484","1009","0.09277344","-0.7392578","0.25976562","-94.25","-16.0","-77.65625"
"1574200418676","1010","0.140625","-0.7128906","0.18847656","-95.21875","-8.0","-71.1875"
"1574200418677","1011","0.1875","-0.6152344","0.11328125","-85.84375","-10.28125","-65.9375"
"1574200418677","1012","0.18261719","-0.6748047","0.12109375","-87.1875","-5.4375","-60.3125"
"1574200418677","1013","0.19238281","-0.6464844","0.087890625","-52.09375","8.65625","-49.5625"
"1574200418677","1014","0.31347656","-0.7939453","0.06933594","-3.3125","-9.53125","-40.78125"
"1574200418678","1015","0.25878906","-0.7451172","0.140625","-16.25","-8.4375","-29.9375"
"1574200418678","1016","0.28320312","-0.9970703","0.08886719","-41.59375","4.3125","-30.90625"
"1574200418678","1017","0.46972656","-1.0117188","-0.10644531","-37.78125","9.875","-31.15625"
"1574200418678","1018","0.46484375","-0.7285156","-0.0126953125","-36.34375","11.09375","-24.625"
"1574200418679","1019","0.49902344","-0.81933594","0.0068359375","-48.34375","-6.0","-18.21875"
"1574200419073","1020","0.51171875","-0.953125","-0.11035156","-26.375","4.3125","-21.25"
"1574200419074","1021","0.43554688","-0.7949219","-0.06347656","-20.53125","6.40625","-11.96875"
"1574200419075","1022","0.5283203","-0.8027344","-0.076171875","-20.34375","-0.5625","-11.625"
"1574200419075","1023","0.57714844","-0.8779297","-0.14941406","-16.1875","2.125","-9.21875"
"1574200419075","1024","0.47460938","-0.82910156","-0.109375","-7.34375","4.8125","-12.34375"
"1574200419076","1025","0.5175781","-0.828125","-0.12109375","-10.03125","5.96875","-3.5"
"1574200419076","1026","0.5419922","-0.83984375","-0.1171875","-2.03125","6.40625","2.1875"
"1574200419076","1027","0.53222656","-0.8144531","-0.1015625","0.71875","8.34375","3.21875"
"1574200419077","1028","0.50097656","-0.87402344","-0.12109375","4.5625","8.28125","4.6875"
"1574200419077","1029","0.48632812","-0.859375","-0.0703125","13.15625","5.59375","6.8125"
"1574200419472","1030","0.44726562","-0.8691406","-0.06933594","15.3125","9.125","13.65625"
"1574200419473","1031","0.3828125","-0.8515625","0.013671875","29.03125","17.875","24.34375"
"1574200419473","1032","0.34277344","-0.75097656","0.025390625","42.09375","21.65625","42.78125"
"1574200419474","1033","0.26953125","-0.6972656","0.040039062","54.78125","18.65625","56.3125"
"1574200419475","1034","0.17382812","-0.46679688","0.109375","82.8125","16.40625","71.40625"
"1574200419475","1035","0.1015625","-0.5283203","0.115234375","68.34375","26.53125","65.59375"
"1574200419475","1036","0.15625","-0.6542969","0.05859375","57.46875","28.90625","48.4375"
"1574200419476","1037","0.14550781","-0.609375","0.24121094","74.21875","29.9375","70.0"
"1574200419476","1038","0.25097656","-0.9121094","0.17285156","30.125","17.4375","44.59375"
"1574200419476","1039","0.17773438","-0.92871094","0.25683594","62.90625","13.65625","40.28125"
"1574200419870","1040","0.15917969","-1.0253906","0.3251953","22.6875","20.84375","21.90625"
"1574200419871","1041","0.19921875","-1.0058594","0.27929688","23.96875","8.03125","31.34375"
"1574200419871","1042","0.20800781","-1.0507812","0.41503906","14.09375","4.3125","26.84375"
"1574200419871","1043","0.12402344","-1.2636719","0.44140625","-15.53125","-6.59375","-1.46875"
"1574200419872","1044","0.16992188","-1.1816406","0.46191406","-5.875","-13.6875","-0.1875"
"1574200419876","1045","0.036132812","-1.3320312","0.51660156","-37.3125","-18.875","-3.5625"
"1574200419876","1046","0.25","-1.3388672","0.37402344","-41.53125","-31.375","-18.9375"
"1574200419876","1047","0.296875","-1.1630859","0.28027344","-47.5","-18.375","-36.6875"
"1574200419877","1048","0.30859375","-1.0126953","0.20214844","-34.625","-31.25","-36.8125"
"1574200419877","1049","0.25878906","-0.984375","0.11328125","-38.71875","-21.75","-34.5625"
"1574200420268","1050","0.35546875","-0.95410156","0.064453125","-22.125","-16.96875","-33.03125"
"1574200420268","1051","0.32617188","-0.8535156","0.06542969","-24.5","-13.3125","-23.875"
"1574200420268","1052","0.30859375","-0.9111328","0.0703125","-17.71875","-2.34375","-15.34375"
"1574200420269","1053","0.32226562","-0.96777344","0.107421875","-14.3125","-1.125","-12.96875"
"1574200420269","1054","0.33398438","-0.93359375","0.053710938","-16.9375","-8.5625","-14.1875"
"1574200420269","1055","0.34472656","-0.96972656","0.049804688","-21.4375","-4.90625","-13.375"
"1574200420269","1056","0.33007812","-0.90625","0.044921875","-13.4375","-2.21875","-14.25"
"1574200420271","1057","0.35351562","-0.87890625","0.01953125","-10.6875","-3.5","-9.65625"
"1574200420271","1058","0.36035156","-0.9169922","0.025390625","3.59375","2.3125","-4.28125"
"1574200420271","1059","0.38183594","-0.94921875","0.016601562","-1.1875","2.4375","-2.28125"
"1574200420862","1060","0.35253906","-0.93066406","0.043945312","1.5625","2.78125","-1.84375"
"1574200420862","1061","0.3251953","-0.8964844","0.061523438","3.65625","0.78125","2.90625"
"1574200420863","1062","0.32128906","-0.890625","0.052734375","6.8125","3.03125","5.46875"
"1574200420863","1063","0.31933594","-0.8876953","0.087890625","11.8125","5.78125","12.375"
"1574200420863","1064","0.31835938","-0.9326172","0.08886719","12.25","7.375","13.65625"
"1574200420863","1065","0.3095703","-0.95410156","0.10839844","13.84375","9.375","15.0"
"1574200420863","1066","0.29589844","-0.9033203","0.1171875","13.53125","4.8125","13.96875"
"1574200420864","1067","0.25683594","-0.8378906","0.111328125","22.25","6.9375","21.09375"
"1574200420864","1068","0.17871094","-0.8261719","0.111328125","50.28125","14.625","31.90625"
"1574200420866","1069","0.203125","-0.8535156","0.16308594","79.625","23.84375","44.28125"
"1574200421460","1070","0.21875","-0.8300781","0.17480469","99.34375","27.34375","54.6875"
"1574200421460","1071","0.23828125","-0.9824219","0.26953125","105.40625","36.90625","57.78125"
"1574200421461","1072","0.18652344","-1.1318359","0.39160156","92.625","40.28125","50.875"
"1574200421461","1073","0.061523438","-0.8847656","0.4716797","89.40625","38.3125","44.25"
"1574200421461","1074","0.0234375","-0.8642578","0.5126953","81.40625","35.15625","49.84375"
"1574200421462","1075","-0.046875","-0.77441406","0.55859375","75.84375","36.0","42.40625"
"1574200421462","1076","-0.09082031","-0.7236328","0.6269531","64.25","34.09375","46.8125"
"1574200421462","1077","-0.16796875","-0.6894531","0.7207031","67.3125","36.96875","46.25"
"1574200421462","1078","-0.1796875","-0.6640625","0.7080078","70.90625","32.46875","37.9375"
"1574200421463","1079","-0.17871094","-0.6640625","0.7861328","68.78125","32.15625","39.59375"
"1574200421655","1080","-0.22265625","-0.5527344","0.7314453","61.25","26.34375","30.625"
"1574200421657","1081","-0.20703125","-0.6542969","0.78222656","48.1875","22.5","26.15625"
"1574200421657","1082","-0.26464844","-0.49609375","0.7919922","28.4375","13.96875","21.21875"
"1574200421657","1083","-0.28125","-0.5722656","0.79296875","22.75","9.5","12.1875"
"1574200421658","1084","-0.28808594","-0.5410156","0.7939453","11.15625","7.0","4.5625"
"1574200421658","1085","-0.29003906","-0.5234375","0.8564453","2.65625","3.59375","1.6875"
"1574200421658","1086","-0.2607422","-0.54785156","0.79785156","3.21875","2.65625","0.84375"
"1574200421659","1087","-0.296875","-0.5205078","0.8046875","-4.40625","0.59375","2.0"
"1574200421659","1088","-0.27929688","-0.5185547","0.7910156","-4.03125","0.90625","1.3125"
"1574200421659","1089","-0.2529297","-0.5234375","0.76953125","-4.40625","0.21875","0.03125"
"1574200422055","1090","-0.2626953","-0.51660156","0.78027344","-1.0","0.59375","1.4375"
"1574200422056","1091","-0.25683594","-0.5361328","0.7763672","-2.8125","0.03125","-1.0625"
"1574200422056","1092","-0.25195312","-0.53125","0.78515625","-3.25","-0.3125","-1.25"
"1574200422058","1093","-0.25390625","-0.5361328","0.76660156","-0.125","0.90625","1.5625"
"1574200422058","1094","-0.25097656","-0.53027344","0.76660156","-1.65625","3.15625","1.6875"
"1574200422058","1095","-0.24316406","-0.54003906","0.765625","0.0","1.5625","1.375"
"1574200422059","1096","-0.26367188","-0.5361328","0.78125","-3.6875","4.625","2.65625"
"1574200422059","1097","-0.265625","-0.5253906","0.7714844","-0.5","4.5","1.09375"
"1574200422059","1098","-0.25878906","-0.54296875","0.7792969","-2.6875","0.96875","0.65625"
"1574200422059","1099","-0.2783203","-0.5283203","0.77246094","-5.8125","2.4375","1.09375"
"1574200422454","1100","-0.25976562","-0.5175781","0.7578125","-6.0","0.59375","-0.375"
"1574200422454","1101","-0.2705078","-0.53027344","0.7753906","-4.90625","0.65625","-0.1875"
"1574200422455","1102","-0.26953125","-0.54003906","0.7705078","-8.5625","-0.9375","-2.6875"
"1574200422455","1103","-0.2626953","-0.54296875","0.7636719","-6.84375","-0.4375","-3.25"
"1574200422455","1104","-0.2685547","-0.5595703","0.78808594","-6.65625","2.59375","-1.59375"
"1574200422456","1105","-0.2607422","-0.5654297","0.7578125","-9.0625","-1.3125","-6.375"
"1574200422457","1106","-0.24902344","-0.5859375","0.7714844","-9.53125","-0.1875","-2.40625"
"1574200422457","1107","-0.26757812","-0.62109375","0.8769531","-3.3125","-2.46875","4.6875"
"1574200422457","1108","-0.2626953","-0.67871094","0.8876953","0.28125","-3.96875","21.15625"
"1574200422458","1109","-0.29882812","-0.75","0.9941406","-3.75","4.625","18.40625"
"1574200423248","1110","-0.3701172","-0.7792969","0.9892578","-23.75","-3.125","-1.53125"
"1574200423249","1111","-0.29003906","-0.7402344","0.8876953","-32.0625","-6.59375","-6.59375"
"1574200423249","1112","-0.25","-0.8046875","0.88964844","-46.84375","-15.75","-18.15625"
"1574200423249","1113","-0.19433594","-0.8046875","0.8330078","-57.21875","-22.40625","-37.125"
"1574200423249","1114","-0.15136719","-0.8886719","0.79589844","-84.25","-27.0625","-44.9375"
"1574200423250","1115","-0.14160156","-0.96484375","0.7207031","-116.46875","-42.8125","-56.84375"
"1574200423250","1116","-0.047851562","-0.9199219","0.5996094","-114.9375","-36.8125","-65.75"
"1574200423251","1117","-0.0546875","-0.9121094","0.52246094","-114.03125","-26.6875","-71.65625"
"1574200423252","1118","-0.018554688","-0.84472656","0.38964844","-104.3125","-15.34375","-77.96875"
"1574200423252","1119","0.0029296875","-0.76171875","0.3154297","-102.90625","-15.03125","-84.71875"
"1574200423446","1120","0.040039062","-0.71484375","0.25","-92.46875","-10.8125","-77.46875"
"1574200423446","1121","0.072265625","-0.6689453","0.20898438","-91.4375","-9.28125","-79.4375"
"1574200423447","1122","0.12011719","-0.63378906","0.14941406","-87.53125","-8.625","-71.78125"
"1574200423447","1123","0.115234375","-0.6015625","0.076171875","-81.8125","-20.21875","-69.0"
"1574200423447","1124","0.13183594","-0.5625","0.07910156","-80.46875","-20.65625","-63.625"
"1574200423447","1125","0.19433594","-0.5234375","0.25878906","-54.46875","-0.1875","-47.0"
"1574200423448","1126","0.20019531","-1.0595703","0.13964844","-71.25","22.03125","-31.4375"
"1574200423448","1127","0.45214844","-1.2041016","-0.19042969","-35.59375","6.625","-31.09375"
"1574200423448","1128","0.4267578","-0.6513672","0.061523438","-14.40625","-12.15625","-19.375"
"1574200423450","1129","0.36523438","-0.7832031","0.04296875","-41.53125","12.125","-13.75"
"1574200423643","1130","0.41992188","-1.0039062","-0.16601562","-20.71875","10.125","-13.4375"
"1574200423643","1131","0.38867188","-0.8652344","-0.030273438","-9.78125","3.65625","-5.625"
"1574200423644","1132","0.40039062","-0.8251953","-0.005859375","-10.625","6.9375","-3.625"
"1574200423644","1133","0.49414062","-0.92871094","-0.13574219","-10.75","9.625","-6.1875"
"1574200423644","1134","0.44140625","-0.8564453","-0.06933594","-4.28125","3.9375","-4.40625"
"1574200423644","1135","0.39257812","-0.87890625","-0.05078125","-5.5625","6.8125","-1.59375"
"1574200423644","1136","0.4921875","-0.9013672","-0.08300781","-0.25","5.59375","-1.1875"
"1574200423645","1137","0.4345703","-0.8886719","-0.08105469","-0.375","4.5","-0.4375"
"1574200423645","1138","0.43554688","-0.90527344","-0.045898438","-3.25","4.8125","1.4375"
"1574200423645","1139","0.39648438","-0.8886719","-0.022460938","12.9375","6.21875","9.9375"
"1574200423844","1140","0.34179688","-0.83984375","-0.0107421875","14.625","9.125","18.40625"
"1574200423846","1141","0.31445312","-0.8154297","0.017578125","27.4375","15.1875","28.375"
"1574200423846","1142","0.22753906","-0.7216797","0.045898438","42.46875","15.1875","43.8125"
"1574200423847","1143","0.14550781","-0.6542969","0.07519531","50.8125","18.40625","52.21875"
"1574200423847","1144","0.15332031","-0.6513672","0.060546875","47.03125","25.5625","46.0625"
"1574200423847","1145","0.22167969","-0.6738281","0.0703125","53.03125","25.1875","56.125"
"1574200423847","1146","0.2685547","-0.7050781","0.12109375","56.875","7.25","50.8125"
"1574200423848","1147","0.044921875","-0.8378906","0.18066406","44.34375","-7.09375","49.0"
"1574200423848","1148","0.15332031","-0.92285156","0.078125","34.84375","6.875","42.03125"
"1574200423848","1149","0.2705078","-0.8339844","0.18554688","51.1875","-2.28125","45.28125"
"1574200424241","1150","0.001953125","-1.1435547","0.30859375","-16.375","-1.0625","30.875"
"1574200424241","1151","0.20410156","-1.1210938","0.047851562","31.34375","-31.375","11.9375"
"1574200424242","1152","0.13867188","-1.0791016","0.3544922","-2.53125","-3.75","25.25"
"1574200424243","1153","-0.0048828125","-1.2138672","0.2265625","-17.21875","-21.375","-2.09375"
"1574200424243","1154","0.14355469","-1.1591797","0.34570312","-7.78125","-14.96875","-4.09375"
"1574200424243","1155","0.055664062","-1.3203125","0.31933594","-29.96875","-20.28125","-10.21875"
"1574200424244","1156","0.3486328","-1.4169922","0.19335938","-36.03125","-28.40625","-31.21875"
"1574200424244","1157","0.24414062","-1.2226562","0.13867188","-42.0625","-18.5","-51.65625"
"1574200424244","1158","0.34472656","-1.1044922","0.07421875","-46.65625","-30.84375","-52.125"
"1574200424245","1159","0.36132812","-1.0332031","-0.037109375","-41.6875","-21.375","-50.0625"
"1574200424638","1160","0.34277344","-0.8955078","-0.05078125","-29.6875","-15.75","-38.09375"
"1574200424639","1161","0.34277344","-0.84765625","-0.00390625","-33.46875","-8.5","-28.59375"
"1574200424639","1162","0.30078125","-0.9033203","-0.041992188","-34.6875","-7.875","-30.28125"
"1574200424639","1163","0.3408203","-0.9140625","-0.029296875","-23.75","-5.875","-21.5625"
"1574200424640","1164","0.3515625","-0.88378906","-0.047851562","-23.15625","-2.40625","-20.15625"
"1574200424641","1165","0.3720703","-0.90625","-0.06738281","-20.21875","-0.75","-15.75"
"1574200424641","1166","0.40527344","-0.9267578","-0.08203125","-11.125","-0.4375","-9.90625"
"1574200424641","1167","0.3955078","-0.8847656","-0.07324219","-9.0625","-0.4375","-4.15625"
"1574200424642","1168","0.39746094","-0.9003906","-0.095703125","-1.78125","-0.0625","-1.96875"
"1574200424642","1169","0.4033203","-0.9111328","-0.09667969","0.21875","2.1875","1.15625"
"1574200425038","1170","0.4013672","-0.91308594","-0.087890625","0.03125","3.78125","0.90625"
"1574200425038","1171","0.3955078","-0.9199219","-0.10058594","1.21875","2.5","-1.0625"
"1574200425038","1172","0.40722656","-0.8886719","-0.087890625","4.25","0.53125","0.90625"
"1574200425039","1173","0.34960938","-0.89941406","-0.060546875","4.875","3.59375","6.46875"
"1574200425039","1174","0.33789062","-0.9121094","-0.046875","12.5","6.09375","11.59375"
"1574200425039","1175","0.3544922","-0.9326172","-0.032226562","16.84375","9.125","15.3125"
"1574200425039","1176","0.35839844","-0.9345703","-0.03515625","18.125","8.59375","17.875"
"1574200425041","1177","0.34179688","-0.921875","-0.015625","25.5","9.125","16.9375"
"1574200425041","1178","0.3232422","-0.90234375","0.0078125","29.15625","6.875","21.53125"
"1574200425042","1179","0.28027344","-0.9199219","0.046875","33.96875","10.59375","24.9375"
