"# PR data"
"# Start time: 20191119T220009"
"# Subject: diana"
"# Activity type: Bicep curl"
"# Correctness: Correct"
"# Notes: "
""
"timestamp","seq","accel_x","accel_y","accel_z","gyro_x","gyro_y","gyro_z"
"1574200810015","0","0.51660156","-0.80859375","-0.2705078","-0.875","2.375","0.65625"
"1574200810016","1","0.515625","-0.81152344","-0.2783203","1.5625","2.3125","2.3125"
"1574200810016","2","0.51171875","-0.8222656","-0.2734375","1.3125","1.625","-0.25"
"1574200810017","3","0.52246094","-0.81347656","-0.28125","1.875","2.65625","-0.3125"
"1574200810017","4","0.5175781","-0.8183594","-0.2734375","1.5625","4.5625","-0.625"
"1574200810017","5","0.515625","-0.8261719","-0.25976562","0.90625","3.40625","-1.96875"
"1574200810017","6","0.5136719","-0.82714844","-0.27539062","0.03125","4.6875","-2.40625"
"1574200810018","7","0.52246094","-0.82128906","-0.26367188","-1.3125","7.4375","-2.46875"
"1574200810018","8","0.5136719","-0.82128906","-0.27246094","-3.3125","5.71875","-1.25"
"1574200810018","9","0.5205078","-0.81933594","-0.27246094","-3.375","6.09375","0.09375"
"1574200810413","10","0.5205078","-0.8154297","-0.265625","-4.90625","5.28125","0.71875"
"1574200810413","11","0.52441406","-0.81933594","-0.265625","-3.5625","5.0625","0.34375"
"1574200810413","12","0.53222656","-0.8144531","-0.2763672","-3.5625","3.53125","0.0"
"1574200810414","13","0.5214844","-0.8017578","-0.27148438","-3.0625","3.34375","-1.34375"
"1574200810414","14","0.53222656","-0.8183594","-0.2685547","0.15625","2.90625","-0.125"
"1574200810414","15","0.52441406","-0.8105469","-0.26953125","-0.9375","0.78125","0.65625"
"1574200810415","16","0.53515625","-0.81640625","-0.2548828","3.09375","2.0625","-0.4375"
"1574200810415","17","0.5263672","-0.81347656","-0.26367188","1.625","0.40625","-0.375"
"1574200810415","18","0.5341797","-0.81347656","-0.2607422","1.3125","0.65625","-0.4375"
"1574200810415","19","0.5234375","-0.82128906","-0.26660156","1.09375","0.53125","-0.875"
"1574200810812","20","0.53027344","-0.8203125","-0.2705078","1.15625","-1.25","-1.0625"
"1574200810812","21","0.5263672","-0.8125","-0.2705078","0.03125","-1.34375","0.09375"
"1574200810812","22","0.5185547","-0.8183594","-0.27246094","-0.625","-1.84375","-0.5625"
"1574200810813","23","0.5214844","-0.82910156","-0.265625","-0.5625","-3.5","-1.78125"
"1574200810813","24","0.52441406","-0.8125","-0.26171875","-0.0625","-5.6875","0.40625"
"1574200810814","25","0.5058594","-0.8066406","-0.26464844","0.0","-4.65625","1.625"
"1574200810815","26","0.50097656","-0.8251953","-0.2783203","3.34375","-0.1875","-1.46875"
"1574200810815","27","0.5107422","-0.83496094","-0.26464844","3.78125","1.3125","-2.59375"
"1574200810815","28","0.50878906","-0.8261719","-0.27246094","1.5625","1.03125","-1.40625"
"1574200810815","29","0.5019531","-0.8203125","-0.2705078","0.46875","-1.46875","0.03125"
"1574200811208","30","0.49414062","-0.8388672","-0.2705078","-0.0625","3.53125","2.96875"
"1574200811208","31","0.49414062","-0.83496094","-0.27148438","-0.375","4.1875","-0.1875"
"1574200811209","32","0.50878906","-0.83984375","-0.25","-3.90625","5.96875","0.21875"
"1574200811209","33","0.5214844","-0.8105469","-0.2734375","-3.96875","2.90625","-0.6875"
"1574200811209","34","0.52246094","-0.81347656","-0.27539062","-3.90625","2.0","2.4375"
"1574200811210","35","0.50878906","-0.8203125","-0.2763672","1.375","0.65625","2.0625"
"1574200811210","36","0.54589844","-0.8066406","-0.26953125","3.03125","-1.40625","0.90625"
"1574200811210","37","0.50390625","-0.80371094","-0.28027344","2.5625","0.53125","3.90625"
"1574200811211","38","0.5019531","-0.8339844","-0.26367188","2.96875","4.9375","0.53125"
"1574200811211","39","0.51660156","-0.84375","-0.26464844","1.625","6.6875","0.15625"
"1574200811606","40","0.49902344","-0.8486328","-0.27148438","-0.8125","7.84375","0.0"
"1574200811606","41","0.49609375","-0.8496094","-0.27148438","-2.09375","8.53125","-0.625"
"1574200811606","42","0.48535156","-0.8535156","-0.23242188","-12.09375","6.75","-1.71875"
"1574200811607","43","0.50683594","-0.81640625","-0.234375","-4.78125","-1.34375","0.84375"
"1574200811607","44","0.49023438","-0.8466797","-0.27148438","-6.65625","3.28125","3.03125"
"1574200811608","45","0.50390625","-0.8339844","-0.2763672","-2.03125","3.28125","0.34375"
"1574200811608","46","0.49414062","-0.81933594","-0.25976562","2.375","4.3125","0.78125"
"1574200811608","47","0.50097656","-0.82421875","-0.25683594","0.15625","5.21875","1.21875"
"1574200811608","48","0.49609375","-0.83691406","-0.27246094","-0.0625","3.71875","2.1875"
"1574200811609","49","0.49902344","-0.83984375","-0.234375","-8.5625","3.9375","2.25"
"1574200812004","50","0.4970703","-0.83691406","-0.25878906","-9.59375","10.1875","2.1875"
"1574200812004","51","0.48535156","-0.8359375","-0.26464844","-5.9375","12.5625","1.3125"
"1574200812005","52","0.47753906","-0.8388672","-0.25878906","-5.21875","6.9375","-0.625"
"1574200812005","53","0.50683594","-0.85253906","-0.25097656","-2.9375","0.71875","-4.71875"
"1574200812005","54","0.4873047","-0.8232422","-0.2841797","1.6875","-0.25","-0.625"
"1574200812005","55","0.5","-0.8222656","-0.26757812","5.28125","-2.28125","-1.3125"
"1574200812005","56","0.5019531","-0.8408203","-0.2705078","3.71875","-2.53125","-0.4375"
"1574200812006","57","0.50683594","-0.82714844","-0.265625","3.84375","-3.875","-0.9375"
"1574200812006","58","0.5078125","-0.8095703","-0.26757812","3.9375","-1.0625","-0.6875"
"1574200812006","59","0.5078125","-0.82910156","-0.2705078","0.46875","-0.375","-2.03125"
"1574200812598","60","0.49121094","-0.828125","-0.2626953","2.78125","-2.15625","-2.75"
"1574200812599","61","0.49121094","-0.8300781","-0.265625","-1.71875","-1.46875","-2.15625"
"1574200812600","62","0.5","-0.8359375","-0.265625","-2.875","2.375","-0.9375"
"1574200812600","63","0.4970703","-0.83203125","-0.2763672","-0.6875","4.25","-1.1875"
"1574200812600","64","0.49316406","-0.8300781","-0.25683594","-2.59375","2.0625","0.0"
"1574200812601","65","0.51464844","-0.8378906","-0.265625","-0.75","-3.0625","-0.5"
"1574200812601","66","0.5078125","-0.8388672","-0.26171875","-1.0","-4.84375","0.09375"
"1574200812601","67","0.4970703","-0.8232422","-0.2705078","2.0","-6.4375","-0.1875"
"1574200812601","68","0.49609375","-0.8388672","-0.26171875","0.34375","-5.75","-1.40625"
"1574200812602","69","0.48535156","-0.85058594","-0.25390625","1.6875","-7.40625","-3.6875"
"1574200812798","70","0.49609375","-0.8486328","-0.23535156","1.5625","-6.1875","-7.46875"
"1574200812799","71","0.53222656","-0.81933594","-0.23925781","6.75","-9.28125","-6.96875"
"1574200812799","72","0.48535156","-0.8222656","-0.27929688","7.75","-14.46875","-5.5"
"1574200812800","73","0.4580078","-0.8691406","-0.2939453","5.0625","-14.25","-1.71875"
"1574200812800","74","0.50097656","-0.8300781","-0.26464844","1.09375","-13.875","-2.46875"
"1574200812800","75","0.5205078","-0.8203125","-0.27246094","4.8125","-11.0625","-2.8125"
"1574200812801","76","0.5","-0.82910156","-0.27246094","5.46875","-9.40625","-2.75"
"1574200812801","77","0.5185547","-0.8300781","-0.2607422","6.28125","-10.09375","-8.375"
"1574200812801","78","0.6044922","-0.7705078","-0.25878906","10.78125","-15.6875","-14.46875"
"1574200812801","79","0.53125","-0.82128906","-0.27929688","17.5625","-26.0625","-16.3125"
"1574200813396","80","0.39746094","-0.85839844","-0.3095703","10.125","-25.40625","-10.8125"
"1574200813396","81","0.5253906","-0.828125","-0.2685547","2.3125","-17.96875","-6.65625"
"1574200813397","82","0.5439453","-0.8251953","-0.265625","8.40625","-13.1875","-3.875"
"1574200813397","83","0.47558594","-0.8496094","-0.2734375","7.96875","-9.125","-2.28125"
"1574200813397","84","0.45507812","-0.8330078","-0.25976562","8.21875","-8.875","-3.625"
"1574200813399","85","0.5126953","-0.82421875","-0.28320312","3.59375","-0.25","2.5"
"1574200813399","86","0.49023438","-0.85058594","-0.2763672","7.5","2.96875","1.8125"
"1574200813399","87","0.40527344","-0.85058594","-0.2529297","8.34375","9.03125","1.3125"
"1574200813400","88","0.46289062","-0.88671875","-0.26953125","2.5","17.875","6.46875"
"1574200813400","89","0.49609375","-0.8417969","-0.30273438","8.03125","18.40625","-1.59375"
"1574200813793","90","0.4970703","-0.8173828","-0.29296875","2.71875","17.4375","5.40625"
"1574200813794","91","0.50097656","-0.88378906","-0.28808594","-1.78125","-1.84375","-1.25"
"1574200813794","92","0.44335938","-0.86621094","-0.2421875","-1.0","4.0","4.3125"
"1574200813794","93","0.4482422","-0.7685547","-0.28222656","6.09375","1.5625","-2.15625"
"1574200813795","94","0.49902344","-0.8173828","-0.3173828","-1.25","3.9375","-0.9375"
"1574200813795","95","0.48339844","-0.88183594","-0.25683594","-9.15625","7.84375","7.5"
"1574200813795","96","0.45214844","-0.875","-0.16308594","-14.84375","-3.0625","6.21875"
"1574200813797","97","0.5253906","-0.8574219","-0.23828125","-16.0","-3.125","4.0625"
"1574200813798","98","0.51464844","-0.8144531","-0.23339844","-2.15625","2.5","-3.0625"
"1574200813798","99","0.4580078","-0.8378906","-0.24707031","9.75","-2.8125","-14.0625"
"1574200813990","100","0.47460938","-0.86621094","-0.3017578","0.96875","-2.625","-11.5"
"1574200813991","101","0.51660156","-0.8173828","-0.265625","3.15625","-3.96875","-7.21875"
"1574200813991","102","0.4765625","-0.8486328","-0.25097656","0.84375","-4.84375","0.09375"
"1574200813991","103","0.47753906","-0.8535156","-0.2705078","0.65625","1.4375","-0.4375"
"1574200813991","104","0.47070312","-0.85058594","-0.2578125","1.03125","4.125","0.28125"
"1574200813991","105","0.4921875","-0.84765625","-0.2685547","-3.0625","2.59375","0.0"
"1574200813992","106","0.4970703","-0.84277344","-0.2861328","-4.09375","3.15625","0.40625"
"1574200813992","107","0.48339844","-0.83984375","-0.2734375","-2.8125","6.625","1.5625"
"1574200813992","108","0.46191406","-0.8222656","-0.26660156","-3.625","8.78125","2.96875"
"1574200813995","109","0.49609375","-0.82910156","-0.25390625","-2.6875","7.625","3.34375"
"1574200814390","110","0.5253906","-0.8339844","-0.24707031","-8.875","7.0625","-0.125"
"1574200814390","111","0.5136719","-0.8310547","-0.265625","-7.21875","2.65625","-2.40625"
"1574200814390","112","0.5136719","-0.8222656","-0.29003906","-1.65625","-3.4375","-5.4375"
"1574200814391","113","0.5029297","-0.8154297","-0.28027344","-0.125","-7.71875","-6.90625"
"1574200814391","114","0.5029297","-0.8339844","-0.2783203","0.78125","-6.25","-7.78125"
"1574200814391","115","0.49121094","-0.8261719","-0.2861328","0.78125","-5.21875","-4.90625"
"1574200814391","116","0.48632812","-0.828125","-0.2861328","-5.3125","1.625","-2.59375"
"1574200814392","117","0.49609375","-0.83984375","-0.28710938","-5.5625","3.84375","0.09375"
"1574200814392","118","0.48046875","-0.8359375","-0.27539062","-8.125","5.96875","1.75"
"1574200814392","119","0.48632812","-0.83691406","-0.2685547","-7.71875","8.15625","0.28125"
"1574200814787","120","0.49804688","-0.8300781","-0.29003906","-7.9375","7.5","-1.40625"
"1574200814788","121","0.5029297","-0.8154297","-0.27539062","-13.1875","9.09375","1.4375"
"1574200814788","122","0.5263672","-0.8408203","-0.28320312","-13.25","5.28125","0.46875"
"1574200814789","123","0.5","-0.8203125","-0.29101562","-1.84375","-1.1875","-0.875"
"1574200814789","124","0.47070312","-0.8466797","-0.28710938","-3.5","3.71875","-1.90625"
"1574200814789","125","0.47851562","-0.828125","-0.27246094","-8.375","5.59375","-5.5625"
"1574200814790","126","0.5107422","-0.82714844","-0.3125","-6.78125","8.53125","-4.53125"
"1574200814790","127","0.515625","-0.8232422","-0.30273438","-6.53125","3.28125","-2.15625"
"1574200814790","128","0.4970703","-0.82128906","-0.28027344","-2.28125","-1.25","-1.3125"
"1574200814791","129","0.4970703","-0.8232422","-0.296875","-3.125","-1.40625","-1.125"
"1574200815183","130","0.5107422","-0.8222656","-0.296875","-3.875","0.90625","-1.71875"
"1574200815183","131","0.50683594","-0.8125","-0.30273438","-3.1875","-0.8125","-1.90625"
"1574200815184","132","0.5107422","-0.8183594","-0.30664062","-1.84375","-0.8125","-2.59375"
"1574200815185","133","0.49609375","-0.8076172","-0.31054688","1.875","1.3125","-3.0625"
"1574200815185","134","0.52734375","-0.80371094","-0.31347656","1.5625","3.40625","-3.5625"
"1574200815185","135","0.5029297","-0.8251953","-0.3232422","4.25","-1.3125","-2.40625"
"1574200815186","136","0.5048828","-0.78515625","-0.32617188","4.25","-1.25","-2.59375"
"1574200815186","137","0.5048828","-0.8251953","-0.31347656","0.65625","3.53125","1.8125"
"1574200815186","138","0.48242188","-0.7988281","-0.31933594","7.25","4.6875","-2.46875"
"1574200815187","139","0.53125","-0.8154297","-0.3046875","-1.3125","11.65625","0.71875"
"1574200815581","140","0.5107422","-0.828125","-0.30371094","1.8125","2.65625","-2.59375"
"1574200815581","141","0.52246094","-0.8017578","-0.29785156","-1.0625","4.9375","0.0"
"1574200815581","142","0.50683594","-0.828125","-0.30371094","1.03125","0.40625","-1.0625"
"1574200815581","143","0.51171875","-0.8105469","-0.3017578","4.875","-3.6875","-5.6875"
"1574200815582","144","0.5185547","-0.8251953","-0.28710938","1.09375","-0.875","-3.375"
"1574200815583","145","0.5263672","-0.8173828","-0.29882812","-2.6875","0.65625","-1.53125"
"1574200815583","146","0.53125","-0.7919922","-0.296875","-2.03125","-4.34375","2.375"
"1574200815583","147","0.53125","-0.8232422","-0.28222656","-7.8125","-5.21875","3.53125"
"1574200815583","148","0.49902344","-0.828125","-0.25976562","-3.875","-4.96875","2.71875"
"1574200815584","149","0.48242188","-0.8203125","-0.29882812","-6.84375","1.5625","-3.4375"
"1574200815979","150","0.48339844","-0.82714844","-0.31347656","2.78125","-0.5","-0.9375"
"1574200815980","151","0.48339844","-0.82128906","-0.31835938","9.75","-5.5","-4.84375"
"1574200815980","152","0.4921875","-0.8339844","-0.30859375","8.53125","-0.25","-1.3125"
"1574200815980","153","0.4873047","-0.8310547","-0.2939453","6.875","2.4375","0.65625"
"1574200815980","154","0.49902344","-0.8261719","-0.28515625","1.15625","3.59375","0.0"
"1574200815981","155","0.50878906","-0.8222656","-0.30371094","-2.15625","6.5","0.0"
"1574200815981","156","0.515625","-0.8095703","-0.29101562","-3.96875","4.75","-1.59375"
"1574200815982","157","0.51660156","-0.82128906","-0.28710938","-4.34375","4.6875","-1.40625"
"1574200815983","158","0.5214844","-0.8173828","-0.296875","-4.34375","0.96875","-2.21875"
"1574200815983","159","0.52246094","-0.8095703","-0.2861328","-3.96875","-3.4375","-1.65625"
"1574200816377","160","0.5019531","-0.81347656","-0.30664062","-1.25","-3.8125","-3.0"
"1574200816377","161","0.5029297","-0.8066406","-0.3125","0.96875","-1.0625","-3.625"
"1574200816378","162","0.4970703","-0.8144531","-0.31152344","0.71875","1.875","-2.75"
"1574200816378","163","0.4970703","-0.82128906","-0.3154297","0.03125","5.125","-2.53125"
"1574200816378","164","0.51464844","-0.8154297","-0.31640625","0.71875","6.5625","-0.3125"
"1574200816378","165","0.5107422","-0.8125","-0.31152344","3.03125","6.21875","0.53125"
"1574200816379","166","0.5107422","-0.8017578","-0.3017578","3.21875","8.03125","0.65625"
"1574200816379","167","0.52246094","-0.8095703","-0.30273438","3.21875","6.6875","1.3125"
"1574200816379","168","0.5048828","-0.81347656","-0.28710938","2.84375","5.90625","1.03125"
"1574200816380","169","0.5205078","-0.81640625","-0.2783203","1.625","3.71875","-1.84375"
"1574200816970","170","0.5214844","-0.8173828","-0.2919922","0.78125","4.0","-1.0"
"1574200816970","171","0.5107422","-0.8222656","-0.27929688","0.90625","1.4375","-0.5625"
"1574200816971","172","0.5048828","-0.82421875","-0.27539062","1.75","1.5625","-0.375"
"1574200816971","173","0.5029297","-0.82714844","-0.28320312","1.625","2.375","-0.75"
"1574200816971","174","0.50390625","-0.8330078","-0.265625","0.15625","2.375","-0.25"
"1574200816971","175","0.50878906","-0.83496094","-0.2626953","-2.34375","-0.8125","-0.8125"
"1574200816972","176","0.50878906","-0.84277344","-0.27148438","-3.0625","-5.875","-2.53125"
"1574200816972","177","0.5205078","-0.8183594","-0.2861328","-1.90625","-4.15625","0.84375"
"1574200816972","178","0.49902344","-0.7988281","-0.29785156","0.03125","-1.65625","0.84375"
"1574200816973","179","0.50097656","-0.8222656","-0.28222656","-1.59375","-0.1875","0.53125"
"1574200817170","180","0.50878906","-0.83203125","-0.2890625","-1.46875","-0.1875","0.71875"
"1574200817171","181","0.4892578","-0.82421875","-0.27539062","-0.6875","-1.46875","-1.65625"
"1574200817172","182","0.48339844","-0.82421875","-0.2783203","-2.75","-0.9375","-2.9375"
"1574200817172","183","0.48535156","-0.81933594","-0.2861328","-0.5625","6.9375","-2.46875"
"1574200817172","184","0.49609375","-0.82910156","-0.28027344","-2.21875","2.84375","-4.59375"
"1574200817173","185","0.51660156","-0.8251953","-0.2998047","-2.40625","2.3125","-1.96875"
"1574200817173","186","0.5029297","-0.8232422","-0.29785156","-1.25","1.28125","-0.8125"
"1574200817173","187","0.5","-0.8203125","-0.28710938","-2.625","3.34375","0.09375"
"1574200817174","188","0.50878906","-0.8222656","-0.29101562","-1.71875","5.0625","0.53125"
"1574200817174","189","0.49316406","-0.8232422","-0.2919922","-1.125","6.09375","-0.875"
"1574200817569","190","0.51953125","-0.8203125","-0.2890625","-1.65625","6.40625","-1.78125"
"1574200817569","191","0.49414062","-0.81640625","-0.29003906","-0.5","4.0625","-1.0625"
"1574200817569","192","0.52246094","-0.82128906","-0.29003906","-2.75","5.1875","-0.3125"
"1574200817571","193","0.50390625","-0.8203125","-0.2890625","-1.0625","3.53125","0.34375"
"1574200817571","194","0.5136719","-0.8095703","-0.28125","-2.21875","3.40625","-1.40625"
"1574200817571","195","0.5185547","-0.8300781","-0.28808594","-2.9375","4.5","-0.5625"
"1574200817571","196","0.5126953","-0.8125","-0.27929688","0.65625","4.875","-2.09375"
"1574200817572","197","0.5234375","-0.8125","-0.296875","-2.6875","4.25","-0.9375"
"1574200817572","198","0.4970703","-0.8232422","-0.27539062","2.5","5.0625","-1.53125"
"1574200817572","199","0.52441406","-0.80566406","-0.2861328","-1.0","3.46875","-1.125"
"1574200818161","200","0.49902344","-0.81933594","-0.28710938","-0.1875","5.59375","-1.53125"
"1574200818161","201","0.5283203","-0.82128906","-0.2841797","-0.6875","5.28125","-0.3125"
"1574200818162","202","0.51171875","-0.81640625","-0.27929688","-1.34375","3.59375","-0.3125"
"1574200818162","203","0.51464844","-0.81640625","-0.27441406","-0.5","6.03125","-1.59375"
"1574200818162","204","0.515625","-0.8203125","-0.28222656","-0.5","5.28125","-0.625"
"1574200818163","205","0.5136719","-0.8261719","-0.26953125","-2.03125","2.78125","-2.8125"
"1574200818164","206","0.515625","-0.82128906","-0.28710938","2.25","2.65625","-1.0"
"1574200818164","207","0.5078125","-0.82910156","-0.2734375","-0.125","1.375","-0.875"
"1574200818164","208","0.515625","-0.81933594","-0.28027344","1.15625","0.71875","-1.71875"
"1574200818164","209","0.5175781","-0.8183594","-0.27929688","-0.375","2.59375","-1.25"
"1574200818363","210","0.51171875","-0.8232422","-0.28222656","-0.6875","-0.375","-2.09375"
"1574200818363","211","0.51953125","-0.8144531","-0.26660156","-1.71875","-2.875","-1.53125"
"1574200818363","212","0.5390625","-0.8222656","-0.26660156","-4.28125","-4.21875","1.3125"
"1574200818363","213","0.5185547","-0.83203125","-0.25195312","-7.8125","-5.5","1.15625"
"1574200818364","214","0.5185547","-0.8125","-0.27246094","-11.1875","-7.71875","2.78125"
"1574200818364","215","0.46972656","-0.8310547","-0.2919922","-6.5","4.125","-2.625"
"1574200818364","216","0.4609375","-0.82421875","-0.2861328","4.0625","7.5","-6.96875"
"1574200818365","217","0.5078125","-0.8359375","-0.28027344","-7.09375","7.75","-3.8125"
"1574200818366","218","0.5107422","-0.8457031","-0.2705078","-3.875","4.875","-0.3125"
"1574200818366","219","0.5078125","-0.83203125","-0.30371094","-0.375","0.34375","-0.125"
"1574200818761","220","0.515625","-0.8125","-0.27441406","1.625","-1.3125","1.75"
"1574200818762","221","0.51171875","-0.8183594","-0.28320312","-0.0625","1.5625","-0.1875"
"1574200818762","222","0.5185547","-0.8300781","-0.2783203","-0.375","2.0","0.09375"
"1574200818762","223","0.5","-0.8203125","-0.27929688","0.21875","-3.0","-3.90625"
"1574200818763","224","0.53515625","-0.81933594","-0.296875","0.0","-1.59375","-5.5"
"1574200818763","225","0.5107422","-0.8076172","-0.30273438","2.71875","0.0","-6.0625"
"1574200818763","226","0.5126953","-0.82128906","-0.30371094","2.125","0.09375","-5.3125"
"1574200818763","227","0.5175781","-0.8076172","-0.296875","0.34375","5.0","-1.59375"
"1574200818764","228","0.51660156","-0.8144531","-0.29296875","-3.125","7.84375","0.15625"
"1574200818765","229","0.5292969","-0.8154297","-0.30078125","-4.15625","6.21875","1.875"
"1574200819355","230","0.52441406","-0.8046875","-0.2841797","-6.375","8.09375","3.65625"
"1574200819356","231","0.515625","-0.8046875","-0.2998047","-6.71875","10.3125","2.65625"
"1574200819356","232","0.5126953","-0.8017578","-0.29785156","-1.65625","6.40625","0.15625"
"1574200819356","233","0.5332031","-0.8251953","-0.2939453","-2.28125","4.5","-2.625"
"1574200819357","234","0.52441406","-0.80078125","-0.30566406","0.40625","0.65625","0.0"
"1574200819357","235","0.5097656","-0.80566406","-0.3046875","0.71875","1.5625","0.71875"
"1574200819357","236","0.53027344","-0.8125","-0.2919922","4.3125","-0.875","1.21875"
"1574200819357","237","0.5175781","-0.8173828","-0.29785156","3.84375","-1.78125","1.375"
"1574200819358","238","0.5234375","-0.81347656","-0.29101562","2.4375","-1.0","1.6875"
"1574200819358","239","0.5097656","-0.79589844","-0.3046875","2.0625","0.96875","1.5"
"1574200820148","240","0.49902344","-0.8222656","-0.27734375","-3.75","5.84375","-0.5625"
"1574200820149","241","0.5126953","-0.82421875","-0.2861328","-0.625","10.0","-0.125"
"1574200820149","242","0.50097656","-0.81933594","-0.28222656","-4.21875","8.09375","-2.09375"
"1574200820149","243","0.5214844","-0.8251953","-0.28222656","-2.21875","6.75","-1.34375"
"1574200820150","244","0.5126953","-0.8105469","-0.28125","-1.78125","5.40625","-1.0625"
"1574200820150","245","0.5175781","-0.8144531","-0.28125","-0.6875","4.125","-0.9375"
"1574200820150","246","0.51660156","-0.82128906","-0.2783203","1.3125","3.34375","-0.5"
"1574200820151","247","0.5126953","-0.81933594","-0.26953125","-1.125","0.84375","-1.34375"
"1574200820151","248","0.50878906","-0.8183594","-0.27246094","-3.0625","2.90625","-0.5"
"1574200820151","249","0.5126953","-0.8203125","-0.28125","-4.59375","4.8125","-0.625"
"1574200820349","250","0.5136719","-0.8251953","-0.27734375","-2.59375","2.1875","-0.75"
"1574200820349","251","0.52441406","-0.83203125","-0.26464844","-2.28125","-1.59375","-0.4375"
"1574200820350","252","0.5126953","-0.82128906","-0.27246094","-3.75","-7.09375","-2.625"
"1574200820351","253","0.50097656","-0.8144531","-0.28710938","-1.25","-1.125","-2.625"
"1574200820351","254","0.5078125","-0.8261719","-0.2861328","-4.40625","0.59375","-3.6875"
"1574200820352","255","0.52246094","-0.8105469","-0.27929688","-0.125","1.375","-2.75"
"1574200820352","256","0.51660156","-0.8154297","-0.29101562","-1.96875","-0.3125","-1.90625"
"1574200820352","257","0.5175781","-0.8203125","-0.29296875","-0.5625","0.40625","-0.4375"
"1574200820352","258","0.5263672","-0.7988281","-0.28808594","-1.1875","0.09375","0.0"
"1574200820353","259","0.5029297","-0.81152344","-0.30371094","2.1875","1.6875","-0.9375"
"1574200820355","260","0.52246094","-0.8095703","-0.29492188","-0.3125","3.28125","-1.84375"
"1574200820355","261","0.52246094","-0.8154297","-0.29003906","0.84375","2.84375","-0.125"
"1574200820355","262","0.5185547","-0.8251953","-0.28515625","-0.4375","1.09375","-1.0"
"1574200820356","263","0.4892578","-0.80371094","-0.2939453","1.625","2.78125","-2.15625"
"1574200820356","264","0.52246094","-0.8339844","-0.28320312","0.65625","5.78125","-1.96875"
"1574200820356","265","0.5078125","-0.80371094","-0.29492188","0.65625","2.65625","-0.3125"
"1574200820356","266","0.5341797","-0.83203125","-0.27441406","-0.5","8.15625","-0.625"
"1574200820357","267","0.5214844","-0.8076172","-0.2919922","-1.25","4.625","0.96875"
"1574200820357","268","0.5205078","-0.79589844","-0.29589844","-2.625","1.28125","1.6875"
"1574200820357","269","0.51660156","-0.8310547","-0.28125","-0.75","3.84375","2.25"
"1574200821146","270","0.5214844","-0.796875","-0.28125","0.96875","-0.1875","-0.6875"
"1574200821147","271","0.52246094","-0.83203125","-0.28710938","-2.625","0.90625","1.3125"
"1574200821147","272","0.5136719","-0.8173828","-0.28125","3.15625","-2.40625","-1.34375"
"1574200821147","273","0.5078125","-0.81933594","-0.2890625","1.625","-4.40625","0.65625"
"1574200821147","274","0.5185547","-0.8173828","-0.28222656","1.03125","-2.40625","0.65625"
"1574200821148","275","0.5029297","-0.82421875","-0.2890625","0.78125","-3.125","3.03125"
"1574200821148","276","0.5078125","-0.82714844","-0.27734375","-3.125","-2.59375","2.90625"
"1574200821149","277","0.4970703","-0.8339844","-0.28222656","-4.53125","0.40625","3.34375"
"1574200821149","278","0.4921875","-0.8408203","-0.2763672","-6.53125","1.09375","2.375"
"1574200821150","279","0.4736328","-0.82714844","-0.28320312","-4.28125","1.75","0.34375"
"1574200821343","280","0.49023438","-0.8417969","-0.27929688","-2.75","8.21875","0.65625"
"1574200821344","281","0.49804688","-0.8203125","-0.2919922","1.15625","9.5","-1.90625"
"1574200821344","282","0.515625","-0.8251953","-0.27734375","2.65625","5.40625","-1.53125"
"1574200821344","283","0.49609375","-0.83691406","-0.27929688","5.46875","1.375","-0.5"
"1574200821345","284","0.5029297","-0.82714844","-0.2734375","5.0625","-0.5625","-2.21875"
"1574200821345","285","0.50097656","-0.83496094","-0.28515625","5.34375","-1.90625","-3.0"
"1574200821345","286","0.4921875","-0.83691406","-0.27441406","6.9375","-1.1875","-2.40625"
"1574200821345","287","0.4921875","-0.84375","-0.26953125","4.5","-2.03125","-2.625"
"1574200821346","288","0.50390625","-0.8359375","-0.28125","4.0","-1.71875","-0.8125"
"1574200821347","289","0.5","-0.8359375","-0.27734375","0.71875","1.75","-0.3125"
"1574200821543","290","0.49023438","-0.83691406","-0.27539062","1.15625","4.0","-0.375"
"1574200821544","291","0.48535156","-0.8310547","-0.2705078","-0.9375","9.75","-0.75"
"1574200821544","292","0.49609375","-0.83203125","-0.25390625","-2.75","13.59375","-1.71875"
"1574200821544","293","0.51464844","-0.8417969","-0.2529297","-5.625","10.125","-1.96875"
"1574200821544","294","0.51464844","-0.8457031","-0.26171875","-7.71875","7.96875","0.0"
"1574200821545","295","0.5058594","-0.82421875","-0.25585938","-7.46875","6.75","0.90625"
"1574200821545","296","0.5205078","-0.81933594","-0.25585938","-7.28125","2.3125","2.4375"
"1574200821545","297","0.4970703","-0.8183594","-0.265625","0.09375","2.125","3.21875"
"1574200821545","298","0.5078125","-0.82910156","-0.26757812","-1.3125","2.65625","0.78125"
"1574200821546","299","0.50390625","-0.82714844","-0.26953125","1.15625","4.375","0.46875"
"1574200822139","300","0.5048828","-0.8300781","-0.26464844","2.375","4.1875","-0.3125"
"1574200822140","301","0.49023438","-0.8330078","-0.26464844","3.40625","2.1875","-0.4375"
"1574200822141","302","0.50390625","-0.8339844","-0.2626953","4.6875","1.09375","0.0"
"1574200822141","303","0.4951172","-0.82910156","-0.26171875","5.21875","0.46875","-0.125"
"1574200822141","304","0.4951172","-0.83691406","-0.25390625","3.90625","1.5","0.15625"
"1574200822141","305","0.49414062","-0.83691406","-0.2548828","2.84375","2.375","-0.375"
"1574200822142","306","0.5048828","-0.8339844","-0.2548828","2.71875","2.0625","-0.6875"
"1574200822142","307","0.4873047","-0.83203125","-0.25683594","2.0625","3.53125","-0.125"
"1574200822142","308","0.49902344","-0.84472656","-0.23828125","-0.6875","1.6875","-1.3125"
"1574200822143","309","0.51660156","-0.84375","-0.25","2.0","-0.875","-1.40625"
"1574200822337","310","0.4892578","-0.8388672","-0.24707031","0.21875","-1.46875","-1.34375"
"1574200822338","311","0.49023438","-0.83496094","-0.24707031","1.09375","0.90625","-0.625"
"1574200822338","312","0.49316406","-0.84765625","-0.23925781","-3.8125","1.4375","-1.3125"
"1574200822339","313","0.5078125","-0.83691406","-0.24902344","-2.34375","-1.40625","-0.5625"
"1574200822340","314","0.49023438","-0.8378906","-0.24121094","-1.53125","-1.71875","0.46875"
"1574200822340","315","0.49804688","-0.8388672","-0.23632812","-0.125","-3.8125","-0.9375"
"1574200822340","316","0.49121094","-0.84277344","-0.2548828","2.0","-1.53125","0.96875"
"1574200822340","317","0.47070312","-0.8486328","-0.24609375","-0.375","-0.1875","-1.78125"
"1574200822341","318","0.48535156","-0.8496094","-0.23925781","-4.21875","4.8125","-2.40625"
"1574200822341","319","0.48046875","-0.85546875","-0.25","-6.125","4.0625","-1.78125"
"1574200822737","320","0.49121094","-0.8486328","-0.24609375","-3.4375","1.15625","-0.1875"
"1574200822738","321","0.4892578","-0.8339844","-0.25195312","-5.03125","4.375","-0.5"
"1574200822738","322","0.5048828","-0.8339844","-0.25","-3.625","3.65625","0.0"
"1574200822738","323","0.484375","-0.8486328","-0.24511719","-2.8125","6.28125","-2.75"
"1574200822739","324","0.49023438","-0.8378906","-0.24121094","-2.28125","3.84375","-4.53125"
"1574200822740","325","0.4921875","-0.82714844","-0.2578125","-0.6875","3.71875","-2.21875"
"1574200822740","326","0.51171875","-0.83203125","-0.25097656","-2.9375","3.28125","-0.5625"
"1574200822741","327","0.5058594","-0.8359375","-0.2607422","-2.75","0.71875","2.0"
"1574200822741","328","0.48339844","-0.83691406","-0.2578125","-1.46875","2.96875","-1.1875"
"1574200822741","329","0.5048828","-0.83203125","-0.26953125","0.15625","1.4375","1.375"
"1574200823134","330","0.46289062","-0.8261719","-0.25390625","1.875","3.53125","-2.34375"
"1574200823134","331","0.5175781","-0.85058594","-0.265625","-2.28125","4.9375","2.125"
"1574200823134","332","0.47070312","-0.82910156","-0.2578125","0.65625","2.125","-0.5"
"1574200823135","333","0.51171875","-0.8359375","-0.25683594","-3.5625","7.75","0.15625"
"1574200823135","334","0.49316406","-0.84472656","-0.25683594","0.0","0.53125","-0.3125"
"1574200823135","335","0.4892578","-0.8183594","-0.25585938","0.15625","5.0625","-0.6875"
"1574200823135","336","0.5126953","-0.85546875","-0.25","-3.375","2.71875","2.375"
"1574200823136","337","0.4794922","-0.8330078","-0.2607422","1.75","-1.34375","-1.3125"
"1574200823137","338","0.4921875","-0.8310547","-0.25097656","-1.25","1.375","1.3125"
"1574200823137","339","0.48535156","-0.84472656","-0.25390625","1.3125","-1.0","-1.84375"
"1574200823925","340","0.48632812","-0.83496094","-0.25585938","2.25","0.0","-2.875"
"1574200823925","341","0.49609375","-0.8388672","-0.26464844","0.71875","-0.4375","-1.71875"
"1574200823925","342","0.49316406","-0.84765625","-0.24511719","-3.1875","1.9375","0.03125"
"1574200823926","343","0.4873047","-0.8388672","-0.2607422","-5.09375","0.21875","-0.6875"
"1574200823926","344","0.49804688","-0.84472656","-0.25390625","-4.78125","0.15625","-1.40625"
"1574200823926","345","0.4951172","-0.8408203","-0.2529297","-3.375","1.9375","-2.46875"
"1574200823926","346","0.48046875","-0.84765625","-0.25976562","-4.09375","4.0","-2.75"
"1574200823927","347","0.4921875","-0.8339844","-0.2626953","-0.25","3.40625","-2.09375"
"1574200823927","348","0.4892578","-0.8408203","-0.24804688","0.0","4.5625","-0.9375"
"1574200823927","349","0.49023438","-0.8486328","-0.24707031","0.28125","5.78125","-1.65625"
"1574200824125","350","0.48046875","-0.84472656","-0.2578125","3.34375","8.46875","-1.1875"
"1574200824125","351","0.484375","-0.8330078","-0.2578125","2.84375","5.59375","-0.8125"
"1574200824126","352","0.49414062","-0.85058594","-0.24511719","3.90625","4.0","-0.25"
"1574200824126","353","0.49121094","-0.85058594","-0.23632812","2.71875","2.5625","1.15625"
"1574200824126","354","0.48339844","-0.84277344","-0.24023438","1.875","2.5625","0.0"
"1574200824126","355","0.4921875","-0.8408203","-0.24804688","0.09375","5.34375","0.53125"
"1574200824127","356","0.4951172","-0.8417969","-0.23339844","0.65625","3.46875","0.03125"
"1574200824127","357","0.5019531","-0.8408203","-0.23144531","-1.1875","3.84375","0.40625"
"1574200824127","358","0.50683594","-0.8388672","-0.25195312","-2.9375","5.71875","-0.3125"
"1574200824127","359","0.4921875","-0.83496094","-0.24511719","-3.625","6.03125","0.0"
"1574200824923","360","0.5029297","-0.8457031","-0.22753906","-5.5625","5.96875","1.375"
"1574200824924","361","0.50390625","-0.8330078","-0.24316406","-7.78125","3.34375","-0.25"
"1574200824925","362","0.5078125","-0.83691406","-0.2529297","-3.96875","1.03125","0.65625"
"1574200824925","363","0.5048828","-0.84765625","-0.25195312","2.0","-0.5625","2.375"
"1574200824926","364","0.4814453","-0.83496094","-0.24414062","6.9375","-3.90625","1.09375"
"1574200824926","365","0.48242188","-0.83203125","-0.23925781","3.90625","0.03125","0.15625"
"1574200824928","366","0.4921875","-0.84472656","-0.24707031","2.4375","1.875","0.0"
"1574200824928","367","0.49316406","-0.8486328","-0.24804688","1.6875","1.5625","-0.125"
"1574200824928","368","0.4638672","-0.84472656","-0.22167969","-1.125","2.59375","-0.4375"
"1574200824929","369","0.484375","-0.8564453","-0.23535156","-3.75","3.71875","-1.3125"
"1574200825119","370","0.47265625","-0.85546875","-0.24316406","-1.71875","3.15625","-1.46875"
"1574200825119","371","0.49316406","-0.8457031","-0.22851562","-5.03125","3.59375","0.53125"
"1574200825120","372","0.49316406","-0.8339844","-0.24902344","-2.53125","1.8125","1.09375"
"1574200825121","373","0.48828125","-0.8417969","-0.23828125","-2.46875","3.84375","0.34375"
"1574200825121","374","0.4921875","-0.84472656","-0.24414062","-2.03125","2.59375","-0.8125"
"1574200825122","375","0.484375","-0.85058594","-0.23925781","-2.75","1.15625","-1.53125"
"1574200825122","376","0.48828125","-0.84472656","-0.25","-4.90625","0.65625","-1.65625"
"1574200825122","377","0.48046875","-0.8544922","-0.24121094","-5.3125","-2.34375","-1.71875"
"1574200825122","378","0.48828125","-0.8496094","-0.25195312","-4.84375","-3.0625","-2.09375"
"1574200825123","379","0.4814453","-0.83984375","-0.25976562","-4.03125","-1.34375","-1.46875"
"1574200825316","380","0.4921875","-0.84472656","-0.24511719","-3.90625","-0.0625","-2.15625"
"1574200825316","381","0.49023438","-0.8388672","-0.26367188","-3.625","0.78125","-3.0"
"1574200825316","382","0.48046875","-0.8466797","-0.25195312","-1.53125","-0.3125","-2.6875"
"1574200825317","383","0.4970703","-0.8466797","-0.25683594","-2.53125","-1.65625","-2.75"
"1574200825317","384","0.47753906","-0.8457031","-0.26171875","-2.875","0.15625","-2.34375"
"1574200825317","385","0.47558594","-0.85253906","-0.25097656","-3.125","2.0","-2.6875"
"1574200825318","386","0.4873047","-0.83691406","-0.25683594","-4.28125","3.28125","-2.46875"
"1574200825319","387","0.48046875","-0.8408203","-0.26660156","-4.21875","4.25","-1.65625"
"1574200825319","388","0.48632812","-0.8544922","-0.25878906","-3.875","7.1875","-2.53125"
"1574200825319","389","0.48632812","-0.8388672","-0.2763672","-3.6875","6.03125","-2.28125"
"1574200825518","390","0.5048828","-0.8339844","-0.27246094","-1.71875","2.84375","0.28125"
"1574200825519","391","0.49902344","-0.8261719","-0.26660156","-1.25","0.28125","1.5625"
"1574200825519","392","0.5","-0.8310547","-0.27246094","-2.53125","3.34375","1.21875"
"1574200825519","393","0.49414062","-0.82910156","-0.26953125","0.46875","0.84375","-0.8125"
"1574200825519","394","0.50683594","-0.8359375","-0.27441406","0.90625","4.3125","-2.28125"
"1574200825520","395","0.48828125","-0.8261719","-0.2705078","0.15625","0.78125","-0.8125"
"1574200825520","396","0.47753906","-0.8408203","-0.2685547","3.40625","2.0","-2.03125"
"1574200825522","397","0.5136719","-0.8388672","-0.2705078","-0.75","1.6875","1.375"
"1574200825522","398","0.4638672","-0.83691406","-0.265625","1.15625","0.0","-0.5625"
"1574200825523","399","0.4951172","-0.84472656","-0.26367188","0.21875","2.90625","-0.4375"
"1574200826112","400","0.4921875","-0.8339844","-0.26464844","2.125","0.84375","-1.125"
"1574200826113","401","0.48242188","-0.84277344","-0.25878906","1.03125","3.09375","-0.625"
"1574200826113","402","0.49121094","-0.82910156","-0.26171875","1.4375","1.6875","-1.0"
"1574200826113","403","0.48535156","-0.85058594","-0.27441406","0.09375","4.1875","-0.75"
"1574200826114","404","0.48632812","-0.8388672","-0.25976562","-0.8125","3.84375","0.65625"
"1574200826114","405","0.48828125","-0.8408203","-0.25878906","-0.1875","3.28125","-0.625"
"1574200826114","406","0.49023438","-0.84472656","-0.2607422","-2.53125","1.3125","-0.375"
"1574200826114","407","0.484375","-0.8300781","-0.2548828","-0.75","-0.8125","-1.1875"
"1574200826115","408","0.5019531","-0.85253906","-0.2578125","-0.1875","1.03125","-1.65625"
"1574200826116","409","0.50683594","-0.8310547","-0.2626953","0.15625","0.0","-0.8125"
"1574200826312","410","0.4873047","-0.83691406","-0.26171875","1.5","-0.5625","1.09375"
"1574200826313","411","0.49023438","-0.83691406","-0.2607422","-0.125","3.65625","1.09375"
"1574200826313","412","0.48535156","-0.8457031","-0.25195312","-3.25","4.375","2.375"
"1574200826313","413","0.47070312","-0.86035156","-0.24121094","-1.90625","7.3125","-0.1875"
"1574200826314","414","0.48339844","-0.8486328","-0.26171875","-2.625","7.4375","-0.5"
"1574200826314","415","0.4658203","-0.85839844","-0.24804688","-3.125","7.4375","1.3125"
"1574200826314","416","0.46875","-0.84375","-0.2421875","-2.6875","9.1875","1.21875"
"1574200826314","417","0.47558594","-0.85058594","-0.24707031","-0.875","7.0625","2.375"
"1574200826315","418","0.48242188","-0.8574219","-0.23242188","1.5","2.84375","1.3125"
"1574200826315","419","0.48046875","-0.84472656","-0.24023438","4.875","3.53125","-0.875"
"1574200826711","420","0.48046875","-0.8466797","-0.234375","4.5625","4.125","-2.21875"
"1574200826712","421","0.47851562","-0.85546875","-0.23730469","2.78125","2.96875","-2.59375"
"1574200826712","422","0.4892578","-0.8613281","-0.23046875","2.125","2.4375","-3.6875"
"1574200826712","423","0.49902344","-0.8515625","-0.24902344","-0.0625","-1.40625","-2.875"
"1574200826713","424","0.49316406","-0.84375","-0.24902344","0.0","-4.15625","-1.3125"
"1574200826713","425","0.49414062","-0.83691406","-0.234375","-2.9375","-1.65625","-1.59375"
"1574200826713","426","0.49023438","-0.8408203","-0.24609375","-2.875","2.0","-2.40625"
"1574200826714","427","0.4970703","-0.8417969","-0.24414062","-2.03125","2.0625","-3.375"
"1574200826714","428","0.5","-0.8330078","-0.24414062","-1.0625","3.46875","-2.40625"
"1574200826714","429","0.48632812","-0.8359375","-0.23925781","-0.75","4.375","-0.5"
"1574200827108","430","0.48828125","-0.8417969","-0.24023438","0.34375","1.6875","-1.25"
"1574200827108","431","0.48632812","-0.84277344","-0.23828125","0.71875","1.375","-0.3125"
"1574200827108","432","0.49023438","-0.84472656","-0.2421875","0.0","1.09375","-1.1875"
"1574200827109","433","0.48242188","-0.8515625","-0.24316406","-0.375","0.09375","-1.71875"
"1574200827110","434","0.4873047","-0.8378906","-0.24707031","0.65625","0.15625","-1.0"
"1574200827110","435","0.47558594","-0.8417969","-0.25","-0.6875","2.65625","-0.5"
"1574200827110","436","0.49023438","-0.8486328","-0.23828125","-1.59375","4.375","0.0"
"1574200827111","437","0.49609375","-0.84375","-0.2421875","-1.71875","3.28125","0.65625"
"1574200827111","438","0.4873047","-0.83984375","-0.23144531","-2.875","2.0","-0.6875"
"1574200827111","439","0.4873047","-0.8417969","-0.23925781","-3.8125","2.90625","-1.3125"
"1574200827506","440","0.4951172","-0.84277344","-0.23339844","-1.1875","3.9375","-1.1875"
"1574200827506","441","0.49414062","-0.84375","-0.24023438","-1.90625","3.34375","-1.25"
"1574200827506","442","0.4951172","-0.84277344","-0.24804688","-0.5625","2.96875","-1.34375"
"1574200827507","443","0.48632812","-0.84375","-0.24121094","0.0","1.3125","-1.125"
"1574200827507","444","0.4951172","-0.84277344","-0.23339844","0.09375","0.28125","-1.46875"
"1574200827508","445","0.4921875","-0.84277344","-0.23925781","-2.75","-0.1875","0.65625"
"1574200827509","446","0.49316406","-0.8466797","-0.25","-1.46875","-1.3125","0.15625"
"1574200827509","447","0.4921875","-0.83984375","-0.24511719","-2.75","-1.1875","-0.9375"
"1574200827509","448","0.4921875","-0.8544922","-0.25195312","-3.6875","-1.0","-0.9375"
"1574200827509","449","0.48339844","-0.8388672","-0.2529297","-3.1875","-0.6875","-3.0625"
"1574200827905","450","0.49121094","-0.83691406","-0.25097656","-4.21875","-1.71875","-3.125"
"1574200827906","451","0.49316406","-0.8466797","-0.2578125","-1.71875","-4.09375","-2.40625"
"1574200827906","452","0.484375","-0.84765625","-0.25097656","-2.46875","-3.8125","-3.5"
"1574200827906","453","0.48632812","-0.8457031","-0.25097656","-2.8125","-4.46875","-3.5"
"1574200827906","454","0.4658203","-0.8457031","-0.25585938","-3.875","-0.4375","-4.46875"
"1574200827907","455","0.48242188","-0.8457031","-0.26367188","-5.4375","2.96875","-3.96875"
"1574200827907","456","0.46875","-0.84375","-0.2685547","-6.0625","3.9375","-3.4375"
"1574200827909","457","0.5019531","-0.8388672","-0.27929688","-6.90625","6.875","-3.4375"
"1574200827909","458","0.5175781","-0.8339844","-0.265625","-4.78125","1.03125","-0.1875"
"1574200827910","459","0.5019531","-0.8310547","-0.2626953","-4.65625","1.3125","-0.8125"
"1574200828302","460","0.5078125","-0.8251953","-0.27246094","-4.28125","-1.0","0.15625"
"1574200828302","461","0.4921875","-0.82421875","-0.26757812","-0.5","0.03125","-1.78125"
"1574200828302","462","0.5078125","-0.828125","-0.29296875","-2.40625","0.28125","-2.53125"
"1574200828303","463","0.4580078","-0.8330078","-0.2783203","3.34375","3.59375","-4.71875"
"1574200828303","464","0.5371094","-0.83496094","-0.2890625","0.0","2.0","-3.625"
"1574200828303","465","0.47753906","-0.8232422","-0.27246094","2.59375","-1.59375","-0.625"
"1574200828303","466","0.5048828","-0.8378906","-0.2763672","-2.21875","1.5","-2.34375"
"1574200828304","467","0.5058594","-0.8203125","-0.28222656","-1.53125","-0.3125","-0.75"
"1574200828304","468","0.4873047","-0.8339844","-0.26953125","-0.4375","3.46875","-4.84375"
"1574200828305","469","0.5126953","-0.8222656","-0.2841797","-0.5625","4.5","-4.28125"
"1574200828894","470","0.4951172","-0.8310547","-0.2841797","-1.71875","6.5","-5.375"
"1574200828895","471","0.515625","-0.83691406","-0.28125","-2.6875","6.28125","-3.90625"
"1574200828895","472","0.51660156","-0.8222656","-0.28125","-4.40625","2.0","-1.84375"
"1574200828895","473","0.50878906","-0.828125","-0.2734375","-4.96875","1.9375","-1.53125"
"1574200828895","474","0.5107422","-0.8154297","-0.27539062","-2.9375","1.09375","-2.53125"
"1574200828896","475","0.5205078","-0.82910156","-0.28027344","-0.5625","3.15625","-1.25"
"1574200828896","476","0.5205078","-0.8203125","-0.26757812","-3.375","5.40625","0.46875"
"1574200828896","477","0.5283203","-0.8261719","-0.28222656","-7.09375","3.53125","2.65625"
"1574200828896","478","0.5","-0.8095703","-0.27539062","-3.5625","3.34375","3.34375"
"1574200828897","479","0.46875","-0.8359375","-0.25585938","-1.3125","7.4375","0.78125"
"1574200829095","480","0.4951172","-0.8486328","-0.27734375","-0.0625","8.09375","-1.53125"
"1574200829097","481","0.5","-0.8339844","-0.2705078","2.0","6.46875","-1.125"
"1574200829097","482","0.4970703","-0.82421875","-0.26757812","3.90625","6.21875","-0.1875"
"1574200829097","483","0.5097656","-0.8388672","-0.26757812","4.0625","3.90625","1.4375"
"1574200829097","484","0.5058594","-0.8408203","-0.25390625","3.71875","2.25","1.15625"
"1574200829098","485","0.50878906","-0.8310547","-0.25390625","2.96875","2.78125","0.40625"
"1574200829098","486","0.51171875","-0.8330078","-0.25878906","2.0","2.84375","0.03125"
"1574200829098","487","0.5019531","-0.82714844","-0.2626953","2.78125","2.5","-0.5"
"1574200829098","488","0.5058594","-0.8310547","-0.25976562","2.1875","3.46875","-0.5"
"1574200829099","489","0.49609375","-0.81933594","-0.2685547","2.375","7.125","-0.6875"
"1574200829494","490","0.51464844","-0.83203125","-0.25","0.0","3.78125","-1.3125"
"1574200829495","491","0.5234375","-0.83203125","-0.25585938","2.25","2.1875","-0.625"
"1574200829495","492","0.5019531","-0.8232422","-0.23925781","1.8125","1.3125","0.09375"
"1574200829496","493","0.515625","-0.82128906","-0.25976562","1.15625","-0.5","-0.8125"
"1574200829497","494","0.51171875","-0.82910156","-0.25","2.96875","0.65625","-0.4375"
"1574200829497","495","0.5029297","-0.8339844","-0.2529297","4.0","-0.625","-0.4375"
"1574200829497","496","0.5097656","-0.8300781","-0.25390625","3.53125","-0.4375","-0.875"
"1574200829498","497","0.49609375","-0.8330078","-0.25097656","2.90625","2.5625","0.15625"
"1574200829498","498","0.5078125","-0.83691406","-0.23730469","2.25","2.3125","0.40625"
"1574200829498","499","0.50390625","-0.8339844","-0.23925781","1.09375","2.84375","0.34375"
"1574200830286","500","0.5048828","-0.83203125","-0.23730469","-0.5","2.0625","-0.5"
"1574200830287","501","0.51464844","-0.8330078","-0.23730469","-1.46875","1.625","-0.4375"
"1574200830287","502","0.50683594","-0.83496094","-0.23339844","-1.84375","2.25","-0.25"
"1574200830287","503","0.50878906","-0.83984375","-0.23339844","-1.25","1.5625","-0.875"
"1574200830288","504","0.51464844","-0.8339844","-0.2421875","-2.625","0.84375","-1.65625"
"1574200830289","505","0.49023438","-0.8359375","-0.22949219","0.0","1.875","-1.0"
"1574200830289","506","0.5058594","-0.83984375","-0.23632812","-1.3125","-0.875","-2.53125"
"1574200830290","507","0.5078125","-0.8378906","-0.23535156","-2.09375","1.75","-0.75"
"1574200830290","508","0.5097656","-0.83496094","-0.24023438","-1.3125","2.5","0.0"
"1574200830291","509","0.5097656","-0.8310547","-0.24121094","-1.59375","1.375","-0.9375"
"1574200830483","510","0.51171875","-0.83496094","-0.24023438","-0.0625","1.625","-0.9375"
"1574200830484","511","0.50390625","-0.84472656","-0.23242188","0.65625","1.21875","-1.46875"
"1574200830484","512","0.49902344","-0.84765625","-0.24121094","0.09375","1.3125","-1.65625"
"1574200830484","513","0.5","-0.8359375","-0.24511719","-1.25","1.75","-0.6875"
"1574200830484","514","0.49316406","-0.8359375","-0.24511719","-2.625","5.1875","0.53125"
"1574200830485","515","0.49121094","-0.84472656","-0.23144531","-3.0625","7.1875","0.78125"
"1574200830485","516","0.50097656","-0.8339844","-0.23535156","-0.625","6.15625","0.65625"
"1574200830486","517","0.50878906","-0.8359375","-0.23632812","-1.96875","3.65625","0.78125"
"1574200830486","518","0.5058594","-0.83691406","-0.24316406","1.5625","4.3125","2.84375"
"1574200830487","519","0.4951172","-0.84472656","-0.22167969","-1.34375","1.28125","0.09375"
"1574200830686","520","0.5","-0.8378906","-0.23144531","-0.0625","2.25","0.09375"
"1574200830687","521","0.4970703","-0.84472656","-0.22949219","-1.34375","1.75","-0.625"
"1574200830687","522","0.48632812","-0.84375","-0.22363281","-1.65625","0.78125","-1.0"
"1574200830687","523","0.5029297","-0.84375","-0.23730469","-2.8125","-0.4375","-1.53125"
"1574200830688","524","0.4892578","-0.8388672","-0.23925781","-2.21875","0.03125","-1.65625"
"1574200830688","525","0.50097656","-0.8408203","-0.24414062","-2.40625","0.28125","-1.3125"
"1574200830688","526","0.49121094","-0.83984375","-0.24414062","-1.3125","-1.0625","-1.34375"
"1574200830688","527","0.5","-0.83984375","-0.24316406","-2.21875","1.5","-1.3125"
"1574200830689","528","0.50390625","-0.84472656","-0.24511719","-3.625","0.09375","0.03125"
"1574200830690","529","0.48242188","-0.8339844","-0.24316406","-1.65625","0.21875","-0.9375"
"1574200831084","530","0.5058594","-0.84765625","-0.24511719","-2.40625","3.53125","0.0"
"1574200831084","531","0.48632812","-0.83691406","-0.2578125","-2.15625","2.59375","-1.25"
"1574200831085","532","0.50097656","-0.8378906","-0.23828125","-2.46875","5.1875","-0.375"
"1574200831085","533","0.48828125","-0.8466797","-0.2548828","-2.09375","2.5","-0.25"
"1574200831085","534","0.5019531","-0.8359375","-0.24902344","-2.28125","4.5","-0.6875"
"1574200831085","535","0.5058594","-0.8330078","-0.24804688","-2.15625","4.0","1.75"
"1574200831086","536","0.47851562","-0.83691406","-0.25195312","-1.96875","2.78125","-1.0"
"1574200831086","537","0.51953125","-0.83984375","-0.25878906","-1.78125","3.65625","0.84375"
"1574200831086","538","0.4970703","-0.8330078","-0.24121094","-0.625","-2.21875","0.0"
"1574200831087","539","0.4892578","-0.8359375","-0.24804688","-1.90625","-0.6875","-0.375"
"1574200831481","540","0.4892578","-0.8457031","-0.25683594","1.09375","2.1875","-0.875"
"1574200831483","541","0.4921875","-0.84472656","-0.24511719","1.5","1.625","-1.78125"
"1574200831484","542","0.49414062","-0.84375","-0.25","2.0","3.21875","-1.0"
"1574200831484","543","0.484375","-0.8300781","-0.26171875","0.28125","3.71875","-1.46875"
"1574200831484","544","0.48632812","-0.84472656","-0.24414062","-0.0625","4.1875","-0.875"
"1574200831484","545","0.5","-0.8408203","-0.2421875","2.65625","6.8125","2.0625"
"1574200831485","546","0.50390625","-0.84375","-0.22460938","-4.28125","0.46875","0.40625"
"1574200831485","547","0.4873047","-0.8457031","-0.23828125","-3.0","0.59375","1.3125"
"1574200831485","548","0.4794922","-0.8466797","-0.23242188","-1.34375","3.15625","0.0"
"1574200831486","549","0.46484375","-0.8457031","-0.22851562","-0.375","3.53125","-1.1875"
"1574200832272","550","0.4814453","-0.8515625","-0.24023438","-1.84375","5.84375","-1.46875"
"1574200832273","551","0.484375","-0.85253906","-0.234375","-2.75","5.28125","-0.875"
"1574200832273","552","0.4892578","-0.85253906","-0.24023438","-1.125","2.71875","0.09375"
"1574200832275","553","0.48632812","-0.8486328","-0.23339844","-1.1875","2.375","-0.1875"
"1574200832275","554","0.484375","-0.8466797","-0.23339844","-0.75","1.5625","-1.1875"
"1574200832276","555","0.4951172","-0.85058594","-0.23632812","-2.09375","0.40625","-2.34375"
"1574200832276","556","0.48339844","-0.8359375","-0.234375","-1.46875","0.90625","-2.03125"
"1574200832276","557","0.4970703","-0.8564453","-0.2421875","-1.71875","1.75","-1.71875"
"1574200832277","558","0.5058594","-0.84277344","-0.25976562","-3.25","0.09375","-1.1875"
"1574200832277","559","0.48046875","-0.8378906","-0.24121094","-0.9375","0.59375","-0.9375"
"1574200832279","560","0.49609375","-0.83691406","-0.25","-2.34375","0.78125","-2.40625"
"1574200832280","561","0.4951172","-0.83691406","-0.25097656","-1.25","0.15625","-2.625"
"1574200832280","562","0.49414062","-0.8417969","-0.23730469","0.03125","-0.1875","-1.65625"
"1574200832280","563","0.49414062","-0.83691406","-0.25878906","-1.3125","-1.90625","-1.59375"
"1574200832280","564","0.5","-0.83984375","-0.2578125","0.28125","-0.75","-0.1875"
"1574200832281","565","0.49414062","-0.8330078","-0.25097656","1.09375","-1.46875","-0.4375"
"1574200832281","566","0.484375","-0.8408203","-0.2548828","0.15625","-0.8125","-1.0625"
"1574200832281","567","0.484375","-0.83984375","-0.25976562","0.65625","0.90625","-1.59375"
"1574200832281","568","0.49316406","-0.8330078","-0.25195312","0.09375","2.25","-1.71875"
"1574200832282","569","0.49121094","-0.85058594","-0.25683594","-2.59375","1.375","-1.96875"
"1574200832672","570","0.49023438","-0.8359375","-0.2705078","-2.15625","2.59375","-3.0"
"1574200832673","571","0.4970703","-0.8378906","-0.24121094","-5.9375","3.71875","-2.21875"
"1574200832673","572","0.4951172","-0.8251953","-0.25976562","-1.34375","4.0625","-0.5"
"1574200832673","573","0.5029297","-0.83496094","-0.25097656","-5.6875","3.9375","-2.8125"
"1574200832674","574","0.50390625","-0.83691406","-0.25585938","-2.8125","4.125","-1.125"
"1574200832674","575","0.48828125","-0.8359375","-0.25585938","-2.34375","1.8125","-1.78125"
"1574200832674","576","0.4951172","-0.8388672","-0.25097656","-2.28125","2.65625","-1.3125"
"1574200832675","577","0.4873047","-0.8408203","-0.2548828","-0.9375","1.375","-1.59375"
"1574200832675","578","0.49316406","-0.8408203","-0.25","-1.65625","-1.78125","-3.25"
"1574200832676","579","0.49804688","-0.83496094","-0.26367188","-1.90625","-0.0625","-1.71875"
"1574200833071","580","0.50097656","-0.8203125","-0.26757812","-2.03125","2.375","-0.8125"
"1574200833072","581","0.4970703","-0.83691406","-0.2548828","-2.9375","3.65625","-0.25"
"1574200833072","582","0.49902344","-0.8388672","-0.265625","-1.90625","1.5625","-1.40625"
"1574200833073","583","0.49414062","-0.82714844","-0.26367188","-1.59375","1.09375","-1.25"
"1574200833073","584","0.4951172","-0.8388672","-0.25097656","-1.25","-0.0625","-2.21875"
"1574200833073","585","0.5107422","-0.83203125","-0.27246094","-1.65625","-0.625","-1.25"
"1574200833073","586","0.49316406","-0.8330078","-0.26660156","-0.5","0.28125","-1.0"
"1574200833074","587","0.4951172","-0.82910156","-0.26660156","-2.875","4.0625","-0.9375"
"1574200833074","588","0.5019531","-0.8408203","-0.2607422","-2.59375","5.46875","-1.90625"
"1574200833074","589","0.49609375","-0.83496094","-0.26171875","-0.625","1.9375","-1.46875"
"1574200833665","590","0.5107422","-0.8359375","-0.25683594","-1.0","0.0","-2.40625"
"1574200833665","591","0.5097656","-0.82421875","-0.26757812","-0.375","1.5625","-0.8125"
"1574200833666","592","0.49121094","-0.8378906","-0.2626953","-3.75","0.65625","-0.875"
"1574200833666","593","0.49316406","-0.8457031","-0.25683594","-4.53125","1.28125","-1.53125"
"1574200833666","594","0.5048828","-0.8388672","-0.26171875","-3.0625","-0.5","-1.71875"
"1574200833666","595","0.48339844","-0.83203125","-0.2607422","-1.0625","-0.4375","-1.90625"
"1574200833667","596","0.49121094","-0.83691406","-0.27148438","-3.0","3.9375","0.0"
"1574200833667","597","0.49804688","-0.83496094","-0.27441406","-1.46875","6.9375","0.78125"
"1574200833667","598","0.50878906","-0.8251953","-0.25878906","-4.96875","6.625","0.65625"
"1574200833667","599","0.515625","-0.8388672","-0.27929688","-1.78125","2.96875","4.125"
"1574200834460","600","0.4921875","-0.8339844","-0.25195312","1.3125","1.75","0.71875"
"1574200834462","601","0.5126953","-0.8310547","-0.2705078","0.21875","1.21875","1.375"
"1574200834463","602","0.47753906","-0.82714844","-0.26953125","1.75","1.375","-1.3125"
"1574200834463","603","0.5048828","-0.8330078","-0.2685547","0.71875","2.84375","-1.78125"
"1574200834463","604","0.484375","-0.8388672","-0.2734375","1.21875","2.3125","-0.9375"
"1574200834464","605","0.49609375","-0.8339844","-0.2626953","-0.4375","3.53125","-0.6875"
"1574200834464","606","0.4814453","-0.8417969","-0.2705078","0.65625","3.71875","-0.3125"
"1574200834464","607","0.4951172","-0.828125","-0.26367188","0.53125","5.0625","-1.25"
"1574200834464","608","0.5126953","-0.84472656","-0.26757812","-1.65625","4.5","1.3125"
"1574200834465","609","0.4794922","-0.8251953","-0.25878906","0.90625","2.0625","-1.0"
"1574200834465","610","0.5136719","-0.83984375","-0.26660156","-0.5","5.53125","-0.375"
"1574200834465","611","0.47558594","-0.82714844","-0.26953125","2.375","2.0625","-2.21875"
"1574200834466","612","0.5058594","-0.83496094","-0.2578125","1.375","5.0","-1.40625"
"1574200834466","613","0.48535156","-0.84277344","-0.2578125","2.0","6.46875","-2.59375"
"1574200834467","614","0.5019531","-0.8339844","-0.25683594","0.96875","6.21875","-1.25"
"1574200834467","615","0.49902344","-0.83496094","-0.2578125","2.25","6.5625","-2.09375"
"1574200834468","616","0.5263672","-0.8378906","-0.24316406","0.96875","4.6875","1.15625"
"1574200834468","617","0.5058594","-0.83496094","-0.23144531","2.0","0.0","2.0625"
"1574200834468","618","0.51464844","-0.82910156","-0.25097656","0.46875","-1.53125","0.09375"
"1574200834469","619","0.5097656","-0.8310547","-0.23730469","3.65625","-3.4375","-0.6875"
"1574200834661","620","0.5048828","-0.83984375","-0.23925781","-2.09375","-0.6875","-0.4375"
"1574200834662","621","0.50097656","-0.84375","-0.23339844","-2.46875","2.84375","-0.25"
"1574200834662","622","0.4970703","-0.8486328","-0.25","2.375","-0.9375","-2.03125"
"1574200834662","623","0.47265625","-0.85253906","-0.24414062","3.40625","2.5625","-1.78125"
"1574200834663","624","0.46972656","-0.8515625","-0.21777344","2.1875","4.25","-4.28125"
"1574200834664","625","0.4765625","-0.85839844","-0.22949219","3.03125","6.875","-0.625"
"1574200834664","626","0.48535156","-0.85546875","-0.22851562","1.3125","8.34375","2.5625"
"1574200834664","627","0.49804688","-0.8574219","-0.23632812","3.34375","4.0625","3.78125"
"1574200834664","628","0.5019531","-0.84472656","-0.22949219","5.125","0.46875","4.375"
"1574200834665","629","0.4892578","-0.8496094","-0.20410156","4.5","-0.6875","1.8125"
"1574200835059","630","0.47265625","-0.8466797","-0.20800781","4.0625","1.15625","-1.78125"
"1574200835059","631","0.4970703","-0.8574219","-0.20996094","0.65625","5.125","-1.40625"
"1574200835060","632","0.5","-0.8457031","-0.21777344","-1.53125","3.65625","-0.25"
"1574200835060","633","0.4921875","-0.84375","-0.2265625","-1.40625","2.59375","-0.25"
"1574200835060","634","0.48828125","-0.8408203","-0.21386719","-2.15625","4.1875","-0.5"
"1574200835060","635","0.4892578","-0.85253906","-0.21289062","-5.21875","5.96875","-2.53125"
"1574200835061","636","0.4921875","-0.8496094","-0.21777344","-4.96875","5.84375","-3.5625"
"1574200835062","637","0.49804688","-0.84765625","-0.20996094","-6.71875","2.5","-4.59375"
"1574200835063","638","0.5078125","-0.8388672","-0.21972656","-2.75","5.28125","-2.09375"
"1574200835063","639","0.50390625","-0.8330078","-0.22558594","-6.1875","3.34375","0.15625"
"1574200835654","640","0.48046875","-0.84765625","-0.21875","-2.6875","1.375","0.15625"
"1574200835654","641","0.48632812","-0.8496094","-0.21777344","-1.78125","4.25","-0.5625"
"1574200835654","642","0.49902344","-0.85253906","-0.23632812","-6.125","6.21875","-0.4375"
"1574200835655","643","0.48242188","-0.8466797","-0.22558594","-1.53125","5.0","1.3125"
"1574200835655","644","0.49121094","-0.8378906","-0.23144531","-3.8125","3.9375","0.0"
"1574200835655","645","0.4970703","-0.84472656","-0.22851562","-1.34375","3.65625","0.65625"
"1574200835655","646","0.49023438","-0.84277344","-0.21679688","-0.875","1.6875","-0.1875"
"1574200835656","647","0.5107422","-0.84277344","-0.23730469","-1.71875","3.9375","-1.0"
"1574200835656","648","0.50097656","-0.8359375","-0.23632812","-0.125","3.28125","0.15625"
"1574200835657","649","0.484375","-0.84472656","-0.22167969","-0.1875","1.625","-0.6875"
"1574200835854","650","0.49316406","-0.84375","-0.22949219","-2.03125","3.9375","-0.875"
"1574200835855","651","0.49804688","-0.8466797","-0.22363281","-2.53125","4.625","0.0"
"1574200835855","652","0.49609375","-0.8515625","-0.23535156","-3.75","3.15625","0.71875"
"1574200835855","653","0.49316406","-0.84472656","-0.22558594","-2.53125","2.1875","1.09375"
"1574200835855","654","0.4921875","-0.85839844","-0.22265625","-0.0625","-0.5","0.34375"
"1574200835856","655","0.49902344","-0.8457031","-0.22949219","2.1875","-1.65625","-1.0625"
"1574200835856","656","0.48632812","-0.83984375","-0.21582031","-1.59375","-1.96875","-1.46875"
"1574200835856","657","0.4794922","-0.8496094","-0.2265625","-0.375","-0.1875","0.34375"
"1574200835857","658","0.48828125","-0.8544922","-0.20898438","-2.625","0.03125","-1.40625"
"1574200835857","659","0.4892578","-0.8574219","-0.21972656","-2.75","1.3125","-0.9375"
"1574200836250","660","0.47753906","-0.8544922","-0.21972656","-1.59375","-1.53125","-2.9375"
"1574200836251","661","0.48339844","-0.83691406","-0.22851562","-1.53125","1.28125","-3.4375"
"1574200836252","662","0.5","-0.8466797","-0.23046875","-1.53125","4.5","-1.84375"
"1574200836252","663","0.49121094","-0.86035156","-0.22558594","0.65625","0.71875","-3.0"
"1574200836252","664","0.5","-0.84375","-0.23144531","1.09375","0.90625","-3.8125"
"1574200836252","665","0.48828125","-0.83496094","-0.23046875","1.09375","0.78125","-2.53125"
"1574200836253","666","0.4970703","-0.84277344","-0.22753906","1.15625","0.90625","-2.40625"
"1574200836253","667","0.5097656","-0.8378906","-0.23144531","1.5","2.0625","-2.21875"
"1574200836253","668","0.4892578","-0.84277344","-0.23925781","2.0","3.90625","-2.53125"
"1574200836253","669","0.5019531","-0.8408203","-0.24121094","0.21875","3.53125","-1.71875"
"1574200836848","670","0.49804688","-0.8232422","-0.21972656","-0.0625","2.3125","-1.0625"
"1574200836849","671","0.49414062","-0.8496094","-0.2265625","1.875","3.65625","1.375"
"1574200836849","672","0.46972656","-0.8417969","-0.21972656","0.90625","3.59375","-2.8125"
"1574200836850","673","0.5","-0.8378906","-0.22949219","1.21875","8.46875","-4.21875"
"1574200836851","674","0.51171875","-0.85058594","-0.22363281","1.03125","5.34375","-1.78125"
"1574200836851","675","0.48535156","-0.82910156","-0.21972656","2.0","4.875","-3.1875"
"1574200836852","676","0.5097656","-0.8388672","-0.2265625","0.40625","6.6875","-3.5625"
"1574200836852","677","0.5097656","-0.8310547","-0.2265625","2.65625","4.375","-5.625"
"1574200836852","678","0.5","-0.8232422","-0.234375","0.0","6.15625","-7.78125"
"1574200836852","679","0.54589844","-0.82714844","-0.22460938","-3.375","8.21875","-6.0"
"1574200837045","680","0.57714844","-0.8261719","-0.22558594","-7.9375","6.75","2.65625"
"1574200837045","681","0.51953125","-0.82910156","-0.21582031","-8.6875","0.96875","5.0625"
"1574200837046","682","0.5253906","-0.8378906","-0.20410156","-0.875","-1.71875","1.8125"
"1574200837046","683","0.52441406","-0.84765625","-0.1796875","-6.1875","-4.28125","0.71875"
"1574200837046","684","0.45703125","-0.83984375","-0.19824219","-6.84375","-11.0","-7.9375"
"1574200837047","685","0.4794922","-0.8574219","-0.20410156","-0.25","-5.09375","-7.59375"
"1574200837047","686","0.47265625","-0.8613281","-0.21191406","1.5625","0.46875","-6.0625"
"1574200837048","687","0.4970703","-0.8652344","-0.21582031","2.0625","1.03125","-4.03125"
"1574200837048","688","0.4921875","-0.8652344","-0.20214844","1.15625","2.375","-0.8125"
"1574200837048","689","0.47558594","-0.8652344","-0.20800781","-1.1875","5.28125","-0.625"
