"# PR data"
"# Start time: 20191113T120303"
"# Subject: nikita"
"# Activity type: Step ups"
"# Correctness: Incorrect"
"# Notes: "
""
"timestamp","seq","accel_x","accel_y","accel_z","gyro_x","gyro_y","gyro_z"
"1573646583483","0","-0.06933594","-0.97265625","0.19628906","3.34375","0.53125","0.09375"
"1573646583484","1","-0.07714844","-0.95410156","0.18164062","7.8125","1.6875","-1.78125"
"1573646583484","2","-0.06933594","-0.9716797","0.18847656","10.25","0.96875","-0.4375"
"1573646583485","3","-0.087890625","-0.96777344","0.20898438","8.03125","3.09375","-0.5"
"1573646583485","4","-0.06738281","-0.96875","0.21875","7.96875","-0.3125","1.375"
"1573646583485","5","-0.072265625","-0.9550781","0.20703125","12.0625","0.0","2.71875"
"1573646583485","6","-0.05859375","-0.9658203","0.23339844","7.3125","-1.78125","3.09375"
"1573646583486","7","-0.0703125","-0.96484375","0.234375","5.1875","-5.6875","2.78125"
"1573646583486","8","-0.083984375","-0.9589844","0.21191406","6.8125","-3.96875","1.3125"
"1573646583486","9","-0.07324219","-0.9716797","0.22558594","9.4375","-5.8125","-0.625"
"1573646583883","10","-0.099609375","-0.9609375","0.22949219","12.3125","-0.5","-1.53125"
"1573646583884","11","-0.048828125","-0.96777344","0.25683594","3.9375","-5.03125","-7.09375"
"1573646583884","12","-0.06640625","-0.9667969","0.22949219","10.0","-9.65625","-5.875"
"1573646583886","13","0.0","-0.9326172","0.3095703","-6.71875","-21.0","-7.875"
"1573646583886","14","0.0068359375","-0.9277344","0.21972656","-2.8125","-30.21875","0.0"
"1573646583889","15","-0.08105469","-1.0","0.3251953","-2.28125","-9.0625","-1.71875"
"1573646583890","16","-0.005859375","-0.9746094","0.23730469","-5.9375","-26.03125","-1.71875"
"1573646583890","17","0.0146484375","-0.92285156","0.23730469","3.71875","-25.71875","6.46875"
"1573646583891","18","-0.0087890625","-1.0039062","0.27441406","1.5625","-13.875","3.65625"
"1573646583891","19","-0.01953125","-1.015625","0.26367188","5.84375","-7.53125","-2.6875"
"1573646584675","20","0.018554688","-0.95703125","0.24707031","4.0625","-15.09375","0.96875"
"1573646584676","21","0.009765625","-0.96484375","0.3017578","4.5","-9.0625","-2.15625"
"1573646584676","22","0.07910156","-0.9375","0.2548828","0.90625","-16.375","-5.8125"
"1573646584676","23","0.0107421875","-0.93359375","0.26757812","0.21875","-9.53125","-1.84375"
"1573646584677","24","-0.00390625","-0.953125","0.28125","5.28125","-5.25","-1.53125"
"1573646584677","25","0.03515625","-0.9296875","0.28125","4.5","-2.6875","-5.25"
"1573646584678","26","0.01953125","-0.9482422","0.2919922","-0.75","1.75","-3.96875"
"1573646584678","27","0.060546875","-0.9277344","0.23925781","8.90625","0.09375","-2.6875"
"1573646584678","28","0.013671875","-0.9589844","0.3046875","-6.5","11.34375","-2.625"
"1573646584679","29","0.049804688","-0.92871094","0.25097656","5.0625","8.59375","-3.5"
"1573646584872","30","0.055664062","-0.9423828","0.27929688","13.0","10.1875","1.09375"
"1573646584873","31","0.072265625","-0.921875","0.28222656","8.28125","5.78125","0.53125"
"1573646584873","32","0.068359375","-0.8496094","0.203125","15.0625","6.15625","3.34375"
"1573646584873","33","0.09277344","-0.89453125","0.37402344","29.34375","11.8125","16.53125"
"1573646584874","34","-0.10839844","-0.921875","0.3779297","22.875","12.625","19.34375"
"1573646584874","35","-0.00390625","-0.87597656","0.34179688","20.125","9.03125","12.875"
"1573646584874","36","-0.08496094","-0.9472656","0.43359375","33.4375","34.90625","17.75"
"1573646584875","37","-0.083984375","-0.9736328","0.42773438","17.5","35.75","3.53125"
"1573646584876","38","0.022460938","-0.8808594","0.38378906","26.46875","11.59375","12.1875"
"1573646584876","39","-0.12792969","-0.83691406","0.4267578","28.5","23.1875","17.0625"
"1573646585073","40","-0.038085938","-0.86035156","0.4560547","31.28125","24.28125","11.71875"
"1573646585074","41","-0.12011719","-0.8544922","0.5","23.46875","22.8125","14.625"
"1573646585074","42","-0.14453125","-0.8378906","0.4326172","25.625","24.75","12.625"
"1573646585074","43","-0.1875","-0.8925781","0.6044922","27.28125","29.71875","12.25"
"1573646585075","44","-0.14648438","-0.79589844","0.5214844","20.6875","12.9375","15.625"
"1573646585075","45","-0.28320312","-0.93359375","0.71191406","35.4375","23.65625","11.40625"
"1573646585075","46","-0.3046875","-0.84765625","0.55566406","8.03125","4.6875","10.46875"
"1573646585075","47","-0.28710938","-0.87109375","0.6796875","25.8125","31.53125","5.125"
"1573646585075","48","-0.29101562","-0.92871094","0.67089844","7.25","28.625","2.25"
"1573646585077","49","-0.43554688","-1.0166016","0.83984375","32.53125","44.96875","-2.28125"
"1573646585471","50","-0.3955078","-0.78125","0.61328125","-16.1875","17.125","-5.4375"
"1573646585471","51","-0.38378906","-0.68652344","0.53125","4.1875","27.875","0.78125"
"1573646585472","52","-0.34960938","-0.61035156","0.4970703","-12.28125","29.21875","-1.96875"
"1573646585472","53","-0.39746094","-0.6386719","0.50683594","-1.78125","31.53125","-7.03125"
"1573646585472","54","-0.3544922","-0.7246094","0.49316406","-6.78125","36.90625","-18.9375"
"1573646585472","55","-0.33398438","-0.7783203","0.5097656","-21.0","25.375","-24.6875"
"1573646585473","56","-0.2939453","-0.8125","0.5234375","-27.59375","18.1875","-21.1875"
"1573646585473","57","-0.38183594","-0.8564453","0.45507812","-43.21875","10.96875","-16.25"
"1573646585473","58","-0.43847656","-0.86621094","0.45214844","-24.6875","23.78125","-20.28125"
"1573646585473","59","-0.33007812","-0.8798828","0.3779297","-29.625","15.65625","-26.9375"
"1573646585868","60","-0.24902344","-0.8144531","0.3857422","-17.65625","9.75","-21.5625"
"1573646585869","61","-0.23339844","-0.8173828","0.30078125","-36.6875","-2.6875","-19.78125"
"1573646585870","62","-0.17089844","-0.7373047","0.28710938","-19.65625","-7.28125","-20.78125"
"1573646585871","63","-0.15917969","-0.73046875","0.2529297","-16.875","-20.78125","-12.84375"
"1573646585871","64","-0.15234375","-0.7636719","0.30371094","-22.59375","-24.0625","-8.125"
"1573646585871","65","-0.17773438","-0.7714844","0.26464844","-40.59375","-44.28125","-15.03125"
"1573646585872","66","-0.24023438","-0.83496094","0.34570312","-29.96875","-34.3125","-10.8125"
"1573646585872","67","-0.23046875","-0.9921875","0.3955078","-35.34375","-35.90625","-1.25"
"1573646585872","68","-0.28222656","-1.0537109","0.41308594","-41.09375","-8.3125","-28.03125"
"1573646585872","69","-0.06933594","-0.9453125","0.37402344","-4.53125","-29.875","-20.46875"
"1573646586267","70","0.020507812","-0.8017578","0.17285156","-11.71875","-27.71875","-7.28125"
"1573646586267","71","-0.048828125","-0.8486328","0.38671875","-21.0625","-11.1875","2.65625"
"1573646586268","72","-0.15625","-0.8652344","0.29101562","-4.09375","-9.0","-1.125"
"1573646586269","73","-0.09375","-0.8876953","0.34277344","-18.4375","-6.0625","-10.21875"
"1573646586269","74","9.765625E-4","-0.8964844","0.27441406","-9.28125","-0.625","-4.03125"
"1573646586269","75","0.0078125","-1.0009766","0.3828125","-28.21875","-20.03125","-7.15625"
"1573646586270","76","-0.10449219","-0.8876953","0.24707031","5.28125","-29.375","-3.875"
"1573646586270","77","-0.07324219","-0.9628906","0.25683594","0.65625","-15.28125","-1.0"
"1573646586272","78","-0.06542969","-0.89941406","0.31933594","-1.25","-18.03125","-0.5625"
"1573646586272","79","-0.08496094","-0.88183594","0.39453125","12.8125","-11.6875","-3.5"
"1573646586862","80","-0.091796875","-1.0292969","0.33496094","4.8125","-7.78125","2.3125"
"1573646586862","81","-0.036132812","-0.92871094","0.3671875","3.15625","-9.65625","-1.53125"
"1573646586862","82","-0.05859375","-0.9160156","0.29003906","5.0625","2.90625","2.125"
"1573646586863","83","-0.061523438","-0.9082031","0.2998047","7.75","-10.4375","9.25"
"1573646586863","84","-0.16796875","-0.94140625","0.32128906","24.65625","8.03125","4.1875"
"1573646586863","85","0.00390625","-0.9296875","0.34277344","17.5","2.3125","2.0"
"1573646586864","86","-0.05859375","-0.87597656","0.32617188","10.65625","-16.125","19.8125"
"1573646586864","87","-0.08105469","-0.93066406","0.31640625","29.46875","-18.875","18.71875"
"1573646586864","88","-0.14941406","-0.89746094","0.421875","39.59375","-12.09375","14.15625"
"1573646586865","89","-0.1171875","-0.8388672","0.38964844","33.75","-15.875","8.71875"
"1573646587061","90","-0.111328125","-0.84277344","0.5","36.59375","-8.8125","20.3125"
"1573646587061","91","-0.119140625","-0.8574219","0.49804688","23.46875","6.15625","13.15625"
"1573646587061","92","-0.09472656","-0.84277344","0.48046875","16.84375","0.96875","7.90625"
"1573646587061","93","-0.16503906","-0.83203125","0.46484375","20.1875","8.59375","11.59375"
"1573646587062","94","-0.18359375","-0.7519531","0.44335938","12.0625","18.84375","5.34375"
"1573646587062","95","-0.12792969","-0.8105469","0.5205078","12.625","30.0625","7.125"
"1573646587062","96","-0.119140625","-0.79785156","0.48632812","0.15625","21.40625","7.0"
"1573646587063","97","-0.16308594","-0.7734375","0.47753906","2.25","19.625","11.15625"
"1573646587064","98","-0.1875","-0.7607422","0.47558594","7.125","23.53125","3.34375"
"1573646587064","99","-0.13964844","-0.7998047","0.5410156","-2.9375","17.625","4.5625"
"1573646587659","100","-0.25683594","-0.73339844","0.578125","-7.71875","2.125","16.09375"
"1573646587659","101","-0.25976562","-0.6845703","0.5683594","5.40625","7.5625","17.5625"
"1573646587660","102","-0.3359375","-0.6455078","0.4267578","-0.0625","-3.5","10.59375"
"1573646587660","103","-0.13378906","-0.64160156","0.5097656","0.28125","9.03125","6.34375"
"1573646587660","104","-0.20898438","-0.6123047","0.46777344","-9.0625","-17.65625","11.8125"
"1573646587660","105","-0.30078125","-0.5957031","0.42578125","-6.25","3.40625","3.65625"
"1573646587661","106","-0.27441406","-0.81347656","0.6142578","-5.875","32.46875","-15.8125"
"1573646587661","107","-0.3876953","-0.8935547","0.4921875","-32.1875","31.90625","-20.34375"
"1573646587661","108","-0.25195312","-1.2587891","0.49023438","8.84375","13.53125","-13.875"
"1573646587662","109","-0.28515625","-1.2167969","0.7792969","-14.90625","-17.21875","-6.125"
"1573646587856","110","-0.2685547","-1.0576172","0.31445312","-24.5625","7.84375","-6.96875"
"1573646587856","111","-0.23632812","-1.2636719","0.5605469","-16.875","8.78125","-16.875"
"1573646587856","112","-0.17382812","-0.9423828","0.37304688","-42.375","-18.5625","-13.375"
"1573646587857","113","-0.14648438","-0.6845703","0.203125","-19.90625","0.84375","0.96875"
"1573646587857","114","-0.16015625","-0.8613281","0.23242188","-22.84375","4.375","-0.8125"
"1573646587857","115","-0.15527344","-0.88378906","0.26953125","-28.9375","3.28125","-5.5625"
"1573646587858","116","-0.23535156","-0.98046875","0.27246094","-27.34375","1.9375","-10.6875"
"1573646587858","117","-0.13183594","-0.9628906","0.30371094","-16.3125","-5.75","-12.03125"
"1573646587858","118","-0.13964844","-0.92089844","0.24609375","-5.25","-13.1875","-5.625"
"1573646587859","119","-0.11816406","-0.86816406","0.23339844","-13.9375","-13.4375","-9.28125"
"1573646588253","120","-0.09277344","-0.91796875","0.21582031","9.3125","-24.6875","3.34375"
"1573646588254","121","-0.1328125","-0.96875","0.39453125","14.6875","-13.0625","14.21875"
"1573646588255","122","-0.19335938","-0.9140625","0.33789062","3.15625","-27.78125","12.0625"
"1573646588255","123","-0.24707031","-0.93652344","0.33203125","2.59375","-8.25","0.78125"
"1573646588255","124","-0.22753906","-0.8886719","0.34277344","-2.09375","0.15625","-0.4375"
"1573646588256","125","-0.20605469","-0.86035156","0.36132812","15.3125","18.0625","2.0"
"1573646588256","126","-0.171875","-0.8828125","0.3935547","11.9375","19.5625","-2.28125"
"1573646588256","127","-0.17578125","-0.8652344","0.390625","9.9375","13.53125","-5.4375"
"1573646588256","128","-0.21289062","-0.9013672","0.2763672","5.0625","13.15625","-11.4375"
"1573646588257","129","-0.07324219","-1.0546875","0.53027344","24.75","31.0","-12.71875"
"1573646588850","130","-0.28027344","-0.9433594","0.45703125","-19.25","-13.0625","2.5625"
"1573646588851","131","0.052734375","-0.6591797","0.19726562","7.3125","-6.25","-22.90625"
"1573646588851","132","-0.038085938","-0.96875","0.40820312","11.28125","2.0625","-6.5"
"1573646588852","133","-0.20410156","-0.9658203","0.40039062","-25.21875","-16.25","-10.28125"
"1573646588852","134","-0.17480469","-0.7783203","0.3564453","-11.5625","-12.78125","-5.8125"
"1573646588852","135","-0.2548828","-1.0048828","0.5175781","-10.40625","20.6875","5.90625"
"1573646588852","136","-0.091796875","-0.9628906","0.4560547","-9.28125","-3.6875","-2.21875"
"1573646588853","137","0.0546875","-0.7988281","0.2685547","-18.4375","-37.4375","-1.90625"
"1573646588853","138","-0.06347656","-0.9511719","0.2890625","-16.6875","-13.125","6.875"
"1573646588853","139","-0.18164062","-0.9326172","0.40234375","-5.6875","1.28125","8.59375"
"1573646589048","140","-0.1484375","-0.87890625","0.36816406","-11.5625","-10.40625","6.6875"
"1573646589049","141","-0.08105469","-0.9707031","0.3623047","-8.0625","-2.8125","4.8125"
"1573646589049","142","-0.12597656","-0.9707031","0.28808594","-15.9375","0.15625","0.0"
"1573646589049","143","-0.1015625","-0.9355469","0.29492188","-9.78125","3.9375","-3.4375"
"1573646589049","144","-0.06738281","-0.92871094","0.30273438","-16.6875","-6.3125","1.875"
"1573646589050","145","-0.026367188","-0.8769531","0.3251953","-2.75","-21.0","4.125"
"1573646589051","146","0.001953125","-0.8486328","0.3408203","-3.90625","-37.0","19.34375"
"1573646589051","147","-0.16601562","-0.89746094","0.2890625","10.78125","-21.875","25.9375"
"1573646589051","148","-0.19824219","-0.91015625","0.3642578","17.6875","-14.1875","23.4375"
"1573646589051","149","-0.27734375","-0.9794922","0.42382812","26.84375","-7.34375","21.46875"
"1573646589446","150","-0.19824219","-0.8544922","0.31933594","31.0","-12.34375","5.65625"
"1573646589446","151","-0.14746094","-0.9169922","0.4345703","14.15625","0.0","7.25"
"1573646589446","152","-0.27441406","-0.9423828","0.33496094","24.9375","6.28125","1.03125"
"1573646589446","153","-0.17480469","-0.87597656","0.36816406","19.21875","4.25","-9.28125"
"1573646589447","154","-0.17285156","-0.8808594","0.40820312","27.8125","13.96875","-2.625"
"1573646589447","155","-0.17675781","-0.88378906","0.40039062","21.96875","14.09375","-6.71875"
"1573646589447","156","-0.12792969","-0.8544922","0.42578125","20.75","13.84375","-3.0"
"1573646589449","157","-0.12988281","-0.8642578","0.40527344","22.5625","9.6875","-2.15625"
"1573646589449","158","-0.16992188","-0.8623047","0.48242188","32.6875","6.34375","1.6875"
"1573646589449","159","-0.203125","-0.86035156","0.46679688","28.0","-2.75","-5.8125"
"1573646589844","160","-0.11816406","-0.7939453","0.49023438","36.1875","-7.53125","-0.5"
"1573646589844","161","-0.26171875","-0.7998047","0.5527344","3.34375","16.15625","-4.21875"
"1573646589844","162","-0.10058594","-0.71191406","0.49414062","15.3125","10.1875","-4.40625"
"1573646589845","163","-0.15527344","-0.7294922","0.64941406","27.75","15.5625","14.9375"
"1573646589845","164","-0.31054688","-0.7675781","0.6357422","27.5","19.15625","6.8125"
"1573646589845","165","-0.25878906","-0.8027344","0.58203125","27.875","25.9375","-4.90625"
"1573646589845","166","-0.056640625","-0.77246094","0.5498047","36.53125","15.71875","0.40625"
"1573646589846","167","-0.15332031","-0.80566406","0.69628906","41.1875","31.71875","9.8125"
"1573646589846","168","-0.2109375","-0.8203125","0.7080078","19.15625","8.90625","-0.1875"
"1573646589847","169","-0.34960938","-0.828125","0.7626953","35.9375","28.0625","-4.53125"
"1573646590241","170","-0.22167969","-0.8574219","0.9472656","9.25","29.71875","-16.4375"
"1573646590242","171","-0.3310547","-0.7128906","0.8378906","13.0","-3.1875","-3.3125"
"1573646590242","172","-0.34570312","-0.6816406","0.7939453","10.84375","2.5","2.4375"
"1573646590242","173","-0.36914062","-0.70214844","0.78125","6.21875","-5.3125","-1.78125"
"1573646590243","174","-0.203125","-0.6855469","0.72265625","-7.53125","-0.0625","-6.5"
"1573646590243","175","-0.18847656","-0.6113281","0.7705078","-36.09375","-6.0625","-10.8125"
"1573646590243","176","-0.20507812","-0.6923828","0.65722656","-40.96875","-9.0","-6.1875"
"1573646590243","177","-0.19824219","-0.65625","0.6044922","-42.0625","-9.125","-11.3125"
"1573646590244","178","-0.30566406","-0.66308594","0.59472656","-53.3125","-7.28125","-7.65625"
"1573646590244","179","-0.29101562","-0.74316406","0.47753906","-46.21875","-3.5625","-13.9375"
"1573646590836","180","-0.18554688","-0.6982422","0.5576172","-42.625","-6.59375","-12.53125"
"1573646590837","181","-0.19335938","-0.7001953","0.41503906","-57.15625","-12.03125","-8.0625"
"1573646590837","182","-0.19921875","-0.70996094","0.37890625","-46.875","-14.46875","-3.0"
"1573646590838","183","-0.21679688","-0.7001953","0.42773438","-40.0","-12.09375","-0.125"
"1573646590838","184","-0.24707031","-0.7607422","0.3720703","-32.5625","-9.84375","2.65625"
"1573646590838","185","-0.25976562","-0.78125","0.40429688","-28.65625","-6.1875","2.65625"
"1573646590839","186","-0.19433594","-0.828125","0.4189453","-23.875","-8.0","5.21875"
"1573646590839","187","-0.2626953","-0.8017578","0.38671875","-16.375","-9.21875","6.03125"
"1573646590839","188","-0.19921875","-0.84375","0.33789062","-6.96875","-11.96875","-0.6875"
"1573646590839","189","-0.16601562","-0.8886719","0.38671875","-7.8125","-14.34375","-6.84375"
"1573646591036","190","-0.13574219","-0.86328125","0.3623047","-20.21875","-24.96875","-10.6875"
"1573646591037","191","-0.21972656","-0.9765625","0.41992188","-11.4375","-16.75","-7.09375"
"1573646591037","192","-0.23339844","-0.91308594","0.3876953","-26.875","-6.84375","-15.9375"
"1573646591038","193","-0.13867188","-0.85058594","0.40722656","-13.03125","1.03125","-15.15625"
"1573646591039","194","-0.13867188","-0.8095703","0.35839844","-8.5625","5.53125","-4.90625"
"1573646591039","195","-0.14257812","-0.8652344","0.3857422","-9.53125","29.21875","-15.46875"
"1573646591039","196","-0.05859375","-0.92089844","0.45996094","-14.71875","16.78125","-12.28125"
"1573646591039","197","-0.111328125","-0.86035156","0.42773438","-19.0625","13.46875","-11.84375"
"1573646591040","198","-0.09667969","-0.8876953","0.3701172","-6.5","17.375","-19.1875"
"1573646591040","199","-0.08984375","-0.9316406","0.44335938","-4.90625","34.90625","-19.4375"
"1573646591433","200","-0.06347656","-0.87402344","0.27539062","2.65625","17.875","-5.625"
"1573646591433","201","-0.047851562","-0.9501953","0.3779297","3.65625","10.25","3.09375"
"1573646591434","202","-0.12011719","-0.8261719","0.41601562","16.84375","10.84375","-4.46875"
"1573646591434","203","-0.07128906","-0.88964844","0.44628906","-2.15625","-3.75","-0.125"
"1573646591434","204","-0.07714844","-0.88183594","0.3857422","17.3125","-18.375","9.03125"
"1573646591435","205","-0.09082031","-0.8173828","0.3798828","25.9375","-20.34375","15.3125"
"1573646591436","206","-0.125","-0.82128906","0.46875","24.34375","-15.625","18.84375"
"1573646591436","207","-0.12792969","-0.82910156","0.45996094","30.5","-21.875","20.125"
"1573646591436","208","-0.111328125","-0.8359375","0.4375","38.8125","-23.5","18.65625"
"1573646591436","209","-0.14160156","-0.8232422","0.49023438","29.53125","-5.03125","23.4375"
"1573646592427","210","-0.19628906","-0.8564453","0.5126953","40.03125","4.0","19.875"
"1573646592427","211","-0.20507812","-0.83203125","0.45410156","41.625","7.125","12.875"
"1573646592428","212","-0.09863281","-0.78808594","0.5253906","35.1875","18.90625","6.8125"
"1573646592428","213","-0.15820312","-0.7919922","0.5390625","30.375","22.375","5.40625"
"1573646592428","214","-0.13378906","-0.7685547","0.57128906","30.4375","24.71875","2.3125"
"1573646592429","215","-0.1796875","-0.6972656","0.5908203","12.5","21.96875","-2.03125"
"1573646592429","216","-0.19628906","-0.6972656","0.46289062","19.625","18.34375","3.53125"
"1573646592429","217","-0.18066406","-0.6816406","0.55566406","5.53125","24.40625","3.90625"
"1573646592430","218","-0.24804688","-0.64160156","0.5341797","7.125","16.90625","9.8125"
"1573646592430","219","-0.23046875","-0.5800781","0.5205078","10.1875","25.625","15.5625"
"1573646592625","220","-0.24804688","-0.5390625","0.5048828","13.0","21.84375","18.34375"
"1573646592626","221","-0.3779297","-0.56933594","0.63964844","8.03125","48.9375","26.40625"
"1573646592626","222","-0.3701172","-0.5576172","0.5761719","17.0625","33.5","8.34375"
"1573646592626","223","-0.17382812","-0.53222656","0.5859375","10.0625","0.28125","15.625"
"1573646592626","224","-0.4404297","-0.6933594","0.71191406","16.40625","23.25","17.75"
"1573646592627","225","-0.5078125","-0.66796875","0.6386719","13.65625","16.78125","11.59375"
"1573646592627","226","-0.5683594","-0.8671875","0.7578125","34.84375","-3.96875","20.90625"
"1573646592627","227","-0.5527344","-0.91308594","0.76464844","6.28125","13.59375","0.84375"
"1573646592628","228","-0.4345703","-0.9550781","0.8798828","-1.71875","25.625","3.03125"
"1573646592629","229","-0.41210938","-1.0898438","0.75","13.78125","-2.53125","-0.1875"
"1573646592821","230","-0.4580078","-0.8027344","0.828125","-33.28125","-2.53125","-12.65625"
"1573646592821","231","-0.2919922","-0.6982422","0.49316406","-31.4375","-15.59375","-15.9375"
"1573646592822","232","-0.33007812","-0.78027344","0.5029297","-14.25","6.28125","-16.9375"
"1573646592822","233","-0.2421875","-0.6777344","0.56933594","-28.09375","-1.34375","-20.9375"
"1573646592822","234","-0.34765625","-0.6875","0.50390625","-37.1875","-17.28125","-24.625"
"1573646592822","235","-0.36132812","-0.7294922","0.49414062","-12.59375","-9.125","-21.6875"
"1573646592823","236","-0.31640625","-0.71484375","0.54296875","-19.0","-7.09375","-27.90625"
"1573646592823","237","-0.24121094","-0.6845703","0.5292969","-7.09375","-8.0","-18.21875"
"1573646592823","238","-0.31640625","-0.9111328","0.5107422","-19.125","-3.375","-26.0625"
"1573646592823","239","-0.28125","-0.79589844","0.5292969","-20.03125","0.0","-31.21875"
"1573646593024","240","-0.20800781","-0.7480469","0.46484375","-25.53125","0.09375","-19.5"
"1573646593025","241","-0.20507812","-0.7939453","0.45214844","-22.0625","-1.3125","-14.84375"
"1573646593025","242","-0.11621094","-0.79589844","0.4970703","-23.40625","-8.4375","-7.34375"
"1573646593026","243","-0.23339844","-0.80566406","0.47753906","-20.78125","-11.90625","-1.53125"
"1573646593026","244","-0.2626953","-0.84277344","0.41210938","-22.71875","-0.0625","-5.3125"
"1573646593026","245","-0.17285156","-0.8701172","0.5175781","-14.1875","4.625","-2.625"
"1573646593026","246","-0.24804688","-0.8066406","0.47460938","-9.96875","-8.875","5.125"
"1573646593026","247","-0.30078125","-0.8378906","0.40722656","-3.5","11.75","0.46875"
"1573646593027","248","-0.22363281","-0.7792969","0.4873047","7.5","6.15625","-7.15625"
"1573646593027","249","-0.30371094","-0.8076172","0.5107422","4.1875","25.9375","0.40625"
"1573646593422","250","-0.20996094","-0.86816406","0.5341797","11.03125","27.8125","-10.03125"
"1573646593422","251","-0.23535156","-0.79296875","0.421875","-9.125","-0.875","-14.34375"
"1573646593422","252","-0.14160156","-0.81640625","0.36816406","6.5","-13.875","-19.90625"
"1573646593424","253","-0.18652344","-1.0800781","0.57714844","13.59375","4.3125","-10.8125"
"1573646593424","254","-0.15722656","-0.8847656","0.5185547","-20.53125","-25.15625","-10.34375"
"1573646593424","255","-0.016601562","-0.73828125","0.35742188","-21.25","-28.34375","-9.0"
"1573646593424","256","-0.09375","-0.86328125","0.39257812","-15.53125","-2.34375","-6.59375"
"1573646593425","257","-0.17773438","-0.8486328","0.45507812","-11.125","-8.0","-3.8125"
"1573646593425","258","-0.27539062","-0.8017578","0.52441406","-6.65625","1.75","-6.3125"
"1573646593425","259","-0.17675781","-0.9316406","0.5625","-2.28125","0.78125","-9.15625"
"1573646593818","260","-0.07910156","-0.85058594","0.54785156","-10.09375","-10.8125","-15.15625"
"1573646593819","261","0.020507812","-0.78515625","0.3623047","-19.65625","-29.25","-10.9375"
"1573646593819","262","-0.052734375","-0.9404297","0.38867188","-9.65625","-5.03125","-2.6875"
"1573646593819","263","-0.11328125","-0.85546875","0.48535156","-9.59375","1.4375","-3.0"
"1573646593819","264","-0.10644531","-0.82128906","0.44140625","-8.9375","-8.875","0.09375"
"1573646593821","265","-0.07519531","-0.8857422","0.46484375","1.8125","-9.59375","4.25"
"1573646593821","266","-0.040039062","-0.8388672","0.4609375","0.03125","-20.875","3.65625"
"1573646593821","267","-0.0859375","-0.8808594","0.41210938","-0.0625","-32.0","7.8125"
"1573646593822","268","-0.07421875","-0.84765625","0.4375","-0.0625","-27.0","5.53125"
"1573646593822","269","-0.0546875","-0.8359375","0.44726562","-6.3125","-26.6875","15.0"
"1573646594416","270","-0.045898438","-0.85546875","0.4296875","-1.59375","-24.4375","22.3125"
"1573646594416","271","-0.11816406","-0.8623047","0.4716797","3.84375","-18.15625","25.9375"
"1573646594416","272","-0.13378906","-0.87402344","0.46289062","6.09375","-15.03125","21.59375"
"1573646594417","273","-0.14550781","-0.90527344","0.45507812","21.59375","-8.1875","19.09375"
"1573646594417","274","-0.1484375","-0.8642578","0.43652344","26.90625","4.0625","13.40625"
"1573646594417","275","-0.09765625","-0.8417969","0.46289062","18.53125","3.46875","5.78125"
"1573646594418","276","-0.14550781","-0.87109375","0.42578125","20.4375","7.375","9.375"
"1573646594419","277","-0.12792969","-0.8300781","0.4921875","15.0625","5.34375","6.5625"
"1573646594419","278","-0.14160156","-0.8378906","0.5126953","22.4375","7.8125","8.84375"
"1573646594419","279","-0.16796875","-0.8544922","0.5","17.875","7.8125","4.6875"
"1573646594809","280","-0.12207031","-0.8203125","0.51171875","18.78125","3.65625","7.125"
"1573646594809","281","-0.17675781","-0.8388672","0.5644531","14.5","6.34375","4.5625"
"1573646594809","282","-0.109375","-0.7705078","0.5390625","9.5","-5.625","2.65625"
"1573646594810","283","-0.14160156","-0.7519531","0.54296875","7.3125","-5.4375","12.9375"
"1573646594810","284","-0.27441406","-0.8046875","0.5546875","4.9375","7.5625","11.59375"
"1573646594810","285","-0.19726562","-0.75878906","0.52246094","6.46875","13.28125","2.5625"
"1573646594810","286","-0.1875","-0.79785156","0.5683594","8.15625","29.40625","8.59375"
"1573646594810","287","-0.099609375","-0.7392578","0.49023438","6.875","13.28125","5.46875"
"1573646594811","288","-0.1171875","-0.7470703","0.58691406","24.875","19.09375","28.25"
"1573646594812","289","-0.3671875","-0.85058594","0.6591797","21.21875","40.5","10.84375"
"1573646595804","290","-0.21484375","-0.81347656","0.6035156","7.125","30.75","-2.40625"
"1573646595805","291","-0.052734375","-0.7597656","0.67285156","23.96875","23.65625","10.90625"
"1573646595805","292","-0.32617188","-0.85253906","0.71972656","11.8125","22.5625","13.96875"
"1573646595805","293","-0.19824219","-0.81347656","0.6513672","14.625","3.53125","0.21875"
"1573646595805","294","-0.3125","-0.7548828","0.8300781","32.5625","18.96875","19.53125"
"1573646595806","295","-0.5048828","-0.6611328","0.6933594","4.1875","-2.59375","7.375"
"1573646595806","296","-0.3671875","-0.60546875","0.609375","26.34375","2.3125","3.65625"
"1573646595806","297","-0.4873047","-0.62890625","0.7373047","10.59375","7.8125","6.46875"
"1573646595806","298","-0.49121094","-0.6464844","0.71484375","-14.65625","-6.96875","-9.21875"
"1573646595807","299","-0.38085938","-0.55566406","0.60839844","9.375","9.125","-11.90625"
"1573646596003","300","-0.43164062","-0.6533203","0.71191406","-0.375","14.09375","-11.25"
"1573646596005","301","-0.42382812","-0.72753906","0.70703125","-12.78125","7.96875","-19.375"
"1573646596005","302","-0.33789062","-0.63964844","0.6347656","-21.4375","4.625","-23.875"
"1573646596006","303","-0.36035156","-0.6533203","0.6767578","-14.59375","16.09375","-14.90625"
"1573646596006","304","-0.42382812","-0.67285156","0.59472656","-33.53125","10.65625","-19.84375"
"1573646596006","305","-0.35351562","-0.74609375","0.5859375","-7.40625","9.875","-19.90625"
"1573646596006","306","-0.32128906","-0.66503906","0.6230469","-23.9375","15.78125","-18.3125"
"1573646596007","307","-0.27148438","-0.6279297","0.5439453","-19.71875","7.1875","-16.5625"
"1573646596007","308","-0.35742188","-0.68652344","0.5449219","-9.65625","12.1875","-11.71875"
"1573646596007","309","-0.30078125","-0.6376953","0.5058594","-21.5625","1.625","-19.0625"
"1573646596201","310","-0.2734375","-0.6953125","0.48242188","-9.84375","-2.6875","-10.5625"
"1573646596201","311","-0.40429688","-0.67285156","0.42089844","-2.40625","10.125","-22.125"
"1573646596202","312","-0.14453125","-0.67871094","0.5917969","-13.375","3.15625","-15.875"
"1573646596203","313","-0.19628906","-0.7392578","0.5283203","-23.6875","-6.96875","-7.34375"
"1573646596203","314","-0.24511719","-0.7578125","0.46484375","-37.84375","-13.5","-16.8125"
"1573646596204","315","-0.25683594","-0.7216797","0.47558594","-37.5","-14.78125","-17.09375"
"1573646596204","316","-0.38964844","-0.84375","0.47851562","-36.5625","6.9375","-16.6875"
"1573646596204","317","-0.125","-0.72558594","0.43847656","-25.46875","-8.3125","-25.15625"
"1573646596205","318","-0.14941406","-0.73339844","0.5546875","-34.0","20.6875","-14.25"
"1573646596205","319","-0.40429688","-1.0761719","0.453125","-22.15625","11.09375","-25.09375"
"1573646596401","320","-0.13769531","-0.70996094","0.50097656","-13.8125","-3.5","-26.125"
"1573646596402","321","0.0234375","-0.671875","0.4560547","-2.6875","-8.25","-7.53125"
"1573646596402","322","-0.20898438","-0.9404297","0.4638672","-7.21875","14.3125","0.84375"
"1573646596402","323","-0.27148438","-0.95214844","0.45898438","-7.78125","9.09375","-15.53125"
"1573646596402","324","-0.049804688","-0.78027344","0.4326172","-10.6875","-9.0","-17.78125"
"1573646596403","325","-0.03125","-0.80566406","0.43652344","-2.46875","-7.875","1.09375"
"1573646596404","326","-0.16015625","-0.8984375","0.4609375","-1.90625","-12.59375","0.96875"
"1573646596404","327","-0.15820312","-0.88183594","0.41796875","4.25","-24.0625","1.75"
"1573646596404","328","-0.15625","-0.8613281","0.46875","10.40625","-6.84375","5.90625"
"1573646596405","329","-0.12011719","-0.85253906","0.44140625","7.96875","-17.53125","2.0625"
"1573646596601","330","-0.072265625","-0.87109375","0.48339844","4.0","-19.125","8.46875"
"1573646596601","331","-0.12402344","-0.80566406","0.39453125","11.46875","-24.84375","14.9375"
"1573646596601","332","-0.16796875","-0.82128906","0.52246094","16.71875","-7.8125","19.75"
"1573646596601","333","-0.17871094","-0.7714844","0.45996094","25.3125","-23.75","24.28125"
"1573646596602","334","-0.17675781","-0.8300781","0.5566406","33.25","-15.40625","26.34375"
"1573646596602","335","-0.09375","-0.76171875","0.4501953","23.0625","-27.71875","20.75"
"1573646596602","336","-0.18164062","-0.7939453","0.54785156","21.78125","-3.6875","32.28125"
"1573646596603","337","-0.30273438","-0.8623047","0.5703125","17.1875","11.59375","15.84375"
"1573646596604","338","-0.15234375","-0.8417969","0.5566406","17.5","2.0","8.59375"
"1573646596604","339","-0.13671875","-0.76953125","0.54296875","11.53125","-4.84375","10.84375"
"1573646597197","340","-0.19921875","-0.7792969","0.54003906","14.625","1.3125","9.6875"
"1573646597197","341","-0.18945312","-0.8066406","0.57714844","9.03125","6.03125","9.5"
"1573646597197","342","-0.1953125","-0.74121094","0.5449219","0.0","8.34375","5.46875"
"1573646597198","343","-0.21289062","-0.7626953","0.58496094","9.5625","12.0625","5.53125"
"1573646597198","344","-0.15820312","-0.70996094","0.54589844","4.0625","4.875","-1.1875"
"1573646597198","345","-0.14550781","-0.70703125","0.6035156","-3.25","7.4375","2.96875"
"1573646597199","346","-0.20703125","-0.6660156","0.5908203","3.09375","6.03125","6.6875"
"1573646597199","347","-0.23730469","-0.7167969","0.5751953","-6.3125","1.9375","4.375"
"1573646597199","348","-0.22851562","-0.66796875","0.53808594","4.5","-7.46875","9.5"
"1573646597200","349","-0.22363281","-0.6357422","0.60546875","10.25","9.5","7.5"
"1573646597396","350","-0.3076172","-0.6201172","0.51171875","2.0","7.25","2.1875"
"1573646597397","351","-0.2763672","-0.56640625","0.5341797","2.90625","24.875","-2.15625"
"1573646597397","352","-0.18554688","-0.52246094","0.5654297","6.15625","23.96875","-5.21875"
"1573646597398","353","-0.19824219","-0.5439453","0.51953125","0.65625","11.8125","-4.34375"
"1573646597398","354","-0.30078125","-0.640625","0.6904297","-3.0625","40.375","-1.40625"
"1573646597398","355","-0.35058594","-0.7216797","0.625","-2.9375","4.75","-6.78125"
"1573646597399","356","-0.4189453","-0.88378906","0.71484375","-8.25","54.0625","-13.875"
"1573646597399","357","-0.3154297","-1.0644531","0.75683594","0.40625","-1.34375","-21.5625"
"1573646597399","358","-0.2548828","-0.88964844","0.6298828","3.9375","-29.8125","-2.8125"
"1573646597400","359","-0.41210938","-0.7910156","0.49414062","-40.25","10.78125","10.0625"
"1573646597794","360","-0.35742188","-1.1191406","0.5361328","-10.28125","11.34375","-15.875"
"1573646597795","361","-0.265625","-1.0859375","0.66015625","-29.125","3.71875","-20.9375"
"1573646597795","362","-0.2890625","-0.9472656","0.62402344","-31.21875","-13.5","-18.5625"
"1573646597796","363","-0.22167969","-0.8378906","0.53515625","-12.59375","-19.1875","-17.96875"
"1573646597796","364","-0.2109375","-0.6621094","0.43652344","-46.65625","-10.875","-7.65625"
"1573646597796","365","-0.21386719","-0.8457031","0.45410156","-22.78125","-6.0625","-4.96875"
"1573646597796","366","-0.2841797","-0.78515625","0.39746094","-31.21875","-11.0","-7.21875"
"1573646597797","367","-0.25878906","-0.79296875","0.40429688","-16.6875","8.09375","-9.28125"
"1573646597797","368","-0.21972656","-0.86035156","0.4345703","-8.75","14.09375","-17.03125"
"1573646597797","369","-0.115234375","-0.82910156","0.40039062","-14.46875","-2.28125","-13.4375"
"1573646598195","370","-0.1484375","-0.85839844","0.3564453","-12.46875","-1.0","-4.40625"
"1573646598195","371","-0.18261719","-0.89941406","0.41308594","-1.96875","5.71875","-2.8125"
"1573646598196","372","-0.21289062","-0.8925781","0.42773438","-7.59375","8.65625","-7.40625"
"1573646598197","373","-0.15429688","-0.8378906","0.39160156","-7.9375","4.1875","-6.59375"
"1573646598197","374","-0.11816406","-0.8251953","0.35839844","-3.25","2.4375","-3.1875"
"1573646598197","375","-0.13769531","-0.7871094","0.3857422","8.84375","0.0","3.78125"
"1573646598198","376","-0.2109375","-0.9111328","0.4248047","6.03125","9.5","-1.25"
"1573646598198","377","-0.18554688","-0.8984375","0.45898438","7.90625","7.25","-7.8125"
"1573646598198","378","-0.24609375","-0.8339844","0.48828125","0.46875","20.4375","-4.15625"
"1573646598199","379","-0.2578125","-0.91503906","0.47265625","1.3125","21.21875","-7.15625"
"1573646598589","380","-0.30371094","-0.8183594","0.4267578","8.46875","24.40625","-0.1875"
"1573646598589","381","-0.21191406","-0.8496094","0.4453125","14.15625","35.03125","-4.96875"
"1573646598589","382","-0.115234375","-0.8808594","0.484375","12.0625","17.1875","-8.0625"
"1573646598589","383","-0.17871094","-0.8642578","0.40234375","2.78125","-9.40625","-4.53125"
"1573646598590","384","-0.2529297","-0.8886719","0.4013672","2.5625","8.84375","-5.8125"
"1573646598591","385","-0.22460938","-0.9863281","0.5361328","-9.28125","13.21875","-4.96875"
"1573646598591","386","-0.23925781","-0.890625","0.4091797","-23.21875","-12.96875","-3.4375"
"1573646598591","387","-0.021484375","-0.8027344","0.34960938","-20.28125","-19.1875","-11.84375"
"1573646598592","388","-0.12988281","-0.8720703","0.42285156","-18.09375","-14.1875","-9.84375"
"1573646598592","389","-0.22363281","-0.890625","0.43554688","-22.84375","-25.90625","-6.5"
"1573646598986","390","-0.22753906","-0.8183594","0.40234375","-19.0625","-25.28125","-10.8125"
"1573646598986","391","-0.16210938","-0.8564453","0.37597656","-10.28125","-13.75","-12.84375"
"1573646598986","392","-0.16015625","-0.8925781","0.40039062","-16.125","-12.09375","-16.1875"
"1573646598987","393","-0.115234375","-0.8886719","0.41796875","-10.28125","-0.875","-14.40625"
"1573646598987","394","-0.11035156","-0.9394531","0.4580078","6.03125","5.90625","-8.6875"
"1573646598987","395","-0.056640625","-0.875","0.4267578","-19.84375","-2.21875","-14.46875"
"1573646598987","396","0.037109375","-0.87597656","0.31835938","-7.65625","-13.5","-8.125"
"1573646598988","397","-0.029296875","-0.88671875","0.3701172","-12.78125","-14.1875","-3.625"
"1573646598988","398","-0.041992188","-0.89746094","0.39160156","-5.3125","-18.8125","-2.34375"
"1573646598989","399","-0.049804688","-0.9121094","0.40820312","-6.25","-24.5625","-0.8125"
"1573646599384","400","-0.06738281","-0.91015625","0.4033203","-0.3125","-19.53125","5.59375"
"1573646599385","401","-0.03125","-0.87402344","0.3466797","-0.5625","-34.75","9.8125"
"1573646599385","402","-0.001953125","-0.9042969","0.38183594","4.1875","-41.40625","16.9375"
"1573646599385","403","-0.13671875","-0.9003906","0.40527344","11.875","-20.59375","15.1875"
"1573646599386","404","-0.11425781","-0.91308594","0.42773438","15.65625","-5.09375","8.71875"
"1573646599386","405","-0.08886719","-0.9121094","0.4033203","17.0","-5.03125","4.375"
"1573646599386","406","-0.034179688","-0.84765625","0.37402344","25.625","-5.75","6.6875"
"1573646599387","407","-0.061523438","-0.8955078","0.41796875","27.75","4.5625","7.125"
"1573646599387","408","-0.10253906","-0.8779297","0.4013672","30.9375","5.21875","4.6875"
"1573646599388","409","-0.1015625","-0.8691406","0.4375","31.1875","15.0625","2.5"
"1573646599979","410","-0.08984375","-0.8857422","0.4501953","28.125","21.03125","-1.1875"
"1573646599980","411","-0.053710938","-0.85253906","0.46972656","29.53125","20.90625","-3.6875"
"1573646599980","412","-0.09667969","-0.8613281","0.49804688","3.34375","18.0625","-2.21875"
"1573646599980","413","-0.051757812","-0.8417969","0.44335938","5.40625","12.9375","0.46875"
"1573646599981","414","-0.056640625","-0.85058594","0.4970703","-4.15625","12.1875","7.125"
"1573646599981","415","-0.060546875","-0.8154297","0.46679688","19.21875","9.9375","8.71875"
"1573646599981","416","-0.0859375","-0.7841797","0.52734375","29.34375","18.21875","19.21875"
"1573646599981","417","-0.14746094","-0.85058594","0.4482422","28.5625","14.875","14.21875"
"1573646599982","418","-0.038085938","-0.7363281","0.5625","35.4375","15.71875","17.75"
"1573646599982","419","-0.203125","-0.75390625","0.6425781","37.9375","33.1875","31.59375"
"1573646600575","420","-0.20410156","-0.85546875","0.5546875","32.53125","22.75","6.46875"
"1573646600576","421","-0.038085938","-0.7861328","0.64160156","24.9375","14.625","9.03125"
"1573646600577","422","-0.16210938","-0.7734375","0.67871094","32.9375","22.375","18.78125"
"1573646600577","423","-0.19042969","-0.8652344","0.7792969","30.125","13.96875","8.90625"
"1573646600578","424","-0.32910156","-0.8779297","0.9765625","24.21875","21.96875","6.28125"
"1573646600578","425","-0.3623047","-0.8027344","0.8955078","6.46875","7.375","-2.9375"
"1573646600578","426","-0.35546875","-0.68652344","0.84765625","0.0","20.0625","-3.3125"
"1573646600578","427","-0.38085938","-0.6503906","0.7236328","-8.375","11.09375","-2.34375"
"1573646600579","428","-0.33984375","-0.6621094","0.7529297","-14.1875","17.25","-9.84375"
"1573646600579","429","-0.32910156","-0.6035156","0.6748047","-30.09375","-5.375","-11.1875"
"1573646600773","430","-0.32617188","-0.67089844","0.6191406","-24.84375","-2.6875","-8.6875"
"1573646600773","431","-0.33007812","-0.6435547","0.6230469","-36.75","-4.34375","-13.03125"
"1573646600773","432","-0.31445312","-0.6113281","0.5751953","-39.6875","-5.5625","-6.5"
"1573646600774","433","-0.32421875","-0.6376953","0.53222656","-31.9375","-8.625","-2.6875"
"1573646600775","434","-0.3544922","-0.70214844","0.50390625","-35.65625","-7.15625","-5.6875"
"1573646600775","435","-0.2705078","-0.65234375","0.49316406","-32.71875","-10.9375","-9.71875"
"1573646600775","436","-0.2841797","-0.65527344","0.4921875","-28.875","-11.0625","-5.4375"
"1573646600776","437","-0.3125","-0.6669922","0.4501953","-22.71875","1.6875","-4.96875"
"1573646600776","438","-0.31445312","-0.71484375","0.43847656","-21.6875","0.65625","-9.78125"
"1573646600776","439","-0.21386719","-0.70996094","0.44628906","-13.8125","-3.0","-3.96875"
"1573646601173","440","-0.265625","-0.7373047","0.48339844","-12.46875","-1.25","-1.125"
"1573646601174","441","-0.3046875","-0.8173828","0.50878906","-15.59375","4.625","-10.03125"
"1573646601174","442","-0.20703125","-0.8222656","0.48046875","-21.5","-1.25","-11.6875"
"1573646601174","443","-0.26757812","-0.79785156","0.4375","-24.6875","-3.96875","-7.21875"
"1573646601175","444","-0.296875","-0.80078125","0.47851562","-22.0","8.53125","-10.4375"
"1573646601177","445","-0.21484375","-0.7890625","0.3798828","-25.78125","1.15625","-11.0"
"1573646601177","446","-0.24121094","-0.8701172","0.41308594","-14.59375","10.78125","-10.9375"
"1573646601178","447","-0.25097656","-0.8798828","0.44726562","-12.53125","7.84375","-17.03125"
"1573646601178","448","-0.13964844","-0.88183594","0.5058594","-18.03125","10.53125","-17.03125"
"1573646601179","449","-0.16699219","-0.81152344","0.44335938","-13.3125","-2.34375","-16.0625"
"1573646601570","450","-0.10546875","-0.80078125","0.38085938","-7.9375","1.375","-9.65625"
"1573646601570","451","-0.16796875","-0.8642578","0.45898438","-7.65625","4.125","-6.5"
"1573646601571","452","-0.15820312","-0.85839844","0.40625","-8.3125","-3.90625","-1.25"
"1573646601571","453","-0.15527344","-0.89453125","0.4482422","-4.96875","-6.1875","-2.625"
"1573646601571","454","-0.12988281","-0.859375","0.38476562","-2.40625","-18.15625","5.53125"
"1573646601571","455","-0.16992188","-0.8808594","0.42871094","5.96875","-6.125","5.40625"
"1573646601572","456","-0.16308594","-0.8457031","0.3935547","8.53125","-16.8125","5.78125"
"1573646601573","457","-0.12207031","-0.8388672","0.4345703","21.40625","-23.28125","14.9375"
"1573646601573","458","-0.12792969","-0.8144531","0.4814453","26.46875","-31.75","20.4375"
"1573646601573","459","-0.16210938","-0.7910156","0.49023438","15.78125","-33.21875","25.0"
"1573646601967","460","-0.16699219","-0.8300781","0.4716797","26.03125","-20.46875","22.09375"
"1573646601967","461","-0.19726562","-0.86328125","0.5732422","9.375","1.15625","15.4375"
"1573646601968","462","-0.2578125","-0.8388672","0.43945312","14.5625","-6.3125","13.15625"
"1573646601968","463","-0.17773438","-0.74316406","0.4658203","18.28125","8.84375","4.3125"
"1573646601968","464","-0.16308594","-0.640625","0.40429688","18.84375","15.625","3.34375"
"1573646601968","465","-0.08105469","-0.7597656","0.48339844","16.09375","18.84375","1.3125"
"1573646601969","466","-0.18554688","-0.8642578","0.609375","6.03125","19.875","1.4375"
"1573646601969","467","-0.20996094","-0.76953125","0.5175781","-9.78125","10.96875","-6.25"
"1573646601969","468","-0.14941406","-0.71972656","0.5058594","-1.65625","8.96875","1.6875"
"1573646601970","469","-0.23144531","-0.7373047","0.5029297","0.21875","13.0","8.03125"
"1573646602563","470","-0.2548828","-0.7246094","0.5263672","0.53125","13.59375","2.65625"
"1573646602564","471","-0.20019531","-0.72265625","0.53808594","6.5625","8.03125","-0.75"
"1573646602564","472","-0.21484375","-0.74316406","0.56347656","-1.59375","5.71875","2.71875"
"1573646602564","473","-0.22070312","-0.70214844","0.5800781","7.84375","-1.0625","5.125"
"1573646602564","474","-0.28222656","-0.72753906","0.5439453","-5.625","-0.625","6.28125"
"1573646602565","475","-0.2939453","-0.7089844","0.56933594","-14.34375","16.59375","0.15625"
"1573646602565","476","-0.1953125","-0.7246094","0.51464844","-1.0625","-0.3125","-2.46875"
"1573646602565","477","-0.3876953","-0.82714844","0.5800781","-23.34375","33.6875","-6.125"
"1573646602565","478","-0.3330078","-0.8857422","0.5332031","-11.375","24.40625","-13.125"
"1573646602566","479","-0.2841797","-1.0546875","0.63378906","-6.3125","8.53125","-14.53125"
"1573646602762","480","-0.28320312","-0.96972656","0.4873047","-32.84375","-15.53125","-11.78125"
"1573646602763","481","-0.30859375","-1.234375","0.5283203","-14.3125","-0.0625","-18.8125"
"1573646602763","482","-0.14453125","-0.98339844","0.59277344","-22.0","-10.9375","-24.75"
"1573646602764","483","-0.08984375","-0.6357422","0.4326172","-44.5625","-25.78125","2.84375"
"1573646602764","484","-0.28222656","-0.96191406","0.39746094","-23.875","-1.40625","19.09375"
"1573646602764","485","-0.38671875","-1.2226562","0.34375","-44.28125","-17.78125","-8.125"
"1573646602764","486","-0.040039062","-0.6816406","0.24609375","-53.3125","-36.625","-10.40625"
"1573646602765","487","-0.064453125","-0.80371094","0.19140625","-8.0625","-7.28125","13.15625"
"1573646602765","488","-0.24707031","-0.9785156","0.26757812","-17.65625","-8.0","2.375"
"1573646602765","489","-0.20410156","-0.9765625","0.33691406","-3.75","-18.03125","-5.15625"
"1573646603160","490","-0.17285156","-0.92089844","0.2919922","-1.96875","-15.09375","-6.5"
"1573646603160","491","-0.15234375","-0.89160156","0.24023438","-9.40625","-19.0","-6.53125"
"1573646603161","492","-0.16796875","-0.8769531","0.296875","-1.46875","-10.75","-1.40625"
"1573646603162","493","-0.16796875","-0.8701172","0.23242188","-4.21875","-4.84375","-3.3125"
"1573646603162","494","-0.16210938","-0.9580078","0.28808594","11.8125","12.5","-8.25"
"1573646603162","495","-0.21289062","-0.8955078","0.37304688","16.28125","4.9375","-5.3125"
"1573646603163","496","-0.18847656","-0.9716797","0.37597656","15.625","18.96875","-5.15625"
"1573646603163","497","-0.11035156","-0.90527344","0.40039062","14.9375","19.9375","-12.15625"
"1573646603163","498","-0.2890625","-0.8935547","0.375","-2.09375","20.8125","-4.71875"
"1573646603163","499","-0.25878906","-0.88378906","0.30664062","8.21875","30.25","-11.625"
"1573646603557","500","-0.1875","-1.0712891","0.43847656","-29.0625","58.8125","-9.0625"
"1573646603557","501","-0.2919922","-0.8798828","0.47265625","14.75","38.8125","-8.5"
"1573646603558","502","0.103515625","-0.67285156","0.23730469","-4.59375","-19.65625","-10.5"
"1573646603558","503","-0.072265625","-0.9511719","0.21972656","-8.875","14.8125","-13.5625"
"1573646603558","504","-0.1953125","-1.0058594","0.47460938","20.625","16.40625","-14.53125"
"1573646603559","505","-0.140625","-0.8066406","0.45117188","1.375","-29.8125","-5.8125"
"1573646603559","506","-0.11621094","-0.9248047","0.4033203","1.75","-17.28125","1.4375"
"1573646603559","507","-0.21289062","-0.8955078","0.43359375","10.46875","11.9375","-3.1875"
"1573646603559","508","-0.09082031","-0.8300781","0.43066406","-14.84375","-11.3125","-10.75"
"1573646603560","509","-0.0703125","-0.91503906","0.3408203","16.9375","-15.21875","1.4375"
"1573646604150","510","-0.07324219","-0.8720703","0.43652344","3.71875","-14.0625","-1.125"
"1573646604150","511","-0.049804688","-0.8388672","0.45117188","-0.0625","-20.53125","4.6875"
"1573646604151","512","-0.060546875","-0.8798828","0.41015625","2.84375","-35.15625","11.9375"
"1573646604151","513","-0.051757812","-0.92089844","0.4482422","0.78125","-30.65625","11.59375"
"1573646604151","514","-0.076171875","-0.9296875","0.42382812","0.59375","-34.9375","12.375"
"1573646604151","515","-0.123046875","-0.9267578","0.43066406","6.15625","-23.4375","11.8125"
"1573646604151","516","-0.13378906","-0.9169922","0.45996094","4.5","-25.03125","6.46875"
"1573646604153","517","-0.109375","-0.8769531","0.4140625","11.53125","-26.375","4.9375"
"1573646604153","518","-0.087890625","-0.8730469","0.4111328","16.28125","-12.34375","2.71875"
"1573646604153","519","-0.07519531","-0.86621094","0.42285156","15.25","-2.40625","1.5"
"1573646604353","520","-0.10253906","-0.8652344","0.47070312","4.1875","6.34375","0.65625"
"1573646604353","521","-0.1015625","-0.8828125","0.47558594","1.09375","8.71875","-2.34375"
"1573646604354","522","-0.041992188","-0.8544922","0.39257812","10.84375","9.25","-1.25"
"1573646604354","523","-0.08984375","-0.8691406","0.48632812","-2.8125","8.53125","0.78125"
"1573646604354","524","-0.046875","-0.88378906","0.38867188","10.90625","4.6875","2.65625"
"1573646604354","525","-0.061523438","-0.859375","0.453125","3.09375","4.0","4.375"
"1573646604355","526","-0.072265625","-0.8466797","0.4482422","4.4375","3.21875","5.21875"
"1573646604355","527","-0.10644531","-0.859375","0.4404297","11.28125","7.90625","5.34375"
"1573646604355","528","-0.10449219","-0.8486328","0.44628906","9.8125","17.75","3.40625"
"1573646604355","529","-0.15917969","-0.8720703","0.46484375","2.375","29.90625","-3.3125"
"1573646604949","530","-0.08691406","-0.8457031","0.48242188","-7.34375","26.09375","-5.21875"
"1573646604950","531","-0.07421875","-0.81347656","0.48046875","23.71875","26.0","6.09375"
"1573646604950","532","-0.1171875","-0.8144531","0.46191406","33.90625","21.59375","9.125"
"1573646604950","533","-0.12402344","-0.73828125","0.51464844","32.46875","29.09375","16.09375"
"1573646604950","534","-0.17773438","-0.7675781","0.5390625","44.46875","26.53125","13.0"
"1573646604951","535","-0.078125","-0.7792969","0.6376953","35.625","20.375","16.84375"
"1573646604955","536","-0.27734375","-0.8388672","0.76464844","27.09375","25.3125","16.53125"
"1573646604955","537","-0.22753906","-0.7470703","0.6582031","37.34375","-5.625","13.28125"
"1573646604955","538","-0.31445312","-0.7548828","0.7841797","20.5625","22.1875","14.625"
"1573646604956","539","-0.38476562","-0.77734375","0.7324219","33.25","16.21875","11.9375"
"1573646605148","540","-0.34960938","-0.72753906","0.8330078","19.53125","17.3125","4.0"
"1573646605149","541","-0.27929688","-0.6142578","0.76953125","19.9375","0.90625","6.46875"
"1573646605149","542","-0.39453125","-0.7060547","0.7128906","5.125","4.875","5.34375"
"1573646605150","543","-0.3544922","-0.6591797","0.7080078","3.03125","14.09375","-5.8125"
"1573646605150","544","-0.31640625","-0.64941406","0.6894531","-7.875","1.9375","-7.09375"
"1573646605150","545","-0.3564453","-0.67089844","0.72265625","-13.875","6.625","-12.03125"
"1573646605151","546","-0.2998047","-0.71191406","0.69921875","-17.65625","-2.09375","-15.8125"
"1573646605151","547","-0.30859375","-0.67871094","0.66308594","-27.34375","0.78125","-14.25"
"1573646605152","548","-0.28125","-0.71191406","0.6123047","-29.875","-1.0625","-13.5"
"1573646605152","549","-0.28710938","-0.7001953","0.5722656","-33.34375","2.65625","-14.0"
"1573646605546","550","-0.28125","-0.6777344","0.5292969","-35.59375","-1.1875","-16.125"
"1573646605546","551","-0.27929688","-0.6855469","0.53222656","-37.90625","-0.75","-16.375"
"1573646605546","552","-0.24121094","-0.66796875","0.47851562","-28.15625","1.4375","-10.28125"
"1573646605548","553","-0.2890625","-0.67285156","0.49121094","-36.875","-2.53125","-13.75"
"1573646605548","554","-0.28808594","-0.7285156","0.41796875","-27.34375","0.0","-9.84375"
"1573646605548","555","-0.234375","-0.75683594","0.5048828","-26.6875","5.46875","-6.5"
"1573646605549","556","-0.20410156","-0.7236328","0.45117188","-29.75","-7.8125","-5.15625"
"1573646605549","557","-0.27246094","-0.7675781","0.46679688","-26.125","-3.625","-2.15625"
"1573646605549","558","-0.2783203","-0.765625","0.45703125","-25.84375","-1.125","-2.03125"
"1573646605549","559","-0.27734375","-0.8173828","0.43359375","-26.3125","-10.21875","-1.34375"
"1573646605943","560","-0.24902344","-0.8027344","0.39160156","-25.96875","-14.53125","-6.4375"
"1573646605943","561","-0.296875","-0.8095703","0.3720703","-14.78125","4.5","-8.0"
"1573646605943","562","-0.15917969","-0.9238281","0.4765625","-17.34375","2.5","-14.96875"
"1573646605944","563","-0.22851562","-0.79003906","0.43945312","-19.3125","-8.5","-9.21875"
"1573646605944","564","-0.12890625","-0.84277344","0.40234375","-12.71875","9.75","-15.34375"
"1573646605945","565","-0.171875","-0.86816406","0.50683594","-9.59375","4.1875","-8.5625"
"1573646605945","566","-0.26757812","-0.81347656","0.34570312","-11.78125","9.4375","-6.59375"
"1573646605946","567","-0.15332031","-0.8769531","0.37109375","-3.5625","15.90625","-15.34375"
"1573646605946","568","-0.15136719","-0.8847656","0.4658203","0.28125","15.71875","-9.71875"
"1573646605946","569","-0.18066406","-0.8574219","0.38378906","0.28125","9.03125","-9.28125"
"1573646606340","570","-0.115234375","-0.88671875","0.4169922","11.03125","4.9375","-4.65625"
"1573646606341","571","-0.12109375","-0.8251953","0.40527344","5.96875","-8.5","6.6875"
"1573646606341","572","-0.13964844","-0.9003906","0.46191406","9.5","-27.90625","12.25"
"1573646606341","573","-0.12011719","-0.796875","0.46679688","5.96875","-33.65625","16.78125"
"1573646606341","574","-0.15722656","-0.7832031","0.45214844","2.3125","-45.59375","36.90625"
"1573646606341","575","-0.1640625","-0.8701172","0.42285156","34.28125","-45.59375","31.0"
"1573646606342","576","-0.20703125","-0.88183594","0.4736328","22.625","-22.84375","32.03125"
"1573646606343","577","-0.25683594","-0.9111328","0.5","21.03125","-14.0","22.5625"
"1573646606343","578","-0.17480469","-0.8095703","0.4765625","18.34375","-7.28125","18.53125"
"1573646606343","579","-0.17285156","-0.80078125","0.49902344","21.15625","2.4375","12.625"
"1573646606737","580","-0.15332031","-0.7919922","0.4970703","18.53125","6.6875","6.8125"
"1573646606738","581","-0.10449219","-0.8330078","0.5263672","11.8125","6.46875","3.59375"
"1573646606738","582","-0.16796875","-0.8046875","0.5673828","0.09375","2.125","7.25"
"1573646606739","583","-0.24707031","-0.7871094","0.5078125","-0.8125","6.5","4.6875"
"1573646606739","584","-0.24902344","-0.66015625","0.48339844","-1.40625","8.96875","3.46875"
"1573646606739","585","-0.21484375","-0.5761719","0.37890625","8.28125","2.25","8.46875"
"1573646606739","586","-0.123046875","-0.7236328","0.45703125","11.03125","9.5","5.21875"
"1573646606740","587","-0.2626953","-0.7519531","0.59765625","-4.71875","-0.4375","9.375"
"1573646606740","588","-0.24121094","-0.6933594","0.5859375","2.125","-1.71875","8.71875"
"1573646606741","589","-0.265625","-0.6171875","0.5292969","5.53125","-5.03125","10.46875"
"1573646607134","590","-0.28320312","-0.6435547","0.59472656","7.8125","2.1875","18.28125"
"1573646607135","591","-0.37695312","-0.7011719","0.6347656","7.25","0.96875","15.4375"
"1573646607135","592","-0.23144531","-0.5966797","0.62109375","-1.125","-6.375","8.03125"
"1573646607135","593","-0.26953125","-0.7060547","0.57421875","-6.4375","-4.65625","6.09375"
"1573646607135","594","-0.296875","-0.5683594","0.5576172","-1.53125","13.09375","-3.5625"
"1573646607136","595","-0.3828125","-0.859375","0.71777344","17.625","46.125","-15.03125"
"1573646607136","596","-0.31835938","-0.89941406","0.66503906","18.125","30.4375","-29.0"
"1573646607136","597","-0.42773438","-1.1054688","0.8925781","20.0625","24.40625","-18.21875"
"1573646607136","598","-0.4189453","-1.0302734","0.6064453","-24.96875","8.21875","-18.03125"
"1573646607137","599","-0.20410156","-0.91503906","0.6542969","6.46875","15.5625","-24.90625"
"1573646607533","600","-0.2734375","-0.9082031","0.56152344","-24.78125","7.5","-11.78125"
"1573646607534","601","-0.24609375","-0.7597656","0.51953125","-12.46875","-0.75","-15.15625"
"1573646607534","602","-0.21875","-0.72753906","0.45214844","-46.09375","0.90625","-11.78125"
"1573646607534","603","-0.2783203","-0.83984375","0.41210938","-49.875","3.84375","-18.875"
"1573646607535","604","-0.32910156","-0.83496094","0.39257812","-59.40625","8.40625","-22.15625"
"1573646607535","605","-0.17578125","-0.8691406","0.3857422","-27.96875","9.875","-20.21875"
"1573646607535","606","-0.12890625","-0.81347656","0.42089844","-12.28125","0.40625","-11.125"
"1573646607535","607","-0.20214844","-0.87890625","0.36328125","-6.3125","-6.375","-4.53125"
"1573646607536","608","-0.19238281","-0.8769531","0.3857422","-0.5625","-2.28125","-6.53125"
"1573646607536","609","-0.21777344","-0.88183594","0.3798828","-11.96875","-3.96875","-2.53125"
"1573646607930","610","-0.2265625","-0.8886719","0.3720703","-8.0625","-2.03125","-5.15625"
"1573646607930","611","-0.16113281","-0.8730469","0.3125","-13.1875","-7.65625","-2.34375"
"1573646607931","612","-0.19140625","-0.8574219","0.3466797","-4.78125","-2.34375","1.6875"
"1573646607932","613","-0.19433594","-0.8847656","0.34765625","-6.0","-6.96875","0.34375"
"1573646607932","614","-0.17089844","-0.9121094","0.40820312","3.9375","-6.71875","-5.75"
"1573646607932","615","-0.2265625","-0.8076172","0.32714844","2.0625","-2.53125","-6.78125"
"1573646607933","616","-0.16894531","-0.8984375","0.45410156","11.9375","10.1875","-13.375"
"1573646607933","617","-0.20800781","-0.86328125","0.42382812","13.28125","12.1875","-14.25"
"1573646607933","618","-0.24707031","-0.8671875","0.421875","3.34375","27.9375","-15.625"
"1573646607933","619","-0.20214844","-0.8730469","0.4501953","6.03125","30.5625","-17.84375"
"1573646608328","620","-0.21679688","-0.9277344","0.421875","1.4375","36.0625","-16.625"
"1573646608328","621","-0.13574219","-0.9296875","0.43164062","5.0625","24.34375","-22.96875"
"1573646608329","622","-0.103515625","-0.95703125","0.41992188","-9.125","28.125","-17.59375"
"1573646608329","623","-0.17578125","-0.9482422","0.43164062","-0.8125","12.9375","-10.40625"
"1573646608329","624","-0.09667969","-0.78808594","0.30371094","-27.34375","-2.40625","-10.625"
"1573646608330","625","-0.12792969","-0.9189453","0.34179688","-16.625","6.40625","-7.8125"
"1573646608331","626","-0.119140625","-0.953125","0.41503906","-27.65625","-14.71875","-14.0"
"1573646608331","627","-0.13378906","-0.85546875","0.34277344","-26.875","-19.5","-13.9375"
"1573646608331","628","-0.1015625","-0.8779297","0.32910156","-19.65625","-16.4375","-9.15625"
"1573646608331","629","-0.19335938","-0.9082031","0.35742188","-22.0","-16.0625","-4.15625"
"1573646608921","630","-0.18945312","-0.98339844","0.3955078","-2.09375","-9.65625","-4.21875"
"1573646608921","631","-0.0390625","-0.91503906","0.3251953","-0.0625","-14.90625","-12.46875"
"1573646608922","632","0.0126953125","-0.89160156","0.34960938","-20.46875","-27.78125","-6.0625"
"1573646608922","633","-0.07421875","-0.91796875","0.328125","-17.84375","-49.34375","8.84375"
"1573646608922","634","-0.07128906","-0.9003906","0.3173828","-6.4375","-28.59375","12.75"
"1573646608922","635","-0.10839844","-0.8857422","0.3876953","0.78125","-20.15625","17.5"
"1573646608923","636","-0.109375","-0.9160156","0.40429688","1.28125","-15.21875","16.53125"
"1573646608924","637","-0.11425781","-0.96191406","0.3857422","7.84375","-2.6875","8.15625"
"1573646608924","638","-0.076171875","-0.90234375","0.3544922","10.0625","2.65625","-1.59375"
"1573646608924","639","0.041992188","-0.89746094","0.3642578","5.59375","-17.65625","0.84375"
"1573646609122","640","-0.060546875","-0.9199219","0.3720703","10.65625","-10.40625","3.65625"
"1573646609122","641","-0.08886719","-0.9140625","0.31835938","12.9375","-6.3125","-1.0"
"1573646609122","642","-0.08203125","-0.9169922","0.35839844","7.5","1.75","4.5625"
"1573646609123","643","-0.12011719","-0.9082031","0.36035156","15.4375","4.8125","2.125"
"1573646609123","644","-0.07910156","-0.9160156","0.3466797","16.53125","4.875","2.5"
"1573646609123","645","-0.053710938","-0.91308594","0.37109375","17.875","5.21875","0.96875"
"1573646609124","646","-0.044921875","-0.89746094","0.35253906","22.1875","0.96875","4.5625"
"1573646609124","647","-0.07324219","-0.86816406","0.35546875","15.125","-0.5625","5.21875"
"1573646609124","648","-0.111328125","-0.9316406","0.43945312","15.71875","20.25","5.53125"
"1573646609125","649","-0.23632812","-0.9501953","0.42578125","8.15625","17.4375","-4.46875"
"1573646609519","650","-0.09277344","-0.86816406","0.32910156","39.21875","2.78125","-3.625"
"1573646609520","651","-0.10253906","-0.84375","0.4501953","14.9375","12.375","6.03125"
"1573646609520","652","-0.041015625","-0.80859375","0.4609375","19.15625","13.03125","6.09375"
"1573646609520","653","-0.045898438","-0.8095703","0.47558594","26.96875","25.5625","17.625"
"1573646609520","654","-0.1171875","-0.8798828","0.53808594","19.53125","26.59375","12.875"
"1573646609521","655","-0.12988281","-0.87109375","0.5449219","28.71875","21.90625","17.5625"
"1573646609521","656","-0.13574219","-0.79785156","0.6533203","34.40625","27.28125","6.15625"
"1573646609521","657","-0.17382812","-0.88378906","0.70996094","26.53125","28.375","10.46875"
"1573646609521","658","-0.26367188","-0.9189453","0.8222656","32.15625","26.28125","7.90625"
"1573646609522","659","-0.29492188","-0.80859375","0.7519531","42.59375","-1.84375","11.28125"
"1573646609918","660","-0.2734375","-0.7080078","0.6953125","38.375","8.84375","8.15625"
"1573646609919","661","-0.21484375","-0.6376953","0.66015625","16.40625","7.25","9.25"
"1573646609919","662","-0.2763672","-0.69921875","0.67871094","-0.1875","2.96875","9.6875"
"1573646609919","663","-0.29101562","-0.70214844","0.7011719","-9.53125","-3.625","7.125"
"1573646609920","664","-0.3310547","-0.66796875","0.6640625","-11.78125","2.0","2.25"
"1573646609921","665","-0.31640625","-0.6826172","0.72753906","-28.34375","0.46875","-2.625"
"1573646609921","666","-0.29882812","-0.7011719","0.5576172","-16.375","-0.9375","0.15625"
"1573646609921","667","-0.2861328","-0.66308594","0.6220703","-28.09375","-5.09375","-1.78125"
"1573646609921","668","-0.28710938","-0.6982422","0.5527344","-18.21875","-10.40625","-1.71875"
"1573646609921","669","-0.27539062","-0.7060547","0.5214844","-25.71875","-2.21875","-7.8125"
"1573646610316","670","-0.21484375","-0.68066406","0.4892578","-28.03125","-2.625","-7.09375"
"1573646610317","671","-0.22753906","-0.7128906","0.49121094","-32.90625","-0.75","-9.15625"
"1573646610318","672","-0.24511719","-0.7597656","0.5097656","-25.84375","0.84375","-10.875"
"1573646610319","673","-0.25097656","-0.7480469","0.47851562","-22.46875","-1.78125","-7.8125"
"1573646610319","674","-0.2705078","-0.7685547","0.49414062","-30.28125","6.40625","-7.53125"
"1573646610319","675","-0.2763672","-0.796875","0.46777344","-29.5625","2.0625","-10.5"
"1573646610320","676","-0.22460938","-0.80078125","0.4501953","-28.65625","-4.96875","-12.84375"
"1573646610320","677","-0.22558594","-0.8095703","0.40429688","-28.65625","-8.3125","-9.71875"
"1573646610320","678","-0.26464844","-0.85058594","0.45996094","-23.75","2.25","-9.40625"
"1573646610321","679","-0.18261719","-0.8066406","0.4189453","-34.8125","-16.375","-16.75"
"1573646610713","680","-0.19238281","-0.87402344","0.3515625","-28.875","-13.875","-18.375"
"1573646610713","681","-0.28710938","-0.83496094","0.4169922","-44.375","-6.375","-18.25"
"1573646610714","682","-0.3154297","-0.9316406","0.36328125","-18.5","1.5","-22.15625"
"1573646610714","683","-0.20019531","-0.8642578","0.375","-12.34375","12.3125","-24.125"
"1573646610714","684","-0.15820312","-0.79785156","0.4345703","-10.5","12.3125","-19.4375"
"1573646610715","685","-0.14257812","-0.85839844","0.36132812","-3.125","13.09375","-10.5625"
"1573646610716","686","-0.119140625","-0.85546875","0.3544922","-1.40625","16.9375","-7.34375"
"1573646610716","687","-0.13476562","-0.8574219","0.3955078","3.46875","19.46875","0.65625"
"1573646610716","688","-0.13378906","-0.86621094","0.4609375","19.875","20.96875","-2.59375"
"1573646610717","689","-0.06640625","-0.82714844","0.4189453","27.28125","-1.1875","3.59375"
"1573646611110","690","-0.072265625","-0.83984375","0.42382812","23.53125","-9.96875","11.40625"
"1573646611110","691","-0.06640625","-0.83496094","0.4765625","27.5","-10.5625","6.03125"
"1573646611110","692","-0.048828125","-0.8251953","0.421875","25.4375","-27.90625","23.71875"
"1573646611111","693","-0.13476562","-0.8886719","0.48242188","15.65625","-20.46875","23.96875"
"1573646611111","694","-0.15039062","-0.89746094","0.5185547","6.9375","-8.75","11.8125"
"1573646611111","695","-0.15722656","-0.93359375","0.46289062","14.5","0.96875","11.9375"
"1573646611111","696","-0.18066406","-0.82421875","0.4560547","10.71875","8.90625","6.9375"
"1573646611112","697","-0.17480469","-0.78515625","0.49902344","8.59375","16.53125","5.34375"
"1573646611113","698","-0.14355469","-0.76660156","0.42382812","26.71875","19.9375","1.875"
"1573646611113","699","-0.10644531","-0.7841797","0.4501953","1.6875","18.0","-3.375"
"1573646611507","700","-0.016601562","-0.89941406","0.48632812","-5.3125","6.625","-3.96875"
"1573646611508","701","-0.17675781","-0.8144531","0.60253906","-0.9375","5.84375","6.46875"
"1573646611509","702","-0.19433594","-0.65625","0.4404297","-1.125","-8.9375","8.15625"
"1573646611509","703","-0.13574219","-0.76171875","0.4453125","0.78125","-9.84375","13.28125"
"1573646611509","704","-0.22265625","-0.76464844","0.4794922","-1.40625","-3.0625","18.71875"
"1573646611510","705","-0.23339844","-0.7138672","0.5048828","0.78125","0.15625","16.28125"
"1573646611510","706","-0.2783203","-0.6826172","0.55566406","4.4375","3.53125","18.96875"
"1573646611510","707","-0.2998047","-0.5761719","0.47460938","11.40625","11.03125","21.46875"
"1573646611510","708","-0.2548828","-0.69921875","0.54589844","13.0","18.40625","10.90625"
"1573646611511","709","-0.18261719","-0.6826172","0.47558594","-6.1875","1.6875","2.125"
"1573646612104","710","-0.3046875","-0.6767578","0.5234375","-4.46875","24.53125","5.59375"
"1573646612105","711","-0.33789062","-0.80371094","0.5810547","17.4375","31.65625","-3.1875"
"1573646612105","712","-0.40722656","-0.94921875","0.65234375","2.4375","38.75","-5.4375"
"1573646612105","713","-0.30371094","-1.0507812","0.69140625","11.71875","17.75","-12.84375"
"1573646612105","714","-0.17285156","-0.86328125","0.58496094","-13.25","-43.90625","-1.78125"
"1573646612106","715","-0.4716797","-0.9169922","0.4892578","-9.84375","5.96875","18.125"
"1573646612106","716","-0.45410156","-1.1318359","0.58691406","3.34375","13.15625","-13.75"
"1573646612106","717","-0.22460938","-0.84277344","0.50390625","-31.6875","-26.6875","-14.1875"
"1573646612106","718","-0.30664062","-0.8378906","0.4404297","-1.0625","9.4375","3.53125"
"1573646612107","719","-0.3642578","-0.91503906","0.5029297","-10.5","10.53125","-14.46875"
"1573646612303","720","-0.203125","-0.81933594","0.4404297","-16.875","-1.40625","-11.25"
"1573646612304","721","-0.14550781","-0.81933594","0.43066406","-11.1875","-3.96875","-5.625"
"1573646612304","722","-0.31445312","-0.9033203","0.35546875","-18.875","7.84375","-6.125"
"1573646612304","723","-0.2919922","-0.8779297","0.37402344","-32.125","-0.75","-13.5625"
"1573646612305","724","-0.06640625","-0.875","0.4169922","-6.4375","-2.15625","-8.8125"
"1573646612305","725","-0.10546875","-0.88378906","0.38378906","-18.875","-26.5","-3.3125"
"1573646612305","726","-0.30371094","-0.9345703","0.3408203","-19.375","-13.125","2.3125"
"1573646612306","727","-0.25195312","-0.9345703","0.3701172","-19.59375","-6.5","-2.46875"
"1573646612306","728","-0.23242188","-0.8798828","0.31152344","-23.75","-14.1875","0.71875"
"1573646612306","729","-0.18164062","-0.8466797","0.2421875","-18.09375","-3.4375","-3.4375"
"1573646612700","730","-0.15527344","-0.921875","0.31445312","-11.1875","5.71875","-2.28125"
"1573646612700","731","-0.2529297","-0.8808594","0.2919922","-16.625","8.21875","-1.65625"
"1573646612701","732","-0.13574219","-0.94433594","0.36132812","-17.34375","5.40625","-1.71875"
"1573646612702","733","-0.18652344","-0.91308594","0.34765625","10.96875","-2.625","-10.9375"
"1573646612702","734","-0.35351562","-0.8925781","0.37597656","-2.46875","3.28125","-6.5"
"1573646612702","735","-0.25195312","-0.93359375","0.36035156","20.25","18.40625","-13.5625"
"1573646612702","736","-0.234375","-0.88378906","0.36523438","0.90625","14.75","-10.5625"
"1573646612703","737","-0.24316406","-0.8642578","0.36328125","3.03125","26.03125","-14.84375"
"1573646612703","738","-0.115234375","-0.9042969","0.33984375","0.96875","21.53125","-21.8125"
"1573646612703","739","-0.17871094","-1.0371094","0.46191406","-1.3125","29.40625","-12.78125"
"1573646613098","740","-0.38183594","-0.91503906","0.48339844","-0.625","27.8125","-7.03125"
"1573646613098","741","0.05859375","-0.73339844","0.32617188","-6.53125","-9.40625","-11.71875"
"1573646613098","742","-0.038085938","-0.86035156","0.3671875","-8.625","10.125","-9.59375"
"1573646613099","743","-0.16796875","-0.96875","0.44335938","-16.875","1.75","-5.75"
"1573646613099","744","-0.140625","-0.8203125","0.4189453","-18.4375","-9.84375","-3.90625"
"1573646613099","745","-0.14257812","-0.84375","0.3359375","-9.125","-14.90625","0.34375"
"1573646613099","746","-0.18164062","-0.8486328","0.30371094","-3.8125","-13.25","1.03125"
"1573646613100","747","-0.24121094","-0.89941406","0.35546875","5.90625","4.375","7.125"
"1573646613100","748","-0.25585938","-1.0","0.5","7.90625","10.84375","2.78125"
"1573646613100","749","0.0390625","-0.90625","0.4296875","8.40625","-37.4375","-11.5"
"1573646613495","750","0.078125","-0.87597656","0.2578125","14.5625","-64.28125","-0.1875"
"1573646613496","751","-0.16601562","-0.9091797","0.40429688","-21.1875","-42.9375","7.125"
"1573646613496","752","-0.19042969","-0.8808594","0.39257812","-7.78125","-39.5","10.90625"
"1573646613496","753","-0.13964844","-0.9140625","0.3935547","-11.0","-36.5625","12.0625"
"1573646613496","754","-0.14746094","-0.92578125","0.3984375","-0.875","-23.5","10.59375"
"1573646613497","755","-0.13964844","-0.89160156","0.37402344","5.59375","-17.46875","8.46875"
"1573646613497","756","-0.15820312","-0.9277344","0.40039062","14.75","-7.65625","7.5625"
"1573646613498","757","-0.17089844","-0.8847656","0.3701172","23.3125","4.1875","0.71875"
"1573646613499","758","-0.09082031","-0.89160156","0.4140625","23.1875","6.5625","0.53125"
"1573646613499","759","-0.10644531","-0.86816406","0.41015625","34.28125","19.53125","0.34375"
"1573646613892","760","-0.076171875","-0.8173828","0.41796875","32.625","24.03125","4.6875"
"1573646613892","761","-0.04296875","-0.859375","0.45410156","34.65625","13.53125","8.03125"
"1573646613893","762","-0.06347656","-0.86816406","0.46289062","27.09375","8.46875","9.6875"
"1573646613893","763","-0.14160156","-0.8486328","0.4970703","27.9375","9.25","12.1875"
"1573646613893","764","-0.13378906","-0.83496094","0.47265625","31.0","4.75","9.9375"
"1573646613893","765","-0.12109375","-0.82714844","0.5185547","29.9375","3.78125","11.15625"
"1573646613894","766","-0.14648438","-0.8203125","0.51171875","21.15625","9.9375","10.71875"
"1573646613894","767","-0.10839844","-0.83691406","0.5107422","28.125","16.78125","6.6875"
"1573646613894","768","-0.10839844","-0.7890625","0.5673828","15.625","12.625","4.75"
"1573646613895","769","-0.12207031","-0.796875","0.5908203","29.9375","11.9375","13.40625"
"1573646614488","770","-0.22167969","-0.79589844","0.6748047","25.5","18.90625","15.65625"
"1573646614488","771","-0.2529297","-0.8144531","0.6923828","17.4375","10.1875","8.84375"
"1573646614489","772","-0.20214844","-0.8017578","0.74609375","25.4375","8.03125","0.65625"
"1573646614489","773","-0.22753906","-0.83691406","0.8925781","28.625","15.96875","8.34375"
"1573646614489","774","-0.49902344","-0.7548828","0.8222656","8.84375","12.375","-0.1875"
"1573646614489","775","-0.41992188","-0.6533203","0.68066406","18.0625","25.0625","-6.78125"
"1573646614490","776","-0.26660156","-0.7138672","0.74316406","5.34375","23.375","-8.0"
"1573646614490","777","-0.33496094","-0.67871094","0.7080078","-8.3125","14.28125","-9.0"
"1573646614490","778","-0.2998047","-0.65527344","0.6904297","-13.375","15.25","-10.21875"
"1573646614490","779","-0.34179688","-0.6738281","0.67578125","-21.5","4.75","-9.40625"
"1573646614687","780","-0.33203125","-0.6582031","0.62597656","-14.65625","2.65625","-7.40625"
"1573646614689","781","-0.31347656","-0.6738281","0.59765625","-28.28125","-0.4375","-8.875"
"1573646614689","782","-0.25878906","-0.65234375","0.5527344","-31.875","-6.375","-8.6875"
"1573646614690","783","-0.26660156","-0.6533203","0.5546875","-23.28125","-1.34375","0.0"
"1573646614690","784","-0.2578125","-0.6308594","0.5058594","-48.0625","-1.125","-6.375"
"1573646614690","785","-0.23828125","-0.6689453","0.45214844","-34.0","-6.3125","-1.0625"
"1573646614690","786","-0.27148438","-0.6767578","0.47070312","-32.5625","-2.625","1.375"
"1573646614691","787","-0.28027344","-0.7265625","0.4873047","-29.25","-0.5","-2.34375"
"1573646614691","788","-0.2734375","-0.7421875","0.48632812","-27.1875","-4.09375","-2.875"
"1573646614691","789","-0.3154297","-0.76171875","0.46191406","-29.0","-3.125","-7.8125"
"1573646615084","790","-0.28710938","-0.7939453","0.4736328","-18.25","0.15625","-5.75"
"1573646615085","791","-0.3017578","-0.80566406","0.4638672","-22.125","-0.9375","-6.65625"
"1573646615085","792","-0.2919922","-0.828125","0.46289062","-19.4375","3.15625","-9.15625"
"1573646615085","793","-0.2841797","-0.8339844","0.39941406","-25.78125","-3.1875","-13.3125"
"1573646615087","794","-0.30859375","-0.7470703","0.4111328","-16.6875","6.5","-8.5625"
"1573646615087","795","-0.27148438","-0.9199219","0.41503906","-16.1875","9.4375","-15.40625"
"1573646615087","796","-0.23144531","-0.9238281","0.44433594","-26.03125","-3.5","-19.78125"
"1573646615088","797","-0.2705078","-0.8076172","0.29003906","-29.625","0.28125","-18.3125"
"1573646615088","798","-0.25097656","-0.8847656","0.3408203","-21.375","13.65625","-18.25"
"1573646615088","799","-0.16796875","-0.82714844","0.35742188","-22.46875","6.28125","-19.65625"
"1573646615679","800","-0.20117188","-0.875","0.4091797","0.84375","6.6875","-11.625"
"1573646615680","801","-0.2548828","-0.92089844","0.40234375","-4.21875","7.1875","-14.34375"
"1573646615680","802","-0.13671875","-0.8466797","0.36914062","-13.1875","7.96875","-20.78125"
"1573646615680","803","-0.11621094","-0.8535156","0.34960938","-8.5625","-2.40625","-13.03125"
"1573646615681","804","-0.15039062","-0.9160156","0.3935547","5.65625","5.78125","-12.59375"
"1573646615682","805","-0.13867188","-0.85839844","0.3564453","-8.6875","-6.0","-15.8125"
"1573646615682","806","-0.1171875","-0.8544922","0.3564453","5.53125","-12.28125","-5.75"
"1573646615682","807","-0.1796875","-0.88183594","0.3935547","17.375","-1.40625","-2.75"
"1573646615683","808","-0.12988281","-0.88378906","0.43554688","24.8125","-9.90625","-2.09375"
"1573646615683","809","-0.045898438","-0.8769531","0.4169922","15.25","-22.21875","1.4375"
"1573646615879","810","-0.08886719","-0.8691406","0.43847656","23.78125","-9.90625","2.5625"
"1573646615880","811","-0.08886719","-0.87109375","0.42089844","13.0","-19.0625","4.4375"
"1573646615880","812","-0.19042969","-0.9121094","0.45898438","15.5625","15.4375","0.40625"
"1573646615880","813","-0.14355469","-0.89453125","0.46484375","3.90625","22.25","-16.125"
"1573646615881","814","-0.061523438","-0.8535156","0.43164062","17.75","18.28125","-9.40625"
"1573646615881","815","0.017578125","-0.7451172","0.44433594","3.34375","9.8125","-13.625"
"1573646615881","816","0.026367188","-0.8378906","0.42578125","-0.3125","-2.28125","-4.21875"
"1573646615882","817","-0.032226562","-0.74902344","0.3828125","-22.46875","-3.375","0.09375"
"1573646615883","818","0.033203125","-0.87597656","0.4248047","-35.125","6.28125","14.375"
"1573646615883","819","-0.2109375","-0.86328125","0.4638672","-28.6875","41.0625","20.75"
"1573646616277","820","-0.45996094","-0.671875","0.41210938","19.21875","49.0625","13.53125"
"1573646616277","821","-0.0625","-0.7753906","0.31152344","12.1875","-6.375","-6.1875"
"1573646616278","822","0.041015625","-0.91015625","0.5566406","40.15625","22.5625","4.0"
"1573646616278","823","-0.25878906","-0.6533203","0.3984375","22.875","-3.375","14.5"
"1573646616278","824","-0.15917969","-0.8076172","0.54296875","19.75","19.46875","12.9375"
"1573646616278","825","-0.22851562","-0.69140625","0.5605469","18.46875","-9.0","16.53125"
"1573646616279","826","-0.22558594","-0.82910156","0.5332031","20.3125","7.375","16.15625"
"1573646616279","827","-0.24121094","-0.69628906","0.5908203","20.375","-9.34375","11.28125"
"1573646616279","828","-0.20117188","-0.71875","0.4423828","16.09375","5.40625","13.0"
"1573646616280","829","-0.2421875","-0.76464844","0.53125","-9.0625","14.875","6.5625"
"1573646616675","830","-0.39941406","-0.9902344","0.5654297","1.15625","53.625","3.53125"
"1573646616676","831","-0.265625","-1.2148438","0.6123047","-5.6875","7.1875","-12.90625"
"1573646616676","832","-0.23339844","-1.0791016","0.5908203","-24.0","-8.25","-2.46875"
"1573646616676","833","-0.3251953","-1.1787109","0.48242188","-16.0625","9.09375","-2.875"
"1573646616677","834","-0.14746094","-1.0068359","0.52734375","-10.40625","-20.40625","-8.25"
"1573646616677","835","-0.13378906","-0.66308594","0.43359375","-11.5","-24.75","18.96875"
"1573646616677","836","-0.36523438","-0.7470703","0.40234375","-5.09375","2.59375","22.1875"
"1573646616678","837","-0.33203125","-1.1064453","0.49804688","-3.0625","11.65625","-13.03125"
"1573646616678","838","-0.14648438","-0.9033203","0.45898438","-42.96875","-26.9375","-15.53125"
"1573646616678","839","-0.11328125","-0.67578125","0.3076172","-10.34375","-4.59375","5.53125"
"1573646617072","840","-0.2265625","-0.8886719","0.3544922","-9.21875","5.0","5.0625"
"1573646617073","841","-0.18359375","-0.8876953","0.41992188","-3.125","3.15625","-2.15625"
"1573646617073","842","-0.22070312","-0.9189453","0.42089844","-3.375","5.40625","-1.59375"
"1573646617074","843","-0.19042969","-0.90527344","0.4111328","-6.71875","-3.125","-1.71875"
"1573646617074","844","-0.22460938","-0.8486328","0.38671875","-16.9375","-5.3125","-0.6875"
"1573646617074","845","-0.19433594","-0.79589844","0.32617188","-10.03125","-3.8125","-1.59375"
"1573646617074","846","-0.18945312","-0.8496094","0.34472656","-5.875","1.625","0.90625"
"1573646617075","847","-0.24316406","-0.7705078","0.40527344","14.5625","-1.0","10.90625"
"1573646617075","848","-0.28222656","-0.8544922","0.44628906","24.59375","2.71875","18.0"
"1573646617075","849","-0.24804688","-0.8876953","0.5185547","31.28125","4.6875","11.71875"
"1573646617469","850","-0.29101562","-0.859375","0.47753906","16.65625","8.15625","14.28125"
"1573646617470","851","-0.29589844","-0.8105469","0.42089844","9.6875","11.40625","8.71875"
"1573646617470","852","-0.2783203","-0.8486328","0.44921875","7.90625","22.9375","11.03125"
"1573646617471","853","-0.26171875","-0.8330078","0.4296875","11.03125","12.1875","2.5"
"1573646617471","854","-0.2861328","-0.81347656","0.43554688","11.9375","9.375","5.78125"
"1573646617472","855","-0.23144531","-0.8876953","0.4814453","16.65625","2.96875","-5.03125"
"1573646617472","856","-0.2529297","-0.83203125","0.4736328","-6.25","-13.5625","-8.375"
"1573646617472","857","-0.45410156","-0.85058594","0.5214844","-4.65625","10.53125","-8.625"
"1573646617473","858","-0.30273438","-0.99902344","0.5185547","-12.40625","9.3125","-20.53125"
"1573646617473","859","-0.07421875","-0.73535156","0.3720703","-45.90625","-35.84375","-21.5"
"1573646617868","860","-0.033203125","-0.81933594","0.328125","-26.625","-16.4375","-13.375"
"1573646617868","861","-0.2939453","-1.0009766","0.4560547","-27.0","-5.75","-20.09375"
"1573646617869","862","-0.21777344","-0.8261719","0.4169922","-50.0","-29.375","-17.90625"
"1573646617869","863","-0.24511719","-0.7988281","0.33789062","-34.625","-24.0","-14.78125"
"1573646617869","864","-0.26171875","-0.9316406","0.42382812","-15.6875","-3.96875","-17.65625"
"1573646617870","865","-0.17382812","-0.88671875","0.47265625","-13.1875","-27.84375","-12.40625"
"1573646617871","866","0.0087890625","-0.8095703","0.4892578","7.3125","-73.6875","3.09375"
"1573646617871","867","0.043945312","-0.7001953","0.4091797","-7.09375","-46.21875","24.875"
"1573646617871","868","-0.3515625","-0.94140625","0.3955078","6.03125","-35.0","23.90625"
"1573646617872","869","-0.21289062","-0.92089844","0.34179688","7.75","-23.09375","10.59375"
"1573646618264","870","-0.12988281","-0.9238281","0.4892578","14.875","7.125","3.03125"
"1573646618265","871","-0.015625","-0.8964844","0.4404297","20.6875","-12.71875","-6.71875"
"1573646618265","872","9.765625E-4","-0.9013672","0.42578125","29.53125","-13.0625","-3.1875"
"1573646618265","873","-0.091796875","-0.8984375","0.4375","-2.09375","-5.6875","-5.25"
"1573646618265","874","-0.076171875","-0.8857422","0.4189453","9.75","-6.1875","-2.46875"
"1573646618266","875","-0.08984375","-0.8808594","0.43652344","13.0","-2.40625","-2.625"
"1573646618266","876","-0.07519531","-0.86328125","0.43652344","13.40625","3.40625","-2.9375"
"1573646618267","877","-0.040039062","-0.86816406","0.42773438","11.75","-1.40625","-0.375"
"1573646618267","878","-0.026367188","-0.8417969","0.39453125","23.78125","-11.625","3.34375"
"1573646618268","879","-0.06640625","-0.8730469","0.4736328","26.90625","1.3125","11.59375"
"1573646618861","880","-0.10839844","-0.8417969","0.48242188","19.09375","12.375","10.0625"
"1573646618862","881","-0.029296875","-0.84765625","0.5097656","14.625","4.5625","3.34375"
"1573646618862","882","-0.061523438","-0.8300781","0.4921875","15.96875","2.96875","10.84375"
"1573646618862","883","-0.04296875","-0.7910156","0.49414062","29.03125","4.0625","12.25"
"1573646618863","884","-0.0625","-0.7519531","0.5654297","42.65625","11.53125","24.03125"
"1573646618863","885","-0.00390625","-0.7919922","0.6699219","75.59375","-21.0625","42.15625"
"1573646618863","886","-0.24316406","-0.75878906","0.73046875","64.4375","1.3125","27.8125"
"1573646618863","887","-0.4658203","-0.8515625","0.9316406","72.0","47.09375","23.46875"
"1573646618864","888","-0.16601562","-0.703125","1.0996094","8.15625","11.15625","-2.15625"
"1573646618865","889","-0.34570312","-0.7285156","0.8076172","-0.6875","9.09375","6.8125"
"1573646619060","890","-0.25585938","-0.61328125","0.8388672","3.34375","19.5625","-3.0625"
"1573646619060","891","-0.26660156","-0.53027344","0.6660156","-22.96875","11.65625","6.21875"
"1573646619060","892","-0.33984375","-0.61816406","0.7060547","-2.8125","21.21875","2.125"
"1573646619061","893","-0.29003906","-0.6298828","0.7216797","-17.65625","8.15625","-1.34375"
"1573646619061","894","-0.3173828","-0.5722656","0.68359375","-15.8125","4.75","0.96875"
"1573646619061","895","-0.27441406","-0.6113281","0.6621094","-28.9375","2.59375","0.34375"
"1573646619061","896","-0.31835938","-0.65234375","0.67089844","-27.53125","9.1875","-0.875"
"1573646619062","897","-0.3330078","-0.60253906","0.578125","-35.71875","10.53125","-4.65625"
"1573646619062","898","-0.29882812","-0.64453125","0.5917969","-41.59375","9.5","-7.78125"
"1573646619062","899","-0.28222656","-0.6230469","0.5546875","-32.5625","12.3125","-5.75"
"1573646619457","900","-0.29785156","-0.65625","0.546875","-37.1875","13.09375","-9.59375"
"1573646619458","901","-0.28515625","-0.65722656","0.4453125","-26.9375","10.53125","-10.5625"
"1573646619459","902","-0.28320312","-0.74316406","0.52246094","-30.03125","11.65625","-12.09375"
"1573646619459","903","-0.26757812","-0.72753906","0.48339844","-19.96875","-2.625","-14.34375"
"1573646619459","904","-0.19628906","-0.76171875","0.4736328","-12.84375","-14.3125","-9.53125"
"1573646619459","905","-0.24804688","-0.7705078","0.53027344","-17.96875","-5.25","-4.65625"
"1573646619460","906","-0.25390625","-0.7607422","0.5126953","-27.0","-12.03125","-6.78125"
"1573646619460","907","-0.28125","-0.79785156","0.47460938","-32.375","-16.375","-7.09375"
"1573646619460","908","-0.28710938","-0.81347656","0.43554688","-28.65625","-10.5625","-11.84375"
"1573646619461","909","-0.30566406","-0.82910156","0.43164062","-29.125","-8.4375","-15.40625"
"1573646619856","910","-0.25195312","-0.8408203","0.4404297","-22.78125","0.15625","-15.03125"
"1573646619856","911","-0.24707031","-0.83984375","0.41015625","-32.96875","-3.5","-16.4375"
"1573646619857","912","-0.23242188","-0.9121094","0.36914062","-34.375","1.09375","-18.25"
"1573646619857","913","-0.28808594","-0.8671875","0.37597656","-31.375","15.90625","-18.6875"
"1573646619858","914","-0.23730469","-0.83691406","0.3779297","-20.28125","16.34375","-22.0"
"1573646619858","915","-0.2529297","-0.8515625","0.4326172","-0.6875","26.78125","-15.15625"
"1573646619858","916","-0.2685547","-0.8144531","0.3955078","13.40625","28.65625","-17.34375"
"1573646619859","917","-0.123046875","-0.7939453","0.38183594","26.0","26.09375","-15.59375"
"1573646619859","918","-0.08203125","-0.8173828","0.47070312","23.71875","18.53125","-11.0"
"1573646619859","919","-0.045898438","-0.7783203","0.4140625","27.15625","-13.4375","1.15625"
"1573646620252","920","-0.0029296875","-0.79589844","0.45410156","21.78125","-29.3125","5.21875"
"1573646620252","921","-0.07421875","-0.8984375","0.5185547","24.53125","-18.09375","17.6875"
"1573646620253","922","-0.18457031","-0.92285156","0.5361328","8.84375","-9.0625","10.1875"
"1573646620253","923","-0.15722656","-0.87890625","0.51953125","12.9375","3.21875","5.34375"
"1573646620253","924","-0.19238281","-0.83203125","0.48339844","9.25","7.90625","0.90625"
"1573646620254","925","-0.09667969","-0.81347656","0.4560547","12.75","3.90625","-7.15625"
"1573646620254","926","-0.07519531","-0.8330078","0.4951172","3.90625","7.25","-6.125"
"1573646620255","927","-0.09863281","-0.85839844","0.5332031","-6.25","9.625","-2.8125"
"1573646620255","928","-0.1328125","-0.80859375","0.49609375","-7.9375","13.78125","-1.71875"
"1573646620255","929","-0.10644531","-0.8066406","0.5292969","-11.84375","11.34375","2.125"
"1573646620650","930","-0.11035156","-0.86328125","0.50878906","-13.9375","6.8125","3.46875"
"1573646620650","931","-0.18457031","-0.8222656","0.55859375","-13.625","18.46875","6.9375"
"1573646620650","932","-0.24609375","-0.8173828","0.4970703","-8.5","13.90625","6.15625"
"1573646620651","933","-0.15429688","-0.734375","0.41210938","5.53125","4.5625","1.09375"
"1573646620651","934","-0.12988281","-0.7636719","0.515625","-24.625","2.59375","2.0"
"1573646620651","935","-0.16992188","-0.69140625","0.38476562","-8.0625","0.46875","6.28125"
"1573646620652","936","-0.23925781","-0.6748047","0.43847656","-18.5","7.84375","11.9375"
"1573646620653","937","-0.20019531","-0.7011719","0.48242188","-14.90625","12.1875","8.84375"
"1573646620653","938","-0.2919922","-0.7138672","0.4091797","-14.0","18.59375","13.03125"
"1573646620653","939","-0.28125","-0.6503906","0.46191406","1.8125","30.75","4.8125"
"1573646621243","940","-0.2529297","-0.7050781","0.4482422","-2.21875","36.90625","3.90625"
"1573646621244","941","-0.3203125","-0.8173828","0.38085938","15.4375","32.34375","-4.46875"
"1573646621244","942","-0.43359375","-1.1171875","0.5185547","30.5625","59.875","2.375"
"1573646621245","943","-0.234375","-1.21875","0.6425781","12.75","23.125","-18.5625"
"1573646621245","944","-0.23046875","-0.93066406","0.4580078","-37.0","-38.09375","-0.875"
"1573646621245","945","-0.40527344","-1.2138672","0.32617188","-3.6875","32.21875","5.21875"
"1573646621245","946","-0.3671875","-1.5742188","0.4326172","-5.21875","3.28125","-27.34375"
"1573646621246","947","0.10058594","-0.484375","0.3955078","-24.84375","-47.9375","-13.6875"
"1573646621246","948","-0.25683594","-0.6376953","0.28125","1.8125","-32.125","51.5625"
"1573646621246","949","-0.51171875","-1.0917969","0.23046875","4.0625","3.21875","15.3125"
"1573646621447","950","-0.36914062","-0.9511719","0.46679688","-15.03125","-7.53125","-17.90625"
"1573646621448","951","-0.109375","-0.7949219","0.3076172","-11.3125","-3.6875","-15.15625"
"1573646621448","952","-0.05078125","-0.86328125","0.33496094","4.9375","-0.4375","-15.75"
"1573646621448","953","-0.2939453","-0.88378906","0.39453125","-10.6875","-2.625","1.75"
"1573646621449","954","-0.22949219","-0.9580078","0.34960938","-17.15625","-1.59375","-13.8125"
"1573646621449","955","-0.12207031","-0.9091797","0.31445312","-18.5625","-13.375","-12.71875"
"1573646621449","956","-0.21386719","-0.87597656","0.29296875","-11.0625","-7.28125","-3.3125"
"1573646621449","957","-0.21777344","-0.8964844","0.27734375","-7.15625","-5.625","-7.8125"
"1573646621450","958","-0.2265625","-0.8779297","0.30371094","-0.75","-1.1875","-3.3125"
"1573646621450","959","-0.24511719","-0.91308594","0.3486328","3.71875","7.25","-4.46875"
"1573646621845","960","-0.24902344","-0.9199219","0.35253906","-2.8125","2.25","-8.25"
"1573646621846","961","-0.25976562","-0.89453125","0.36132812","15.5625","16.9375","-1.78125"
"1573646621847","962","-0.17382812","-0.9082031","0.40039062","11.40625","20.625","-5.4375"
"1573646621847","963","-0.20605469","-0.8730469","0.36523438","8.59375","9.125","-2.34375"
"1573646621847","964","-0.30273438","-0.85839844","0.34570312","13.03125","20.25","0.46875"
"1573646621848","965","-0.20898438","-0.8730469","0.41503906","11.28125","28.5","-8.4375"
"1573646621848","966","-0.203125","-0.9033203","0.36035156","11.40625","18.40625","-6.0625"
"1573646621848","967","-0.23925781","-0.9111328","0.35253906","-5.5625","18.59375","-8.75"
"1573646621848","968","-0.18847656","-0.9003906","0.375","-0.1875","8.15625","-12.65625"
"1573646621849","969","-0.16113281","-1.0029297","0.44335938","1.8125","5.0625","-14.0625"
"1573646622435","970","-0.20019531","-0.89941406","0.3251953","-23.9375","-11.96875","-14.46875"
"1573646622435","971","-0.087890625","-0.83984375","0.2919922","-20.9375","-11.5","-15.75"
"1573646622436","972","-0.15820312","-0.93359375","0.36132812","-15.625","-15.53125","-11.90625"
"1573646622437","973","-0.19335938","-0.9765625","0.3642578","-20.65625","-24.6875","-18.9375"
"1573646622437","974","-0.111328125","-0.87597656","0.3388672","-19.78125","-24.90625","-17.28125"
"1573646622437","975","-0.15332031","-0.89941406","0.32421875","-16.8125","-21.6875","-10.4375"
"1573646622438","976","-0.12109375","-0.9267578","0.38476562","-13.625","-21.125","-14.71875"
"1573646622438","977","-0.08300781","-0.8623047","0.37109375","-4.40625","-24.5","-9.90625"
"1573646622438","978","-0.044921875","-0.82714844","0.32714844","-8.75","-38.34375","-6.71875"
"1573646622439","979","-0.08203125","-0.94628906","0.359375","1.3125","-7.8125","-2.625"
"1573646622637","980","-0.111328125","-0.9580078","0.4140625","-10.15625","-10.5625","-13.8125"
"1573646622638","981","0.064453125","-0.9345703","0.41308594","1.8125","-5.625","-6.53125"
"1573646622638","982","0.026367188","-0.9091797","0.35546875","-1.65625","-18.03125","3.09375"
"1573646622638","983","-0.016601562","-0.9267578","0.4033203","12.125","-7.09375","2.0"
"1573646622639","984","-0.02734375","-0.89160156","0.3095703","12.4375","-9.28125","0.0"
"1573646622639","985","0.037109375","-0.88378906","0.3486328","24.9375","-12.15625","1.09375"
"1573646622639","986","9.765625E-4","-0.8955078","0.36132812","18.125","-8.0","3.40625"
"1573646622640","987","-0.026367188","-0.92578125","0.35839844","16.40625","4.3125","-0.5625"
"1573646622640","988","0.013671875","-0.9091797","0.390625","14.875","1.375","7.8125"
"1573646622640","989","-0.055664062","-0.91015625","0.36914062","14.875","1.3125","8.71875"
"1573646623034","990","-0.034179688","-0.9121094","0.3671875","19.9375","1.21875","7.8125"
"1573646623035","991","9.765625E-4","-0.8955078","0.3544922","20.90625","1.4375","11.15625"
"1573646623035","992","-0.049804688","-0.9042969","0.3984375","19.625","7.90625","14.28125"
"1573646623035","993","-0.0859375","-0.9121094","0.3798828","16.84375","19.53125","12.75"
"1573646623035","994","0.055664062","-0.8779297","0.40429688","16.84375","4.4375","10.71875"
"1573646623036","995","-9.765625E-4","-0.8808594","0.4892578","37.21875","16.84375","20.84375"
"1573646623036","996","-0.0859375","-0.8886719","0.5419922","36.59375","10.71875","20.84375"
"1573646623037","997","-0.056640625","-0.86328125","0.4892578","50.15625","13.28125","20.4375"
"1573646623037","998","-0.060546875","-0.8486328","0.5488281","44.96875","18.21875","20.1875"
"1573646623038","999","-0.13378906","-0.86035156","0.7529297","39.78125","27.28125","28.0"
"1573646623434","1000","-0.24023438","-0.7597656","0.78222656","8.71875","28.375","21.09375"
"1573646623435","1001","-0.3828125","-0.99902344","0.8613281","9.125","9.9375","17.0625"
"1573646623435","1002","-0.41210938","-0.79589844","0.72265625","-7.875","17.375","3.90625"
"1573646623436","1003","-0.2578125","-0.6845703","0.5625","-3.3125","6.21875","4.75"
"1573646623436","1004","-0.32226562","-0.7285156","0.71972656","3.21875","15.4375","10.59375"
"1573646623436","1005","-0.37109375","-0.76171875","0.6796875","-5.03125","7.625","0.21875"
"1573646623436","1006","-0.31835938","-0.7705078","0.66015625","-19.65625","10.40625","-4.28125"
"1573646623437","1007","-0.25390625","-0.70703125","0.5908203","-27.96875","12.3125","-5.03125"
"1573646623437","1008","-0.27441406","-0.6972656","0.5253906","-33.15625","11.09375","-4.09375"
"1573646623437","1009","-0.27734375","-0.70996094","0.49316406","-34.625","0.34375","-4.40625"
"1573646623830","1010","-0.27441406","-0.7324219","0.46777344","-32.25","-6.5","-5.75"
"1573646623831","1011","-0.2548828","-0.73828125","0.45410156","-30.78125","-7.78125","-11.375"
"1573646623831","1012","-0.2421875","-0.6455078","0.42871094","-29.4375","-14.0625","-12.59375"
"1573646623831","1013","-0.29882812","-0.7050781","0.39648438","-26.5625","-0.9375","-13.6875"
"1573646623831","1014","-0.23925781","-0.72753906","0.39941406","-25.96875","3.9375","-13.9375"
"1573646623832","1015","-0.26171875","-0.75683594","0.41796875","-32.25","0.09375","-12.84375"
"1573646623832","1016","-0.23535156","-0.7939453","0.41796875","-13.0625","3.40625","-8.625"
"1573646623832","1017","-0.2607422","-0.80566406","0.4267578","-15.15625","3.46875","-10.5625"
"1573646623832","1018","-0.27148438","-0.8359375","0.4091797","-15.53125","2.59375","-9.15625"
"1573646623833","1019","-0.26757812","-0.89160156","0.39648438","-14.71875","5.0625","-9.46875"
"1573646624425","1020","-0.23828125","-0.81933594","0.359375","-11.5","2.3125","-8.125"
"1573646624427","1021","-0.24511719","-0.8652344","0.35351562","-10.625","6.15625","-5.5"
"1573646624427","1022","-0.25878906","-0.96191406","0.34375","-16.3125","-0.25","-14.3125"
"1573646624428","1023","-0.16308594","-1.0126953","0.3515625","-34.9375","-4.03125","-19.1875"
"1573646624429","1024","-0.14453125","-0.89160156","0.36328125","-27.90625","-7.71875","-13.8125"
"1573646624429","1025","-0.19433594","-0.87402344","0.33007812","-19.1875","-1.1875","-8.0"
"1573646624429","1026","-0.2734375","-0.84765625","0.32128906","-12.09375","6.21875","-11.5625"
"1573646624430","1027","-0.18261719","-0.85839844","0.31445312","-5.8125","12.8125","-11.125"
"1573646624430","1028","-0.14257812","-0.9082031","0.36035156","0.90625","14.5","-16.125"
"1573646624430","1029","-0.095703125","-0.9189453","0.39746094","6.46875","1.75","-20.34375"
"1573646624822","1030","-0.08105469","-0.8544922","0.3701172","16.78125","-12.46875","-8.8125"
"1573646624822","1031","-0.044921875","-0.82714844","0.4375","9.75","-19.96875","-4.46875"
"1573646624822","1032","-0.055664062","-0.86621094","0.3486328","12.875","-36.28125","4.25"
"1573646624824","1033","-0.12109375","-0.8847656","0.3779297","9.09375","-24.6875","4.6875"
"1573646624824","1034","-0.08203125","-0.92871094","0.43359375","25.0625","-17.03125","4.8125"
"1573646624824","1035","-0.12988281","-0.90722656","0.46289062","29.09375","-15.625","6.28125"
"1573646624824","1036","-0.12011719","-0.86328125","0.46777344","29.65625","-9.28125","0.78125"
"1573646624825","1037","-0.047851562","-0.8808594","0.4609375","30.4375","-7.28125","0.78125"
"1573646624825","1038","-0.083984375","-0.8876953","0.49023438","21.40625","-5.75","-1.34375"
"1573646624825","1039","-0.047851562","-0.81640625","0.4560547","18.59375","-1.71875","-5.25"
"1573646625023","1040","-0.08984375","-0.7910156","0.49902344","15.5","11.9375","0.34375"
"1573646625023","1041","-0.083984375","-0.77441406","0.5292969","15.5625","21.40625","-5.75"
"1573646625023","1042","-0.07421875","-0.7636719","0.5029297","18.0625","21.90625","-5.5"
"1573646625023","1043","-0.01171875","-0.68652344","0.4248047","11.9375","13.96875","-10.875"
"1573646625024","1044","0.045898438","-0.71875","0.45214844","5.59375","6.09375","-9.15625"
"1573646625025","1045","-0.04296875","-0.7285156","0.46484375","-0.1875","5.59375","-1.96875"
"1573646625025","1046","-0.076171875","-0.7636719","0.55371094","-10.34375","17.6875","-3.0"
"1573646625025","1047","-0.09082031","-0.71972656","0.4951172","-10.15625","5.96875","3.03125"
"1573646625026","1048","-0.06738281","-0.75097656","0.5625","-5.09375","6.625","8.59375"
"1573646625026","1049","-0.10644531","-0.77734375","0.5097656","-9.78125","-6.5","6.03125"
"1573646625421","1050","-0.12207031","-0.734375","0.50390625","-12.84375","-9.15625","13.15625"
"1573646625421","1051","-0.14160156","-0.796875","0.578125","-2.625","12.1875","13.84375"
"1573646625421","1052","-0.16015625","-0.71875","0.515625","-12.59375","-3.0","11.40625"
"1573646625422","1053","-0.22851562","-0.75097656","0.5654297","-4.03125","28.90625","10.84375"
"1573646625422","1054","-0.1953125","-0.828125","0.49804688","-7.21875","14.28125","7.90625"
"1573646625422","1055","-0.20703125","-0.9511719","0.5673828","-9.78125","16.09375","-1.59375"
"1573646625423","1056","-0.06738281","-1.0380859","0.52441406","1.15625","-17.28125","-2.6875"
"1573646625424","1057","-0.14746094","-1.0419922","0.56347656","-13.0625","-19.0625","14.375"
"1573646625424","1058","-0.43554688","-1.3994141","0.4794922","-20.21875","18.1875","0.53125"
"1573646625424","1059","-0.18847656","-1.2880859","0.66308594","-3.125","5.28125","-29.25"
"1573646625817","1060","0.19238281","-0.7294922","0.45703125","2.4375","-80.65625","15.0625"
"1573646625817","1061","-0.10449219","-0.5761719","0.43847656","-3.1875","-16.125","51.125"
"1573646625818","1062","-0.4736328","-0.83691406","0.3125","-28.46875","18.21875","35.5625"
"1573646625818","1063","-0.29589844","-1.1796875","0.4658203","-17.59375","18.90625","-4.84375"
"1573646625818","1064","0.030273438","-0.8076172","0.32226562","-63.1875","-9.71875","-7.65625"
"1573646625818","1065","-0.068359375","-0.8203125","0.3310547","-14.3125","9.625","10.71875"
"1573646625819","1066","-0.27441406","-0.9082031","0.3408203","-17.84375","15.0","9.03125"
"1573646625819","1067","-0.22460938","-0.92871094","0.28320312","-25.15625","6.09375","-6.25"
"1573646625819","1068","-0.16894531","-0.96972656","0.3310547","-25.34375","12.5625","-7.34375"
"1573646625820","1069","-0.19238281","-0.9316406","0.24707031","-29.25","9.75","-8.375"
"1573646626214","1070","-0.18457031","-0.91503906","0.21582031","-28.6875","8.15625","-11.5"
"1573646626215","1071","-0.09375","-0.8183594","0.18945312","-27.78125","-0.625","-10.6875"
"1573646626215","1072","-0.12109375","-0.87890625","0.13085938","0.59375","-14.53125","0.03125"
"1573646626215","1073","-0.2734375","-0.9501953","0.21875","24.71875","-19.5","3.21875"
"1573646626215","1074","-0.3095703","-1.0166016","0.29296875","8.59375","15.0625","-1.90625"
"1573646626216","1075","-0.21972656","-0.9248047","0.2841797","18.65625","5.0","-14.84375"
"1573646626216","1076","-0.27539062","-0.96875","0.3408203","7.6875","16.53125","-4.78125"
"1573646626216","1077","-0.2109375","-0.9658203","0.31445312","18.21875","27.21875","-17.03125"
"1573646626216","1078","-0.24121094","-0.84375","0.296875","14.375","24.75","-5.9375"
"1573646626217","1079","-0.2421875","-0.91308594","0.33496094","21.71875","39.96875","-11.96875"
"1573646626613","1080","-0.07519531","-0.9091797","0.390625","15.5625","29.09375","-16.0625"
"1573646626614","1081","-0.08691406","-0.93066406","0.42089844","20.3125","20.96875","-9.125"
"1573646626615","1082","-0.12109375","-0.9482422","0.40820312","2.125","9.25","-8.3125"
"1573646626615","1083","-0.21582031","-0.83203125","0.38476562","-0.6875","11.34375","-4.15625"
"1573646626615","1084","-0.07519531","-0.875","0.32128906","-11.5","2.59375","-8.25"
"1573646626615","1085","-0.109375","-0.94140625","0.4169922","-3.4375","7.75","-15.34375"
"1573646626616","1086","-0.05078125","-0.8779297","0.42285156","-1.53125","-9.15625","-15.28125"
"1573646626616","1087","-0.09667969","-0.8466797","0.3466797","-13.875","-17.59375","-9.59375"
"1573646626616","1088","-0.064453125","-0.8808594","0.34960938","-8.75","-19.84375","-4.78125"
"1573646626616","1089","-0.14746094","-0.86816406","0.42285156","-0.875","-26.6875","-2.75"
"1573646627206","1090","-0.16601562","-0.9433594","0.42285156","4.875","-35.34375","-3.1875"
"1573646627207","1091","-0.10253906","-0.96191406","0.48828125","-1.46875","-20.875","-13.4375"
"1573646627207","1092","0.07519531","-0.88671875","0.31933594","-13.5625","-30.46875","-9.0"
"1573646627208","1093","-0.041992188","-0.91503906","0.30273438","0.28125","-21.375","5.0625"
"1573646627209","1094","-0.0390625","-0.8261719","0.4375","3.59375","-24.90625","12.0625"
"1573646627209","1095","-0.09667969","-0.88964844","0.4375","7.3125","-9.71875","8.34375"
"1573646627209","1096","-0.08886719","-0.9199219","0.38183594","13.78125","-4.09375","-0.5"
"1573646627210","1097","-0.02734375","-0.921875","0.4609375","17.4375","6.09375","-2.28125"
"1573646627210","1098","0.0126953125","-0.85253906","0.41503906","19.34375","-4.34375","-3.5625"
"1573646627210","1099","-0.001953125","-0.87402344","0.40722656","20.375","-2.46875","2.84375"
"1573646627407","1100","-0.038085938","-0.8857422","0.4267578","24.65625","3.65625","-0.75"
"1573646627407","1101","-0.013671875","-0.84765625","0.41503906","26.09375","-0.6875","5.78125"
"1573646627408","1102","0.001953125","-0.87597656","0.45117188","29.53125","8.03125","7.25"
"1573646627408","1103","-9.765625E-4","-0.8671875","0.4423828","25.375","7.90625","7.375"
"1573646627408","1104","0.015625","-0.8691406","0.48242188","18.53125","10.25","10.0625"
"1573646627409","1105","-0.0234375","-0.8642578","0.42871094","17.1875","10.46875","10.84375"
"1573646627410","1106","0.028320312","-0.85253906","0.49804688","10.25","14.375","8.46875"
"1573646627410","1107","-0.0234375","-0.90234375","0.45410156","0.90625","10.84375","12.75"
"1573646627410","1108","0.0068359375","-0.8457031","0.51171875","18.40625","4.5625","15.65625"
"1573646627410","1109","-0.021484375","-0.8330078","0.6542969","32.03125","4.5625","35.5"
"1573646627805","1110","-0.29492188","-0.85058594","0.54589844","21.09375","21.28125","15.84375"
"1573646627805","1111","-0.2685547","-0.9550781","0.7480469","43.1875","25.6875","2.4375"
"1573646627805","1112","-0.013671875","-0.84765625","0.7939453","28.71875","26.71875","8.15625"
"1573646627805","1113","-0.37304688","-0.859375","0.8984375","5.65625","30.1875","19.40625"
"1573646627805","1114","-0.42871094","-0.7714844","0.65625","15.5625","16.15625","5.78125"
"1573646627806","1115","-0.18554688","-0.69433594","0.69921875","3.78125","14.875","4.6875"
"1573646627806","1116","-0.32714844","-0.6777344","0.6484375","-11.71875","13.34375","13.59375"
"1573646627807","1117","-0.35253906","-0.7392578","0.6074219","-24.625","3.65625","1.75"
"1573646627807","1118","-0.31054688","-0.7060547","0.6376953","-26.0625","-2.75","-0.6875"
"1573646627807","1119","-0.34765625","-0.6796875","0.5498047","-22.78125","8.15625","-0.625"
"1573646628202","1120","-0.328125","-0.71777344","0.5253906","-31.5625","11.65625","-10.21875"
"1573646628202","1121","-0.27734375","-0.6816406","0.49023438","-24.3125","16.46875","-12.21875"
"1573646628202","1122","-0.2529297","-0.6816406","0.49902344","-27.0625","17.0","-12.71875"
"1573646628203","1123","-0.26757812","-0.73046875","0.453125","-29.8125","17.125","-16.8125"
"1573646628203","1124","-0.19726562","-0.7001953","0.3984375","-33.53125","9.75","-21.6875"
"1573646628203","1125","-0.23730469","-0.73535156","0.4453125","-35.28125","5.0625","-11.1875"
"1573646628203","1126","-0.28222656","-0.7470703","0.4345703","-27.0625","13.21875","-9.65625"
"1573646628203","1127","-0.3076172","-0.85058594","0.3798828","-28.09375","7.4375","-11.5625"
"1573646628203","1128","-0.27246094","-0.82910156","0.41992188","-29.375","11.21875","-11.84375"
"1573646628204","1129","-0.29785156","-0.83691406","0.33984375","-27.1875","10.65625","-13.4375"
"1573646628600","1130","-0.30859375","-0.87109375","0.36523438","-23.75","12.3125","-14.125"
"1573646628601","1131","-0.29101562","-0.82910156","0.29589844","-26.875","-2.28125","-15.53125"
"1573646628601","1132","-0.2578125","-0.8652344","0.296875","-23.5","4.125","-20.40625"
"1573646628601","1133","-0.28125","-0.9375","0.3154297","-23.40625","-0.8125","-22.0"
"1573646628601","1134","-0.19824219","-0.94628906","0.34960938","-33.65625","-12.84375","-24.5625"
"1573646628601","1135","-0.23144531","-0.8828125","0.38671875","-28.75","6.8125","-17.46875"
"1573646628602","1136","-0.2685547","-0.87597656","0.3515625","-10.5625","6.875","-14.0"
"1573646628602","1137","-0.14941406","-0.8535156","0.34960938","-26.5","4.375","-12.40625"
"1573646628602","1138","-0.111328125","-0.8613281","0.28710938","-1.0625","6.40625","-6.90625"
"1573646628602","1139","-0.16308594","-0.88671875","0.31640625","15.78125","-9.34375","-2.75"
"1573646629192","1140","-0.09863281","-0.9189453","0.3720703","28.4375","-14.90625","0.15625"
"1573646629194","1141","-0.0048828125","-0.8876953","0.34375","21.46875","-37.1875","-3.90625"
"1573646629194","1142","-0.053710938","-0.8779297","0.41601562","14.28125","-24.96875","-1.3125"
"1573646629194","1143","-0.0146484375","-0.87597656","0.38085938","5.28125","-34.25","1.875"
"1573646629195","1144","-0.046875","-0.8955078","0.3876953","14.03125","-43.15625","8.28125"
"1573646629195","1145","0.005859375","-0.88964844","0.44335938","12.6875","-47.125","9.125"
"1573646629195","1146","-0.080078125","-0.91015625","0.43164062","10.125","-45.0625","7.5"
"1573646629196","1147","-0.08203125","-0.8984375","0.43945312","-2.28125","-40.96875","3.78125"
"1573646629196","1148","-0.119140625","-0.96875","0.3935547","4.0","-17.03125","-5.8125"
"1573646629196","1149","-0.12207031","-0.8935547","0.35058594","-15.15625","-5.03125","-9.15625"
"1573646629396","1150","-0.16503906","-0.9423828","0.3359375","-17.78125","17.8125","-15.03125"
"1573646629396","1151","0.061523438","-0.90722656","0.40820312","-0.875","12.875","-12.90625"
"1573646629396","1152","-0.052734375","-0.8203125","0.41308594","-29.5","17.3125","-18.875"
"1573646629397","1153","-0.0126953125","-0.80371094","0.2548828","-12.78125","29.34375","-16.1875"
"1573646629398","1154","0.028320312","-0.89453125","0.41601562","-13.4375","9.75","-15.6875"
"1573646629398","1155","0.024414062","-0.9140625","0.35058594","-16.96875","-0.6875","-14.78125"
"1573646629398","1156","0.0029296875","-0.7998047","0.3388672","-26.25","8.96875","-7.46875"
"1573646629399","1157","0.055664062","-0.9003906","0.390625","-5.75","14.6875","-1.0"
"1573646629399","1158","-0.059570312","-0.9375","0.35546875","-13.0625","-1.0","-2.875"
"1573646629399","1159","-0.01171875","-0.890625","0.29296875","-14.84375","-4.34375","-2.46875"
"1573646629792","1160","-0.0107421875","-0.82714844","0.3232422","-12.65625","3.71875","3.21875"
"1573646629792","1161","-0.02734375","-0.7998047","0.34277344","-11.96875","9.75","7.375"
"1573646629793","1162","-0.028320312","-0.8378906","0.3359375","-1.65625","9.4375","4.125"
"1573646629793","1163","-0.091796875","-0.7910156","0.3046875","-6.53125","12.9375","7.125"
"1573646629793","1164","-0.06640625","-0.6972656","0.31640625","0.46875","19.8125","9.25"
"1573646629795","1165","-0.05078125","-0.6923828","0.29589844","3.59375","20.84375","9.9375"
"1573646629796","1166","-0.059570312","-0.72558594","0.32910156","3.34375","38.6875","10.375"
"1573646629796","1167","-0.16210938","-0.91503906","0.3095703","24.40625","39.15625","12.0625"
"1573646629796","1168","-0.19433594","-1.3710938","0.3857422","13.40625","45.6875","-1.25"
"1573646629797","1169","-9.765625E-4","-1.34375","0.4892578","-12.03125","-1.0","5.0625"
"1573646630190","1170","-0.29492188","-1.5136719","0.29492188","-12.53125","34.46875","11.28125"
"1573646630190","1171","-0.21484375","-1.7294922","0.47851562","-25.40625","13.59375","-35.71875"
"1573646630191","1172","0.29003906","-0.84765625","0.15136719","3.9375","-17.53125","-33.84375"
"1573646630191","1173","-0.0703125","-0.7451172","-0.0234375","-28.75","-2.34375","19.15625"
"1573646630191","1174","-0.107421875","-0.9013672","0.13769531","-19.3125","16.34375","5.34375"
"1573646630191","1175","-0.09472656","-0.8417969","0.16699219","-14.25","2.78125","5.21875"
"1573646630192","1176","-0.15429688","-0.8886719","0.1796875","2.4375","24.21875","3.71875"
"1573646630193","1177","-0.0390625","-1.0048828","0.21484375","-13.8125","6.40625","-7.40625"
"1573646630193","1178","-0.076171875","-0.98339844","0.21777344","-13.6875","5.0625","3.59375"
"1573646630193","1179","-0.08886719","-0.9394531","0.17675781","-19.0625","-8.375","-1.84375"
"1573646630587","1180","-0.08300781","-0.93652344","0.17089844","-3.3125","-8.5","4.0"
"1573646630587","1181","-0.1328125","-0.9902344","0.1953125","4.6875","0.46875","2.5625"
"1573646630588","1182","-0.06542969","-0.97265625","0.15722656","-8.5625","-14.40625","-7.40625"
"1573646630588","1183","-0.12695312","-0.9785156","0.14550781","-3.90625","-8.9375","-4.03125"
"1573646630588","1184","-0.10058594","-0.98828125","0.1640625","-14.96875","-3.125","-7.40625"
"1573646630588","1185","-0.078125","-1.0107422","0.15429688","-13.625","-10.28125","-7.03125"
"1573646630589","1186","-0.0859375","-0.94921875","0.12890625","-16.3125","-11.78125","-3.875"
"1573646630589","1187","-0.05859375","-0.9951172","0.13378906","-7.21875","-8.5625","-1.96875"
"1573646630589","1188","-0.099609375","-0.9345703","0.13476562","-3.6875","-16.8125","1.75"
"1573646630590","1189","-0.14453125","-1.0039062","0.10058594","1.5","-2.75","5.40625"
"1573646630985","1190","-0.16503906","-0.9628906","0.040039062","-7.78125","-10.03125","4.0"
"1573646630985","1191","-0.11035156","-0.9628906","0.16796875","8.21875","16.09375","2.5625"
"1573646630986","1192","-0.13671875","-0.9628906","0.15625","11.09375","-0.375","-1.125"
"1573646630986","1193","-0.16894531","-0.9658203","0.16113281","9.6875","16.09375","2.78125"
"1573646630986","1194","-0.09082031","-1.0683594","0.26953125","7.5625","20.8125","-6.84375"
"1573646630986","1195","-0.14160156","-0.9394531","0.23144531","0.40625","7.125","-1.125"
"1573646630986","1196","-0.20605469","-0.96191406","0.2734375","12.875","28.25","1.21875"
"1573646630987","1197","-0.13183594","-0.9482422","0.22753906","2.90625","36.65625","-8.25"
"1573646630987","1198","0.020507812","-0.9238281","0.22460938","-3.875","28.3125","-18.03125"
"1573646630987","1199","-0.07421875","-0.8984375","0.18457031","0.15625","25.5625","-11.96875"
"1573646631382","1200","-0.13183594","-0.89746094","0.19238281","-1.53125","49.375","-19.59375"
"1573646631384","1201","-0.09375","-1.1376953","0.3330078","8.84375","59.3125","-14.53125"
"1573646631385","1202","-0.087890625","-1.0166016","0.3466797","0.96875","41.5","-13.8125"
"1573646631385","1203","-0.01171875","-0.8564453","0.1875","-9.125","17.6875","-12.90625"
"1573646631386","1204","-0.0126953125","-0.94140625","0.15136719","-9.65625","29.53125","-8.4375"
"1573646631386","1205","-0.07519531","-0.9765625","0.19433594","-0.75","35.75","-9.15625"
"1573646631386","1206","-0.080078125","-0.9736328","0.25","-2.46875","27.09375","-10.34375"
"1573646631387","1207","-0.030273438","-1.0058594","0.26367188","-2.53125","18.34375","-11.0625"
"1573646631387","1208","-0.018554688","-0.9638672","0.21289062","-6.65625","7.0625","-9.125"
"1573646631387","1209","0.028320312","-0.97265625","0.19140625","-9.0","-2.21875","-9.0625"
