"# PR data"
"# Start time: 20191113T115225"
"# Subject: nikita"
"# Activity type: Sit to stand"
"# Correctness: Incorrect"
"# Notes: "
""
"timestamp","seq","accel_x","accel_y","accel_z","gyro_x","gyro_y","gyro_z"
"1573645946093","0","-0.1171875","-0.8417969","0.5048828","-1.25","-2.875","-4.71875"
"1573645946094","1","-0.119140625","-0.8339844","0.45703125","-6.125","-8.625","-0.4375"
"1573645946094","2","-0.125","-0.8798828","0.49023438","-3.5625","-2.40625","-6.3125"
"1573645946095","3","-0.107421875","-0.84375","0.44433594","-1.96875","-2.15625","-6.90625"
"1573645946095","4","-0.06933594","-0.8486328","0.4140625","2.65625","1.375","-4.40625"
"1573645946095","5","0.051757812","-0.93847656","0.3828125","6.75","-3.96875","5.125"
"1573645946095","6","-0.044921875","-0.9472656","0.41601562","0.34375","14.375","7.0"
"1573645946096","7","-0.045898438","-0.9277344","0.44921875","-2.40625","9.4375","2.0"
"1573645946096","8","-0.072265625","-0.8339844","0.4013672","-5.875","7.96875","1.3125"
"1573645946096","9","-0.08886719","-0.85253906","0.4296875","0.53125","11.9375","7.8125"
"1573645946490","10","-0.11621094","-0.85546875","0.45996094","2.1875","6.6875","9.375"
"1573645946491","11","-0.15234375","-0.859375","0.45996094","4.125","-0.125","8.59375"
"1573645946491","12","-0.125","-0.8564453","0.4609375","8.03125","5.78125","6.9375"
"1573645946491","13","-0.10839844","-0.8652344","0.44433594","7.8125","2.65625","8.21875"
"1573645946492","14","-0.08105469","-0.8701172","0.44433594","8.28125","2.96875","10.0625"
"1573645946492","15","-0.09667969","-0.83496094","0.4609375","6.46875","5.0","13.03125"
"1573645946492","16","-0.109375","-0.8359375","0.41308594","17.6875","0.15625","18.0"
"1573645946492","17","-0.13085938","-0.85253906","0.4716797","20.96875","0.96875","21.90625"
"1573645946493","18","-0.1640625","-0.8720703","0.46289062","24.53125","4.875","21.34375"
"1573645946493","19","-0.1640625","-0.8027344","0.4921875","30.3125","9.5","19.09375"
"1573645946888","20","-0.15136719","-0.7519531","0.46484375","34.90625","6.15625","24.40625"
"1573645946889","21","-0.17773438","-0.77734375","0.55859375","43.25","6.8125","27.75"
"1573645946889","22","-0.24707031","-0.7470703","0.57910156","49.78125","2.0","32.9375"
"1573645946889","23","-0.23339844","-0.6972656","0.53222656","51.6875","0.40625","31.84375"
"1573645946889","24","-0.23730469","-0.7001953","0.6582031","57.125","7.5","37.8125"
"1573645946891","25","-0.26757812","-0.6455078","0.6152344","66.03125","-8.75","38.9375"
"1573645946891","26","-0.29492188","-0.6230469","0.7294922","75.1875","1.03125","49.0625"
"1573645946891","27","-0.3203125","-0.6269531","0.7607422","75.65625","-0.75","47.34375"
"1573645946891","28","-0.36816406","-0.5283203","0.87890625","91.15625","22.125","52.84375"
"1573645946892","29","-0.41601562","-0.56640625","0.85546875","75.90625","13.84375","37.21875"
"1573645947284","30","-0.35742188","-0.5449219","0.89160156","39.53125","7.375","20.5"
"1573645947285","31","-0.48339844","-0.40625","0.92871094","27.75","9.8125","17.625"
"1573645947285","32","-0.484375","-0.34179688","0.9423828","26.21875","15.3125","19.8125"
"1573645947285","33","-0.46875","-0.32617188","0.9472656","15.0625","6.6875","18.78125"
"1573645947285","34","-0.5185547","-0.3388672","0.9902344","16.65625","16.90625","16.53125"
"1573645947286","35","-0.51660156","-0.3173828","0.984375","13.0","7.8125","16.65625"
"1573645947286","36","-0.47460938","-0.29101562","0.9121094","25.1875","8.71875","12.25"
"1573645947287","37","-0.5595703","-0.20019531","0.97265625","30.375","18.71875","16.40625"
"1573645947287","38","-0.50683594","-0.3173828","0.91308594","19.625","4.6875","6.8125"
"1573645947287","39","-0.42285156","-0.27148438","0.8847656","-2.6875","8.09375","-5.9375"
"1573645947683","40","-0.45898438","-0.23046875","0.8691406","-12.15625","-1.46875","-6.25"
"1573645947683","41","-0.41992188","-0.21679688","0.8105469","-23.40625","-8.875","-9.78125"
"1573645947683","42","-0.5361328","-0.26757812","0.87109375","-25.34375","2.65625","-14.34375"
"1573645947683","43","-0.44335938","-0.29589844","0.81347656","-30.03125","-9.15625","-24.625"
"1573645947684","44","-0.3564453","-0.3359375","0.81933594","-35.40625","-3.1875","-25.90625"
"1573645947684","45","-0.4345703","-0.3623047","0.7998047","-46.40625","-8.9375","-31.15625"
"1573645947684","46","-0.31933594","-0.41992188","0.7392578","-47.25","-15.59375","-35.21875"
"1573645947684","47","-0.37597656","-0.4326172","0.7451172","-60.0625","-11.78125","-36.875"
"1573645947685","48","-0.3623047","-0.45117188","0.7216797","-68.9375","-12.28125","-40.71875"
"1573645947686","49","-0.33007812","-0.5214844","0.7167969","-70.625","-13.0625","-47.4375"
"1573645948080","50","-0.30371094","-0.50683594","0.6904297","-74.71875","-16.3125","-52.125"
"1573645948080","51","-0.26660156","-0.52246094","0.6123047","-74.21875","-27.71875","-44.9375"
"1573645948081","52","-0.23828125","-0.5878906","0.61328125","-72.53125","-20.34375","-42.5"
"1573645948081","53","-0.1953125","-0.5703125","0.63964844","-84.625","-22.21875","-43.84375"
"1573645948081","54","-0.16015625","-0.5917969","0.51464844","-84.3125","-36.21875","-31.375"
"1573645948081","55","-0.10546875","-0.6621094","0.51953125","-83.15625","-24.75","-27.0"
"1573645948082","56","-0.119140625","-0.6542969","0.5341797","-80.75","-43.96875","-14.3125"
"1573645948082","57","-0.15136719","-0.7294922","0.4453125","-48.59375","-38.40625","-1.0"
"1573645948082","58","-0.24609375","-0.7519531","0.43847656","-47.5625","-28.75","-4.34375"
"1573645948082","59","-0.030273438","-0.8535156","0.39746094","-40.84375","-40.90625","-0.375"
"1573645948478","60","-0.068359375","-0.7705078","0.44726562","-30.78125","-27.0625","9.03125"
"1573645948478","61","-0.140625","-0.83203125","0.42773438","-30.40625","-18.03125","2.375"
"1573645948478","62","-0.099609375","-0.8857422","0.4345703","-32.4375","-20.78125","4.375"
"1573645948479","63","-0.09765625","-0.87597656","0.41015625","-29.0","-18.875","4.6875"
"1573645948479","64","-0.061523438","-0.86816406","0.40527344","-27.40625","-18.03125","3.09375"
"1573645948479","65","-0.0859375","-0.86816406","0.35058594","-34.8125","-15.34375","2.78125"
"1573645948480","66","-0.06738281","-0.8779297","0.36035156","-23.15625","-3.875","6.46875"
"1573645948480","67","-0.125","-0.8203125","0.38183594","-15.9375","5.84375","4.875"
"1573645948480","68","-0.171875","-0.890625","0.4013672","12.9375","12.625","2.5625"
"1573645948480","69","-0.038085938","-0.9658203","0.3701172","-1.0625","5.28125","-6.4375"
"1573645948875","70","-0.02734375","-0.8486328","0.33789062","8.09375","-4.46875","-4.03125"
"1573645948875","71","-0.041992188","-0.8486328","0.22363281","8.15625","-4.03125","0.65625"
"1573645948875","72","-0.053710938","-0.9824219","0.30859375","0.53125","32.28125","1.3125"
"1573645948876","73","-0.09472656","-1.0429688","0.31640625","6.6875","12.375","-1.40625"
"1573645948877","74","-0.0390625","-1.0996094","0.20117188","-9.96875","2.4375","-4.21875"
"1573645948877","75","-0.040039062","-0.9951172","0.2998047","-7.9375","17.5","-9.90625"
"1573645948877","76","-0.0703125","-0.9550781","0.31933594","8.59375","5.21875","-3.125"
"1573645948877","77","-0.051757812","-0.85546875","0.36816406","15.78125","-10.8125","2.65625"
"1573645948878","78","-0.1796875","-0.7373047","0.37890625","44.34375","-11.625","11.40625"
"1573645948878","79","-0.13574219","-0.73339844","0.4423828","59.375","-3.3125","8.90625"
"1573645949273","80","-0.13671875","-0.7519531","0.46484375","65.78125","-8.0","5.40625"
"1573645949273","81","-0.09765625","-0.60253906","0.49023438","63.15625","-0.8125","4.125"
"1573645949273","82","-0.11035156","-0.6542969","0.5058594","75.1875","7.5","2.5"
"1573645949273","83","-0.049804688","-0.5566406","0.4267578","91.15625","-6.1875","11.28125"
"1573645949274","84","-0.06933594","-0.5605469","0.5839844","80.78125","38.875","17.0625"
"1573645949275","85","-0.03125","-0.48046875","0.5107422","98.6875","-4.03125","21.84375"
"1573645949275","86","-0.2919922","-0.53125","0.68359375","96.71875","42.40625","19.875"
"1573645949276","87","-0.13574219","-0.7753906","0.64453125","67.96875","29.78125","14.09375"
"1573645949276","88","-0.08203125","-0.50878906","0.75878906","53.75","39.21875","2.65625"
"1573645949277","89","-0.28222656","-0.5732422","0.8095703","65.71875","15.0625","21.21875"
"1573645949673","90","-0.16601562","-0.54296875","0.5810547","57.53125","-4.71875","15.0625"
"1573645949673","91","-0.16601562","-0.37304688","0.68652344","48.3125","34.71875","10.84375"
"1573645949674","92","-0.34375","-0.38378906","0.7705078","45.53125","18.90625","19.03125"
"1573645949674","93","-0.25390625","-0.4716797","0.6435547","38.4375","8.71875","15.65625"
"1573645949674","94","-0.2265625","-0.35253906","0.7792969","12.1875","23.3125","7.5"
"1573645949674","95","-0.27929688","-0.40527344","0.7988281","12.875","7.5625","10.0625"
"1573645949675","96","-0.3544922","-0.4267578","0.81640625","4.75","12.75","-1.25"
"1573645949676","97","-0.33203125","-0.37304688","0.9316406","-19.3125","20.1875","-14.1875"
"1573645949677","98","-0.37402344","-0.4873047","0.97265625","-59.59375","14.5625","-19.125"
"1573645949677","99","-0.3720703","-0.47753906","0.86035156","-120.9375","-1.90625","-32.78125"
"1573645950076","100","-0.8378906","-1.7070312","1.9628906","-141.9375","103.3125","0.0"
"1573645950077","101","-0.8232422","-1.0898438","1.5673828","91.71875","0.0","-29.1875"
"1573645950077","102","0.03515625","-1.0371094","0.43652344","-25.03125","-112.625","-20.59375"
"1573645950077","103","-0.19433594","-0.20605469","0.55078125","12.6875","-4.71875","-40.71875"
"1573645950079","104","-0.11621094","-0.2783203","0.31835938","-75.03125","-30.84375","-26.1875"
"1573645950080","105","-0.23828125","-0.33398438","0.5341797","-31.15625","-22.53125","-25.21875"
"1573645950080","106","-0.14257812","-0.51464844","0.6191406","-11.3125","7.0625","-30.34375"
"1573645950080","107","-0.20996094","-0.7402344","0.86621094","-16.875","34.28125","-15.6875"
"1573645950081","108","-0.2919922","-0.92285156","0.96191406","-61.125","-2.34375","-30.65625"
"1573645950081","109","-0.07128906","-0.74902344","0.6035156","-20.28125","-56.28125","-21.625"
"1573645950467","110","-0.13964844","-0.58691406","0.5419922","-3.875","-18.15625","-5.375"
"1573645950468","111","-0.12988281","-0.5996094","0.5410156","-10.4375","1.9375","-0.875"
"1573645950468","112","-0.16113281","-0.7519531","0.66503906","-22.96875","8.65625","-4.09375"
"1573645950468","113","-0.14648438","-0.72265625","0.6074219","-24.625","0.21875","-14.0"
"1573645950468","114","-0.10644531","-0.80371094","0.6435547","-16.8125","12.1875","-11.25"
"1573645950469","115","-0.12890625","-0.7871094","0.6425781","-15.34375","11.53125","-10.5"
"1573645950469","116","-0.11425781","-0.7050781","0.5683594","-3.90625","-6.0625","-3.6875"
"1573645950469","117","-0.10058594","-0.7451172","0.56640625","0.65625","-3.0","2.5625"
"1573645950469","118","-0.1171875","-0.74316406","0.58496094","0.46875","6.15625","3.09375"
"1573645950470","119","-0.16210938","-0.7470703","0.61816406","2.71875","-0.625","4.5625"
"1573645950862","120","-0.16015625","-0.7705078","0.6064453","6.15625","-0.125","3.46875"
"1573645950864","121","-0.14648438","-0.7207031","0.6015625","9.5625","0.46875","4.5625"
"1573645950864","122","-0.140625","-0.72753906","0.59765625","11.8125","2.78125","7.0"
"1573645950864","123","-0.14746094","-0.7285156","0.5996094","7.25","4.1875","5.78125"
"1573645950865","124","-0.13574219","-0.70214844","0.62890625","9.25","12.375","8.03125"
"1573645950865","125","-0.15722656","-0.7216797","0.62890625","13.0","5.78125","10.375"
"1573645950865","126","-0.14648438","-0.6953125","0.5888672","26.84375","8.15625","11.03125"
"1573645950866","127","-0.16894531","-0.68652344","0.65234375","28.78125","10.1875","15.1875"
"1573645950866","128","-0.16601562","-0.6464844","0.6347656","37.8125","9.8125","18.34375"
"1573645950866","129","-0.22363281","-0.64941406","0.64941406","44.0625","17.75","22.6875"
"1573645951657","130","-0.21582031","-0.6113281","0.65625","49.0625","21.90625","22.875"
"1573645951658","131","-0.2265625","-0.60058594","0.71777344","54.4375","18.71875","28.0625"
"1573645951658","132","-0.22363281","-0.5996094","0.7207031","60.34375","6.875","31.125"
"1573645951658","133","-0.2783203","-0.51953125","0.7626953","66.03125","8.03125","32.34375"
"1573645951659","134","-0.28222656","-0.4736328","0.81347656","96.34375","27.5625","39.0"
"1573645951659","135","-0.39257812","-0.3828125","0.90722656","137.125","28.84375","42.65625"
"1573645951659","136","-0.40625","-0.30664062","1.0009766","115.40625","26.0","37.21875"
"1573645951659","137","-0.4326172","-0.19726562","0.96972656","102.03125","12.9375","34.46875"
"1573645951660","138","-0.53027344","-0.08105469","1.0566406","73.03125","19.8125","26.34375"
"1573645951660","139","-0.46679688","-0.083984375","0.99121094","41.625","11.59375","16.09375"
"1573645951854","140","-0.4609375","-0.045898438","1.0009766","20.84375","15.71875","14.09375"
"1573645951855","141","-0.47753906","-0.072265625","1.0058594","-9.90625","9.3125","13.15625"
"1573645951855","142","-0.47558594","-0.083984375","1.0087891","-21.1875","6.625","8.59375"
"1573645951855","143","-0.48632812","-0.083984375","1.0244141","-35.84375","-3.75","4.3125"
"1573645951855","144","-0.47460938","-0.11035156","1.0068359","-18.4375","-12.15625","2.4375"
"1573645951857","145","-0.45898438","-0.09863281","1.0029297","11.46875","-6.84375","0.34375"
"1573645951857","146","-0.45703125","-0.14648438","1.0566406","8.78125","-6.0625","-1.25"
"1573645951857","147","-0.39941406","-0.10839844","0.9667969","-18.375","-21.6875","-9.28125"
"1573645951857","148","-0.40429688","-0.13671875","1.0107422","-23.625","-6.90625","-11.0"
"1573645951858","149","-0.43847656","-0.15429688","0.96875","-34.3125","-16.125","-17.09375"
"1573645952056","150","-0.3076172","-0.14648438","0.9296875","-45.125","-18.15625","-17.96875"
"1573645952056","151","-0.33984375","-0.18261719","0.91015625","-57.5","-5.3125","-21.4375"
"1573645952057","152","-0.30664062","-0.26171875","0.78808594","-56.78125","-23.40625","-21.625"
"1573645952057","153","-0.3017578","-0.22558594","0.78808594","-64.65625","-7.59375","-24.84375"
"1573645952057","154","-0.27539062","-0.34375","0.75683594","-66.375","-6.5","-23.6875"
"1573645952057","155","-0.30664062","-0.40820312","0.78125","-81.5","0.78125","-31.09375"
"1573645952058","156","-0.28222656","-0.39257812","0.7421875","-84.25","-25.65625","-35.71875"
"1573645952058","157","-0.23144531","-0.43554688","0.66308594","-97.3125","-20.28125","-32.5"
"1573645952058","158","-0.22851562","-0.5253906","0.67871094","-105.0","4.0625","-40.65625"
"1573645952059","159","-0.21386719","-0.5029297","0.66015625","-105.0625","-11.5625","-37.25"
"1573645952454","160","-0.18457031","-0.55371094","0.53027344","-102.375","-23.15625","-34.0625"
"1573645952455","161","-0.15625","-0.6220703","0.58203125","-97.3125","-3.1875","-29.875"
"1573645952455","162","-0.16992188","-0.64453125","0.5058594","-101.75","-11.3125","-33.34375"
"1573645952455","163","-0.125","-0.5546875","0.49023438","-101.03125","-12.15625","-26.0625"
"1573645952456","164","-0.16796875","-0.6347656","0.48242188","-79.1875","-12.65625","-18.75"
"1573645952456","165","-0.21777344","-0.72753906","0.4033203","-61.84375","4.0","-24.5625"
"1573645952456","166","-0.091796875","-0.79296875","0.3955078","-46.65625","-3.375","-22.40625"
"1573645952457","167","-0.037109375","-0.88378906","0.3564453","-29.96875","-7.21875","-7.03125"
"1573645952457","168","-0.0029296875","-0.9160156","0.42089844","-30.90625","3.46875","-6.90625"
"1573645952457","169","-0.09375","-0.8847656","0.3515625","-28.6875","-3.625","0.21875"
"1573645953047","170","-0.10546875","-0.8857422","0.3857422","-14.84375","-3.3125","1.09375"
"1573645953048","171","-0.051757812","-0.90527344","0.36816406","-3.875","-0.5","1.21875"
"1573645953048","172","-0.12207031","-0.9042969","0.32226562","-14.0625","-7.875","0.71875"
"1573645953048","173","-0.10449219","-0.9042969","0.40820312","0.40625","7.90625","-1.0"
"1573645953048","174","-0.09472656","-0.88964844","0.3876953","0.21875","-6.375","0.46875"
"1573645953049","175","-0.08496094","-0.9394531","0.3359375","2.59375","-10.8125","2.71875"
"1573645953049","176","-0.06640625","-0.9140625","0.38867188","6.625","-5.75","4.6875"
"1573645953049","177","-0.07421875","-0.8642578","0.359375","5.96875","-12.09375","7.375"
"1573645953049","178","-0.107421875","-0.85253906","0.39160156","18.0625","-11.25","12.5"
"1573645953050","179","-0.123046875","-0.8769531","0.39453125","19.09375","-5.9375","10.375"
"1573645953642","180","-0.12402344","-0.8623047","0.4169922","16.59375","-2.6875","9.9375"
"1573645953643","181","-0.12597656","-0.86328125","0.43359375","23.65625","6.5625","8.71875"
"1573645953643","182","-0.13378906","-0.8154297","0.4404297","21.90625","4.6875","6.46875"
"1573645953644","183","-0.13085938","-0.8125","0.44628906","22.1875","4.8125","11.8125"
"1573645953644","184","-0.16992188","-0.79296875","0.45214844","30.875","15.84375","8.71875"
"1573645953644","185","-0.16503906","-0.8076172","0.5058594","28.1875","22.875","8.90625"
"1573645953644","186","-0.16113281","-0.74902344","0.44726562","38.625","16.53125","9.375"
"1573645953645","187","-0.13671875","-0.54003906","0.41308594","44.65625","4.5625","15.3125"
"1573645953645","188","-0.14648438","-0.5341797","0.4736328","49.4375","23.84375","22.875"
"1573645953645","189","-0.12890625","-0.5078125","0.34375","71.8125","-5.3125","28.90625"
"1573645953845","190","-0.14160156","-0.5371094","0.48242188","60.78125","28.90625","34.15625"
"1573645953845","191","-0.32128906","-0.55859375","0.57421875","42.21875","36.90625","22.8125"
"1573645953845","192","-0.15332031","-0.6298828","0.49902344","56.1875","15.5625","21.46875"
"1573645953846","193","-0.3203125","-0.61328125","0.5830078","38.5625","48.375","22.875"
"1573645953846","194","-0.24804688","-0.5410156","0.6298828","56.6875","19.21875","17.6875"
"1573645953846","195","-0.34570312","-0.68847656","0.6972656","36.25","48.1875","25.9375"
"1573645953847","196","-0.4111328","-0.70996094","0.73535156","17.6875","9.03125","11.15625"
"1573645953847","197","-0.23242188","-0.5878906","0.6796875","18.0625","18.34375","11.28125"
"1573645953847","198","-0.45703125","-0.62402344","0.69140625","-7.09375","2.3125","11.28125"
"1573645953847","199","-0.4375","-0.6582031","0.72265625","-0.5625","6.5","0.34375"
"1573645954237","200","-0.44921875","-0.6894531","0.8125","-23.40625","-0.1875","-12.59375"
"1573645954239","201","-0.4814453","-0.6220703","0.8125","-7.40625","-9.84375","-10.03125"
"1573645954240","202","-0.55566406","-0.59472656","0.79785156","-21.0625","0.15625","-8.875"
"1573645954240","203","-0.3330078","-0.6513672","0.6328125","-46.78125","-31.875","-62.9375"
"1573645954240","204","-0.24316406","-0.68066406","0.6972656","-85.59375","6.40625","-54.28125"
"1573645954241","205","-0.5908203","-2.0","1.0332031","-120.0625","9.75","-44.5"
"1573645954242","206","-0.2861328","-1.2880859","1.4052734","27.375","19.8125","-40.3125"
"1573645954242","207","-0.25585938","-0.8144531","0.20898438","-49.46875","-48.125","-10.6875"
"1573645954242","208","0.099609375","-0.69140625","0.30664062","29.09375","-3.4375","-16.4375"
"1573645954242","209","-0.28710938","-0.515625","0.3310547","-73.8125","-10.4375","-14.84375"
"1573645954439","210","-0.15625","-0.47460938","0.3935547","-29.96875","5.1875","-48.34375"
"1573645954440","211","-0.19921875","-0.6982422","0.5253906","-33.40625","20.6875","-24.125"
"1573645954440","212","-0.21582031","-1.0185547","0.55078125","-18.8125","0.59375","-34.8125"
"1573645954440","213","0.0126953125","-1.0302734","0.5058594","-10.15625","-11.125","-13.625"
"1573645954440","214","-0.083984375","-0.91015625","0.43066406","17.6875","6.5625","13.65625"
"1573645954441","215","-0.15234375","-0.8769531","0.4658203","8.71875","2.0","0.90625"
"1573645954441","216","-0.09277344","-0.7988281","0.40820312","-3.0","-6.71875","-2.8125"
"1573645954442","217","-0.12890625","-0.79589844","0.4189453","-0.625","3.9375","-5.5625"
"1573645954442","218","-0.111328125","-0.8642578","0.48632812","-5.625","5.28125","-6.3125"
"1573645954443","219","-0.12792969","-0.8457031","0.48632812","8.78125","-1.125","4.75"
"1573645954837","220","-0.13964844","-0.8017578","0.49023438","11.21875","-0.5","12.9375"
"1573645954838","221","-0.1328125","-0.8378906","0.5126953","21.46875","2.65625","18.0"
"1573645954838","222","-0.15917969","-0.80859375","0.48339844","15.65625","0.0","19.5625"
"1573645954838","223","-0.13671875","-0.7919922","0.48242188","29.46875","2.71875","20.5625"
"1573645954839","224","-0.18261719","-0.8046875","0.52246094","28.25","6.6875","23.25"
"1573645954839","225","-0.19140625","-0.7675781","0.5546875","35.09375","7.375","23.65625"
"1573645954839","226","-0.19824219","-0.75390625","0.54785156","40.34375","0.40625","25.125"
"1573645954839","227","-0.17871094","-0.7265625","0.6142578","47.59375","3.71875","33.5625"
"1573645954840","228","-0.26171875","-0.68847656","0.61035156","51.25","-4.15625","38.1875"
"1573645954840","229","-0.296875","-0.6738281","0.6582031","57.0","1.03125","40.4375"
"1573645955630","230","-0.23828125","-0.6035156","0.6855469","72.875","-3.4375","37.40625"
"1573645955631","231","-0.28027344","-0.5839844","0.77734375","78.65625","-16.9375","43.75"
"1573645955631","232","-0.35351562","-0.53808594","0.81640625","82.625","-13.1875","45.40625"
"1573645955632","233","-0.3701172","-0.5058594","0.9140625","66.8125","3.40625","36.1875"
"1573645955632","234","-0.33984375","-0.45410156","0.8935547","52.40625","15.5625","32.46875"
"1573645955632","235","-0.4189453","-0.390625","0.8496094","46.625","3.90625","22.5"
"1573645955633","236","-0.36914062","-0.2841797","0.8886719","48.15625","13.28125","19.5625"
"1573645955633","237","-0.40722656","-0.28222656","0.8701172","37.53125","5.46875","23.0"
"1573645955633","238","-0.39257812","-0.2783203","0.8857422","42.96875","9.8125","12.875"
"1573645955634","239","-0.38964844","-0.21777344","0.88964844","33.5625","7.25","15.96875"
"1573645955828","240","-0.39941406","-0.234375","0.93652344","25.375","0.96875","17.875"
"1573645955829","241","-0.4267578","-0.23046875","0.9667969","14.03125","-20.65625","19.34375"
"1573645955830","242","-0.39746094","-0.234375","0.9736328","16.03125","-25.71875","13.71875"
"1573645955830","243","-0.4091797","-0.17285156","1.0351562","15.375","-25.09375","12.625"
"1573645955830","244","-0.42773438","-0.16894531","1.0380859","15.4375","-17.78125","4.0"
"1573645955831","245","-0.39453125","-0.15234375","1.0390625","4.8125","-4.84375","0.71875"
"1573645955831","246","-0.37304688","-0.19238281","0.98339844","24.59375","-16.25","-3.1875"
"1573645955831","247","-0.3251953","-0.13769531","0.8955078","20.625","-5.5","-9.46875"
"1573645955831","248","-0.28808594","-0.11425781","0.9082031","13.0","-7.9375","-13.0625"
"1573645955832","249","-0.27246094","-0.09765625","0.86035156","7.3125","-15.15625","-9.125"
"1573645956031","250","-0.25976562","-0.07714844","0.9609375","-6.78125","-3.0","-13.1875"
"1573645956031","251","-0.30859375","-0.16796875","0.9160156","-17.78125","-18.09375","-12.46875"
"1573645956031","252","-0.27539062","-0.16015625","0.9765625","-26.8125","-11.0625","-14.71875"
"1573645956033","253","-0.25683594","-0.1875","0.94921875","-32.0625","-10.4375","-19.3125"
"1573645956033","254","-0.2685547","-0.25","1.0","-34.3125","-14.25","-15.875"
"1573645956033","255","-0.21875","-0.2998047","0.8798828","-58.0","-30.34375","-23.34375"
"1573645956033","256","-0.1953125","-0.30859375","0.93652344","-65.03125","-13.375","-22.59375"
"1573645956034","257","-0.24414062","-0.36035156","0.9013672","-76.0","-20.65625","-25.03125"
"1573645956034","258","-0.1640625","-0.41210938","0.8066406","-94.25","-19.84375","-24.6875"
"1573645956034","259","-0.16015625","-0.3828125","0.8125","-92.46875","-9.21875","-25.53125"
"1573645956427","260","-0.16503906","-0.41503906","0.7060547","-93.8125","-16.1875","-28.21875"
"1573645956427","261","-0.099609375","-0.39257812","0.66015625","-91.9375","-21.0625","-20.84375"
"1573645956427","262","-0.1015625","-0.42382812","0.60253906","-107.375","-14.40625","-17.15625"
"1573645956428","263","-0.12792969","-0.5449219","0.6113281","-100.46875","5.53125","-21.25"
"1573645956428","264","-0.06640625","-0.6074219","0.59765625","-93.59375","-5.15625","-16.0"
"1573645956428","265","-0.10546875","-0.62890625","0.63183594","-82.90625","-6.5","-14.125"
"1573645956428","266","-0.047851562","-0.73046875","0.54785156","-84.125","-9.21875","-13.375"
"1573645956429","267","0.030273438","-0.7705078","0.5","-88.8125","-7.21875","-8.5625"
"1573645956429","268","-0.13378906","-0.68652344","0.5576172","-64.15625","-3.625","-7.8125"
"1573645956429","269","-0.08105469","-0.7861328","0.48242188","-46.40625","-11.1875","-4.84375"
"1573645956825","270","-0.020507812","-0.8544922","0.42578125","-56.15625","-8.75","-3.5"
"1573645956826","271","-9.765625E-4","-0.8730469","0.4326172","-45.125","-1.53125","-4.65625"
"1573645956826","272","-0.046875","-0.8701172","0.4248047","-37.1875","-11.125","-1.65625"
"1573645956826","273","-0.036132812","-0.88378906","0.34960938","-29.25","-12.71875","-1.1875"
"1573645956826","274","-0.021484375","-0.8779297","0.3515625","-32.5","-6.3125","-1.125"
"1573645956826","275","-0.015625","-0.88183594","0.37304688","-23.625","-6.96875","-1.25"
"1573645956827","276","-0.049804688","-0.87890625","0.36035156","-13.0625","-5.875","0.15625"
"1573645956827","277","-0.0146484375","-0.8808594","0.31445312","-9.0625","-10.9375","2.71875"
"1573645956828","278","-0.032226562","-0.8847656","0.3642578","-0.5","0.03125","1.625"
"1573645956828","279","-0.0390625","-0.8798828","0.39257812","15.375","-3.0625","2.5"
"1573645957222","280","-0.044921875","-0.88378906","0.39160156","20.6875","3.09375","3.21875"
"1573645957222","281","-0.020507812","-0.8378906","0.40722656","38.75","-6.3125","6.03125"
"1573645957222","282","-0.051757812","-0.8300781","0.39257812","54.625","-7.65625","8.59375"
"1573645957222","283","0.018554688","-0.8144531","0.42871094","61.25","5.90625","6.5625"
"1573645957222","284","-0.05078125","-0.7529297","0.4921875","58.46875","7.625","7.625"
"1573645957223","285","-0.044921875","-0.7314453","0.48339844","79.875","6.03125","10.375"
"1573645957223","286","-9.765625E-4","-0.64453125","0.5175781","76.53125","6.8125","18.84375"
"1573645957223","287","-0.12109375","-0.6142578","0.6298828","87.09375","22.1875","14.9375"
"1573645957223","288","-0.08496094","-0.6171875","0.64160156","90.0625","11.28125","16.21875"
"1573645957224","289","-0.14160156","-0.6796875","0.6435547","71.625","22.5","11.9375"
"1573645957817","290","0.01953125","-0.6621094","0.68359375","66.5625","8.15625","17.0625"
"1573645957818","291","-0.12207031","-0.45410156","0.68847656","78.65625","13.71875","14.21875"
"1573645957818","292","-0.25878906","-0.4345703","0.8076172","100.375","20.90625","7.375"
"1573645957818","293","-0.13671875","-0.50878906","0.6347656","92.9375","1.21875","7.0"
"1573645957818","294","-0.11035156","-0.4169922","0.703125","61.1875","33.25","1.375"
"1573645957819","295","-0.23925781","-0.44140625","0.84375","59.875","31.84375","11.03125"
"1573645957819","296","-0.18554688","-0.40527344","0.7890625","49.65625","34.53125","-0.6875"
"1573645957819","297","-0.29003906","-0.4423828","0.8876953","48.4375","32.09375","9.6875"
"1573645957819","298","-0.23730469","-0.33007812","0.7910156","39.71875","22.6875","-4.78125"
"1573645957819","299","-0.27441406","-0.3076172","0.87890625","30.3125","51.125","7.8125"
"1573645958017","300","-0.2421875","-0.34765625","0.8076172","15.5625","21.40625","3.78125"
"1573645958018","301","-0.22363281","-0.2841797","0.8359375","27.8125","21.46875","7.25"
"1573645958018","302","-0.3857422","-0.24316406","0.8623047","17.1875","28.25","8.28125"
"1573645958018","303","-0.35058594","-0.24316406","0.87109375","9.6875","25.1875","7.125"
"1573645958019","304","-0.34179688","-0.18457031","0.8076172","13.71875","5.0","1.09375"
"1573645958019","305","-0.35351562","-0.22363281","0.7753906","-1.71875","23.3125","-1.46875"
"1573645958019","306","-0.23339844","-0.1640625","0.7685547","4.125","45.40625","-7.28125"
"1573645958019","307","-0.48828125","-0.17089844","0.84472656","2.84375","54.375","-6.25"
"1573645958019","308","-0.375","-0.27148438","0.6308594","-35.40625","38.5","-19.4375"
"1573645958020","309","-0.6220703","-0.6220703","1.3193359","-30.78125","67.96875","-28.8125"
"1573645958612","310","-1.5761719","-0.9736328","2.0","-10.15625","64.875","37.09375"
"1573645958612","311","-0.59277344","-0.53808594","1.7255859","-166.9375","-91.09375","-36.5625"
"1573645958612","312","-0.111328125","-0.6611328","0.25683594","-135.34375","-130.5625","-47.375"
"1573645958613","313","-0.25585938","-0.42773438","0.56347656","-56.46875","-31.9375","-44.09375"
"1573645958614","314","-0.2841797","-0.10839844","0.44628906","-87.59375","-31.25","-38.40625"
"1573645958614","315","-0.26953125","-0.2685547","0.5214844","-76.96875","-2.59375","-43.28125"
"1573645958614","316","-0.30371094","-0.453125","0.75683594","-25.96875","14.9375","-29.96875"
"1573645958615","317","-0.2890625","-0.9042969","0.8574219","-51.09375","14.9375","-25.84375"
"1573645958615","318","-0.28027344","-0.8457031","0.90625","-58.3125","-28.59375","-24.78125"
"1573645958615","319","-0.20507812","-0.63964844","0.49902344","-32.59375","-31.6875","-12.71875"
"1573645958812","320","-0.24707031","-0.62890625","0.5566406","-33.875","-6.0625","-11.6875"
"1573645958812","321","-0.16503906","-0.6064453","0.5","-30.78125","-2.40625","-15.34375"
"1573645958812","322","-0.16113281","-0.7519531","0.52734375","-24.5","5.28125","-4.96875"
"1573645958813","323","-0.22753906","-0.79296875","0.6220703","-21.0625","15.65625","-6.84375"
"1573645958813","324","-0.1875","-0.796875","0.5888672","-16.96875","2.3125","-3.6875"
"1573645958814","325","-0.13964844","-0.8066406","0.5371094","-6.125","-5.09375","4.1875"
"1573645958814","326","-0.17285156","-0.7578125","0.5136719","7.90625","4.5625","5.125"
"1573645958814","327","-0.171875","-0.7451172","0.54296875","6.8125","9.9375","1.4375"
"1573645958814","328","-0.20898438","-0.7246094","0.55859375","12.25","4.1875","8.15625"
"1573645958815","329","-0.20117188","-0.7548828","0.5732422","21.15625","8.59375","9.03125"
"1573645959607","330","-0.20214844","-0.7363281","0.59277344","25.125","8.34375","12.5"
"1573645959608","331","-0.21484375","-0.72265625","0.56347656","31.71875","8.71875","13.96875"
"1573645959608","332","-0.2265625","-0.70214844","0.6230469","33.5","12.5","17.0625"
"1573645959608","333","-0.2548828","-0.67578125","0.5996094","44.34375","12.75","20.6875"
"1573645959609","334","-0.26660156","-0.6347656","0.6845703","44.65625","15.65625","23.90625"
"1573645959609","335","-0.2890625","-0.6328125","0.64160156","59.5625","18.1875","24.75"
"1573645959609","336","-0.26757812","-0.5751953","0.70214844","73.03125","30.125","27.9375"
"1573645959610","337","-0.37402344","-0.5107422","0.6972656","94.78125","38.75","33.125"
"1573645959611","338","-0.390625","-0.4716797","0.7558594","114.0625","62.90625","30.125"
"1573645959611","339","-0.48242188","-0.37304688","0.8496094","119.625","79.6875","29.90625"
"1573645959807","340","-0.5283203","-0.3203125","0.90527344","100.6875","79.09375","28.375"
"1573645959808","341","-0.61621094","-0.2529297","0.8828125","81.46875","65.40625","21.96875"
"1573645959808","342","-0.6738281","-0.12109375","0.90722656","67.84375","54.5625","22.5625"
"1573645959808","343","-0.6542969","-0.1171875","0.84277344","47.46875","41.5","25.4375"
"1573645959809","344","-0.7109375","-0.125","0.796875","37.9375","26.40625","22.6875"
"1573645959809","345","-0.69921875","-0.041992188","0.78515625","30.125","22.875","19.40625"
"1573645959809","346","-0.7216797","-0.06933594","0.8173828","24.59375","18.40625","14.3125"
"1573645959809","347","-0.7011719","-0.053710938","0.8359375","8.84375","3.34375","13.84375"
"1573645959810","348","-0.7324219","-0.057617188","0.8535156","-9.90625","-16.5","15.0"
"1573645959811","349","-0.7402344","-0.029296875","0.8857422","-28.34375","-34.5","16.09375"
"1573645960203","350","-0.6972656","-0.040039062","0.8876953","-65.875","-60.625","15.96875"
"1573645960203","351","-0.640625","-0.103515625","0.8701172","-80.21875","-71.78125","13.28125"
"1573645960203","352","-0.5917969","-0.111328125","0.8378906","-72.21875","-58.375","6.6875"
"1573645960203","353","-0.52441406","-0.1484375","0.8798828","-45.96875","-39.875","-0.5625"
"1573645960204","354","-0.5390625","-0.16699219","0.8574219","-15.40625","-16.375","-9.28125"
"1573645960204","355","-0.45703125","-0.19628906","0.82714844","-31.9375","-8.9375","-11.5"
"1573645960204","356","-0.4404297","-0.25585938","0.8935547","-38.03125","-7.8125","-21.5"
"1573645960205","357","-0.4404297","-0.23828125","0.8232422","-42.875","-13.6875","-21.6875"
"1573645960205","358","-0.46679688","-0.2890625","0.80078125","-53.84375","-6.96875","-28.9375"
"1573645960205","359","-0.38964844","-0.34179688","0.8173828","-55.1875","-19.1875","-32.5"
"1573645960403","360","-0.40429688","-0.38867188","0.80371094","-59.15625","-7.21875","-36.15625"
"1573645960405","361","-0.4013672","-0.4169922","0.7685547","-65.03125","-15.625","-41.59375"
"1573645960406","362","-0.35058594","-0.453125","0.7109375","-71.90625","-18.375","-44.5"
"1573645960406","363","-0.36328125","-0.49121094","0.70996094","-70.03125","-8.25","-46.28125"
"1573645960407","364","-0.3251953","-0.49121094","0.6591797","-73.3125","-17.96875","-44.75"
"1573645960407","365","-0.17871094","-0.5253906","0.62890625","-67.875","-17.84375","-38.71875"
"1573645960407","366","-0.24023438","-0.5498047","0.6201172","-64.03125","-14.40625","-33.9375"
"1573645960407","367","-0.23144531","-0.57910156","0.5498047","-70.3125","-20.15625","-35.28125"
"1573645960408","368","-0.16699219","-0.6015625","0.55078125","-70.625","-14.40625","-31.75"
"1573645960408","369","-0.22167969","-0.61816406","0.55566406","-69.03125","-9.0625","-30.34375"
"1573645961001","370","-0.140625","-0.6640625","0.51171875","-66.59375","-14.59375","-30.34375"
"1573645961001","371","-0.1328125","-0.68847656","0.49414062","-60.0625","-18.375","-22.59375"
"1573645961001","372","-0.18554688","-0.7294922","0.47753906","-50.96875","-9.90625","-16.3125"
"1573645961003","373","-0.140625","-0.86035156","0.49121094","-45.96875","-1.40625","-16.75"
"1573645961003","374","-0.09082031","-0.84765625","0.49316406","-42.75","-15.34375","-15.21875"
"1573645961003","375","-0.12988281","-0.8076172","0.43164062","-31.375","-13.125","-6.65625"
"1573645961004","376","-0.13378906","-0.7705078","0.421875","-26.1875","-5.4375","-6.1875"
"1573645961004","377","-0.13183594","-0.8046875","0.43847656","-17.90625","-6.0","-0.375"
"1573645961004","378","-0.1015625","-0.8046875","0.41992188","-5.3125","-9.15625","3.65625"
"1573645961004","379","-0.13476562","-0.81347656","0.359375","-2.09375","-12.71875","7.25"
"1573645961201","380","-0.08203125","-0.8535156","0.45507812","5.78125","1.5625","6.28125"
"1573645961202","381","-0.123046875","-0.8652344","0.4736328","15.125","-8.875","12.625"
"1573645961202","382","-0.111328125","-0.8105469","0.4482422","16.84375","-18.8125","15.3125"
"1573645961202","383","-0.11035156","-0.8876953","0.46289062","24.40625","-11.5625","16.78125"
"1573645961203","384","-0.140625","-0.83691406","0.4404297","33.8125","-15.53125","14.21875"
"1573645961204","385","-0.1015625","-0.7480469","0.40722656","40.5625","-21.5","16.90625"
"1573645961204","386","-0.07519531","-0.5996094","0.51660156","49.78125","-13.0625","15.71875"
"1573645961204","387","-0.16503906","-0.59765625","0.4609375","70.96875","-20.46875","26.0"
"1573645961205","388","-0.16601562","-0.51464844","0.47558594","69.1875","-3.3125","21.46875"
"1573645961205","389","-0.09863281","-0.56933594","0.5234375","71.15625","12.75","19.9375"
"1573645961595","390","-0.16992188","-0.6035156","0.6376953","81.34375","14.5","23.1875"
"1573645961596","391","-0.18945312","-0.6533203","0.66796875","83.78125","21.34375","23.25"
"1573645961596","392","-0.23828125","-0.6699219","0.7919922","76.21875","23.84375","24.03125"
"1573645961596","393","-0.21191406","-0.5576172","0.66015625","75.90625","7.125","20.8125"
"1573645961596","394","-0.21289062","-0.43847656","0.7675781","72.3125","26.15625","17.5"
"1573645961597","395","-0.27539062","-0.39160156","0.67578125","83.25","6.46875","24.53125"
"1573645961597","396","-0.20507812","-0.34570312","0.69140625","69.1875","30.25","13.96875"
"1573645961598","397","-0.22949219","-0.32714844","0.7910156","57.40625","28.0","19.625"
"1573645961598","398","-0.28808594","-0.24902344","0.6855469","52.46875","13.71875","18.28125"
"1573645961599","399","-0.34570312","-0.2685547","0.7236328","41.84375","37.71875","11.53125"
"1573645961993","400","-0.32421875","-0.3046875","0.7832031","30.375","40.75","2.65625"
"1573645961994","401","-0.29296875","-0.24609375","0.84472656","22.3125","41.25","-1.125"
"1573645961994","402","-0.5214844","-0.2861328","1.0390625","23.4375","52.46875","8.28125"
"1573645961994","403","-0.52441406","-0.25585938","0.98535156","20.8125","45.21875","-2.625"
"1573645961995","404","-0.5908203","-0.22851562","1.0419922","3.09375","52.0625","-2.40625"
"1573645961995","405","-0.62109375","-0.22265625","1.0380859","-34.8125","32.53125","-15.34375"
"1573645961995","406","-0.5498047","-0.2890625","0.7734375","-49.09375","14.875","-30.09375"
"1573645961995","407","-0.7089844","-0.5888672","1.203125","-36.6875","48.03125","-26.0625"
"1573645961996","408","-1.0205078","-0.94433594","1.4814453","-69.78125","19.8125","-18.875"
"1573645961998","409","-0.6269531","-0.68066406","1.3544922","-116.15625","-96.6875","-46.46875"
"1573645962391","410","-0.31445312","-0.5654297","0.44921875","-173.0","-92.65625","-63.0625"
"1573645962391","411","-0.3017578","-0.4794922","0.50390625","-53.65625","-39.625","-48.125"
"1573645962392","412","-0.35839844","-0.36328125","0.3955078","-76.125","-12.40625","-50.5"
"1573645962392","413","-0.22363281","-0.47265625","0.5419922","-62.75","3.34375","-51.59375"
"1573645962392","414","-0.2626953","-0.63183594","0.6513672","-52.375","15.65625","-34.75"
"1573645962392","415","-0.34179688","-0.8095703","0.7548828","-42.6875","9.625","-25.78125"
"1573645962393","416","-0.25683594","-0.84277344","0.6855469","-54.53125","-23.8125","-23.03125"
"1573645962393","417","-0.20214844","-0.7548828","0.48535156","-34.6875","-29.0","-12.96875"
"1573645962393","418","-0.21582031","-0.71777344","0.5019531","-28.28125","-8.3125","-9.46875"
"1573645962393","419","-0.22558594","-0.74121094","0.49023438","-30.40625","-8.9375","-10.09375"
"1573645963181","420","-0.20800781","-0.7714844","0.4873047","-40.0625","-1.53125","-14.53125"
"1573645963183","421","-0.18164062","-0.83496094","0.47460938","-27.0","3.03125","-12.96875"
"1573645963183","422","-0.19140625","-0.8515625","0.46777344","-25.21875","-3.875","-8.5"
"1573645963184","423","-0.18554688","-0.87109375","0.4658203","-9.21875","0.65625","-3.375"
"1573645963184","424","-0.18359375","-0.84472656","0.421875","-9.71875","-11.125","0.0"
"1573645963184","425","-0.16992188","-0.8574219","0.40820312","-5.625","-0.1875","-2.8125"
"1573645963185","426","-0.15332031","-0.8457031","0.4423828","-1.53125","7.75","-2.625"
"1573645963185","427","-0.17382812","-0.8691406","0.4375","-1.1875","4.0625","-0.9375"
"1573645963185","428","-0.16699219","-0.8720703","0.4482422","-2.8125","12.0","-1.90625"
"1573645963185","429","-0.16210938","-0.85253906","0.47070312","-1.0","1.15625","0.71875"
"1573645963381","430","-0.18652344","-0.81640625","0.43652344","4.8125","0.0","3.21875"
"1573645963382","431","-0.1796875","-0.8408203","0.46777344","10.71875","7.5","5.34375"
"1573645963382","432","-0.20996094","-0.8046875","0.45507812","12.0625","2.78125","8.15625"
"1573645963383","433","-0.19433594","-0.828125","0.46191406","15.84375","6.6875","9.375"
"1573645963384","434","-0.19433594","-0.8173828","0.4794922","19.875","4.5625","11.28125"
"1573645963384","435","-0.22753906","-0.78808594","0.5","24.71875","4.5625","14.5"
"1573645963384","436","-0.23144531","-0.79003906","0.47460938","31.78125","1.875","16.84375"
"1573645963385","437","-0.23535156","-0.75390625","0.51171875","37.34375","2.4375","18.96875"
"1573645963385","438","-0.234375","-0.7734375","0.5673828","53.375","6.8125","23.90625"
"1573645963385","439","-0.26464844","-0.7392578","0.578125","41.1875","4.0","22.875"
"1573645963583","440","-0.24121094","-0.74609375","0.5546875","58.40625","-3.90625","23.46875"
"1573645963583","441","-0.23730469","-0.7080078","0.58691406","49.46875","6.6875","27.09375"
"1573645963584","442","-0.28222656","-0.6660156","0.63964844","63.40625","12.0625","31.65625"
"1573645963584","443","-0.34472656","-0.7089844","0.77441406","77.0","36.90625","41.5625"
"1573645963584","444","-0.37890625","-0.56933594","0.9238281","103.625","53.9375","44.25"
"1573645963587","445","-0.60058594","-0.53808594","0.9394531","68.40625","46.375","37.875"
"1573645963587","446","-0.5830078","-0.5439453","0.9746094","49.25","18.40625","24.9375"
"1573645963587","447","-0.50390625","-0.4404297","0.88378906","35.5625","-10.875","11.15625"
"1573645963588","448","-0.4765625","-0.4296875","0.9716797","9.1875","-16.5","12.625"
"1573645963588","449","-0.49023438","-0.43652344","0.9316406","-2.9375","-24.375","9.03125"
"1573645963981","450","-0.54296875","-0.3935547","0.93847656","2.0","-21.4375","-1.96875"
"1573645963981","451","-0.5019531","-0.41210938","0.89160156","12.5625","-8.8125","-10.15625"
"1573645963982","452","-0.46679688","-0.41015625","0.8876953","9.75","-7.8125","-5.4375"
"1573645963982","453","-0.44628906","-0.42578125","0.9189453","-10.15625","-5.5","-12.21875"
"1573645963982","454","-0.41308594","-0.37597656","0.7441406","-24.5625","-15.15625","-19.1875"
"1573645963982","455","-0.4013672","-0.40527344","0.84277344","-34.9375","-9.71875","-21.0"
"1573645963983","456","-0.3720703","-0.4453125","0.7841797","-25.71875","-13.6875","-18.15625"
"1573645963984","457","-0.32617188","-0.45898438","0.8105469","-47.375","-19.125","-18.625"
"1573645963984","458","-0.31445312","-0.46484375","0.7949219","-48.21875","-26.1875","-19.5"
"1573645963985","459","-0.375","-0.4970703","0.71191406","-53.25","-22.96875","-25.65625"
"1573645964774","460","-0.27539062","-0.5214844","0.7246094","-57.5625","-16.375","-30.21875"
"1573645964775","461","-0.25976562","-0.5576172","0.70996094","-66.1875","-21.375","-26.1875"
"1573645964775","462","-0.23632812","-0.5810547","0.68066406","-62.6875","-20.28125","-26.9375"
"1573645964775","463","-0.19433594","-0.5830078","0.625","-65.625","-22.46875","-26.5"
"1573645964776","464","-0.18457031","-0.60058594","0.58984375","-71.71875","-20.84375","-28.65625"
"1573645964776","465","-0.10546875","-0.5830078","0.51953125","-75.625","-27.65625","-26.5625"
"1573645964776","466","-0.14355469","-0.6123047","0.4716797","-74.53125","-26.3125","-21.0625"
"1573645964776","467","-0.052734375","-0.63378906","0.47265625","-68.5","-18.625","-18.15625"
"1573645964777","468","-0.11328125","-0.6152344","0.44921875","-71.65625","-23.21875","-11.625"
"1573645964778","469","-0.047851562","-0.7392578","0.47460938","-70.5","-14.0","-7.875"
"1573645964974","470","-0.12597656","-0.7919922","0.4970703","-57.3125","-15.15625","-6.71875"
"1573645964974","471","-0.15039062","-0.79003906","0.41210938","-45.3125","-19.0625","-7.15625"
"1573645964974","472","-0.07714844","-0.84375","0.40527344","-41.8125","-2.6875","-7.9375"
"1573645964975","473","-0.0078125","-0.89160156","0.37109375","-49.5625","-15.28125","-8.25"
"1573645964975","474","-0.048828125","-0.8408203","0.39941406","-27.40625","-14.90625","-5.03125"
"1573645964975","475","-0.115234375","-0.81347656","0.41992188","-13.3125","-12.96875","-4.09375"
"1573645964975","476","-0.040039062","-0.85058594","0.38183594","-9.0","-17.40625","0.53125"
"1573645964976","477","0.0126953125","-0.8544922","0.3671875","-11.90625","-20.71875","4.3125"
"1573645964976","478","-0.08886719","-0.9199219","0.4091797","2.59375","-14.78125","3.09375"
"1573645964976","479","-0.0087890625","-0.8876953","0.34570312","13.78125","-19.25","4.0625"
"1573645965371","480","-0.0546875","-0.8339844","0.38671875","21.46875","-15.875","4.25"
"1573645965373","481","-0.013671875","-0.82421875","0.34375","28.25","-24.125","8.46875"
"1573645965373","482","0.0078125","-0.7158203","0.36621094","39.53125","-12.09375","8.46875"
"1573645965374","483","-0.03515625","-0.78222656","0.4970703","54.0625","-9.46875","13.71875"
"1573645965374","484","-0.030273438","-0.83496094","0.4013672","57.46875","-17.59375","14.625"
"1573645965374","485","0.0","-0.6748047","0.43164062","61.75","-12.03125","12.875"
"1573645965374","486","-0.01953125","-0.5810547","0.49414062","82.03125","13.40625","10.71875"
"1573645965374","487","-0.08886719","-0.5888672","0.4560547","98.875","6.46875","17.625"
"1573645965375","488","-0.087890625","-0.54296875","0.57910156","106.125","32.15625","17.6875"
"1573645965375","489","-0.14257812","-0.4794922","0.7080078","106.25","33.125","18.40625"
"1573645965768","490","-0.1640625","-0.59472656","0.61035156","107.96875","23.84375","15.5"
"1573645965769","491","-0.14160156","-0.47070312","0.80566406","98.25","39.65625","7.6875"
"1573645965769","492","-0.1875","-0.390625","0.72558594","92.5","3.53125","15.71875"
"1573645965770","493","-0.25390625","-0.3720703","0.7314453","96.25","42.40625","5.40625"
"1573645965770","494","-0.21679688","-0.37890625","0.8769531","82.375","54.96875","-1.25"
"1573645965771","495","-0.26757812","-0.2578125","0.83984375","68.15625","29.78125","9.5625"
"1573645965771","496","-0.29003906","-0.3466797","0.89160156","56.0","47.21875","3.90625"
"1573645965771","497","-0.25878906","-0.29296875","0.9667969","27.875","48.1875","-5.5"
"1573645965772","498","-0.28808594","-0.32128906","1.0166016","4.6875","38.6875","0.0"
"1573645965772","499","-0.30078125","-0.28125","1.0488281","2.65625","21.90625","1.8125"
"1573645966363","500","-0.48828125","-0.24707031","1.0214844","-14.96875","21.34375","-4.90625"
"1573645966364","501","-0.38867188","-0.1796875","0.8466797","-32.90625","-4.09375","-1.65625"
"1573645966364","502","-0.36035156","-0.4970703","0.9951172","17.625","19.875","4.875"
"1573645966364","503","-0.3857422","-0.18066406","0.9765625","-34.75","21.09375","-19.375"
"1573645966364","504","-0.35546875","-0.421875","0.7246094","-70.75","5.96875","-32.3125"
"1573645966366","505","-0.39160156","-0.5644531","0.73535156","-111.84375","2.3125","-62.6875"
"1573645966366","506","-0.22949219","-0.3671875","0.7578125","-113.28125","-6.0625","-67.75"
"1573645966366","507","-0.76464844","-1.3623047","1.5126953","-62.5","53.9375","-24.0625"
"1573645966367","508","-0.51660156","-1.0087891","1.6171875","-17.40625","-10.09375","-43.84375"
"1573645966367","509","-0.23535156","-0.69433594","0.49121094","-58.65625","-50.90625","-8.75"
"1573645966564","510","-0.13183594","-0.5361328","0.40625","9.4375","-24.375","-2.03125"
"1573645966564","511","-0.27539062","-0.3798828","0.40527344","-66.96875","-6.96875","-16.25"
"1573645966565","512","-0.25","-0.4423828","0.53027344","-55.6875","4.875","-27.53125"
"1573645966565","513","-0.20898438","-0.55859375","0.61816406","-55.8125","16.21875","-37.75"
"1573645966565","514","-0.26953125","-0.8095703","0.7597656","-49.03125","14.03125","-38.09375"
"1573645966565","515","-0.24121094","-0.8955078","0.7294922","-34.625","-18.375","-27.0"
"1573645966566","516","-0.13183594","-0.7910156","0.5292969","-26.625","-17.59375","-16.25"
"1573645966567","517","-0.20800781","-0.734375","0.5097656","-20.65625","8.28125","-8.125"
"1573645966567","518","-0.15917969","-0.7910156","0.5410156","-21.5625","6.5","-16.1875"
"1573645966568","519","-0.16113281","-0.79296875","0.48339844","-33.84375","-10.875","-19.71875"
"1573645967158","520","-0.11816406","-0.765625","0.43847656","-14.25","3.84375","-18.75"
"1573645967159","521","-0.16992188","-0.86035156","0.49902344","-13.5625","10.65625","-15.15625"
"1573645967159","522","-0.12597656","-0.85839844","0.45507812","-6.4375","-7.09375","-8.625"
"1573645967159","523","-0.08984375","-0.8378906","0.5029297","4.0","4.125","6.09375"
"1573645967159","524","-0.13183594","-0.8388672","0.4794922","4.9375","11.03125","15.96875"
"1573645967160","525","-0.12207031","-0.8144531","0.5361328","2.1875","10.0625","13.59375"
"1573645967160","526","-0.13574219","-0.79589844","0.4716797","10.90625","1.3125","11.59375"
"1573645967160","527","-0.19140625","-0.8076172","0.5136719","14.28125","3.90625","11.28125"
"1573645967160","528","-0.20019531","-0.7939453","0.5126953","18.21875","3.09375","7.6875"
"1573645967161","529","-0.18261719","-0.77246094","0.5253906","18.78125","5.59375","12.25"
"1573645967358","530","-0.21191406","-0.78125","0.54785156","21.59375","8.59375","17.75"
"1573645967359","531","-0.21972656","-0.7558594","0.56152344","23.3125","10.375","18.34375"
"1573645967359","532","-0.23046875","-0.7451172","0.55371094","26.96875","8.46875","21.59375"
"1573645967359","533","-0.24511719","-0.7138672","0.54296875","25.0","8.03125","23.25"
"1573645967360","534","-0.23730469","-0.7128906","0.59375","41.5625","13.71875","29.46875"
"1573645967360","535","-0.3017578","-0.7011719","0.60839844","35.9375","8.90625","28.5"
"1573645967360","536","-0.2529297","-0.6503906","0.6015625","48.9375","4.1875","33.5"
"1573645967361","537","-0.3544922","-0.6201172","0.6767578","51.4375","13.15625","36.46875"
"1573645967361","538","-0.32226562","-0.56640625","0.64160156","52.84375","6.46875","34.78125"
"1573645967361","539","-0.3671875","-0.52441406","0.6933594","74.21875","20.90625","41.125"
"1573645967756","540","-0.37597656","-0.5361328","0.7685547","50.53125","17.875","39.59375"
"1573645967757","541","-0.48828125","-0.5546875","0.88964844","27.34375","37.65625","34.84375"
"1573645967757","542","-0.58203125","-0.4482422","0.88183594","17.875","40.8125","31.28125"
"1573645967758","543","-0.5439453","-0.44140625","0.81347656","19.03125","36.59375","28.65625"
"1573645967758","544","-0.609375","-0.43554688","0.890625","29.78125","29.9375","27.75"
"1573645967758","545","-0.5957031","-0.42578125","0.84472656","27.6875","19.875","23.90625"
"1573645967759","546","-0.61621094","-0.41992188","0.86328125","36.0","8.15625","24.34375"
"1573645967759","547","-0.62109375","-0.39160156","0.88183594","38.5","-6.84375","21.90625"
"1573645967759","548","-0.6533203","-0.3701172","0.94628906","42.90625","-21.6875","19.09375"
"1573645967759","549","-0.6767578","-0.34960938","0.99609375","25.75","-14.78125","14.15625"
"1573645968155","550","-0.640625","-0.3154297","0.921875","-10.875","0.78125","-12.84375"
"1573645968155","551","-0.5644531","-0.26464844","0.83496094","-7.65625","-3.0","-14.84375"
"1573645968156","552","-0.53222656","-0.2861328","0.7949219","-18.875","3.9375","-16.8125"
"1573645968156","553","-0.5488281","-0.3203125","0.78125","-28.46875","4.8125","-21.75"
"1573645968156","554","-0.49609375","-0.3486328","0.76660156","-37.0","-4.53125","-26.25"
"1573645968157","555","-0.5214844","-0.31933594","0.75390625","-41.34375","-5.21875","-27.25"
"1573645968157","556","-0.5097656","-0.4033203","0.7392578","-48.46875","-6.96875","-30.84375"
"1573645968157","557","-0.48535156","-0.42285156","0.7421875","-52.75","-9.78125","-39.8125"
"1573645968158","558","-0.43652344","-0.4404297","0.6923828","-58.0625","-14.3125","-39.5"
"1573645968158","559","-0.40625","-0.48828125","0.6953125","-60.875","-12.90625","-39.3125"
"1573645968553","560","-0.42382812","-0.5205078","0.6533203","-68.125","-18.8125","-42.6875"
"1573645968554","561","-0.3251953","-0.51660156","0.5722656","-72.90625","-22.0625","-45.71875"
"1573645968554","562","-0.265625","-0.5810547","0.6171875","-74.40625","-18.8125","-43.90625"
"1573645968554","563","-0.3203125","-0.6142578","0.5205078","-80.53125","-32.0","-41.8125"
"1573645968554","564","-0.2626953","-0.5761719","0.4970703","-81.375","-17.78125","-43.09375"
"1573645968556","565","-0.23828125","-0.62890625","0.4482422","-82.53125","-20.15625","-41.875"
"1573645968556","566","-0.16699219","-0.6542969","0.4501953","-83.875","-11.6875","-40.375"
"1573645968556","567","-0.2109375","-0.72265625","0.4033203","-74.21875","-15.75","-28.8125"
"1573645968557","568","-0.1328125","-0.76171875","0.40039062","-69.0","-10.875","-30.03125"
"1573645968557","569","-0.19335938","-0.796875","0.42578125","-55.875","-8.4375","-21.75"
"1573645969344","570","-0.1875","-0.8066406","0.32421875","-59.9375","-17.46875","-24.3125"
"1573645969345","571","-0.12207031","-0.8857422","0.36914062","-37.96875","-4.46875","-19.78125"
"1573645969345","572","-0.09082031","-0.8886719","0.359375","-47.1875","-17.09375","-17.84375"
"1573645969346","573","-0.15820312","-0.8251953","0.31640625","-33.03125","-13.6875","-6.125"
"1573645969346","574","-0.19238281","-0.875","0.32910156","-22.46875","-2.8125","-6.5"
"1573645969346","575","-0.09375","-0.8701172","0.31933594","-13.0625","-11.25","-12.09375"
"1573645969347","576","-0.115234375","-0.8466797","0.2998047","0.65625","-5.625","-2.28125"
"1573645969348","577","-0.12011719","-0.9707031","0.27246094","10.46875","3.21875","-0.1875"
"1573645969349","578","-0.060546875","-0.9824219","0.31640625","15.3125","0.34375","-2.6875"
"1573645969349","579","-0.11621094","-0.9082031","0.27148438","13.46875","-1.0","4.4375"
"1573645969543","580","-0.14941406","-0.9453125","0.31835938","24.75","10.46875","1.75"
"1573645969543","581","-0.06640625","-0.85839844","0.32910156","23.59375","2.78125","3.90625"
"1573645969544","582","-0.09765625","-0.82421875","0.32421875","28.0625","3.03125","12.5"
"1573645969544","583","-0.13378906","-0.84375","0.38671875","40.09375","9.5","16.90625"
"1573645969544","584","-0.095703125","-0.7236328","0.39257812","41.71875","-4.15625","20.125"
"1573645969544","585","-0.15917969","-0.71191406","0.42382812","59.90625","13.71875","30.625"
"1573645969545","586","-0.25097656","-0.7675781","0.44921875","68.59375","6.46875","28.1875"
"1573645969545","587","-0.15527344","-0.6220703","0.40527344","70.53125","4.375","31.96875"
"1573645969545","588","-0.14648438","-0.59375","0.45996094","80.78125","20.625","38.25"
"1573645969546","589","-0.25390625","-0.6035156","0.53515625","90.875","16.84375","51.375"
"1573645969744","590","-0.30273438","-0.5830078","0.5566406","88.3125","25.4375","48.5625"
"1573645969744","591","-0.21289062","-0.57910156","0.5644531","69.75","27.03125","36.71875"
"1573645969744","592","-0.38378906","-0.5517578","0.6621094","102.59375","38.125","47.96875"
"1573645969744","593","-0.4033203","-0.4404297","0.59765625","53.375","25.9375","29.40625"
"1573645969745","594","-0.32421875","-0.4736328","0.67871094","81.71875","30.3125","27.8125"
"1573645969745","595","-0.20019531","-0.40625","0.6123047","48.5","16.15625","29.34375"
"1573645969745","596","-0.47851562","-0.37109375","0.75878906","53.8125","36.96875","32.53125"
"1573645969745","597","-0.4375","-0.44335938","0.57421875","25.5625","6.21875","14.9375"
"1573645969746","598","-0.45703125","-0.4140625","0.8183594","13.71875","29.15625","8.28125"
"1573645969746","599","-0.5214844","-0.4375","0.6933594","4.75","1.5625","-1.34375"
"1573645970142","600","-0.5410156","-0.40527344","0.84472656","8.15625","20.1875","-5.21875"
"1573645970143","601","-0.6015625","-0.45117188","0.96972656","-2.34375","6.5","-9.0"
"1573645970143","602","-0.6308594","-0.5078125","0.9736328","-16.9375","7.84375","-11.84375"
"1573645970144","603","-0.4814453","-0.5546875","0.77441406","-57.09375","-25.09375","-44.9375"
"1573645970144","604","-0.4423828","-0.6591797","0.8378906","-66.0625","-11.125","-64.96875"
"1573645970144","605","-0.94921875","-1.3466797","1.546875","-82.34375","20.0","-38.46875"
"1573645970144","606","-0.73339844","-1.0449219","1.5341797","-39.625","-4.71875","-62.75"
"1573645970145","607","-0.31152344","-0.53125","0.46875","-142.84375","-56.96875","-61.0"
"1573645970145","608","-0.08886719","-0.5810547","0.25195312","-11.25","-24.75","-23.5625"
"1573645970146","609","-0.25683594","-0.5078125","0.47265625","-77.78125","-14.1875","-34.5625"
"1573645970737","610","-0.2529297","-0.47460938","0.4169922","-86.6875","-8.6875","-55.4375"
"1573645970737","611","-0.27734375","-0.6826172","0.53222656","-78.75","19.5625","-43.15625"
"1573645970738","612","-0.3408203","-0.9326172","0.5546875","-79.71875","15.0","-35.96875"
"1573645970738","613","-0.20996094","-0.97265625","0.5234375","-51.71875","-15.625","-34.4375"
"1573645970739","614","-0.15527344","-0.8359375","0.3623047","-25.28125","-16.8125","-14.46875"
"1573645970739","615","-0.18847656","-0.8828125","0.36914062","-12.59375","-0.5625","-9.34375"
"1573645970739","616","-0.13574219","-0.8925781","0.37402344","-31.75","-10.4375","-15.15625"
"1573645970740","617","-0.119140625","-0.86621094","0.3623047","-28.40625","-9.65625","-16.3125"
"1573645970740","618","-0.16503906","-0.88671875","0.3720703","-29.4375","-6.53125","-14.59375"
"1573645970740","619","-0.1484375","-0.9003906","0.3232422","-16.3125","-4.90625","-15.46875"
"1573645970936","620","-0.12207031","-0.93652344","0.34472656","-20.15625","0.65625","-13.1875"
"1573645970936","621","-0.12402344","-0.9091797","0.32617188","-17.71875","-2.9375","-10.21875"
"1573645970936","622","-0.11328125","-0.8935547","0.3125","-3.3125","-8.125","-2.875"
"1573645970937","623","-0.11328125","-0.9082031","0.29882812","-1.90625","-1.46875","-0.6875"
"1573645970937","624","-0.11035156","-0.9169922","0.30371094","2.0","1.625","1.5625"
"1573645970939","625","-0.09863281","-0.92285156","0.2919922","4.8125","-1.84375","3.90625"
"1573645970939","626","-0.10839844","-0.9248047","0.33984375","7.90625","6.46875","6.15625"
"1573645970939","627","-0.111328125","-0.91503906","0.28027344","16.15625","-0.1875","9.03125"
"1573645970939","628","-0.119140625","-0.90234375","0.32421875","13.15625","2.4375","10.375"
"1573645970940","629","-0.13085938","-0.8847656","0.37597656","26.09375","10.71875","15.0625"
"1573645971333","630","-0.14648438","-0.8730469","0.34765625","23.3125","1.21875","17.625"
"1573645971333","631","-0.15234375","-0.87890625","0.35546875","39.71875","7.90625","22.8125"
"1573645971334","632","-0.16796875","-0.8515625","0.41503906","37.28125","6.9375","24.03125"
"1573645971334","633","-0.18359375","-0.8300781","0.40234375","46.5625","9.6875","30.25"
"1573645971334","634","-0.19335938","-0.83984375","0.44140625","49.125","8.84375","32.6875"
"1573645971334","635","-0.203125","-0.8144531","0.48242188","65.15625","8.71875","38.625"
"1573645971335","636","-0.22753906","-0.8076172","0.5078125","60.65625","6.03125","38.4375"
"1573645971336","637","-0.31640625","-0.79589844","0.61816406","65.53125","15.4375","46.5"
"1573645971336","638","-0.40234375","-0.75097656","0.70703125","74.9375","14.625","42.46875"
"1573645971336","639","-0.3984375","-0.64160156","0.7138672","65.53125","14.09375","43.8125"
"1573645971731","640","-0.4560547","-0.57714844","0.68359375","61.03125","13.96875","42.90625"
"1573645971732","641","-0.4716797","-0.5527344","0.8203125","66.9375","28.78125","42.09375"
"1573645971732","642","-0.484375","-0.50683594","0.7841797","53.75","21.28125","35.1875"
"1573645971732","643","-0.5498047","-0.5205078","0.8466797","50.15625","38.3125","32.40625"
"1573645971733","644","-0.57714844","-0.5136719","0.83691406","30.3125","25.6875","23.0625"
"1573645971733","645","-0.58203125","-0.50097656","0.88183594","26.65625","3.90625","15.96875"
"1573645971733","646","-0.5751953","-0.48339844","0.86816406","23.96875","-1.0","14.3125"
"1573645971733","647","-0.6591797","-0.4560547","0.9589844","14.21875","9.8125","18.0"
"1573645971734","648","-0.6591797","-0.4560547","0.8876953","-0.375","-12.46875","-5.875"
"1573645971736","649","-0.51464844","-0.37109375","0.8203125","27.8125","-7.53125","-7.15625"
"1573645972130","650","-0.6171875","-0.42382812","0.86816406","-2.09375","3.34375","-5.75"
"1573645972130","651","-0.5126953","-0.38964844","0.7841797","0.78125","-15.09375","-21.5625"
"1573645972131","652","-0.44335938","-0.37304688","0.78808594","-15.34375","-5.75","-19.53125"
"1573645972131","653","-0.5185547","-0.38867188","0.7792969","-24.0","0.21875","-26.125"
"1573645972131","654","-0.41308594","-0.4013672","0.71484375","-31.21875","-13.375","-34.5625"
"1573645972131","655","-0.4013672","-0.4267578","0.7285156","-35.28125","-5.3125","-31.4375"
"1573645972132","656","-0.40234375","-0.4609375","0.69921875","-54.21875","-16.3125","-40.53125"
"1573645972132","657","-0.38476562","-0.48535156","0.66308594","-51.59375","-17.59375","-39.375"
"1573645972132","658","-0.3623047","-0.48242188","0.6435547","-61.78125","-17.09375","-43.21875"
"1573645972133","659","-0.34765625","-0.53808594","0.64453125","-65.1875","-7.71875","-40.59375"
"1573645972724","660","-0.2841797","-0.55566406","0.5605469","-67.71875","-22.96875","-47.8125"
"1573645972725","661","-0.23730469","-0.5283203","0.57714844","-73.9375","-11.5","-43.46875"
"1573645972726","662","-0.2421875","-0.63964844","0.55078125","-69.90625","-15.6875","-39.5"
"1573645972726","663","-0.21484375","-0.6611328","0.5390625","-75.875","-26.75","-38.96875"
"1573645972726","664","-0.22460938","-0.63378906","0.46972656","-75.9375","-25.65625","-32.59375"
"1573645972726","665","-0.13183594","-0.6699219","0.43945312","-72.46875","-27.34375","-28.875"
"1573645972727","666","-0.14648438","-0.6953125","0.43847656","-72.9375","-22.78125","-24.6875"
"1573645972727","667","-0.19140625","-0.7158203","0.39453125","-60.125","-25.46875","-15.875"
"1573645972727","668","-0.140625","-0.84277344","0.44921875","-60.875","-7.40625","-16.375"
"1573645972728","669","-0.15429688","-0.8798828","0.4140625","-57.6875","-20.15625","-17.96875"
"1573645973121","670","-0.1484375","-0.8769531","0.35546875","-54.09375","-8.5625","-17.90625"
"1573645973122","671","-0.087890625","-0.8964844","0.3251953","-62.21875","-10.03125","-18.03125"
"1573645973122","672","-0.12207031","-0.90625","0.27246094","-55.0","-5.03125","-13.125"
"1573645973123","673","-0.061523438","-0.85546875","0.23144531","-52.9375","-7.8125","-15.875"
"1573645973124","674","-0.09375","-0.95214844","0.2626953","-35.15625","1.09375","-8.375"
"1573645973124","675","-0.06640625","-0.99902344","0.17773438","-32.3125","-3.375","-9.28125"
"1573645973124","676","-0.0625","-0.96875","0.20117188","-22.65625","-3.6875","-6.90625"
"1573645973125","677","-0.05859375","-0.9394531","0.17578125","-15.21875","-4.40625","-3.125"
"1573645973125","678","-0.0146484375","-0.9482422","0.17382812","2.59375","-5.5","-0.25"
"1573645973125","679","-0.08105469","-0.9482422","0.23339844","2.4375","-0.4375","3.71875"
"1573645973321","680","-0.08300781","-0.96875","0.16113281","11.75","-2.34375","7.125"
"1573645973321","681","-0.045898438","-0.9238281","0.21777344","32.46875","-6.375","12.0625"
"1573645973321","682","-0.09082031","-0.875","0.17675781","28.0625","-5.6875","12.375"
"1573645973321","683","-0.08300781","-0.890625","0.18652344","28.625","8.46875","13.84375"
"1573645973322","684","0.0146484375","-0.8203125","0.28222656","43.625","-0.625","16.21875"
"1573645973323","685","-0.12792969","-0.7001953","0.3046875","62.1875","-7.8125","25.0625"
"1573645973323","686","-0.1875","-0.6796875","0.24511719","69.6875","0.65625","29.15625"
"1573645973323","687","-0.0087890625","-0.6972656","0.33691406","68.78125","4.125","27.34375"
"1573645973324","688","-0.12890625","-0.71191406","0.4501953","81.65625","12.5","32.8125"
"1573645973324","689","-0.2783203","-0.6435547","0.42578125","95.8125","-5.8125","34.59375"
"1573645973718","690","-0.1015625","-0.6035156","0.28515625","83.125","16.40625","28.625"
"1573645973719","691","-0.05859375","-0.546875","0.484375","92.875","15.1875","37.71875"
"1573645973719","692","-0.29589844","-0.54003906","0.39257812","92.75","15.1875","48.03125"
"1573645973719","693","-0.2578125","-0.5449219","0.57910156","86.84375","36.4375","37.65625"
"1573645973719","694","-0.30371094","-0.51953125","0.5683594","92.28125","34.40625","49.25"
"1573645973720","695","-0.40039062","-0.5498047","0.765625","71.09375","31.125","47.34375"
"1573645973720","696","-0.4189453","-0.5810547","0.6875","82.3125","42.65625","45.40625"
"1573645973721","697","-0.55859375","-0.6533203","0.9013672","54.375","19.75","27.5"
"1573645973721","698","-0.46484375","-0.5439453","0.92285156","54.625","-3.3125","11.15625"
"1573645973722","699","-0.62402344","-0.57910156","0.9609375","28.71875","-2.21875","3.53125"
"1573645974117","700","-0.38183594","-0.5800781","0.8798828","-1.46875","-0.8125","-24.5625"
"1573645974118","701","-0.47070312","-0.6308594","1.0595703","-53.96875","-1.34375","-44.8125"
"1573645974118","702","-0.765625","-1.0214844","1.4970703","-76.75","-10.21875","-29.25"
"1573645974118","703","-0.60058594","-0.9560547","1.2421875","-73.125","5.46875","-42.0625"
"1573645974119","704","-0.36523438","-0.7832031","0.94921875","-116.15625","-17.46875","-48.65625"
"1573645974119","705","-0.12695312","-0.6611328","0.33007812","-32.375","-0.0625","-40.59375"
"1573645974119","706","-0.26171875","-0.4560547","0.35546875","-38.21875","1.75","-24.5625"
"1573645974119","707","-0.296875","-0.41210938","0.38085938","-75.8125","8.09375","-54.6875"
"1573645974120","708","-0.18652344","-0.64746094","0.5263672","-57.8125","20.0","-55.25"
"1573645974121","709","-0.28320312","-0.8544922","0.65625","-53.25","8.78125","-42.8125"
"1573645974909","710","-0.22070312","-0.97753906","0.703125","-25.34375","-14.53125","-28.34375"
"1573645974910","711","-0.18945312","-0.8496094","0.5185547","-27.71875","-26.03125","-19.5"
"1573645974910","712","-0.18066406","-0.734375","0.36523438","-3.75","-1.90625","-6.1875"
"1573645974910","713","-0.18359375","-0.72265625","0.48632812","-8.25","8.09375","-4.53125"
"1573645974911","714","-0.20214844","-0.7734375","0.390625","-17.34375","2.71875","-1.78125"
"1573645974911","715","-0.20605469","-0.83691406","0.48046875","-2.09375","11.53125","-1.125"
"1573645974911","716","-0.20019531","-0.8183594","0.48535156","-4.21875","7.625","5.21875"
"1573645974911","717","-0.19726562","-0.81933594","0.45703125","14.28125","1.8125","15.96875"
"1573645974912","718","-0.18261719","-0.7480469","0.4501953","35.1875","1.09375","19.75"
"1573645974912","719","-0.2109375","-0.7783203","0.5107422","42.65625","9.5625","26.71875"
"1573645975108","720","-0.22949219","-0.80078125","0.52246094","54.1875","4.3125","30.1875"
"1573645975110","721","-0.22949219","-0.7626953","0.5566406","50.03125","6.21875","38.0625"
"1573645975111","722","-0.25585938","-0.6894531","0.5595703","60.59375","3.34375","40.03125"
"1573645975111","723","-0.2939453","-0.6455078","0.56640625","68.34375","10.59375","38.3125"
"1573645975111","724","-0.27148438","-0.6230469","0.6611328","86.59375","13.96875","38.3125"
"1573645975111","725","-0.37695312","-0.6142578","0.7939453","98.9375","15.625","47.59375"
"1573645975112","726","-0.39648438","-0.5292969","0.8828125","112.53125","2.1875","43.0"
"1573645975112","727","-0.5283203","-0.4345703","0.9746094","103.6875","17.0625","40.8125"
"1573645975112","728","-0.4736328","-0.35351562","0.90722656","80.5625","6.5625","28.65625"
"1573645975113","729","-0.49414062","-0.2421875","0.9296875","67.375","20.25","26.96875"
"1573645975308","730","-0.5722656","-0.24511719","0.9873047","43.0625","23.46875","26.28125"
"1573645975308","731","-0.5810547","-0.24511719","0.9707031","15.3125","27.4375","16.84375"
"1573645975309","732","-0.5751953","-0.26660156","0.97753906","-18.8125","26.28125","6.5625"
"1573645975310","733","-0.60058594","-0.29003906","0.9638672","-32.25","26.78125","3.21875"
"1573645975310","734","-0.609375","-0.3017578","0.96191406","-40.53125","22.5","-5.75"
"1573645975310","735","-0.59765625","-0.35058594","0.8935547","-37.375","12.6875","-13.5625"
"1573645975311","736","-0.57128906","-0.34765625","0.8417969","-26.1875","3.9375","-20.40625"
"1573645975311","737","-0.5673828","-0.3564453","0.79785156","-32.3125","-4.40625","-23.875"
"1573645975311","738","-0.5332031","-0.36621094","0.78222656","-20.71875","-8.0","-26.125"
"1573645975312","739","-0.49023438","-0.37402344","0.80078125","-18.15625","1.15625","-26.5"
"1573645976102","740","-0.4716797","-0.3955078","0.80566406","-53.71875","-16.875","-26.8125"
"1573645976103","741","-0.46972656","-0.4033203","0.71777344","-45.71875","-19.96875","-25.84375"
"1573645976103","742","-0.42773438","-0.4326172","0.7060547","-51.46875","-19.3125","-29.0625"
"1573645976103","743","-0.37597656","-0.45996094","0.6621094","-57.625","-23.875","-28.46875"
"1573645976103","744","-0.39453125","-0.49902344","0.68359375","-57.21875","-24.75","-30.90625"
"1573645976105","745","-0.32910156","-0.5205078","0.6074219","-63.1875","-29.0","-34.9375"
"1573645976106","746","-0.31640625","-0.5410156","0.65722656","-89.6875","-25.96875","-37.84375"
"1573645976106","747","-0.25976562","-0.5517578","0.5576172","-74.59375","-27.53125","-37.6875"
"1573645976106","748","-0.27734375","-0.62597656","0.60253906","-76.5","-19.78125","-40.0"
"1573645976107","749","-0.24023438","-0.5830078","0.54003906","-76.25","-35.90625","-39.9375"
"1573645976300","750","-0.16699219","-0.6152344","0.43652344","-74.90625","-38.59375","-35.78125"
"1573645976300","751","-0.16796875","-0.6767578","0.46875","-75.09375","-24.6875","-32.375"
"1573645976301","752","-0.140625","-0.7128906","0.47265625","-72.34375","-23.28125","-28.75"
"1573645976301","753","-0.11621094","-0.74902344","0.43945312","-78.3125","-34.3125","-21.8125"
"1573645976301","754","-0.1796875","-0.7871094","0.44140625","-53.46875","-16.9375","-17.28125"
"1573645976301","755","-0.14160156","-0.7871094","0.38085938","-55.875","-25.96875","-20.03125"
"1573645976302","756","-0.095703125","-0.8105469","0.3701172","-39.0625","-16.8125","-10.21875"
"1573645976303","757","-0.14941406","-0.8466797","0.3701172","-25.90625","-10.9375","-8.125"
"1573645976303","758","-0.12011719","-0.86035156","0.3544922","-14.84375","-3.375","-8.25"
"1573645976303","759","-0.03515625","-0.8671875","0.3466797","-6.65625","-3.25","-5.25"
"1573645976502","760","-0.1015625","-0.8486328","0.33691406","0.65625","-0.4375","2.4375"
"1573645976502","761","-0.115234375","-0.9423828","0.40527344","4.375","7.375","2.4375"
"1573645976503","762","-0.07519531","-0.87597656","0.3232422","19.34375","0.96875","4.3125"
"1573645976503","763","-0.09277344","-0.83984375","0.3515625","17.8125","-0.25","7.0"
"1573645976503","764","-0.06933594","-0.92089844","0.3359375","23.78125","5.40625","8.03125"
"1573645976503","765","-0.056640625","-0.8232422","0.36914062","25.5","1.3125","11.71875"
"1573645976504","766","-0.08300781","-0.82910156","0.39746094","25.5","-2.09375","20.4375"
"1573645976504","767","-0.045898438","-0.7558594","0.40625","40.21875","-5.4375","20.3125"
"1573645976504","768","-0.14941406","-0.5644531","0.4169922","73.84375","-9.0","29.34375"
"1573645976505","769","-0.21679688","-0.5839844","0.4296875","76.21875","1.4375","28.125"
"1573645977095","770","-0.078125","-0.5673828","0.4453125","85.1875","5.78125","23.71875"
"1573645977096","771","-0.19628906","-0.5205078","0.4609375","70.84375","25.3125","27.4375"
"1573645977096","772","-0.18066406","-0.58496094","0.58496094","84.59375","22.5","23.3125"
"1573645977096","773","-0.23144531","-0.5205078","0.5908203","64.75","30.3125","22.75"
"1573645977097","774","-0.19921875","-0.53222656","0.64941406","81.59375","24.40625","22.1875"
"1573645977097","775","-0.24707031","-0.51660156","0.6123047","93.96875","20.6875","32.28125"
"1573645977097","776","-0.32617188","-0.49023438","0.77246094","74.875","47.46875","31.84375"
"1573645977098","777","-0.30566406","-0.45410156","0.7470703","71.53125","30.4375","29.09375"
"1573645977098","778","-0.34570312","-0.484375","0.72265625","58.53125","23.3125","34.03125"
"1573645977098","779","-0.4267578","-0.48242188","0.7939453","29.34375","42.46875","26.53125"
"1573645977496","780","-0.34277344","-0.4892578","0.7832031","24.65625","18.90625","16.65625"
"1573645977497","781","-0.46191406","-0.453125","0.80566406","5.40625","21.46875","15.625"
"1573645977498","782","-0.45117188","-0.5527344","0.8808594","-14.0","9.75","-1.71875"
"1573645977498","783","-0.5605469","-0.453125","0.98828125","-8.8125","3.59375","-9.0625"
"1573645977498","784","-0.5703125","-0.51660156","0.9658203","-21.125","-14.84375","-22.125"
"1573645977499","785","-0.35839844","-0.52246094","0.7451172","-34.375","-18.4375","-40.96875"
"1573645977499","786","-0.45410156","-0.7714844","1.1953125","-72.21875","41.375","-34.6875"
"1573645977499","787","-1.1113281","-1.3505859","1.6494141","-94.3125","63.8125","-1.96875"
"1573645977500","788","-0.57421875","-0.95996094","1.1328125","-89.1875","-41.59375","-67.21875"
"1573645977500","789","-0.16894531","-0.5292969","0.41308594","-34.5","-72.15625","-47.625"
"1573645977892","790","-0.11328125","-0.3046875","0.3623047","-28.875","-27.59375","-36.6875"
"1573645977892","791","-0.30078125","-0.625","0.48828125","-77.28125","19.53125","-34.0"
"1573645977892","792","-0.30859375","-0.6123047","0.6044922","-43.65625","-2.9375","-56.15625"
"1573645977894","793","-0.22851562","-0.65234375","0.57128906","-67.65625","15.125","-41.34375"
"1573645977894","794","-0.21484375","-0.85058594","0.546875","-57.21875","15.90625","-34.25"
"1573645977894","795","-0.2109375","-0.9667969","0.63671875","-47.0625","1.03125","-37.0625"
"1573645977895","796","-0.18359375","-0.86816406","0.4326172","-34.0","-16.0","-26.4375"
"1573645977895","797","-0.10449219","-0.74609375","0.4453125","-11.78125","-2.09375","-12.03125"
"1573645977895","798","-0.18945312","-0.78515625","0.41992188","-21.125","-1.78125","-9.59375"
"1573645977895","799","-0.16113281","-0.8486328","0.43066406","-24.625","3.15625","-15.46875"
"1573645978092","800","-0.13867188","-0.85058594","0.41992188","-25.84375","-3.90625","-13.5"
"1573645978093","801","-0.12695312","-0.8935547","0.4375","-16.9375","3.28125","-8.4375"
"1573645978093","802","-0.1171875","-0.88964844","0.421875","-11.3125","-0.5","-6.3125"
"1573645978093","803","-0.10546875","-0.86621094","0.39941406","-2.59375","-9.28125","-1.84375"
"1573645978093","804","-0.12597656","-0.8613281","0.38183594","4.75","-1.40625","2.375"
"1573645978095","805","-0.11621094","-0.8623047","0.36035156","0.15625","-1.53125","2.71875"
"1573645978095","806","-0.13574219","-0.859375","0.38671875","11.9375","1.875","7.5"
"1573645978095","807","-0.15039062","-0.8730469","0.43652344","17.4375","1.875","13.71875"
"1573645978096","808","-0.17578125","-0.8642578","0.43945312","29.15625","-7.34375","16.9375"
"1573645978096","809","-0.14160156","-0.8671875","0.38476562","31.71875","-8.0625","22.25"
"1573645978489","810","-0.1171875","-0.8066406","0.48339844","38.25","7.375","27.34375"
"1573645978489","811","-0.20800781","-0.8066406","0.4560547","38.625","7.375","27.34375"
"1573645978490","812","-0.19238281","-0.7939453","0.5097656","33.1875","6.8125","23.46875"
"1573645978490","813","-0.19433594","-0.78027344","0.50390625","50.09375","-2.15625","26.40625"
"1573645978490","814","-0.21484375","-0.74902344","0.5126953","48.625","5.125","30.75"
"1573645978490","815","-0.24316406","-0.7265625","0.578125","51.625","10.0625","32.34375"
"1573645978491","816","-0.24902344","-0.68652344","0.6660156","62.84375","9.125","39.40625"
"1573645978492","817","-0.3515625","-0.61816406","0.7167969","75.0","1.875","46.5"
"1573645978493","818","-0.43652344","-0.6435547","0.8310547","76.34375","12.375","40.03125"
"1573645978493","819","-0.3935547","-0.6230469","0.9433594","72.0625","0.15625","28.3125"
"1573645978886","820","-0.5234375","-0.6230469","1.0146484","43.25","17.3125","26.03125"
"1573645978886","821","-0.44921875","-0.5488281","0.94628906","29.46875","11.71875","15.96875"
"1573645978886","822","-0.47558594","-0.5214844","0.96191406","26.53125","27.28125","21.09375"
"1573645978887","823","-0.55859375","-0.5371094","0.99121094","20.375","32.40625","12.0625"
"1573645978887","824","-0.52246094","-0.54003906","0.96972656","9.125","13.53125","-4.40625"
"1573645978887","825","-0.5175781","-0.54589844","0.96777344","3.65625","10.71875","-5.625"
"1573645978888","826","-0.51953125","-0.51464844","0.8769531","-7.78125","3.46875","-17.40625"
"1573645978888","827","-0.41503906","-0.4970703","0.79589844","-7.03125","6.09375","-18.6875"
"1573645978888","828","-0.39941406","-0.48632812","0.7597656","-28.53125","-8.875","-20.46875"
"1573645978889","829","-0.36816406","-0.40429688","0.64746094","-10.15625","-10.625","-15.9375"
"1573645979283","830","-0.3857422","-0.4609375","0.68652344","-15.40625","-6.90625","-14.25"
"1573645979284","831","-0.3779297","-0.4638672","0.6875","-21.8125","-12.09375","-16.6875"
"1573645979284","832","-0.41992188","-0.5488281","0.6894531","-49.5","0.03125","-24.90625"
"1573645979284","833","-0.3486328","-0.6279297","0.7207031","-71.0","-0.8125","-40.71875"
"1573645979284","834","-0.328125","-0.5878906","0.5996094","-92.4375","-11.125","-41.9375"
"1573645979284","835","-0.2919922","-0.64941406","0.64941406","-82.09375","-13.375","-46.65625"
"1573645979285","836","-0.2763672","-0.62597656","0.57714844","-81.0","-21.75","-44.15625"
"1573645979285","837","-0.2265625","-0.5683594","0.5078125","-81.0625","-19.0625","-44.6875"
"1573645979285","838","-0.17773438","-0.6113281","0.5107422","-66.3125","-21.625","-38.09375"
"1573645979286","839","-0.2421875","-0.59277344","0.4609375","-66.78125","-22.0625","-35.34375"
"1573645979880","840","-0.15820312","-0.6171875","0.40722656","-69.78125","-18.03125","-38.71875"
"1573645979882","841","-0.09082031","-0.5878906","0.46777344","-68.8125","-19.90625","-27.71875"
"1573645979882","842","-0.109375","-0.6113281","0.43554688","-57.4375","-20.28125","-17.40625"
"1573645979883","843","-0.17480469","-0.7451172","0.421875","-42.0","-17.21875","-11.71875"
"1573645979883","844","-0.19042969","-0.8222656","0.45996094","-44.3125","-10.75","-6.84375"
"1573645979883","845","-0.11230469","-0.8955078","0.37402344","-31.03125","-17.53125","-7.8125"
"1573645979884","846","-0.083984375","-0.8613281","0.34375","-28.53125","-21.75","-5.4375"
"1573645979884","847","-0.13183594","-0.85839844","0.30664062","-20.9375","-3.0","-2.09375"
"1573645979884","848","-0.107421875","-0.984375","0.2685547","-25.09375","6.75","-4.96875"
"1573645979884","849","-0.0029296875","-0.9375","0.3408203","-11.25","5.53125","-3.6875"
"1573645980079","850","-0.14941406","-0.86816406","0.35058594","-0.875","-3.625","5.34375"
"1573645980079","851","-0.11816406","-0.9033203","0.296875","2.1875","-6.25","3.90625"
"1573645980079","852","-0.10058594","-0.9316406","0.34472656","5.65625","0.46875","9.03125"
"1573645980080","853","-0.11035156","-0.8847656","0.31835938","13.09375","-3.96875","11.40625"
"1573645980081","854","-0.099609375","-0.83984375","0.3125","21.71875","-11.25","16.78125"
"1573645980081","855","-0.13183594","-0.77734375","0.31347656","37.75","-8.25","20.5625"
"1573645980081","856","-0.15039062","-0.75683594","0.3544922","51.75","-4.21875","25.8125"
"1573645980081","857","-0.16699219","-0.7109375","0.38085938","61.875","-7.34375","29.03125"
"1573645980082","858","-0.20410156","-0.63671875","0.39257812","68.59375","-8.8125","32.53125"
"1573645980082","859","-0.14257812","-0.6376953","0.41210938","75.90625","10.1875","38.4375"
"1573645980477","860","-0.29492188","-0.6484375","0.5517578","71.53125","25.625","33.125"
"1573645980478","861","-0.15527344","-0.4814453","0.37402344","91.46875","-12.09375","25.6875"
"1573645980478","862","-0.15234375","-0.5722656","0.5605469","66.28125","38.9375","36.96875"
"1573645980478","863","-0.34277344","-0.5722656","0.5390625","73.71875","22.5","19.875"
"1573645980478","864","-0.11035156","-0.421875","0.5253906","86.28125","17.3125","33.96875"
"1573645980480","865","-0.40429688","-0.52441406","0.67089844","77.125","57.71875","35.1875"
"1573645980480","866","-0.29492188","-0.47851562","0.5732422","69.125","7.25","30.0"
"1573645980481","867","-0.54296875","-0.45117188","0.7792969","69.6875","67.3125","45.8125"
"1573645980481","868","-0.46191406","-0.61035156","0.7597656","13.15625","39.53125","19.5625"
"1573645980481","869","-0.30273438","-0.5498047","0.8027344","36.25","4.6875","21.46875"
"1573645980873","870","-0.6015625","-0.625","0.8330078","0.65625","29.40625","15.3125"
"1573645980874","871","-0.53515625","-0.63378906","0.9238281","17.75","10.46875","-17.21875"
"1573645980874","872","-0.5449219","-0.50390625","0.83203125","10.125","-10.21875","-26.5"
"1573645980874","873","-0.41601562","-0.50683594","0.875","-1.65625","-26.875","-47.3125"
"1573645980874","874","-0.36816406","-0.5576172","0.74609375","-31.625","-23.28125","-51.65625"
"1573645980875","875","-0.53515625","-1.1318359","1.4472656","-58.5625","39.28125","-29.96875"
"1573645980875","876","-1.0800781","-1.1044922","1.515625","-144.71875","13.34375","-42.3125"
"1573645980876","877","-0.49316406","-1.0136719","1.0263672","-57.625","-48.46875","-67.59375"
"1573645980877","878","-0.13574219","-0.15625","0.0146484375","4.25","-80.53125","-55.3125"
"1573645980877","879","-0.109375","-0.3095703","0.41796875","-75.6875","-8.875","-24.96875"
"1573645981271","880","-0.24316406","-0.6142578","0.4970703","-61.40625","10.125","-29.0625"
"1573645981271","881","-0.17675781","-0.703125","0.5683594","-65.09375","11.53125","-44.21875"
"1573645981272","882","-0.21191406","-0.8105469","0.64453125","-57.5625","17.5625","-25.96875"
"1573645981272","883","-0.20898438","-0.9716797","0.6269531","-37.75","-4.96875","-30.34375"
"1573645981272","884","-0.115234375","-0.86035156","0.5546875","-31.625","-15.875","-11.625"
"1573645981272","885","-0.13964844","-0.75683594","0.4013672","-13.625","-19.90625","3.90625"
"1573645981273","886","-0.09472656","-0.7636719","0.39160156","-17.90625","-10.03125","2.0"
"1573645981273","887","-0.20214844","-0.80859375","0.42382812","-29.875","4.5","-6.0625"
"1573645981273","888","-0.26464844","-0.9082031","0.4453125","-29.3125","1.375","-24.25"
"1573645981274","889","-0.17089844","-0.9326172","0.40625","-8.125","-8.375","-23.625"
"1573645981670","890","-0.1015625","-0.84277344","0.45996094","-2.40625","-4.53125","-11.78125"
"1573645981670","891","-0.12792969","-0.8408203","0.42382812","-19.53125","-5.625","-0.625"
"1573645981670","892","-0.16601562","-0.8359375","0.4580078","3.09375","3.46875","4.125"
"1573645981671","893","-0.1484375","-0.85058594","0.484375","-6.65625","1.6875","2.0"
"1573645981671","894","-0.10644531","-0.8222656","0.47070312","-1.96875","-2.9375","1.875"
"1573645981671","895","-0.18945312","-0.84765625","0.43652344","-4.78125","1.15625","5.65625"
"1573645981671","896","-0.11035156","-0.8720703","0.38378906","3.59375","3.34375","-2.40625"
"1573645981672","897","-0.11328125","-0.8857422","0.4248047","3.59375","2.71875","5.90625"
"1573645981672","898","-0.12792969","-0.8642578","0.43847656","0.90625","4.875","7.8125"
"1573645981672","899","-0.15234375","-0.8623047","0.4189453","7.125","0.96875","12.375"
"1573645982068","900","-0.1328125","-0.82128906","0.42089844","16.53125","3.09375","10.84375"
"1573645982068","901","-0.16601562","-0.82714844","0.43066406","17.75","6.5625","13.84375"
"1573645982069","902","-0.1953125","-0.82910156","0.43652344","21.40625","8.59375","15.71875"
"1573645982069","903","-0.1796875","-0.82421875","0.4580078","26.90625","9.125","19.75"
"1573645982069","904","-0.21777344","-0.78515625","0.4609375","34.34375","11.03125","24.09375"
"1573645982070","905","-0.21582031","-0.77734375","0.5097656","44.59375","16.53125","27.6875"
"1573645982070","906","-0.2265625","-0.74121094","0.48046875","53.5","14.21875","33.3125"
"1573645982070","907","-0.26660156","-0.7128906","0.5605469","50.21875","12.75","36.375"
"1573645982070","908","-0.2529297","-0.7314453","0.5332031","73.84375","11.15625","40.75"
"1573645982071","909","-0.2919922","-0.74316406","0.66015625","79.875","11.15625","47.21875"
"1573645982465","910","-0.41601562","-0.7714844","0.9267578","99.40625","3.34375","47.71875"
"1573645982465","911","-0.49414062","-0.6328125","0.9355469","97.875","6.8125","44.1875"
"1573645982465","912","-0.4892578","-0.59765625","1.0302734","80.125","24.71875","40.75"
"1573645982467","913","-0.5605469","-0.50683594","0.9941406","35.25","20.0","28.65625"
"1573645982467","914","-0.53222656","-0.46777344","0.9589844","26.59375","15.1875","26.15625"
"1573645982468","915","-0.546875","-0.43945312","0.99316406","30.8125","22.625","16.53125"
"1573645982468","916","-0.6074219","-0.45703125","1.0410156","19.40625","12.625","6.875"
"1573645982468","917","-0.5800781","-0.39746094","0.92285156","19.03125","3.03125","0.96875"
"1573645982468","918","-0.5185547","-0.38378906","0.8701172","4.6875","-2.9375","-7.71875"
"1573645982469","919","-0.4921875","-0.3798828","0.8642578","-1.1875","-3.0","-10.15625"
"1573645982862","920","-0.47851562","-0.35742188","0.7216797","-15.15625","-21.25","-14.53125"
"1573645982862","921","-0.35253906","-0.35546875","0.73828125","-23.15625","2.65625","-22.21875"
"1573645982863","922","-0.3623047","-0.43359375","0.79003906","-33.34375","-6.25","-13.8125"
"1573645982863","923","-0.49316406","-0.4169922","0.68066406","-53.46875","-21.875","-27.53125"
"1573645982863","924","-0.3984375","-0.4501953","0.6816406","-52.1875","-5.15625","-37.25"
"1573645982864","925","-0.33398438","-0.4794922","0.71777344","-70.875","-3.5","-39.25"
"1573645982865","926","-0.3251953","-0.5214844","0.64746094","-83.09375","-15.875","-43.78125"
"1573645982865","927","-0.32226562","-0.55078125","0.6142578","-86.875","-8.0","-46.59375"
"1573645982865","928","-0.29003906","-0.5625","0.58203125","-89.6875","-17.09375","-50.78125"
"1573645982865","929","-0.20898438","-0.5449219","0.5341797","-73.6875","-22.15625","-46.78125"
"1573645983258","930","-0.20703125","-0.57128906","0.5185547","-85.65625","-27.90625","-41.65625"
"1573645983259","931","-0.23925781","-0.61621094","0.49609375","-78.9375","-24.90625","-38.28125"
"1573645983259","932","-0.22167969","-0.5830078","0.47265625","-77.84375","-20.03125","-37.5625"
"1573645983259","933","-0.18652344","-0.6669922","0.453125","-68.9375","-19.53125","-24.375"
"1573645983259","934","-0.125","-0.73046875","0.46191406","-62.625","-18.21875","-25.15625"
"1573645983260","935","-0.16113281","-0.7402344","0.4736328","-47.0","-12.78125","-15.09375"
"1573645983262","936","-0.20898438","-0.81640625","0.43847656","-43.03125","-13.9375","-14.90625"
"1573645983263","937","-0.091796875","-0.84765625","0.359375","-38.40625","-10.5625","-15.59375"
"1573645983263","938","-0.08203125","-0.81933594","0.39648438","-34.3125","-10.4375","-9.28125"
"1573645983264","939","-0.10253906","-0.8808594","0.32617188","-15.09375","-15.59375","-2.59375"
"1573645983854","940","-0.13964844","-0.89746094","0.34570312","-12.09375","-6.3125","-2.40625"
"1573645983855","941","-0.09667969","-0.9033203","0.33789062","-9.46875","-5.4375","1.625"
"1573645983855","942","-0.072265625","-0.92089844","0.34960938","-6.125","-1.59375","2.71875"
"1573645983855","943","-0.10253906","-0.8847656","0.36328125","7.84375","-7.9375","4.6875"
"1573645983855","944","-0.12109375","-0.88378906","0.3125","11.75","-11.84375","7.5"
"1573645983856","945","-0.10644531","-0.8623047","0.34472656","18.96875","5.125","5.34375"
"1573645983856","946","-0.109375","-0.89160156","0.3701172","24.03125","4.4375","8.71875"
"1573645983856","947","-0.12695312","-0.7714844","0.375","38.25","-3.25","12.9375"
"1573645983856","948","-0.115234375","-0.73046875","0.35742188","36.90625","2.5","15.71875"
"1573645983857","949","-0.1484375","-0.76464844","0.4580078","43.625","11.9375","13.0"
"1573645984251","950","-0.14746094","-0.5996094","0.38964844","72.5625","-8.625","19.21875"
"1573645984252","951","-0.111328125","-0.546875","0.36816406","63.875","4.8125","22.875"
"1573645984253","952","-0.15820312","-0.61035156","0.53125","68.84375","35.8125","26.21875"
"1573645984253","953","-0.18945312","-0.5566406","0.47851562","72.875","10.59375","28.96875"
"1573645984253","954","-0.19824219","-0.6269531","0.57714844","56.75","49.25","25.6875"
"1573645984254","955","-0.12792969","-0.5810547","0.54785156","73.40625","-4.71875","21.84375"
"1573645984255","956","-0.19921875","-0.48535156","0.4892578","66.9375","9.5","35.03125"
"1573645984256","957","-0.30859375","-0.5673828","0.6542969","61.25","32.03125","29.21875"
"1573645984256","958","-0.15332031","-0.5126953","0.60546875","52.15625","7.5","32.09375"
"1573645984256","959","-0.48828125","-0.55371094","0.7841797","49.96875","48.4375","39.84375"
"1573645984651","960","-0.31933594","-0.5527344","0.6503906","29.84375","-1.53125","18.53125"
"1573645984653","961","-0.31640625","-0.48828125","0.71191406","37.8125","26.96875","25.75"
"1573645984653","962","-0.51953125","-0.6142578","0.7832031","10.71875","44.53125","13.28125"
"1573645984653","963","-0.38183594","-0.46289062","0.8300781","7.375","24.59375","-2.6875"
"1573645984654","964","-0.53515625","-0.49121094","0.7597656","-3.5","20.3125","-3.8125"
"1573645984654","965","-0.35351562","-0.66015625","0.7714844","-32.78125","-2.8125","-32.4375"
"1573645984654","966","-0.36523438","-0.6816406","0.7373047","-56.84375","-20.84375","-55.0"
"1573645984654","967","-0.6826172","-1.4355469","1.703125","-121.78125","28.0625","-53.65625"
"1573645984655","968","-1.2148438","-1.4990234","1.0869141","-119.09375","18.65625","-41.6875"
"1573645984655","969","-0.23144531","-1.0117188","1.0908203","-0.6875","-26.1875","-54.875"
"1573645984848","970","0.13378906","-0.20605469","-0.20605469","39.53125","-59.15625","-17.65625"
"1573645984849","971","-0.22753906","-0.5683594","0.5097656","-76.8125","6.8125","-8.1875"
"1573645984849","972","-0.25585938","-0.49316406","0.4580078","-39.9375","-18.5625","-37.0625"
"1573645984851","973","-0.27441406","-0.58496094","0.5390625","-52.25","5.71875","-32.375"
"1573645984851","974","-0.26171875","-0.8232422","0.5751953","-76.125","29.78125","-31.5625"
"1573645984851","975","-0.265625","-1.0361328","0.6640625","-37.375","13.34375","-34.0"
"1573645984851","976","-0.17089844","-0.96777344","0.5966797","-43.34375","-15.8125","-29.8125"
"1573645984852","977","-0.111328125","-0.8310547","0.4609375","-21.625","-12.65625","-19.4375"
"1573645984852","978","-0.1640625","-0.7685547","0.40625","-29.875","-7.9375","-16.3125"
"1573645984852","979","-0.17578125","-0.76171875","0.40039062","-33.71875","5.0","-18.75"
