"# PR data"
"# Start time: 20191113T120028"
"# Subject: nikita"
"# Activity type: Wall push offs"
"# Correctness: Incorrect"
"# Notes: "
""
"timestamp","seq","accel_x","accel_y","accel_z","gyro_x","gyro_y","gyro_z"
"1573646428457","0","-0.005859375","-0.96484375","0.36328125","-0.625","9.75","-1.65625"
"1573646428460","1","0.013671875","-0.90722656","0.32421875","1.5","7.0","-0.25"
"1573646428461","2","-0.017578125","-0.93847656","0.34277344","-2.59375","8.40625","0.0"
"1573646428461","3","-0.033203125","-0.93652344","0.34179688","0.53125","10.46875","-3.90625"
"1573646428461","4","-0.043945312","-0.94921875","0.30859375","-2.09375","7.3125","0.46875"
"1573646428461","5","-0.0126953125","-0.9326172","0.30566406","1.6875","15.84375","-3.5625"
"1573646428462","6","-0.013671875","-0.94921875","0.2861328","-3.375","18.34375","-4.09375"
"1573646428462","7","-0.057617188","-0.94433594","0.29882812","-10.34375","24.15625","-4.71875"
"1573646428462","8","-0.049804688","-0.95703125","0.3154297","-3.625","31.0","-8.3125"
"1573646428462","9","-0.037109375","-0.9277344","0.3203125","-9.46875","30.0625","-8.3125"
"1573646428655","10","-0.03125","-0.92578125","0.30078125","-10.03125","29.15625","-8.1875"
"1573646428655","11","-0.017578125","-0.9296875","0.28222656","-11.90625","27.375","-5.625"
"1573646428656","12","-0.04296875","-0.9375","0.28515625","-6.5","25.4375","-7.46875"
"1573646428657","13","-0.001953125","-0.94433594","0.28027344","-6.5","17.625","-4.46875"
"1573646428657","14","-0.07421875","-0.92285156","0.29003906","-0.5","18.34375","-7.03125"
"1573646428657","15","-0.04296875","-0.97265625","0.28710938","0.90625","19.75","-7.03125"
"1573646428658","16","-0.0546875","-0.93847656","0.29003906","0.03125","18.34375","-6.90625"
"1573646428658","17","-0.033203125","-0.9375","0.28808594","-0.1875","17.625","-6.78125"
"1573646428658","18","-0.041015625","-0.9453125","0.2705078","-0.625","14.6875","-2.53125"
"1573646428658","19","-0.0234375","-0.96972656","0.3017578","-2.875","12.4375","0.65625"
"1573646428856","20","-0.0390625","-0.93847656","0.29296875","0.09375","2.65625","4.125"
"1573646428856","21","-0.053710938","-0.94433594","0.32421875","3.09375","0.53125","5.65625"
"1573646428857","22","-0.0546875","-0.9345703","0.31640625","1.875","2.4375","2.375"
"1573646428857","23","-0.037109375","-0.9453125","0.30664062","-2.6875","-2.59375","4.0625"
"1573646428857","24","-0.057617188","-0.95214844","0.28222656","-1.40625","-5.75","3.90625"
"1573646428858","25","-0.083984375","-0.9267578","0.3125","0.71875","2.71875","2.0"
"1573646428863","26","-0.078125","-0.953125","0.30273438","-2.34375","3.84375","-1.78125"
"1573646428864","27","-0.09765625","-0.9628906","0.29101562","1.625","5.125","0.65625"
"1573646428864","28","-0.08984375","-0.9316406","0.31054688","0.21875","2.4375","-0.5"
"1573646428864","29","-0.09765625","-0.9326172","0.31347656","-0.3125","11.09375","-1.78125"
"1573646429254","30","-0.06542969","-0.94628906","0.32910156","0.40625","14.75","-2.15625"
"1573646429255","31","-0.053710938","-0.9267578","0.31640625","0.40625","6.28125","0.46875"
"1573646429255","32","-0.07519531","-0.93066406","0.32128906","5.90625","6.46875","-1.65625"
"1573646429255","33","-0.052734375","-0.9316406","0.32226562","2.4375","4.3125","-1.84375"
"1573646429255","34","-0.07128906","-0.9296875","0.3095703","2.0","4.125","-2.6875"
"1573646429256","35","-0.08691406","-0.9404297","0.30273438","3.90625","8.03125","-3.90625"
"1573646429256","36","-0.10546875","-0.9248047","0.3076172","5.40625","14.5","-6.65625"
"1573646429257","37","-0.14355469","-0.94433594","0.31152344","0.34375","21.03125","-9.34375"
"1573646429258","38","-0.076171875","-0.9472656","0.32910156","-4.40625","36.65625","-15.09375"
"1573646429258","39","-0.07519531","-0.9355469","0.30664062","-10.75","42.40625","-15.625"
"1573646429652","40","-0.06933594","-0.94433594","0.30273438","-17.84375","46.1875","-16.375"
"1573646429652","41","-0.103515625","-0.95410156","0.29296875","-26.875","54.84375","-21.4375"
"1573646429653","42","-0.040039062","-0.9267578","0.20214844","-33.34375","54.3125","-22.84375"
"1573646429653","43","0.029296875","-0.9794922","0.23535156","-11.96875","52.96875","-12.21875"
"1573646429653","44","-0.009765625","-0.9345703","0.19335938","-14.1875","40.15625","-9.90625"
"1573646429653","45","-0.001953125","-0.97265625","0.18554688","-4.71875","30.6875","-6.65625"
"1573646429654","46","0.001953125","-0.9658203","0.18945312","8.15625","24.03125","-3.0"
"1573646429654","47","-0.02734375","-0.9716797","0.21386719","5.125","17.1875","-2.21875"
"1573646429654","48","-0.059570312","-0.95214844","0.21386719","5.34375","10.84375","1.21875"
"1573646429655","49","-0.07324219","-0.9707031","0.19335938","10.84375","7.8125","3.21875"
"1573646430246","50","-0.052734375","-0.9404297","0.20605469","12.75","9.9375","6.21875"
"1573646430247","51","-0.048828125","-0.9501953","0.23632812","18.0","8.21875","8.21875"
"1573646430247","52","-0.099609375","-0.9404297","0.25878906","16.21875","3.90625","8.34375"
"1573646430248","53","-0.09277344","-0.93847656","0.26171875","14.3125","9.5625","3.71875"
"1573646430248","54","-0.06542969","-0.94921875","0.26953125","16.65625","8.15625","6.5625"
"1573646430248","55","-0.09472656","-0.94628906","0.29296875","14.15625","6.9375","9.03125"
"1573646430248","56","-0.11425781","-0.9189453","0.28808594","14.5","1.625","10.1875"
"1573646430249","57","-0.13476562","-0.91503906","0.31835938","18.65625","10.84375","8.46875"
"1573646430249","58","-0.15332031","-0.92285156","0.35253906","13.40625","8.71875","7.5"
"1573646430249","59","-0.13867188","-0.8847656","0.3125","23.90625","6.28125","6.28125"
"1573646430645","60","-0.15429688","-0.90234375","0.3857422","30.6875","7.375","11.9375"
"1573646430647","61","-0.17089844","-0.8701172","0.4140625","23.78125","5.34375","8.15625"
"1573646430649","62","-0.15625","-0.8925781","0.44726562","29.09375","11.59375","9.8125"
"1573646430650","63","-0.17871094","-0.83496094","0.4013672","13.28125","9.6875","5.90625"
"1573646430650","64","-0.17285156","-0.89453125","0.46875","12.75","8.59375","11.59375"
"1573646430650","65","-0.21777344","-0.8652344","0.4375","20.125","10.0625","7.90625"
"1573646430651","66","-0.17480469","-0.80859375","0.47265625","9.9375","6.28125","9.5"
"1573646430651","67","-0.21679688","-0.859375","0.4658203","10.84375","5.0","11.40625"
"1573646430651","68","-0.2607422","-0.82910156","0.51953125","2.1875","8.59375","6.875"
"1573646430651","69","-0.23046875","-0.8388672","0.46972656","4.5","-0.4375","5.40625"
"1573646431239","70","-0.2626953","-0.8017578","0.47851562","2.125","6.5625","7.375"
"1573646431240","71","-0.2763672","-0.84472656","0.48046875","1.09375","3.65625","4.0625"
"1573646431240","72","-0.23730469","-0.8330078","0.44726562","9.5","7.5","4.1875"
"1573646431242","73","-0.25195312","-0.8144531","0.4951172","0.84375","6.34375","4.6875"
"1573646431242","74","-0.25097656","-0.8466797","0.50390625","7.75","-3.875","5.34375"
"1573646431243","75","-0.28222656","-0.8359375","0.4970703","-2.875","0.21875","2.65625"
"1573646431243","76","-0.25585938","-0.79296875","0.5263672","-2.09375","4.125","2.0"
"1573646431243","77","-0.265625","-0.81152344","0.5058594","-13.5","9.875","-1.84375"
"1573646431244","78","-0.27734375","-0.796875","0.578125","15.5","-0.75","8.28125"
"1573646431244","79","-0.28808594","-0.8857422","0.44433594","17.5625","-13.875","8.03125"
"1573646431436","80","-0.1796875","-0.76953125","0.5332031","13.59375","-1.53125","4.6875"
"1573646431437","81","-0.33007812","-0.75878906","0.56347656","-2.6875","4.75","2.375"
"1573646431437","82","-0.3232422","-0.7626953","0.6035156","-13.5","13.0","-13.0625"
"1573646431437","83","-0.3046875","-0.7753906","0.6875","-13.3125","6.875","-11.0625"
"1573646431437","84","-0.34960938","-0.80371094","0.5888672","-30.53125","-0.5625","-14.0625"
"1573646431438","85","-0.28808594","-0.828125","0.5722656","-23.40625","4.0625","-19.0"
"1573646431438","86","-0.24902344","-0.7949219","0.5644531","-25.15625","-5.9375","-11.78125"
"1573646431438","87","-0.2578125","-0.79589844","0.5107422","-21.9375","-6.375","-10.5"
"1573646431439","88","-0.2421875","-0.8154297","0.53027344","-20.875","-7.9375","-12.15625"
"1573646431439","89","-0.23339844","-0.88378906","0.48339844","-26.9375","-11.5625","-12.90625"
"1573646431835","90","-0.25390625","-0.89746094","0.48242188","-27.46875","-10.4375","-14.0"
"1573646431836","91","-0.24023438","-0.86328125","0.4814453","-35.34375","-9.90625","-16.75"
"1573646431836","92","-0.22753906","-0.9003906","0.3984375","-42.9375","-9.78125","-19.0625"
"1573646431836","93","-0.20117188","-0.8623047","0.35351562","-47.0625","-3.6875","-22.65625"
"1573646431837","94","-0.10253906","-0.9296875","0.26171875","-40.125","-5.25","-21.625"
"1573646431837","95","-0.08691406","-0.8984375","0.22753906","-25.78125","-2.28125","-13.75"
"1573646431837","96","-0.029296875","-0.9433594","0.203125","-15.8125","-5.75","-7.53125"
"1573646431839","97","-0.0390625","-0.92089844","0.18261719","-9.96875","-8.375","-3.875"
"1573646431840","98","-0.028320312","-0.9580078","0.16992188","3.65625","-13.9375","3.34375"
"1573646431840","99","-0.041992188","-0.9785156","0.1875","6.5","-11.3125","5.0625"
"1573646432036","100","-0.08300781","-0.9267578","0.21972656","9.3125","-13.5","5.34375"
"1573646432036","101","-0.10253906","-0.94628906","0.22851562","6.75","-4.90625","1.5625"
"1573646432037","102","-0.07910156","-0.9404297","0.22265625","5.71875","-3.96875","2.0"
"1573646432037","103","-0.07421875","-0.94433594","0.24414062","-3.90625","-1.34375","2.5625"
"1573646432037","104","-0.12402344","-0.9404297","0.25585938","5.0625","2.84375","0.65625"
"1573646432038","105","-0.09667969","-0.9355469","0.2421875","-11.90625","2.65625","-2.6875"
"1573646432038","106","-0.111328125","-0.9433594","0.26464844","-2.15625","14.3125","-1.53125"
"1573646432038","107","-0.11230469","-0.9667969","0.2109375","3.53125","13.71875","-5.9375"
"1573646432038","108","-0.06347656","-0.9238281","0.2529297","7.5","13.40625","1.5625"
"1573646432039","109","-0.1015625","-0.92285156","0.28125","10.46875","11.40625","3.90625"
"1573646432633","110","-0.12890625","-0.9707031","0.2861328","2.71875","22.25","-1.96875"
"1573646432634","111","-0.095703125","-0.9326172","0.25195312","1.625","15.96875","-4.78125"
"1573646432634","112","-0.053710938","-0.93847656","0.27734375","24.40625","15.4375","8.71875"
"1573646432634","113","-0.18066406","-0.9013672","0.35058594","6.15625","18.53125","8.59375"
"1573646432635","114","-0.125","-0.9707031","0.36523438","2.375","8.46875","-4.84375"
"1573646432635","115","-0.1484375","-0.8886719","0.3330078","3.71875","8.21875","0.40625"
"1573646432635","116","-0.14257812","-0.9189453","0.30371094","12.5625","-4.78125","5.0"
"1573646432636","117","-0.17871094","-0.90625","0.34765625","6.875","4.25","3.53125"
"1573646432636","118","-0.119140625","-0.9082031","0.34375","13.71875","1.03125","2.0"
"1573646432636","119","-0.15527344","-0.8935547","0.3701172","13.71875","5.90625","7.375"
"1573646432831","120","-0.19628906","-0.8847656","0.37890625","9.125","7.125","1.5"
"1573646432832","121","-0.13574219","-0.9169922","0.3671875","10.71875","4.5625","4.3125"
"1573646432832","122","-0.16308594","-0.8701172","0.39746094","15.65625","4.9375","6.46875"
"1573646432833","123","-0.19042969","-0.8955078","0.40820312","14.21875","1.15625","6.28125"
"1573646432833","124","-0.16992188","-0.8574219","0.4296875","17.875","3.34375","6.03125"
"1573646432833","125","-0.18457031","-0.8652344","0.42773438","8.34375","1.375","5.40625"
"1573646432833","126","-0.1796875","-0.87597656","0.40820312","11.75","-2.8125","6.8125"
"1573646432834","127","-0.1796875","-0.86328125","0.42773438","14.375","4.125","6.5625"
"1573646432834","128","-0.19335938","-0.8701172","0.46289062","12.9375","-2.6875","5.78125"
"1573646432834","129","-0.20214844","-0.85253906","0.42382812","10.78125","-8.375","6.9375"
"1573646433624","130","-0.15332031","-0.88183594","0.43066406","-2.625","0.40625","5.90625"
"1573646433625","131","-0.21972656","-0.81347656","0.5390625","-20.71875","9.5","0.46875"
"1573646433626","132","-0.19921875","-0.82910156","0.3935547","-7.875","-17.96875","-1.1875"
"1573646433627","133","-0.14355469","-0.8378906","0.40722656","-0.8125","-0.4375","6.28125"
"1573646433628","134","-0.22460938","-0.8515625","0.46484375","5.90625","0.28125","6.03125"
"1573646433628","135","-0.21289062","-0.84375","0.4091797","4.625","-2.75","6.46875"
"1573646433628","136","-0.20996094","-0.8457031","0.50097656","9.25","8.46875","7.5"
"1573646433628","137","-0.25097656","-0.8417969","0.40722656","13.96875","2.78125","9.5625"
"1573646433629","138","-0.20019531","-0.85839844","0.5078125","5.90625","15.71875","5.21875"
"1573646433629","139","-0.2421875","-0.8154297","0.4638672","11.40625","8.71875","11.59375"
"1573646433821","140","-0.20898438","-0.796875","0.4921875","8.15625","7.5","9.25"
"1573646433822","141","-0.2861328","-0.79296875","0.5019531","0.96875","15.1875","3.53125"
"1573646433822","142","-0.2705078","-0.85058594","0.54003906","3.71875","8.59375","6.34375"
"1573646433822","143","-0.23632812","-0.78515625","0.5410156","-8.9375","-4.03125","2.71875"
"1573646433822","144","-0.2939453","-0.7871094","0.4892578","-1.3125","5.53125","4.25"
"1573646433824","145","-0.2861328","-0.8310547","0.5058594","0.84375","-6.125","0.15625"
"1573646433824","146","-0.25878906","-0.78515625","0.5019531","0.53125","0.78125","0.28125"
"1573646433824","147","-0.31054688","-0.7792969","0.5644531","-1.40625","5.53125","1.375"
"1573646433824","148","-0.3359375","-0.79296875","0.6015625","-9.15625","2.96875","-4.34375"
"1573646433825","149","-0.3232422","-0.78808594","0.5263672","-9.21875","6.9375","-7.59375"
"1573646434223","150","-0.2626953","-0.8046875","0.5732422","-13.125","2.65625","-6.0"
"1573646434224","151","-0.31640625","-0.7998047","0.51953125","-4.90625","4.8125","-5.03125"
"1573646434224","152","-0.27539062","-0.7705078","0.5722656","-4.40625","5.59375","-7.15625"
"1573646434224","153","-0.23925781","-0.80078125","0.54003906","3.15625","-8.0","4.4375"
"1573646434225","154","-0.3203125","-0.7988281","0.5986328","6.8125","0.28125","0.0"
"1573646434225","155","-0.36035156","-0.81640625","0.54003906","7.3125","-5.25","-9.0"
"1573646434225","156","-0.33203125","-0.80566406","0.5566406","9.5","4.4375","-8.25"
"1573646434227","157","-0.31054688","-0.8095703","0.5810547","8.09375","-7.34375","-5.375"
"1573646434227","158","-0.26464844","-0.7392578","0.53027344","-6.5","-3.90625","-7.53125"
"1573646434228","159","-0.29882812","-0.7919922","0.57714844","-12.78125","4.3125","-7.53125"
"1573646434820","160","-0.26757812","-0.82421875","0.53125","-15.9375","-1.65625","-17.15625"
"1573646434820","161","-0.16503906","-0.8388672","0.5263672","-20.40625","-1.84375","-13.25"
"1573646434820","162","-0.203125","-0.8359375","0.4609375","-21.5625","-12.34375","-11.5625"
"1573646434821","163","-0.20507812","-0.80078125","0.45703125","-18.15625","-8.25","-9.65625"
"1573646434821","164","-0.15429688","-0.8515625","0.4091797","-23.4375","-15.9375","-8.375"
"1573646434821","165","-0.16796875","-0.8701172","0.43066406","-23.8125","-10.625","-10.15625"
"1573646434821","166","-0.1875","-0.88378906","0.40625","-25.21875","-14.34375","-9.84375"
"1573646434822","167","-0.1796875","-0.87109375","0.39746094","-22.0","-9.15625","-8.9375"
"1573646434822","168","-0.14257812","-0.9033203","0.3779297","-22.78125","-9.53125","-12.65625"
"1573646434823","169","-0.10449219","-0.9082031","0.38867188","-26.875","-2.53125","-11.625"
"1573646435016","170","-0.12011719","-0.91796875","0.32226562","-29.75","-10.75","-12.15625"
"1573646435017","171","-0.10058594","-0.9013672","0.26757812","-23.75","-1.46875","-12.84375"
"1573646435017","172","-0.09082031","-0.9267578","0.3251953","-30.15625","5.71875","-13.5625"
"1573646435018","173","-0.060546875","-0.9404297","0.17285156","-18.8125","-7.40625","-9.0625"
"1573646435018","174","-0.0087890625","-0.94433594","0.24804688","-11.0625","10.125","-2.59375"
"1573646435018","175","-0.08496094","-0.9580078","0.23632812","-20.53125","2.65625","-4.03125"
"1573646435018","176","-0.03515625","-0.93066406","0.19824219","-10.21875","1.8125","-2.40625"
"1573646435019","177","-0.047851562","-0.95214844","0.24121094","-11.5","11.875","-6.84375"
"1573646435019","178","-0.056640625","-0.96875","0.25","-9.0625","9.1875","-3.5625"
"1573646435020","179","-0.08984375","-0.93066406","0.20703125","-3.8125","2.59375","-7.8125"
"1573646435217","180","-0.053710938","-0.953125","0.203125","7.625","15.0","-5.375"
"1573646435219","181","-0.036132812","-0.97265625","0.25976562","-1.96875","13.0","-1.71875"
"1573646435219","182","-0.08300781","-0.93847656","0.23046875","2.84375","8.34375","-3.5"
"1573646435219","183","-0.05859375","-0.96875","0.23925781","-1.84375","10.96875","-3.0"
"1573646435220","184","-0.048828125","-0.9472656","0.24609375","0.0","13.28125","-3.875"
"1573646435220","185","-0.057617188","-0.95410156","0.26953125","6.28125","6.46875","1.3125"
"1573646435220","186","-0.08300781","-0.93652344","0.23046875","3.90625","5.78125","-0.1875"
"1573646435220","187","-0.053710938","-0.9296875","0.2685547","10.1875","9.8125","6.34375"
"1573646435221","188","-0.20507812","-0.96484375","0.35253906","6.46875","26.65625","0.65625"
"1573646435221","189","-0.15527344","-0.9248047","0.25097656","-1.65625","15.25","-5.9375"
"1573646435615","190","-0.03125","-0.9375","0.33789062","2.71875","13.96875","2.65625"
"1573646435615","191","-0.07324219","-0.9238281","0.26660156","10.1875","2.84375","12.0625"
"1573646435616","192","-0.107421875","-0.92871094","0.30273438","4.8125","3.40625","5.90625"
"1573646435617","193","-0.09472656","-0.9355469","0.27734375","8.90625","1.21875","0.78125"
"1573646435619","194","-0.080078125","-0.9501953","0.28125","7.5625","0.84375","8.28125"
"1573646435619","195","-0.14453125","-0.92871094","0.3017578","18.65625","3.21875","9.03125"
"1573646435620","196","-0.11230469","-0.9267578","0.34570312","12.75","2.90625","7.25"
"1573646435620","197","-0.11035156","-0.9042969","0.34179688","9.3125","-4.78125","8.71875"
"1573646435620","198","-0.1484375","-0.89746094","0.3408203","10.84375","-6.78125","10.0625"
"1573646435621","199","-0.16992188","-0.9121094","0.35546875","11.65625","-5.75","6.21875"
"1573646436208","200","-0.13867188","-0.9033203","0.34277344","11.09375","-8.5","8.90625"
"1573646436209","201","-0.16210938","-0.88671875","0.37109375","12.4375","-3.8125","10.0625"
"1573646436209","202","-0.22070312","-0.90234375","0.38867188","6.03125","3.65625","3.78125"
"1573646436209","203","-0.13378906","-0.89453125","0.36523438","9.6875","1.5","2.65625"
"1573646436209","204","-0.18359375","-0.8955078","0.43652344","3.59375","4.0625","4.375"
"1573646436211","205","-0.16796875","-0.85058594","0.38085938","4.75","-4.09375","3.71875"
"1573646436211","206","-0.15917969","-0.8828125","0.41992188","14.15625","2.0","11.59375"
"1573646436211","207","-0.203125","-0.8701172","0.4580078","7.375","0.53125","7.125"
"1573646436212","208","-0.14453125","-0.8378906","0.40429688","15.90625","-8.625","9.375"
"1573646436212","209","-0.24414062","-0.8691406","0.4814453","9.625","-2.9375","8.59375"
"1573646436604","210","-0.18945312","-0.84375","0.45214844","13.34375","-3.625","6.03125"
"1573646436605","211","-0.20507812","-0.84472656","0.46484375","11.53125","-3.3125","11.15625"
"1573646436605","212","-0.22363281","-0.8535156","0.47070312","12.625","0.65625","8.03125"
"1573646436605","213","-0.22070312","-0.8261719","0.50390625","6.15625","2.0","3.40625"
"1573646436605","214","-0.20410156","-0.84472656","0.47460938","7.125","0.65625","2.78125"
"1573646436606","215","-0.2109375","-0.8017578","0.48632812","4.0","1.15625","6.03125"
"1573646436606","216","-0.24511719","-0.83984375","0.52734375","2.71875","4.3125","3.21875"
"1573646436607","217","-0.18847656","-0.7675781","0.5107422","-1.71875","-10.40625","8.46875"
"1573646436608","218","-0.21191406","-0.8173828","0.49609375","10.125","-15.21875","17.75"
"1573646436608","219","-0.2109375","-0.8808594","0.47851562","13.34375","-8.375","7.25"
"1573646436807","220","-0.24707031","-0.7324219","0.55859375","6.15625","2.78125","0.21875"
"1573646436807","221","-0.22949219","-0.8027344","0.5605469","17.25","-11.6875","8.59375"
"1573646436808","222","-0.24023438","-0.81933594","0.58203125","12.5625","-4.21875","5.21875"
"1573646436808","223","-0.25878906","-0.7734375","0.55566406","6.03125","1.4375","5.0625"
"1573646436808","224","-0.2890625","-0.7548828","0.64453125","-5.25","13.78125","-3.75"
"1573646436808","225","-0.2734375","-0.76464844","0.5800781","-11.71875","11.09375","-6.375"
"1573646436809","226","-0.24609375","-0.76464844","0.67089844","-7.46875","16.34375","-5.375"
"1573646436809","227","-0.3125","-0.7714844","0.59375","-9.65625","4.0","-3.6875"
"1573646436809","228","-0.27246094","-0.7714844","0.6171875","-7.40625","11.75","-10.09375"
"1573646436810","229","-0.2705078","-0.79003906","0.5830078","-8.25","3.03125","-6.4375"
"1573646437403","230","-0.28320312","-0.7832031","0.5859375","-5.625","7.0625","-10.09375"
"1573646437403","231","-0.24511719","-0.7636719","0.5839844","5.78125","4.6875","-8.5625"
"1573646437403","232","-0.24316406","-0.79003906","0.54296875","5.84375","-9.21875","4.3125"
"1573646437404","233","-0.23046875","-0.7910156","0.6435547","7.8125","5.125","4.25"
"1573646437404","234","-0.38476562","-0.78222656","0.58691406","-21.5","-13.375","3.59375"
"1573646437404","235","-0.28125","-0.7832031","0.5371094","-8.0","-4.28125","-7.65625"
"1573646437404","236","-0.2783203","-0.7890625","0.50097656","-16.4375","-2.03125","-3.625"
"1573646437405","237","-0.22949219","-0.8017578","0.52734375","-13.5","5.71875","-11.125"
"1573646437405","238","-0.25878906","-0.8125","0.5253906","-26.875","2.0625","-11.4375"
"1573646437405","239","-0.23828125","-0.8544922","0.5253906","-25.28125","6.21875","-17.90625"
"1573646437801","240","-0.22070312","-0.8417969","0.4970703","-37.0625","4.5","-21.0"
"1573646437802","241","-0.2265625","-0.86328125","0.42773438","-43.90625","1.15625","-27.40625"
"1573646437802","242","-0.0703125","-0.87890625","0.40429688","-37.125","1.28125","-20.34375"
"1573646437803","243","-0.09472656","-0.8466797","0.28222656","-40.0","-11.5625","-17.21875"
"1573646437803","244","-0.044921875","-0.89160156","0.17089844","-13.03125","-1.96875","-12.59375"
"1573646437803","245","0.02734375","-0.92578125","0.25976562","-8.625","0.21875","1.875"
"1573646437803","246","-0.09765625","-0.8876953","0.2861328","-7.03125","-6.78125","4.125"
"1573646437804","247","-0.10839844","-0.92578125","0.26464844","-1.90625","0.59375","-1.3125"
"1573646437804","248","-0.08496094","-0.9580078","0.30664062","-1.96875","5.28125","-0.75"
"1573646437804","249","-0.107421875","-0.92285156","0.2939453","-6.0625","-0.8125","-1.90625"
"1573646438197","250","-0.07324219","-0.9248047","0.31054688","1.625","3.34375","-0.375"
"1573646438197","251","-0.08886719","-0.9433594","0.3095703","-4.53125","-1.1875","-3.8125"
"1573646438197","252","-0.05859375","-0.95214844","0.3095703","-3.375","-2.59375","-4.96875"
"1573646438199","253","-0.11230469","-0.90722656","0.32128906","-11.5625","-0.9375","-4.34375"
"1573646438199","254","-0.078125","-0.96191406","0.3046875","-5.21875","1.625","-5.375"
"1573646438199","255","-0.13964844","-0.9111328","0.3173828","-25.21875","9.3125","-10.6875"
"1573646438200","256","-0.08886719","-0.9482422","0.25683594","-3.96875","11.75","-13.03125"
"1573646438200","257","-0.05078125","-0.9453125","0.25390625","-4.71875","6.21875","-1.96875"
"1573646438200","258","-0.038085938","-0.90527344","0.23144531","24.9375","12.625","2.78125"
"1573646438201","259","-0.20605469","-0.87402344","0.43945312","-7.09375","23.96875","4.75"
"1573646438397","260","-0.16308594","-0.984375","0.4375","-14.1875","17.4375","-13.1875"
"1573646438397","261","-0.13574219","-0.95214844","0.3359375","-28.75","9.09375","-12.84375"
"1573646438398","262","-0.068359375","-0.86328125","0.3310547","-6.0","8.78125","-3.875"
"1573646438398","263","-0.078125","-0.9267578","0.29785156","-6.0625","-2.875","4.6875"
"1573646438398","264","-0.11425781","-0.92578125","0.2841797","-2.75","-9.125","4.4375"
"1573646438400","265","-0.08984375","-0.9277344","0.2734375","-0.0625","-9.53125","5.34375"
"1573646438400","266","-0.10449219","-0.9267578","0.2734375","2.25","-3.625","5.40625"
"1573646438400","267","-0.13378906","-0.93359375","0.2548828","12.0","-3.1875","7.5"
"1573646438400","268","-0.13671875","-0.9238281","0.2685547","22.03125","0.96875","10.59375"
"1573646438401","269","-0.12109375","-0.9345703","0.3203125","19.15625","4.9375","10.0625"
"1573646438795","270","-0.16015625","-0.9189453","0.3330078","22.875","4.3125","7.90625"
"1573646438796","271","-0.14648438","-0.9199219","0.36328125","26.71875","5.65625","6.5625"
"1573646438796","272","-0.15722656","-0.8925781","0.3955078","13.71875","8.71875","6.8125"
"1573646438796","273","-0.17675781","-0.8964844","0.4033203","13.28125","5.59375","4.0"
"1573646438797","274","-0.20410156","-0.87597656","0.43066406","23.65625","-2.28125","6.46875"
"1573646438797","275","-0.17773438","-0.8720703","0.44726562","15.0","-0.375","0.28125"
"1573646438797","276","-0.16601562","-0.8515625","0.44433594","12.1875","4.9375","-3.0"
"1573646438799","277","-0.15429688","-0.8701172","0.42382812","10.0","-0.9375","-1.125"
"1573646438799","278","-0.15527344","-0.8544922","0.453125","4.375","0.40625","1.3125"
"1573646438799","279","-0.16894531","-0.8613281","0.4423828","4.625","-2.625","2.84375"
"1573646439386","280","-0.171875","-0.8652344","0.42871094","5.96875","-2.03125","1.21875"
"1573646439387","281","-0.18261719","-0.8496094","0.4638672","2.1875","1.5","1.3125"
"1573646439387","282","-0.16503906","-0.8574219","0.44335938","5.1875","-2.46875","2.3125"
"1573646439388","283","-0.13769531","-0.86035156","0.41015625","7.84375","-3.4375","7.5"
"1573646439388","284","-0.16015625","-0.84472656","0.44628906","-1.90625","0.40625","9.6875"
"1573646439389","285","-0.171875","-0.8515625","0.4658203","7.25","3.71875","10.71875"
"1573646439389","286","-0.16503906","-0.84472656","0.44140625","9.03125","2.65625","8.59375"
"1573646439389","287","-0.19433594","-0.84375","0.49023438","7.0625","-0.8125","11.8125"
"1573646439390","288","-0.18164062","-0.8359375","0.4921875","12.3125","-2.21875","8.84375"
"1573646439390","289","-0.24023438","-0.8125","0.5107422","7.5","-2.40625","10.1875"
"1573646439786","290","-0.2763672","-0.8232422","0.49316406","-6.65625","5.59375","4.1875"
"1573646439786","291","-0.20605469","-0.8095703","0.52246094","-10.8125","1.9375","0.96875"
"1573646439786","292","-0.25195312","-0.8076172","0.52734375","-7.15625","12.5625","0.84375"
"1573646439787","293","-0.20800781","-0.82910156","0.47265625","-5.3125","0.0","-2.59375"
"1573646439787","294","-0.19628906","-0.7832031","0.4873047","-7.875","5.0","2.5"
"1573646439787","295","-0.23046875","-0.8339844","0.49121094","1.875","2.0625","4.75"
"1573646439788","296","-0.24804688","-0.80371094","0.51660156","5.125","2.90625","2.5625"
"1573646439788","297","-0.24414062","-0.83496094","0.5136719","1.09375","-1.96875","3.21875"
"1573646439788","298","-0.24804688","-0.796875","0.5488281","-1.1875","2.59375","0.53125"
"1573646439788","299","-0.23046875","-0.8232422","0.4765625","2.5","-5.09375","0.96875"
"1573646439986","300","-0.21679688","-0.82421875","0.5283203","-4.90625","-2.15625","0.53125"
"1573646439987","301","-0.21972656","-0.8095703","0.48632812","7.4375","-7.53125","5.21875"
"1573646439988","302","-0.2265625","-0.8203125","0.49804688","9.09375","-6.78125","5.40625"
"1573646439988","303","-0.23632812","-0.8017578","0.5546875","8.15625","-2.21875","8.71875"
"1573646439989","304","-0.2626953","-0.796875","0.51171875","-0.5","-10.28125","6.09375"
"1573646439989","305","-0.2783203","-0.80078125","0.5605469","5.90625","1.5625","5.34375"
"1573646439989","306","-0.26464844","-0.79003906","0.5371094","2.65625","2.78125","2.1875"
"1573646439989","307","-0.24804688","-0.7890625","0.52734375","12.25","4.125","4.0"
"1573646439990","308","-0.21679688","-0.7597656","0.5644531","20.0625","4.6875","5.0625"
"1573646439990","309","-0.23339844","-0.75390625","0.59375","19.6875","1.3125","8.71875"
"1573646441177","310","-0.31445312","-0.7158203","0.6660156","8.15625","6.03125","0.03125"
"1573646441178","311","-0.34960938","-0.77441406","0.5800781","8.53125","-3.3125","-1.53125"
"1573646441178","312","-0.2861328","-0.7421875","0.65527344","14.625","6.09375","-4.71875"
"1573646441179","313","-0.26464844","-0.7890625","0.57714844","15.5625","-7.28125","-1.34375"
"1573646441179","314","-0.24414062","-0.7001953","0.6328125","9.625","-1.96875","-5.375"
"1573646441179","315","-0.25878906","-0.7548828","0.59472656","6.21875","-9.28125","-6.1875"
"1573646441180","316","-0.19824219","-0.71777344","0.6044922","1.3125","1.375","-6.1875"
"1573646441180","317","-0.30664062","-0.7841797","0.5722656","-4.15625","-4.03125","-10.09375"
"1573646441180","318","-0.20898438","-0.7050781","0.66503906","-9.28125","12.4375","-15.53125"
"1573646441180","319","-0.29492188","-0.765625","0.6152344","-14.40625","2.78125","-9.46875"
"1573646441374","320","-0.23925781","-0.7324219","0.6425781","-8.8125","12.3125","-16.0"
"1573646441375","321","-0.2919922","-0.71777344","0.6044922","-26.5625","1.9375","-16.25"
"1573646441375","322","-0.14160156","-0.77441406","0.6113281","-15.15625","3.9375","-18.09375"
"1573646441375","323","-0.23242188","-0.7529297","0.5341797","-20.09375","0.71875","-7.9375"
"1573646441375","324","-0.18847656","-0.77441406","0.5986328","-17.28125","2.3125","-9.46875"
"1573646441376","325","-0.18457031","-0.77246094","0.5029297","-13.25","-2.9375","-7.8125"
"1573646441376","326","-0.19824219","-0.79003906","0.5605469","-19.59375","-4.59375","-5.5625"
"1573646441377","327","-0.16308594","-0.8310547","0.52246094","-5.4375","-0.625","-6.1875"
"1573646441378","328","-0.19824219","-0.7890625","0.5019531","-24.375","-9.0625","-6.3125"
"1573646441378","329","-0.12011719","-0.8701172","0.50390625","-15.625","-2.34375","-8.0625"
"1573646441378","330","-0.17578125","-0.82421875","0.48632812","-29.375","-10.40625","-7.34375"
"1573646441378","331","-0.14453125","-0.83984375","0.43652344","-27.0625","-5.625","-14.78125"
"1573646441379","332","-0.12597656","-0.8564453","0.44726562","-34.75","-6.25","-13.5625"
"1573646441379","333","-0.08984375","-0.89746094","0.3984375","-27.96875","-4.46875","-16.25"
"1573646441379","334","-0.078125","-0.8828125","0.3720703","-34.0625","-5.09375","-13.9375"
"1573646441379","335","-0.037109375","-0.8925781","0.28027344","-27.78125","-5.25","-12.59375"
"1573646441380","336","-0.016601562","-0.9042969","0.33984375","-25.96875","5.96875","-6.3125"
"1573646441380","337","-0.055664062","-0.921875","0.32617188","-27.25","-1.125","-5.5625"
"1573646441380","338","-0.045898438","-0.9248047","0.2578125","-19.0","-2.8125","-1.84375"
"1573646441380","339","-0.091796875","-0.93066406","0.3232422","-22.90625","8.09375","-2.09375"
"1573646441577","340","-0.076171875","-0.92285156","0.25683594","-16.5","-4.59375","-4.15625"
"1573646441578","341","-0.07714844","-0.9589844","0.27441406","-11.4375","9.3125","-4.46875"
"1573646441578","342","-0.024414062","-0.9296875","0.28808594","-13.0625","7.5","-5.6875"
"1573646441578","343","-0.026367188","-0.9355469","0.2890625","-12.03125","-2.8125","-3.0"
"1573646441579","344","-0.053710938","-0.9550781","0.24121094","-9.84375","-2.28125","-3.375"
"1573646441579","345","0.0087890625","-0.9628906","0.25683594","-8.4375","-3.0625","-1.90625"
"1573646441579","346","-0.07910156","-0.9404297","0.2529297","-10.8125","-1.3125","-3.3125"
"1573646441579","347","-0.01953125","-0.98339844","0.24414062","-6.59375","0.21875","-2.9375"
"1573646441580","348","-0.037109375","-0.9267578","0.24511719","-7.28125","1.28125","-0.9375"
"1573646441580","349","-0.049804688","-0.97753906","0.2578125","-8.625","2.71875","-1.0625"
"1573646442767","350","-0.041992188","-0.94433594","0.22558594","-5.375","6.8125","-0.6875"
"1573646442767","351","-0.044921875","-0.9482422","0.22949219","-4.40625","3.28125","1.6875"
"1573646442768","352","-0.0703125","-0.9238281","0.2548828","-5.21875","6.9375","0.65625"
"1573646442768","353","-0.038085938","-0.9716797","0.22851562","6.15625","4.6875","2.84375"
"1573646442768","354","-0.021484375","-0.9560547","0.23242188","3.34375","0.84375","4.25"
"1573646442769","355","-0.115234375","-0.9511719","0.2919922","-0.125","2.65625","4.6875"
"1573646442769","356","-0.12109375","-0.9560547","0.32226562","-12.15625","11.34375","-1.0625"
"1573646442769","357","-0.08300781","-0.9267578","0.31445312","-8.375","4.0625","-1.0"
"1573646442769","358","-0.11328125","-0.9511719","0.26464844","2.5","1.75","3.03125"
"1573646442777","359","-0.07519531","-0.92578125","0.265625","4.5","-7.65625","2.3125"
"1573646442967","360","-0.111328125","-0.9326172","0.23828125","17.25","-5.21875","3.09375"
"1573646442968","361","-0.0625","-0.96972656","0.31347656","19.03125","2.3125","2.25"
"1573646442968","362","-0.12207031","-0.9345703","0.29492188","11.53125","3.90625","6.21875"
"1573646442969","363","-0.12792969","-0.921875","0.32421875","3.90625","15.0","4.3125"
"1573646442969","364","-0.1796875","-0.9580078","0.32617188","9.03125","16.9375","3.34375"
"1573646442969","365","-0.10644531","-0.89746094","0.34570312","9.8125","15.84375","2.0"
"1573646442970","366","-0.1328125","-0.92871094","0.35546875","13.71875","15.5","7.8125"
"1573646442970","367","-0.11816406","-0.8984375","0.38964844","9.5","13.03125","3.03125"
"1573646442970","368","-0.13378906","-0.91503906","0.38867188","3.03125","3.59375","4.125"
"1573646442971","369","-0.13769531","-0.9277344","0.34960938","13.40625","0.15625","2.5625"
"1573646443560","370","-0.14160156","-0.87597656","0.36132812","5.0","0.21875","1.875"
"1573646443561","371","-0.12890625","-0.921875","0.3623047","27.6875","-5.625","4.5625"
"1573646443561","372","-0.125","-0.90234375","0.3564453","22.8125","-8.5625","4.4375"
"1573646443561","373","-0.13867188","-0.8769531","0.3720703","17.6875","-2.28125","5.34375"
"1573646443562","374","-0.1328125","-0.90625","0.37890625","17.0625","2.4375","4.125"
"1573646443562","375","-0.1171875","-0.88964844","0.3876953","10.53125","-1.84375","2.1875"
"1573646443562","376","-0.109375","-0.88378906","0.41210938","6.5625","0.84375","4.9375"
"1573646443563","377","-0.14746094","-0.8701172","0.390625","4.6875","-4.46875","5.0625"
"1573646443563","378","-0.11816406","-0.8808594","0.39746094","9.03125","0.71875","3.78125"
"1573646443563","379","-0.14746094","-0.86621094","0.39746094","10.46875","0.65625","7.25"
"1573646443958","380","-0.13671875","-0.8730469","0.43066406","13.0","3.34375","6.15625"
"1573646443958","381","-0.17089844","-0.8388672","0.46289062","12.5","8.15625","7.625"
"1573646443959","382","-0.17285156","-0.83496094","0.5048828","5.53125","7.90625","3.65625"
"1573646443959","383","-0.22167969","-0.8378906","0.50097656","7.0","8.15625","6.5625"
"1573646443959","384","-0.17675781","-0.8251953","0.48632812","8.53125","-0.8125","3.59375"
"1573646443961","385","-0.20117188","-0.80566406","0.52246094","13.53125","9.03125","8.71875"
"1573646443961","386","-0.25097656","-0.828125","0.5527344","3.53125","6.9375","0.0"
"1573646443961","387","-0.171875","-0.81640625","0.46875","11.40625","1.6875","4.0625"
"1573646443961","388","-0.1875","-0.80859375","0.5214844","14.15625","5.40625","5.90625"
"1573646443962","389","-0.22265625","-0.81347656","0.515625","8.28125","-1.1875","5.40625"
"1573646443963","390","-0.20117188","-0.80566406","0.5292969","13.0","2.125","2.65625"
"1573646443964","391","-0.25390625","-0.8095703","0.6201172","2.5","10.59375","0.53125"
"1573646443964","392","-0.26757812","-0.7753906","0.53515625","-3.0625","1.3125","-3.5625"
"1573646443964","393","-0.20898438","-0.78027344","0.5625","-1.3125","7.0625","1.375"
"1573646443964","394","-0.24804688","-0.7910156","0.53515625","3.03125","2.125","1.3125"
"1573646443965","395","-0.20996094","-0.77246094","0.5410156","5.40625","0.65625","2.5"
"1573646443965","396","-0.24902344","-0.7919922","0.5576172","10.78125","-3.3125","6.28125"
"1573646443965","397","-0.26367188","-0.76464844","0.59472656","8.21875","7.375","-2.9375"
"1573646443965","398","-0.203125","-0.77734375","0.6513672","-1.71875","1.625","5.46875"
"1573646443966","399","-0.32714844","-0.7578125","0.6347656","-2.15625","6.875","-3.8125"
"1573646444160","400","-0.28710938","-0.7783203","0.6035156","-19.5","-6.65625","-8.875"
"1573646444160","401","-0.20507812","-0.78808594","0.5810547","-3.125","-3.625","-1.96875"
"1573646444161","402","-0.25585938","-0.7519531","0.5361328","-4.40625","-3.1875","-6.59375"
"1573646444161","403","-0.17871094","-0.7685547","0.6015625","-15.15625","-3.0","4.375"
"1573646444161","404","-0.25097656","-0.7919922","0.49121094","-1.59375","-9.0625","-0.9375"
"1573646444161","405","-0.21679688","-0.7998047","0.58203125","-12.40625","-6.84375","-2.59375"
"1573646444162","406","-0.24511719","-0.7949219","0.5126953","-9.65625","-10.4375","-8.3125"
"1573646444162","407","-0.19042969","-0.8066406","0.5810547","-16.96875","-5.21875","-8.875"
"1573646444162","408","-0.2265625","-0.8203125","0.5175781","-17.71875","-10.15625","-10.6875"
"1573646444163","409","-0.21484375","-0.8125","0.5283203","-29.8125","-7.28125","-11.96875"
"1573646444754","410","-0.1640625","-0.8466797","0.49121094","-21.1875","-4.03125","-13.375"
"1573646444755","411","-0.19433594","-0.83496094","0.515625","-37.84375","-6.125","-10.4375"
"1573646444755","412","-0.15039062","-0.85546875","0.4296875","-25.84375","-3.125","-16.96875"
"1573646444755","413","-0.10253906","-0.8847656","0.41601562","-36.15625","-7.21875","-11.0625"
"1573646444756","414","-0.13085938","-0.8828125","0.3935547","-28.46875","-2.46875","-14.59375"
"1573646444756","415","-0.068359375","-0.88183594","0.37695312","-37.84375","1.9375","-12.65625"
"1573646444756","416","-0.08105469","-0.94140625","0.30566406","-35.125","-5.375","-11.3125"
"1573646444756","417","-0.051757812","-0.9042969","0.30566406","-35.125","0.09375","-10.5625"
"1573646444757","418","-0.09667969","-0.9189453","0.27441406","-24.0625","-2.59375","-8.5625"
"1573646444757","419","-0.025390625","-0.9550781","0.27734375","-26.5","2.59375","-6.375"
"1573646445354","420","-0.028320312","-0.9375","0.27246094","-22.0625","-2.21875","-1.0"
"1573646445356","421","-0.076171875","-0.9375","0.23535156","-9.78125","-1.90625","-2.9375"
"1573646445356","422","-0.02734375","-0.953125","0.25390625","-8.3125","-0.25","-3.3125"
"1573646445357","423","-0.060546875","-0.9404297","0.23730469","-3.96875","1.5","-1.46875"
"1573646445357","424","-0.051757812","-0.95703125","0.2265625","-1.96875","4.5","-2.21875"
"1573646445357","425","-0.051757812","-0.94433594","0.23730469","-2.15625","7.625","-2.6875"
"1573646445358","426","-0.06933594","-0.97265625","0.25195312","0.0","13.59375","-4.96875"
"1573646445358","427","-0.026367188","-0.9638672","0.203125","1.6875","4.6875","-4.46875"
"1573646445358","428","-0.056640625","-0.97265625","0.2783203","4.0625","16.40625","-1.65625"
"1573646445359","429","-0.043945312","-0.9501953","0.23535156","-2.875","10.53125","-6.59375"
"1573646445751","430","-0.017578125","-0.96875","0.23242188","-0.5625","12.125","-1.84375"
"1573646445751","431","-0.06640625","-0.94628906","0.24609375","0.65625","17.1875","-4.96875"
"1573646445752","432","-0.051757812","-0.93652344","0.22949219","4.5625","7.0","-1.84375"
"1573646445753","433","-0.048828125","-0.953125","0.26464844","9.5625","10.46875","0.65625"
"1573646445754","434","-0.043945312","-0.953125","0.265625","12.1875","8.59375","1.875"
"1573646445754","435","-0.033203125","-0.92285156","0.28222656","11.15625","0.28125","4.1875"
"1573646445754","436","-0.064453125","-0.93359375","0.24511719","18.0","-3.90625","5.59375"
"1573646445754","437","-0.015625","-0.9580078","0.31152344","21.15625","-1.40625","10.59375"
"1573646445755","438","-0.11621094","-0.88964844","0.32226562","18.46875","-3.125","9.6875"
"1573646445755","439","-0.09277344","-0.93066406","0.35546875","14.09375","1.3125","4.8125"
"1573646445946","440","-0.10058594","-0.91308594","0.39453125","7.5","2.125","6.6875"
"1573646445946","441","-0.14648438","-0.88964844","0.39160156","12.0625","3.59375","5.125"
"1573646445947","442","-0.15332031","-0.8964844","0.40820312","-6.0","0.59375","2.0"
"1573646445947","443","-0.13085938","-0.8798828","0.38867188","12.375","4.3125","3.90625"
"1573646445947","444","-0.17773438","-0.875","0.43554688","4.9375","3.71875","1.625"
"1573646445948","445","-0.119140625","-0.875","0.4189453","4.5","-0.5","1.875"
"1573646445948","446","-0.15332031","-0.88964844","0.41503906","6.6875","3.90625","2.1875"
"1573646445948","447","-0.140625","-0.87890625","0.42285156","3.21875","0.78125","1.3125"
"1573646445949","448","-0.15332031","-0.8828125","0.40625","3.90625","0.78125","0.65625"
"1573646445949","449","-0.12109375","-0.89941406","0.4169922","5.34375","2.65625","1.5625"
"1573646446143","450","-0.13574219","-0.87890625","0.40234375","8.90625","0.21875","2.78125"
"1573646446144","451","-0.10253906","-0.8779297","0.4033203","10.25","0.21875","5.46875"
"1573646446144","452","-0.14355469","-0.8935547","0.41210938","12.0625","3.21875","5.34375"
"1573646446144","453","-0.1171875","-0.87402344","0.4248047","15.625","2.375","5.65625"
"1573646446144","454","-0.15625","-0.859375","0.3876953","13.84375","0.78125","5.90625"
"1573646446144","455","-0.1484375","-0.8779297","0.47460938","16.90625","19.625","2.375"
"1573646446145","456","-0.15820312","-0.8378906","0.47851562","9.25","3.46875","3.34375"
"1573646446146","457","-0.15234375","-0.8417969","0.44140625","20.3125","7.5625","4.8125"
"1573646446146","458","-0.16894531","-0.84375","0.4814453","14.28125","7.0","2.0"
"1573646446146","459","-0.12792969","-0.8466797","0.47851562","20.4375","9.03125","5.78125"
"1573646446346","460","-0.18164062","-0.8027344","0.5185547","14.625","8.03125","8.84375"
"1573646446346","461","-0.20214844","-0.8417969","0.5419922","14.5","9.375","5.21875"
"1573646446346","462","-0.16796875","-0.7988281","0.5371094","10.0625","2.78125","6.09375"
"1573646446347","463","-0.19921875","-0.7919922","0.55371094","7.5625","4.4375","5.78125"
"1573646446347","464","-0.18652344","-0.7988281","0.53808594","6.03125","2.3125","5.46875"
"1573646446347","465","-0.19628906","-0.7783203","0.5253906","7.5","-0.6875","7.375"
"1573646446347","466","-0.20410156","-0.79785156","0.5546875","11.15625","0.46875","7.125"
"1573646446347","467","-0.23535156","-0.7480469","0.5673828","0.09375","-1.3125","3.90625"
"1573646446348","468","-0.234375","-0.79003906","0.5605469","16.09375","2.3125","1.09375"
"1573646446348","469","-0.17382812","-0.77246094","0.62402344","4.1875","7.25","2.0625"
"1573646446942","470","-0.21875","-0.7636719","0.58691406","10.0","-1.34375","9.9375"
"1573646446943","471","-0.27734375","-0.73339844","0.6142578","11.59375","4.3125","4.25"
"1573646446943","472","-0.23339844","-0.7480469","0.6064453","5.65625","1.875","4.6875"
"1573646446943","473","-0.2529297","-0.7519531","0.6376953","7.375","6.46875","4.0"
"1573646446943","474","-0.27246094","-0.71484375","0.66015625","3.21875","8.15625","3.34375"
"1573646446943","475","-0.26660156","-0.7314453","0.66308594","0.46875","6.5625","0.53125"
"1573646446944","476","-0.28027344","-0.70214844","0.6513672","-2.03125","2.84375","-1.53125"
"1573646446944","477","-0.265625","-0.7363281","0.66308594","-5.5","2.0625","-5.6875"
"1573646446944","478","-0.25195312","-0.71972656","0.6269531","-4.53125","-2.75","-5.625"
"1573646446944","479","-0.2529297","-0.72265625","0.6308594","-3.96875","-1.84375","-3.5"
"1573646447535","480","-0.27929688","-0.7314453","0.6611328","-11.90625","0.03125","-5.875"
"1573646447537","481","-0.23730469","-0.7753906","0.5986328","-6.65625","-5.09375","-5.3125"
"1573646447537","482","-0.22753906","-0.7597656","0.6699219","-21.6875","-1.78125","-9.59375"
"1573646447537","483","-0.23046875","-0.7792969","0.5703125","-19.84375","-8.0625","-9.0"
"1573646447538","484","-0.24316406","-0.74609375","0.57714844","-21.3125","-4.09375","-10.9375"
"1573646447538","485","-0.23535156","-0.7890625","0.56152344","-18.75","-1.78125","-10.34375"
"1573646447538","486","-0.22070312","-0.7949219","0.56347656","-16.0","3.34375","-11.0625"
"1573646447538","487","-0.21484375","-0.7919922","0.56152344","-19.53125","3.40625","-11.375"
"1573646447539","488","-0.18652344","-0.7988281","0.55566406","-20.875","2.1875","-11.96875"
"1573646447539","489","-0.18945312","-0.82128906","0.5410156","-28.46875","-3.4375","-13.5"
"1573646447735","490","-0.15820312","-0.8173828","0.4892578","-31.03125","-5.8125","-14.0625"
"1573646447736","491","-0.12792969","-0.84375","0.43847656","-33.65625","-9.15625","-12.40625"
"1573646447736","492","-0.12988281","-0.8652344","0.4296875","-34.0625","-3.375","-11.25"
"1573646447737","493","-0.091796875","-0.86621094","0.40429688","-31.375","-12.84375","-9.84375"
"1573646447738","494","-0.11425781","-0.86328125","0.3203125","-35.0625","-11.3125","-10.09375"
"1573646447738","495","-0.041015625","-0.92871094","0.3251953","-25.71875","-3.25","-5.3125"
"1573646447738","496","-0.08105469","-0.89941406","0.3173828","-30.53125","-7.53125","-4.40625"
"1573646447738","497","-0.083984375","-0.90527344","0.25878906","-26.4375","-6.1875","-4.40625"
"1573646447739","498","-0.064453125","-0.9394531","0.2890625","-19.1875","1.03125","-4.09375"
"1573646447739","499","-0.08691406","-0.92871094","0.26171875","-16.25","1.625","-4.96875"
"1573646447936","500","-0.029296875","-0.9560547","0.26367188","-16.25","1.28125","-5.21875"
"1573646447936","501","-0.06542969","-0.9296875","0.25976562","-16.625","5.28125","-5.9375"
"1573646447936","502","-0.046875","-0.96191406","0.24414062","-12.09375","-1.1875","-4.28125"
"1573646447936","503","-0.025390625","-0.9609375","0.25585938","-13.03125","0.0","-2.28125"
"1573646447937","504","-0.0703125","-0.94628906","0.24414062","-10.8125","-3.0","-4.90625"
"1573646447938","505","-0.029296875","-0.9638672","0.24804688","-8.0","-4.96875","-3.3125"
"1573646447938","506","-0.080078125","-0.9716797","0.2607422","-6.53125","-5.375","-1.84375"
"1573646447938","507","-0.02734375","-0.9628906","0.2421875","-10.6875","-3.0625","-1.46875"
"1573646447939","508","-0.08203125","-0.9316406","0.19433594","-6.375","-4.46875","1.03125"
"1573646447939","509","-0.06347656","-0.9736328","0.25","3.21875","5.21875","2.5625"
"1573646448532","510","-0.052734375","-0.9482422","0.23046875","-4.96875","2.4375","-1.3125"
"1573646448533","511","-0.048828125","-0.953125","0.23339844","3.53125","2.90625","1.8125"
"1573646448533","512","-0.06347656","-0.95410156","0.23339844","-2.40625","4.5","-0.4375"
"1573646448533","513","-0.048828125","-0.9658203","0.23144531","1.3125","5.59375","0.71875"
"1573646448534","514","-0.07128906","-0.9482422","0.25585938","4.8125","5.21875","2.0"
"1573646448534","515","-0.044921875","-0.9433594","0.26367188","1.8125","4.5625","1.5"
"1573646448534","516","-0.064453125","-0.93847656","0.20605469","5.90625","2.84375","3.03125"
"1573646448535","517","-0.016601562","-0.9550781","0.28027344","9.25","4.3125","7.90625"
"1573646448536","518","-0.14453125","-0.91015625","0.31054688","9.03125","0.53125","7.25"
"1573646448536","519","-0.13378906","-0.9453125","0.32714844","8.71875","16.15625","-2.53125"
"1573646448928","520","-0.08496094","-0.93359375","0.33789062","3.34375","7.5","0.96875"
"1573646448928","521","-0.10644531","-0.9326172","0.35839844","15.84375","10.1875","4.4375"
"1573646448929","522","-0.09667969","-0.88671875","0.30566406","22.25","3.21875","7.90625"
"1573646448929","523","-0.15527344","-0.9345703","0.37695312","22.03125","13.84375","4.8125"
"1573646448929","524","-0.08691406","-0.89746094","0.40039062","16.78125","11.53125","4.3125"
"1573646448929","525","-0.13378906","-0.8876953","0.38671875","18.125","0.40625","10.59375"
"1573646448929","526","-0.1484375","-0.8955078","0.4033203","13.40625","4.0625","7.25"
"1573646448930","527","-0.15039062","-0.9160156","0.42089844","15.0","3.71875","5.59375"
"1573646448930","528","-0.16210938","-0.86816406","0.39160156","12.25","0.03125","1.09375"
"1573646448931","529","-0.14648438","-0.89160156","0.4140625","12.375","7.125","3.59375"
"1573646449325","530","-0.17382812","-0.8857422","0.43847656","12.0625","3.34375","2.4375"
"1573646449325","531","-0.15820312","-0.86035156","0.42773438","15.5625","1.875","0.84375"
"1573646449325","532","-0.16015625","-0.8652344","0.45214844","15.96875","2.65625","2.4375"
"1573646449326","533","-0.13769531","-0.8701172","0.43945312","17.1875","1.875","3.03125"
"1573646449326","534","-0.13574219","-0.84765625","0.45507812","15.625","-1.25","7.125"
"1573646449326","535","-0.16894531","-0.8330078","0.4482422","10.65625","-0.875","6.46875"
"1573646449326","536","-0.14257812","-0.85546875","0.4736328","18.84375","4.5625","9.125"
"1573646449327","537","-0.20898438","-0.82421875","0.5029297","8.28125","0.40625","6.6875"
"1573646449327","538","-0.16796875","-0.8359375","0.4794922","21.40625","4.75","7.90625"
"1573646449327","539","-0.21386719","-0.79003906","0.53515625","16.65625","2.0","6.09375"
"1573646449726","540","-0.15917969","-0.8154297","0.5234375","18.0625","1.3125","6.03125"
"1573646449728","541","-0.18847656","-0.79589844","0.55078125","13.71875","3.21875","7.125"
"1573646449728","542","-0.1953125","-0.78222656","0.5136719","14.09375","1.21875","4.8125"
"1573646449729","543","-0.18261719","-0.7841797","0.54785156","4.6875","3.21875","6.6875"
"1573646449729","544","-0.203125","-0.7841797","0.55371094","9.8125","0.96875","7.5"
"1573646449729","545","-0.21972656","-0.7841797","0.5683594","11.15625","3.90625","4.875"
"1573646449729","546","-0.22753906","-0.76953125","0.5527344","9.875","-1.25","2.65625"
"1573646449730","547","-0.20410156","-0.7763672","0.5644531","9.9375","8.03125","0.65625"
"1573646449730","548","-0.22265625","-0.78125","0.5732422","6.875","4.4375","1.6875"
"1573646449730","549","-0.20410156","-0.7607422","0.54003906","7.8125","1.875","2.90625"
"1573646449924","550","-0.23632812","-0.75683594","0.6035156","7.90625","14.625","3.21875"
"1573646449924","551","-0.23144531","-0.7558594","0.6171875","5.78125","5.0625","-0.4375"
"1573646449924","552","-0.22265625","-0.74902344","0.5810547","8.59375","5.59375","2.25"
"1573646449925","553","-0.23144531","-0.73339844","0.6201172","7.25","2.84375","1.09375"
"1573646449926","554","-0.24609375","-0.73339844","0.62109375","4.0","5.0","0.71875"
"1573646449926","555","-0.2783203","-0.7089844","0.64941406","2.78125","8.15625","-0.875"
"1573646449926","556","-0.28125","-0.7050781","0.6748047","-0.1875","7.1875","-1.46875"
"1573646449926","557","-0.2890625","-0.69433594","0.6894531","-4.40625","3.53125","-4.03125"
"1573646449927","558","-0.328125","-0.69921875","0.6582031","-7.03125","-3.90625","-5.5625"
"1573646449927","559","-0.2861328","-0.70410156","0.6748047","-7.71875","2.3125","-9.78125"
"1573646450519","560","-0.2578125","-0.70996094","0.640625","-7.46875","-7.34375","-3.5"
"1573646450519","561","-0.25976562","-0.71972656","0.6904297","-4.40625","-4.28125","-2.625"
"1573646450519","562","-0.27734375","-0.71777344","0.6904297","-12.53125","-6.78125","-4.34375"
"1573646450520","563","-0.21972656","-0.7451172","0.6015625","-15.21875","-15.28125","-4.09375"
"1573646450520","564","-0.25195312","-0.7441406","0.6269531","-18.4375","-6.59375","-8.0625"
"1573646450521","565","-0.20996094","-0.76464844","0.5830078","-20.59375","-8.375","-7.09375"
"1573646450521","566","-0.24609375","-0.77441406","0.5957031","-21.5625","-0.5625","-10.5625"
"1573646450522","567","-0.17675781","-0.78125","0.57714844","-26.125","-1.34375","-13.8125"
"1573646450522","568","-0.19042969","-0.82714844","0.5361328","-24.84375","-0.5625","-11.625"
"1573646450522","569","-0.18164062","-0.8144531","0.5449219","-38.46875","1.28125","-16.75"
"1573646451114","570","-0.13867188","-0.8300781","0.5107422","-46.875","-0.4375","-20.59375"
"1573646451115","571","-0.14453125","-0.8564453","0.45898438","-55.375","-4.21875","-21.5625"
"1573646451115","572","-0.11425781","-0.8310547","0.3984375","-50.1875","-1.84375","-23.5"
"1573646451115","573","-0.06933594","-0.8857422","0.33984375","-45.65625","-3.3125","-18.15625"
"1573646451115","574","-0.041992188","-0.9033203","0.28808594","-38.84375","-0.875","-14.53125"
"1573646451116","575","-0.03515625","-0.89941406","0.25585938","-21.6875","3.15625","-7.78125"
"1573646451116","576","-0.033203125","-0.9345703","0.30273438","-19.53125","1.8125","-2.40625"
"1573646451117","577","-0.06640625","-0.92871094","0.23925781","-14.0625","-3.0","-2.21875"
"1573646451117","578","-0.08300781","-0.9375","0.28125","-13.1875","7.3125","-5.09375"
"1573646451118","579","-0.055664062","-0.9238281","0.24414062","-11.96875","-2.875","-5.03125"
"1573646451513","580","-0.030273438","-0.9580078","0.23925781","-2.40625","4.125","-4.46875"
"1573646451513","581","-0.020507812","-0.96777344","0.27148438","-2.9375","6.09375","-3.4375"
"1573646451514","582","-0.0546875","-0.9550781","0.25878906","-8.125","2.59375","-3.0625"
"1573646451514","583","-0.051757812","-0.9550781","0.25683594","-11.25","2.59375","-2.59375"
"1573646451514","584","-0.045898438","-0.95410156","0.25195312","-6.0625","0.59375","-2.40625"
"1573646451514","585","-0.043945312","-0.95703125","0.24316406","-0.8125","1.9375","0.28125"
"1573646451515","586","-0.051757812","-0.9404297","0.25585938","-1.3125","-1.3125","0.46875"
"1573646451516","587","-0.044921875","-0.94628906","0.24511719","-1.25","1.9375","1.875"
"1573646451516","588","-0.06738281","-0.95996094","0.2529297","-2.09375","-1.65625","3.34375"
"1573646451516","589","-0.053710938","-0.9375","0.2685547","2.5","0.15625","4.5625"
"1573646452106","590","-0.07324219","-0.95996094","0.2626953","4.375","-0.625","4.0"
"1573646452107","591","-0.06640625","-0.9238281","0.25585938","2.375","-1.0625","3.09375"
"1573646452107","592","-0.05859375","-0.9472656","0.25683594","16.28125","2.1875","7.625"
"1573646452107","593","-0.05859375","-0.93847656","0.2890625","5.90625","1.875","7.6875"
"1573646452107","594","-0.07421875","-0.9316406","0.28710938","13.59375","-4.03125","9.8125"
"1573646452108","595","-0.10839844","-0.9326172","0.30371094","11.71875","1.4375","7.375"
"1573646452108","596","-0.103515625","-0.9169922","0.3330078","11.71875","2.5","6.46875"
"1573646452108","597","-0.119140625","-0.92285156","0.36523438","12.875","0.46875","7.125"
"1573646452109","598","-0.14746094","-0.8964844","0.3544922","15.1875","4.125","6.15625"
"1573646452109","599","-0.13085938","-0.90722656","0.3779297","12.875","3.09375","4.375"
"1573646452309","600","-0.14550781","-0.89453125","0.3876953","9.9375","6.5625","4.6875"
"1573646452311","601","-0.15527344","-0.88964844","0.3955078","11.71875","6.5625","3.34375"
"1573646452311","602","-0.12792969","-0.9169922","0.41601562","9.125","8.15625","2.5625"
"1573646452312","603","-0.13964844","-0.8623047","0.38964844","10.0625","0.53125","4.0625"
"1573646452312","604","-0.15429688","-0.8779297","0.41503906","12.875","3.21875","6.09375"
"1573646452312","605","-0.18457031","-0.8623047","0.45410156","10.1875","3.78125","3.40625"
"1573646452313","606","-0.14355469","-0.88183594","0.42871094","23.125","-4.53125","5.0"
"1573646452313","607","-0.16796875","-0.8417969","0.46191406","8.21875","-1.59375","3.90625"
"1573646452313","608","-0.17382812","-0.87890625","0.44140625","16.09375","0.65625","2.96875"
"1573646452313","609","-0.12109375","-0.8671875","0.46679688","10.84375","-4.09375","0.96875"
"1573646452507","610","-0.13867188","-0.8310547","0.4638672","12.4375","-4.78125","5.46875"
"1573646452507","611","-0.20214844","-0.8378906","0.46777344","16.59375","-0.625","4.8125"
"1573646452507","612","-0.17773438","-0.82910156","0.5048828","15.1875","4.0625","3.59375"
"1573646452509","613","-0.19726562","-0.83496094","0.5185547","12.5","7.0","4.6875"
"1573646452509","614","-0.19726562","-0.8261719","0.515625","12.9375","7.125","0.21875"
"1573646452509","615","-0.16601562","-0.8339844","0.515625","9.5","6.34375","1.5625"
"1573646452509","616","-0.15917969","-0.7988281","0.5214844","10.375","6.8125","0.96875"
"1573646452510","617","-0.19335938","-0.80078125","0.5214844","12.375","6.6875","2.84375"
"1573646452510","618","-0.17480469","-0.79296875","0.55371094","14.8125","5.0","3.40625"
"1573646452510","619","-0.1875","-0.7841797","0.57421875","13.28125","4.5625","4.8125"
"1573646452906","620","-0.19140625","-0.7792969","0.52734375","23.78125","4.0","4.9375"
"1573646452906","621","-0.21386719","-0.7548828","0.59472656","5.90625","6.5625","4.6875"
"1573646452907","622","-0.18164062","-0.7714844","0.53808594","10.90625","2.90625","5.90625"
"1573646452907","623","-0.24316406","-0.75390625","0.6074219","-0.875","7.3125","6.6875"
"1573646452907","624","-0.25","-0.76464844","0.5673828","0.90625","6.9375","-2.75"
"1573646452909","625","-0.2265625","-0.7529297","0.62109375","6.15625","9.6875","-1.96875"
"1573646452909","626","-0.22949219","-0.77246094","0.56933594","3.53125","7.5","-1.84375"
"1573646452909","627","-0.20019531","-0.7470703","0.6035156","3.90625","9.25","0.34375"
"1573646452910","628","-0.23632812","-0.7480469","0.58984375","2.90625","6.03125","1.375"
"1573646452910","629","-0.23339844","-0.73535156","0.5996094","4.1875","5.34375","1.4375"
"1573646453305","630","-0.2607422","-0.734375","0.6435547","2.65625","5.34375","0.21875"
"1573646453305","631","-0.2529297","-0.7470703","0.6386719","0.84375","4.375","-1.0"
"1573646453305","632","-0.27441406","-0.7294922","0.66796875","-6.65625","5.46875","-3.125"
"1573646453306","633","-0.26953125","-0.73535156","0.6982422","-18.03125","-1.90625","-6.375"
"1573646453306","634","-0.27929688","-0.7392578","0.60253906","-12.53125","-9.34375","-7.09375"
"1573646453306","635","-0.2529297","-0.75878906","0.6191406","-19.96875","-4.84375","-11.84375"
"1573646453306","636","-0.22949219","-0.77246094","0.5732422","-16.6875","-5.6875","-8.125"
"1573646453308","637","-0.2578125","-0.7470703","0.5839844","-11.96875","0.65625","-6.1875"
"1573646453308","638","-0.23535156","-0.77734375","0.578125","-18.15625","0.40625","-9.34375"
"1573646453309","639","-0.20410156","-0.7998047","0.5878906","-16.6875","5.59375","-8.9375"
"1573646453701","640","-0.21289062","-0.7890625","0.5722656","-25.21875","1.15625","-10.21875"
"1573646453701","641","-0.17480469","-0.81152344","0.5644531","-27.0","-6.0625","-12.59375"
"1573646453702","642","-0.19628906","-0.8203125","0.53222656","-35.0","-11.5625","-15.625"
"1573646453702","643","-0.15527344","-0.83984375","0.5214844","-35.0625","-9.53125","-18.9375"
"1573646453702","644","-0.14550781","-0.86328125","0.4658203","-42.0625","-12.59375","-17.53125"
"1573646453702","645","-0.17480469","-0.8642578","0.4189453","-42.0","-7.09375","-21.1875"
"1573646453703","646","-0.07910156","-0.8847656","0.37109375","-43.15625","-9.28125","-16.875"
"1573646453703","647","-0.12207031","-0.90234375","0.3515625","-36.5625","-8.6875","-13.03125"
"1573646453703","648","-0.10839844","-0.89160156","0.27246094","-38.59375","-5.21875","-21.0625"
"1573646453705","649","-0.00390625","-0.9160156","0.27246094","-29.9375","4.625","-12.28125"
"1573646454297","650","-0.018554688","-0.9433594","0.25097656","-29.3125","-8.875","-9.53125"
"1573646454298","651","0.009765625","-0.95214844","0.18164062","-17.15625","-8.25","-4.96875"
"1573646454298","652","-0.024414062","-0.9394531","0.23144531","-13.375","1.03125","-3.625"
"1573646454299","653","-0.038085938","-0.9404297","0.23925781","-15.34375","5.46875","-2.9375"
"1573646454299","654","-0.043945312","-0.9628906","0.19921875","-9.0625","0.28125","-3.3125"
"1573646454299","655","-0.022460938","-0.95410156","0.2109375","-15.28125","3.46875","-4.53125"
"1573646454299","656","-0.017578125","-0.9638672","0.1953125","-9.28125","3.15625","-4.03125"
"1573646454300","657","-0.017578125","-0.97265625","0.2109375","-7.40625","6.40625","-2.34375"
"1573646454300","658","-0.024414062","-0.95214844","0.21972656","-7.09375","2.78125","-3.5"
"1573646454300","659","-0.0048828125","-0.95214844","0.19628906","-4.90625","1.375","-1.96875"
"1573646454693","660","-0.001953125","-0.9746094","0.19824219","-3.0625","1.9375","1.6875"
"1573646454694","661","-0.021484375","-0.9794922","0.2109375","-2.59375","-2.6875","1.3125"
"1573646454695","662","-0.043945312","-0.9238281","0.20117188","-12.34375","-0.625","-1.3125"
"1573646454695","663","-0.013671875","-0.97558594","0.17773438","2.5625","2.1875","1.6875"
"1573646454695","664","-0.033203125","-0.9824219","0.23730469","-8.5","7.3125","0.0"
"1573646454695","665","-0.034179688","-0.95996094","0.18066406","0.09375","-2.28125","1.5625"
"1573646454696","666","-0.022460938","-0.9589844","0.18066406","5.90625","2.3125","3.21875"
"1573646454696","667","-0.022460938","-0.9824219","0.23828125","4.0","2.84375","2.5625"
"1573646454696","668","-0.041015625","-0.94628906","0.20507812","9.8125","0.84375","3.21875"
"1573646454696","669","-0.0234375","-0.9716797","0.23144531","11.53125","2.65625","5.34375"
"1573646455090","670","9.765625E-4","-0.9404297","0.23632812","13.59375","-5.25","10.71875"
"1573646455090","671","-0.059570312","-0.95703125","0.2705078","13.21875","-2.9375","12.0625"
"1573646455090","672","-0.09667969","-0.9433594","0.27539062","10.3125","-0.8125","6.6875"
"1573646455091","673","-0.055664062","-0.9267578","0.2919922","11.46875","-0.4375","7.5"
"1573646455091","674","-0.08300781","-0.9375","0.2841797","15.78125","-0.3125","10.59375"
"1573646455092","675","-0.08691406","-0.93359375","0.29589844","15.1875","4.0","9.375"
"1573646455092","676","-0.103515625","-0.92285156","0.35546875","13.53125","7.25","7.8125"
"1573646455092","677","-0.083984375","-0.9169922","0.28027344","26.15625","1.875","5.125"
"1573646455092","678","-0.083984375","-0.9199219","0.42089844","14.09375","16.84375","9.375"
"1573646455093","679","-0.1015625","-0.9248047","0.3251953","-0.1875","-2.15625","3.21875"
"1573646455289","680","-0.12792969","-0.8847656","0.3564453","15.84375","10.59375","6.6875"
"1573646455290","681","-0.15136719","-0.9003906","0.40820312","22.25","2.65625","5.40625"
"1573646455290","682","-0.14355469","-0.8984375","0.3798828","21.40625","6.09375","6.9375"
"1573646455290","683","-0.15527344","-0.8564453","0.42382812","22.8125","5.21875","8.84375"
"1573646455290","684","-0.18066406","-0.8847656","0.43945312","21.46875","8.59375","5.90625"
"1573646455292","685","-0.12011719","-0.8691406","0.42871094","21.53125","4.1875","6.21875"
"1573646455292","686","-0.16113281","-0.8339844","0.46875","20.125","4.3125","10.90625"
"1573646455292","687","-0.203125","-0.8623047","0.4814453","18.40625","4.0625","5.125"
"1573646455293","688","-0.14160156","-0.8300781","0.4892578","14.875","3.90625","6.15625"
"1573646455293","689","-0.20214844","-0.81152344","0.4794922","11.71875","1.5625","7.8125"
"1573646455688","690","-0.17382812","-0.8408203","0.5390625","17.5","4.1875","7.90625"
"1573646455689","691","-0.19140625","-0.80371094","0.46777344","16.15625","-18.4375","10.71875"
"1573646455689","692","-0.14453125","-0.79589844","0.5341797","21.71875","-5.8125","13.84375"
"1573646455689","693","-0.19433594","-0.81347656","0.5625","7.75","-8.375","9.9375"
"1573646455690","694","-0.20410156","-0.7949219","0.5","11.34375","-6.4375","7.125"
"1573646455690","695","-0.21777344","-0.76171875","0.5722656","7.1875","-2.03125","2.4375"
"1573646455690","696","-0.19238281","-0.79003906","0.5644531","10.96875","-1.34375","3.34375"
"1573646455691","697","-0.19921875","-0.7763672","0.56933594","4.5","-2.34375","3.65625"
"1573646455692","698","-0.20898438","-0.78125","0.56347656","4.125","-1.3125","4.125"
"1573646455692","699","-0.19238281","-0.7636719","0.5800781","11.46875","-2.875","5.90625"
"1573646456084","700","-0.20117188","-0.7734375","0.5751953","12.4375","-6.1875","9.9375"
"1573646456085","701","-0.24804688","-0.7578125","0.5996094","11.03125","0.53125","6.5625"
"1573646456085","702","-0.203125","-0.75390625","0.59472656","7.25","0.21875","6.5625"
"1573646456085","703","-0.25","-0.7285156","0.609375","13.03125","3.46875","4.5625"
"1573646456085","704","-0.25683594","-0.74316406","0.6347656","11.40625","4.6875","1.15625"
"1573646456086","705","-0.2783203","-0.6972656","0.7011719","-2.75","9.875","-4.34375"
"1573646456086","706","-0.25097656","-0.72265625","0.6376953","1.5625","11.15625","-5.75"
"1573646456086","707","-0.24121094","-0.71972656","0.6796875","-11.4375","8.96875","-6.0"
"1573646456086","708","-0.23144531","-0.7246094","0.5966797","-0.6875","3.28125","-2.53125"
"1573646456088","709","-0.2548828","-0.72558594","0.63671875","-1.59375","10.53125","-4.15625"
"1573646456877","710","-0.23535156","-0.7265625","0.5957031","0.0","9.8125","-3.90625"
"1573646456878","711","-0.22363281","-0.73535156","0.61035156","-2.46875","10.65625","-3.5"
"1573646456878","712","-0.24414062","-0.7470703","0.6142578","-2.9375","8.65625","-5.25"
"1573646456879","713","-0.23632812","-0.7373047","0.62890625","-3.8125","7.3125","-8.875"
"1573646456879","714","-0.2421875","-0.7392578","0.59375","-7.28125","6.09375","-8.5625"
"1573646456879","715","-0.20507812","-0.7626953","0.61328125","-7.15625","7.1875","-8.375"
"1573646456879","716","-0.23046875","-0.75683594","0.61621094","-10.15625","5.84375","-6.96875"
"1573646456880","717","-0.22265625","-0.74902344","0.5839844","-12.03125","3.65625","-7.46875"
"1573646456880","718","-0.19921875","-0.77246094","0.5830078","-11.6875","3.34375","-6.0"
"1573646456880","719","-0.22851562","-0.75683594","0.60546875","-19.3125","0.46875","-7.09375"
"1573646457076","720","-0.19921875","-0.78125","0.51660156","-10.6875","-5.3125","-6.375"
"1573646457077","721","-0.21777344","-0.7792969","0.5644531","-16.75","0.96875","-7.09375"
"1573646457078","722","-0.19824219","-0.7949219","0.53125","-11.0625","-4.21875","-5.625"
"1573646457078","723","-0.19140625","-0.7988281","0.5341797","-11.4375","-4.96875","-5.75"
"1573646457079","724","-0.18847656","-0.7998047","0.546875","-12.46875","0.96875","-5.5"
"1573646457079","725","-0.1875","-0.81152344","0.52246094","-10.09375","0.21875","-8.25"
"1573646457079","726","-0.15136719","-0.8105469","0.5527344","-13.5","0.46875","-5.6875"
"1573646457080","727","-0.19140625","-0.8095703","0.5107422","-11.96875","-1.90625","-6.71875"
"1573646457080","728","-0.16992188","-0.8125","0.5214844","-18.09375","-5.8125","-3.125"
"1573646457080","729","-0.15722656","-0.828125","0.47265625","-10.15625","-4.15625","-5.5625"
"1573646457278","730","-0.16210938","-0.84375","0.484375","-16.6875","-6.78125","-1.40625"
"1573646457279","731","-0.16601562","-0.8564453","0.45898438","-11.375","-7.40625","-2.75"
"1573646457279","732","-0.15917969","-0.82910156","0.46289062","-17.03125","-1.125","-2.53125"
"1573646457280","733","-0.171875","-0.85546875","0.42578125","-12.71875","-3.0","-5.25"
"1573646457281","734","-0.14257812","-0.8408203","0.47753906","-18.375","4.625","-3.4375"
"1573646457281","735","-0.14941406","-0.8691406","0.41503906","-7.46875","2.0","-4.78125"
"1573646457281","736","-0.10058594","-0.8613281","0.44335938","-14.3125","-1.0","-2.21875"
"1573646457282","737","-0.13769531","-0.86816406","0.39160156","-5.6875","-4.21875","-2.21875"
"1573646457282","738","-0.125","-0.86816406","0.42382812","-9.84375","-3.25","-1.78125"
"1573646457282","739","-0.1171875","-0.88378906","0.4111328","-4.03125","-4.15625","-1.40625"
"1573646457676","740","-0.15039062","-0.8808594","0.4482422","-10.03125","-0.3125","0.15625"
"1573646457676","741","-0.125","-0.8769531","0.43164062","-5.9375","-4.59375","-4.53125"
"1573646457676","742","-0.13476562","-0.8808594","0.47753906","-19.65625","-2.6875","-1.84375"
"1573646457677","743","-0.19335938","-0.8876953","0.42089844","-19.53125","-3.75","-10.15625"
"1573646457677","744","-0.107421875","-0.8857422","0.39746094","-19.78125","0.03125","-11.5"
"1573646457678","745","-0.12011719","-0.8984375","0.39257812","-21.875","0.03125","-10.40625"
"1573646457679","746","-0.103515625","-0.90722656","0.35546875","-27.71875","7.625","-12.53125"
"1573646457679","747","-0.1015625","-0.9042969","0.3544922","-27.90625","8.09375","-9.59375"
"1573646457679","748","-0.08886719","-0.92285156","0.32226562","-19.78125","1.6875","-8.1875"
"1573646457680","749","-0.06738281","-0.890625","0.26660156","-16.625","4.25","-7.21875"
"1573646458272","750","-0.022460938","-0.93652344","0.2734375","-6.4375","3.34375","0.65625"
"1573646458273","751","-0.0546875","-0.95410156","0.29492188","1.21875","6.8125","0.03125"
"1573646458273","752","-0.0546875","-0.92285156","0.26171875","1.15625","-2.8125","1.03125"
"1573646458273","753","-0.053710938","-0.9238281","0.2939453","6.8125","0.0","2.90625"
"1573646458274","754","-0.080078125","-0.9238281","0.29101562","11.40625","0.53125","4.0"
"1573646458274","755","-0.091796875","-0.9375","0.32714844","9.6875","3.53125","4.0"
"1573646458274","756","-0.07910156","-0.92285156","0.34179688","10.90625","4.6875","2.5625"
"1573646458276","757","-0.099609375","-0.9082031","0.33691406","10.90625","2.84375","5.0"
"1573646458276","758","-0.07714844","-0.90234375","0.34277344","17.9375","-1.1875","7.6875"
"1573646458276","759","-0.1171875","-0.8984375","0.36523438","16.34375","-0.5","6.15625"
"1573646458670","760","-0.08496094","-0.91503906","0.36914062","18.34375","-2.03125","5.40625"
"1573646458670","761","-0.1015625","-0.88671875","0.37304688","17.125","-1.125","6.03125"
"1573646458671","762","-0.10644531","-0.8847656","0.36914062","21.78125","1.5625","5.78125"
"1573646458671","763","-0.12011719","-0.8876953","0.43847656","13.28125","5.53125","8.90625"
"1573646458671","764","-0.15039062","-0.859375","0.39648438","21.65625","3.90625","6.46875"
"1573646458671","765","-0.13085938","-0.8515625","0.5185547","11.28125","11.59375","8.90625"
"1573646458672","766","-0.20605469","-0.85546875","0.46875","13.96875","7.90625","3.03125"
"1573646458672","767","-0.12402344","-0.84765625","0.5234375","13.96875","12.25","3.65625"
"1573646458672","768","-0.20214844","-0.8076172","0.484375","12.1875","-0.625","3.09375"
"1573646458673","769","-0.14160156","-0.8457031","0.51660156","17.5625","9.5625","1.5625"
"1573646458867","770","-0.17773438","-0.8144531","0.5","9.5","-0.4375","2.25"
"1573646458868","771","-0.14648438","-0.82128906","0.51953125","11.40625","4.4375","3.53125"
"1573646458868","772","-0.17773438","-0.80566406","0.515625","5.53125","2.0","4.6875"
"1573646458868","773","-0.14941406","-0.80859375","0.5253906","13.03125","3.21875","5.0625"
"1573646458869","774","-0.18359375","-0.8046875","0.5185547","11.03125","0.21875","6.5625"
"1573646458869","775","-0.19042969","-0.79589844","0.55859375","16.40625","3.90625","5.59375"
"1573646458869","776","-0.20800781","-0.78027344","0.53125","12.25","2.0","3.46875"
"1573646458869","777","-0.18066406","-0.78808594","0.5761719","14.375","6.8125","5.34375"
"1573646458869","778","-0.203125","-0.76171875","0.54589844","8.84375","-1.1875","4.6875"
"1573646458870","779","-0.17089844","-0.78222656","0.5673828","17.0625","9.5625","6.6875"
"1573646459265","780","-0.21875","-0.7529297","0.58691406","6.6875","4.0625","3.46875"
"1573646459266","781","-0.18164062","-0.7636719","0.5390625","20.375","3.40625","5.46875"
"1573646459267","782","-0.21777344","-0.7363281","0.63378906","10.46875","8.90625","4.6875"
"1573646459267","783","-0.22753906","-0.7441406","0.5625","16.53125","2.0625","5.0"
"1573646459268","784","-0.18652344","-0.71972656","0.66015625","11.40625","13.71875","5.46875"
"1573646459268","785","-0.22949219","-0.73535156","0.5917969","12.8125","-2.875","8.71875"
"1573646459268","786","-0.23632812","-0.71875","0.58984375","14.8125","1.3125","6.15625"
"1573646459269","787","-0.22363281","-0.71777344","0.61328125","17.3125","-0.1875","8.03125"
"1573646459269","788","-0.24511719","-0.7128906","0.6376953","10.90625","4.875","6.46875"
"1573646459270","789","-0.23925781","-0.68847656","0.6464844","5.21875","8.71875","4.4375"
"1573646459662","790","-0.23828125","-0.6933594","0.6669922","2.0","15.4375","5.90625"
"1573646459663","791","-0.2890625","-0.6640625","0.6621094","-1.46875","5.53125","2.84375"
"1573646459663","792","-0.31640625","-0.66308594","0.69628906","-8.4375","5.28125","-2.875"
"1573646459664","793","-0.3310547","-0.66015625","0.6767578","-4.15625","14.875","-6.90625"
"1573646459665","794","-0.3544922","-0.66015625","0.7314453","-13.625","16.9375","-14.78125"
"1573646459665","795","-0.31445312","-0.6953125","0.6894531","-19.65625","2.78125","-10.9375"
"1573646459666","796","-0.35742188","-0.6591797","0.6513672","-17.46875","10.125","-14.84375"
"1573646459666","797","-0.27441406","-0.67578125","0.66015625","-14.78125","5.84375","-9.125"
"1573646459666","798","-0.31152344","-0.6933594","0.64160156","-12.03125","0.96875","-6.84375"
"1573646459666","799","-0.27148438","-0.7158203","0.64941406","-9.46875","7.4375","-4.09375"
"1573646460457","800","-0.3173828","-0.7001953","0.65234375","-22.96875","-6.4375","-7.28125"
"1573646460458","801","-0.28027344","-0.7607422","0.57910156","-8.0625","-0.3125","-8.9375"
"1573646460458","802","-0.28515625","-0.73535156","0.6123047","-16.8125","-3.625","-8.375"
"1573646460459","803","-0.23339844","-0.74902344","0.57714844","-7.21875","1.75","-4.84375"
"1573646460459","804","-0.26464844","-0.7578125","0.5605469","-9.0625","3.46875","-6.96875"
"1573646460459","805","-0.18847656","-0.7763672","0.5576172","-7.9375","2.0625","-6.59375"
"1573646460460","806","-0.24023438","-0.7529297","0.5830078","-14.96875","3.28125","-9.53125"
"1573646460460","807","-0.20898438","-0.8105469","0.5292969","-10.40625","1.625","-11.71875"
"1573646460460","808","-0.20410156","-0.77734375","0.5683594","-20.875","0.90625","-12.90625"
"1573646460460","809","-0.20605469","-0.80078125","0.5175781","-20.46875","-3.3125","-11.375"
"1573646460654","810","-0.20019531","-0.79785156","0.5283203","-22.46875","-1.1875","-10.15625"
"1573646460654","811","-0.21386719","-0.7988281","0.50878906","-25.15625","-1.0625","-12.09375"
"1573646460654","812","-0.17675781","-0.8486328","0.49804688","-21.1875","-1.1875","-9.46875"
"1573646460655","813","-0.2109375","-0.80859375","0.48339844","-24.78125","-6.0625","-11.5"
"1573646460655","814","-0.16796875","-0.85253906","0.48046875","-22.0625","-5.8125","-8.0625"
"1573646460655","815","-0.18359375","-0.83496094","0.43554688","-20.53125","-9.78125","-9.21875"
"1573646460655","816","-0.15136719","-0.8515625","0.4482422","-20.09375","-8.1875","-7.03125"
"1573646460657","817","-0.123046875","-0.86816406","0.3984375","-23.09375","-14.65625","-8.0625"
"1573646460657","818","-0.12402344","-0.890625","0.4091797","-18.625","-7.65625","-3.75"
"1573646460657","819","-0.14941406","-0.8769531","0.39257812","-23.5","-10.6875","-7.8125"
"1573646460854","820","-0.111328125","-0.8886719","0.38183594","-21.0625","-7.78125","-4.78125"
"1573646460855","821","-0.1015625","-0.91796875","0.36035156","-17.03125","-6.71875","-8.875"
"1573646460855","822","-0.08203125","-0.8955078","0.34277344","-18.21875","-5.625","-6.53125"
"1573646460855","823","-0.041992188","-0.9189453","0.32910156","-15.59375","-7.40625","-2.625"
"1573646460855","824","-0.10058594","-0.90722656","0.31347656","-12.90625","-7.8125","-4.21875"
"1573646460856","825","-0.076171875","-0.9267578","0.31640625","-8.25","0.34375","-4.71875"
"1573646460856","826","-0.05078125","-0.9277344","0.34277344","-7.53125","-0.4375","-3.90625"
"1573646460856","827","-0.053710938","-0.9267578","0.3173828","-2.9375","-7.21875","0.21875"
"1573646460856","828","-0.0703125","-0.9013672","0.31152344","0.90625","-9.34375","1.8125"
"1573646460858","829","-0.055664062","-0.93652344","0.31933594","2.4375","-7.875","-1.0625"
"1573646461451","830","-0.078125","-0.92285156","0.32226562","-0.875","-6.3125","-1.0625"
"1573646461452","831","-0.0859375","-0.9111328","0.3232422","2.375","-5.375","-1.0625"
"1573646461452","832","-0.087890625","-0.9453125","0.3330078","0.90625","0.28125","-0.375"
"1573646461452","833","-0.049804688","-0.91796875","0.34765625","-5.6875","-3.25","0.15625"
"1573646461452","834","-0.03515625","-0.89746094","0.32714844","-6.3125","-3.25","2.71875"
"1573646461453","835","-0.0546875","-0.9423828","0.3125","5.59375","-3.90625","4.6875"
"1573646461454","836","-0.07910156","-0.88671875","0.36132812","2.125","-5.6875","4.6875"
"1573646461454","837","-0.18457031","-0.9375","0.3466797","-1.0","-10.28125","-1.3125"
"1573646461455","838","-0.11816406","-0.9033203","0.38085938","12.0625","18.40625","-11.0625"
"1573646461455","839","-0.11328125","-0.9013672","0.42578125","-0.0625","18.34375","-3.625"
"1573646461650","840","-0.12011719","-0.9404297","0.45996094","-1.71875","15.5625","-1.0"
"1573646461651","841","-0.10546875","-0.84375","0.46875","-0.4375","7.5","0.96875"
"1573646461652","842","-0.06542969","-0.87109375","0.39746094","4.9375","-5.75","4.375"
"1573646461652","843","-0.0859375","-0.89160156","0.40527344","13.0","0.0","2.78125"
"1573646461652","844","-0.10058594","-0.92285156","0.4375","6.625","-3.25","-1.34375"
"1573646461653","845","-0.0859375","-0.89746094","0.42578125","0.65625","-11.375","1.5"
"1573646461653","846","-0.0859375","-0.89746094","0.45214844","0.09375","-15.40625","3.09375"
"1573646461653","847","-0.10058594","-0.8779297","0.42773438","-2.34375","-20.21875","3.46875"
"1573646461654","848","-0.10546875","-0.8720703","0.39941406","-19.59375","-23.5625","-3.625"
"1573646461654","849","-0.076171875","-0.9169922","0.38476562","-10.8125","-20.34375","-0.25"
