"# PR data"
"# Start time: 20191128T195734"
"# Subject: santi"
"# Activity type: Leg slide"
"# Correctness: Incorrect"
"# Notes: "
""
"timestamp","seq","accel_x","accel_y","accel_z","gyro_x","gyro_y","gyro_z"
"1574967454224","0","-0.026367188","-0.8828125","-0.19140625","-2.75","-6.1875","0.9375"
"1574967454225","1","-0.0390625","-0.84472656","-0.16601562","0.375","-8.03125","0.5"
"1574967454225","2","-0.09082031","-0.8808594","-0.16699219","-0.0625","-7.34375","1.0"
"1574967454225","3","-0.045898438","-0.8515625","-0.20800781","4.65625","-2.78125","1.0"
"1574967454225","4","-0.057617188","-0.8671875","-0.16113281","-6.71875","-6.03125","0.875"
"1574967454226","5","-0.056640625","-0.8466797","-0.19726562","-2.0","-2.34375","0.5"
"1574967454226","6","-0.059570312","-0.8623047","-0.19921875","1.46875","-3.625","1.53125"
"1574967454226","7","-0.049804688","-0.87109375","-0.18554688","-3.40625","-4.125","0.5625"
"1574967454227","8","-0.0546875","-0.8564453","-0.17773438","-0.5","-6.1875","0.9375"
"1574967454227","9","-0.03515625","-0.82910156","-0.16796875","3.0","-6.625","1.78125"
"1574967454623","10","-0.043945312","-0.8466797","-0.15527344","0.3125","-4.3125","3.96875"
"1574967454623","11","-0.060546875","-0.91796875","-0.17675781","-2.3125","0.03125","3.3125"
"1574967454624","12","-0.034179688","-0.8876953","-0.21484375","-1.15625","-3.5625","5.8125"
"1574967454625","13","-0.041992188","-0.828125","-0.16601562","3.0625","-6.8125","7.34375"
"1574967454625","14","-0.087890625","-0.8466797","-0.15917969","1.53125","-4.25","7.03125"
"1574967454626","15","-0.0859375","-0.8798828","-0.19140625","1.84375","-5.28125","5.75"
"1574967454626","16","-0.08105469","-0.8535156","-0.20800781","1.34375","-6.25","5.9375"
"1574967454626","17","-0.0703125","-0.84765625","-0.21191406","-1.09375","-6.375","2.34375"
"1574967454627","18","-0.053710938","-0.8408203","-0.20800781","-3.0625","-6.125","1.46875"
"1574967454627","19","-0.10058594","-0.88183594","-0.18457031","-2.75","-2.90625","4.53125"
"1574967455020","20","-0.12988281","-0.87597656","-0.20410156","-0.125","2.03125","11.25"
"1574967455021","21","-0.12988281","-0.8935547","-0.19726562","6.71875","2.84375","15.6875"
"1574967455021","22","-0.12207031","-0.8642578","-0.21484375","7.5625","3.625","17.40625"
"1574967455021","23","-0.09863281","-0.85839844","-0.19824219","3.1875","7.21875","15.4375"
"1574967455021","24","-0.109375","-0.8808594","-0.19335938","3.1875","4.125","12.09375"
"1574967455023","25","-0.07421875","-0.7832031","-0.20410156","7.03125","0.46875","7.28125"
"1574967455023","26","-0.15917969","-0.8388672","-0.15917969","-1.40625","3.5","6.34375"
"1574967455023","27","-0.17578125","-0.8828125","-0.19921875","6.84375","7.78125","5.75"
"1574967455023","28","-0.07421875","-0.86816406","-0.21679688","2.25","1.5625","5.0625"
"1574967455024","29","-0.13476562","-0.8613281","-0.16601562","0.5","0.875","4.65625"
"1574967455418","30","-0.18164062","-0.81347656","-0.18554688","4.15625","-1.25","5.25"
"1574967455419","31","-0.12109375","-0.8515625","-0.2265625","1.03125","1.5625","2.09375"
"1574967455419","32","-0.19433594","-0.86328125","-0.19335938","1.03125","1.84375","5.125"
"1574967455419","33","-0.17578125","-0.8544922","-0.20996094","0.84375","7.53125","2.03125"
"1574967455419","34","-0.16503906","-0.89453125","-0.19921875","2.09375","6.1875","6.125"
"1574967455419","35","-0.17675781","-0.8310547","-0.23046875","-1.40625","2.59375","4.84375"
"1574967455420","36","-0.14550781","-0.8359375","-0.23730469","-0.59375","1.25","3.0625"
"1574967455421","37","-0.16992188","-0.8574219","-0.23339844","1.21875","-1.9375","1.34375"
"1574967455421","38","-0.15136719","-0.8339844","-0.22070312","0.625","-6.25","1.59375"
"1574967455422","39","-0.18554688","-0.84277344","-0.20117188","2.03125","-8.53125","1.21875"
"1574967456210","40","-0.21289062","-0.80859375","-0.18066406","3.125","-4.78125","1.78125"
"1574967456211","41","-0.17285156","-0.875","-0.21289062","7.625","-4.6875","-2.625"
"1574967456211","42","-0.17675781","-0.88378906","-0.19140625","2.9375","-1.6875","-4.375"
"1574967456212","43","-0.16699219","-0.85839844","-0.17382812","3.84375","-0.46875","-2.3125"
"1574967456212","44","-0.13085938","-0.8310547","-0.203125","2.4375","-4.4375","-4.875"
"1574967456212","45","-0.119140625","-0.8261719","-0.21386719","3.25","-8.46875","-7.125"
"1574967456212","46","-0.13085938","-0.8359375","-0.17285156","0.75","-8.9375","-9.375"
"1574967456213","47","-0.15625","-0.87597656","-0.1640625","10.5625","-10.28125","-8.65625"
"1574967456213","48","-0.11328125","-0.8310547","-0.17285156","6.15625","-12.5","-11.28125"
"1574967456215","49","-0.13769531","-0.8339844","-0.15917969","13.8125","-9.125","-11.34375"
"1574967456408","50","-0.13378906","-0.86621094","-0.14941406","12.15625","-8.53125","-10.5"
"1574967456409","51","-0.061523438","-0.8857422","-0.15332031","8.96875","-8.09375","-14.40625"
"1574967456409","52","-0.13867188","-0.9296875","-0.1484375","7.8125","-12.25","-12.0"
"1574967456409","53","-0.12792969","-0.87890625","-0.17480469","3.0625","-12.78125","-9.15625"
"1574967456410","54","-0.10839844","-0.8183594","-0.18261719","5.1875","-12.0625","-7.5"
"1574967456410","55","-0.1015625","-0.8457031","-0.15527344","6.0","-10.09375","-8.90625"
"1574967456410","56","-0.08691406","-0.8886719","-0.14453125","9.53125","-13.46875","-6.40625"
"1574967456410","57","-0.052734375","-0.8486328","-0.14453125","10.4375","-18.21875","-7.1875"
"1574967456411","58","-0.048828125","-0.8486328","-0.14550781","16.125","-17.5","-13.96875"
"1574967456411","59","-0.07324219","-0.9042969","-0.12597656","18.6875","-19.75","-13.65625"
"1574967456609","60","0.0068359375","-0.8642578","-0.08691406","15.5625","-18.53125","-12.875"
"1574967456610","61","0.0048828125","-0.84277344","-0.06933594","20.21875","-28.34375","-9.34375"
"1574967456611","62","0.09375","-0.83496094","-0.07128906","16.46875","-33.1875","-9.5625"
"1574967456611","63","0.048828125","-0.8798828","-0.038085938","13.5625","-35.5625","-10.125"
"1574967456611","64","-0.045898438","-0.8779297","-0.05859375","6.09375","-29.6875","-10.25"
"1574967456612","65","0.0","-0.8613281","-0.09863281","5.0","-25.25","-7.6875"
"1574967456612","66","0.037109375","-0.83691406","-0.0546875","3.3125","-22.3125","-6.46875"
"1574967456612","67","0.049804688","-0.84472656","-0.016601562","5.1875","-22.4375","-6.40625"
"1574967456612","68","0.0234375","-0.87109375","-0.016601562","3.71875","-22.6875","-6.03125"
"1574967456613","69","0.024414062","-0.86328125","-0.048828125","7.28125","-20.90625","-5.4375"
"1574967457007","70","0.032226562","-0.8515625","-0.016601562","0.5625","-18.71875","-5.65625"
"1574967457007","71","0.08300781","-0.8544922","-0.043945312","-0.0625","-18.09375","-7.8125"
"1574967457007","72","0.07324219","-0.85839844","-0.041992188","-2.625","-20.84375","-6.40625"
"1574967457008","73","0.087890625","-0.81640625","-0.040039062","-6.34375","-22.5625","-6.8125"
"1574967457009","74","0.034179688","-0.8515625","-0.037109375","-6.84375","-12.90625","-4.09375"
"1574967457009","75","0.055664062","-0.9091797","-0.053710938","-1.59375","-11.5","-4.75"
"1574967457009","76","0.068359375","-0.86621094","-0.06640625","2.125","-11.75","-2.625"
"1574967457009","77","0.07910156","-0.8125","-0.049804688","2.1875","-9.25","-1.15625"
"1574967457010","78","0.08300781","-0.85546875","-0.038085938","6.53125","-4.5","-2.90625"
"1574967457010","79","0.068359375","-0.84765625","-0.068359375","1.21875","-0.03125","-2.5"
"1574967457601","80","0.12109375","-0.8544922","-0.037109375","4.21875","-1.875","-1.9375"
"1574967457602","81","0.09277344","-0.8808594","-0.04296875","6.53125","-7.71875","2.09375"
"1574967457602","82","0.056640625","-0.8652344","-0.060546875","-2.4375","-8.875","1.40625"
"1574967457602","83","0.1171875","-0.8261719","-0.078125","-1.46875","-4.6875","2.21875"
"1574967457603","84","0.072265625","-0.8408203","-0.068359375","-2.3125","-4.4375","3.625"
"1574967457603","85","0.053710938","-0.84472656","-0.09375","-2.9375","1.125","2.8125"
"1574967457603","86","0.09863281","-0.82421875","-0.087890625","-4.15625","1.25","8.3125"
"1574967457604","87","0.034179688","-0.85058594","-0.07421875","-7.75","4.40625","9.53125"
"1574967457604","88","0.029296875","-0.8652344","-0.099609375","-10.96875","11.0625","12.71875"
"1574967457604","89","0.055664062","-0.8779297","-0.11230469","-5.96875","9.96875","11.125"
"1574967458198","90","0.021484375","-0.8642578","-0.08300781","-5.84375","10.15625","10.5"
"1574967458198","91","0.0625","-0.8261719","-0.10839844","-1.65625","7.65625","9.46875"
"1574967458199","92","0.06542969","-0.8339844","-0.07128906","-10.1875","6.9375","10.3125"
"1574967458199","93","-0.009765625","-0.88378906","-0.11425781","-5.71875","3.375","11.3125"
"1574967458199","94","0.053710938","-0.8544922","-0.11816406","-11.28125","4.125","11.0"
"1574967458199","95","0.060546875","-0.85839844","-0.11816406","-12.375","-4.6875","10.9375"
"1574967458200","96","-0.041015625","-0.85839844","-0.12109375","-12.875","-2.40625","11.125"
"1574967458201","97","-0.0390625","-0.890625","-0.1796875","-11.09375","4.1875","13.9375"
"1574967458202","98","-0.037109375","-0.890625","-0.20410156","-6.09375","1.3125","14.59375"
"1574967458202","99","-0.06738281","-0.85546875","-0.16992188","-2.8125","2.65625","17.28125"
"1574967458396","100","-0.060546875","-0.8613281","-0.17675781","-2.1875","11.625","16.4375"
"1574967458397","101","-0.009765625","-0.86035156","-0.18457031","-3.15625","4.84375","14.90625"
"1574967458397","102","-0.072265625","-0.82421875","-0.14746094","2.625","1.75","17.53125"
"1574967458397","103","-0.12402344","-0.86035156","-0.1640625","8.375","7.84375","21.0"
"1574967458398","104","-0.13378906","-0.88671875","-0.16796875","9.34375","10.28125","25.53125"
"1574967458398","105","-0.13867188","-0.8828125","-0.12695312","6.65625","17.0625","27.84375"
"1574967458398","106","-0.18066406","-0.86328125","-0.16308594","6.90625","21.5625","25.9375"
"1574967458398","107","-0.15722656","-0.8691406","-0.17089844","6.15625","20.65625","23.3125"
"1574967458399","108","-0.09765625","-0.8671875","-0.15332031","2.375","19.3125","16.65625"
"1574967458400","109","-0.095703125","-0.81933594","-0.16796875","-0.78125","7.28125","9.09375"
"1574967458596","110","-0.12402344","-0.84375","-0.15820312","-1.28125","6.96875","5.625"
"1574967458597","111","-0.20898438","-0.8535156","-0.18164062","-0.4375","9.96875","4.15625"
"1574967458597","112","-0.18066406","-0.86816406","-0.13671875","-5.125","6.9375","7.625"
"1574967458597","113","-0.16308594","-0.8613281","-0.18554688","-3.59375","9.125","5.5"
"1574967458598","114","-0.17382812","-0.85546875","-0.19726562","-2.125","4.46875","4.03125"
"1574967458598","115","-0.15917969","-0.83496094","-0.18164062","-10.25","4.84375","-0.125"
"1574967458598","116","-0.20410156","-0.85253906","-0.20019531","-8.96875","6.125","-2.0625"
"1574967458598","117","-0.22460938","-0.87402344","-0.22558594","-6.09375","4.90625","2.28125"
"1574967458599","118","-0.18945312","-0.8779297","-0.22949219","-4.75","5.6875","4.03125"
"1574967458599","119","-0.17773438","-0.83691406","-0.21679688","-6.09375","3.3125","3.625"
"1574967459191","120","-0.19824219","-0.8232422","-0.21289062","-1.71875","1.78125","5.5"
"1574967459193","121","-0.21777344","-0.84375","-0.24707031","0.5625","1.0625","6.84375"
"1574967459193","122","-0.21875","-0.8339844","-0.20214844","2.6875","2.96875","4.9375"
"1574967459194","123","-0.23925781","-0.8203125","-0.21875","5.0625","4.125","7.03125"
"1574967459194","124","-0.21289062","-0.8564453","-0.23730469","3.3125","3.5","5.25"
"1574967459194","125","-0.17871094","-0.8623047","-0.22753906","-0.90625","-0.59375","3.625"
"1574967459195","126","-0.17480469","-0.8408203","-0.23046875","-2.3125","-6.0625","3.125"
"1574967459195","127","-0.22363281","-0.8613281","-0.23144531","0.3125","-11.625","2.21875"
"1574967459195","128","-0.20898438","-0.82128906","-0.2607422","-2.3125","-20.59375","1.09375"
"1574967459196","129","-0.203125","-0.8095703","-0.24414062","-1.15625","-21.28125","-4.5"
"1574967459393","130","-0.22460938","-0.83203125","-0.22753906","-4.09375","-24.6875","-7.5"
"1574967459393","131","-0.21679688","-0.8076172","-0.21191406","6.65625","-23.59375","-9.5"
"1574967459393","132","-0.20898438","-0.80859375","-0.22363281","1.59375","-22.6875","-12.5"
"1574967459395","133","-0.21289062","-0.8515625","-0.22851562","6.65625","-21.28125","-12.0"
"1574967459395","134","-0.20898438","-0.8359375","-0.19433594","5.1875","-19.03125","-11.90625"
"1574967459395","135","-0.22753906","-0.84765625","-0.19433594","9.21875","-15.34375","-10.78125"
"1574967459395","136","-0.234375","-0.86328125","-0.19628906","7.8125","-7.25","-9.4375"
"1574967459396","137","-0.16308594","-0.8378906","-0.19726562","8.4375","-6.75","-7.0"
"1574967459396","138","-0.15234375","-0.8310547","-0.20117188","6.03125","-7.65625","-12.0"
"1574967459396","139","-0.16210938","-0.83496094","-0.17578125","6.0","-4.6875","-16.03125"
"1574967459987","140","-0.12792969","-0.8671875","-0.1875","4.09375","-3.625","-16.15625"
"1574967459987","141","-0.12402344","-0.8964844","-0.16210938","5.5","-3.03125","-20.75"
"1574967459988","142","-0.1015625","-0.85546875","-0.16601562","3.0","-5.90625","-16.71875"
"1574967459988","143","-0.17578125","-0.8955078","-0.16699219","3.25","0.15625","-13.0625"
"1574967459988","144","-0.125","-0.8515625","-0.19335938","3.0625","3.1875","-10.125"
"1574967459988","145","-0.064453125","-0.8261719","-0.16308594","5.375","-0.21875","-11.46875"
"1574967459989","146","-0.10253906","-0.86621094","-0.15429688","8.4375","1.96875","-12.375"
"1574967459989","147","-0.080078125","-0.8876953","-0.16992188","7.15625","3.1875","-12.125"
"1574967459989","148","-0.05078125","-0.8574219","-0.171875","7.9375","-3.03125","-8.84375"
"1574967459989","149","-0.059570312","-0.84375","-0.15039062","9.71875","-1.6875","-11.15625"
"1574967460384","150","-0.051757812","-0.84472656","-0.13867188","10.625","-3.4375","-8.28125"
"1574967460384","151","-0.033203125","-0.84277344","-0.14355469","20.4375","-1.8125","-7.4375"
"1574967460385","152","-0.020507812","-0.8691406","-0.11425781","12.6875","-2.65625","-10.71875"
"1574967460385","153","0.09082031","-0.88671875","-0.15722656","23.5625","-13.09375","-13.125"
"1574967460385","154","0.080078125","-0.8671875","-0.076171875","20.8125","-20.71875","-9.8125"
"1574967460385","155","0.037109375","-0.84765625","-0.048828125","15.6875","-19.5","-10.0625"
"1574967460386","156","0.045898438","-0.87402344","-0.07519531","15.375","-13.78125","-13.78125"
"1574967460387","157","0.05078125","-0.9042969","-0.1171875","10.5625","-12.3125","-11.84375"
"1574967460387","158","0.09765625","-0.8388672","-0.08203125","2.875","-15.0","-10.5625"
"1574967460388","159","0.1015625","-0.83691406","-0.038085938","9.28125","-23.59375","-9.9375"
"1574967460586","160","0.05078125","-0.84765625","-0.037109375","9.15625","-22.6875","-6.46875"
"1574967460586","161","0.06933594","-0.85253906","-0.04296875","7.03125","-23.03125","-6.875"
"1574967460587","162","0.072265625","-0.8730469","-0.038085938","8.65625","-21.75","-5.65625"
"1574967460587","163","0.07714844","-0.8613281","-0.048828125","5.5","-20.125","-5.96875"
"1574967460587","164","0.10058594","-0.859375","-0.045898438","9.59375","-19.4375","-4.625"
"1574967460587","165","0.091796875","-0.8339844","-0.01171875","8.71875","-20.71875","-2.8125"
"1574967460588","166","0.10644531","-0.7939453","-0.0234375","11.0","-22.0","-4.4375"
"1574967460588","167","0.10449219","-0.8066406","-0.005859375","11.96875","-17.625","0.625"
"1574967460588","168","0.056640625","-0.8730469","0.018554688","7.8125","-10.90625","-2.1875"
"1574967460589","169","0.083984375","-0.9169922","-0.001953125","2.875","-3.625","-1.8125"
"1574967460982","170","0.15234375","-0.8955078","-0.015625","5.9375","-8.875","-0.28125"
"1574967460983","171","0.095703125","-0.82714844","-9.765625E-4","4.28125","-11.4375","-1.28125"
"1574967460983","172","0.10546875","-0.7841797","0.01171875","5.8125","-8.53125","0.9375"
"1574967460984","173","0.12402344","-0.83203125","0.030273438","4.9375","-10.21875","1.09375"
"1574967460984","174","0.10253906","-0.85546875","-0.0029296875","3.3125","-7.90625","1.40625"
"1574967460984","175","0.11425781","-0.83496094","-0.0048828125","-0.65625","-13.9375","1.46875"
"1574967460985","176","0.11425781","-0.8886719","-0.032226562","-7.8125","-9.9375","3.5"
"1574967460985","177","0.12597656","-0.8886719","-0.053710938","-10.125","-7.71875","4.40625"
"1574967460985","178","0.08984375","-0.83984375","-0.03515625","-11.53125","-9.375","6.46875"
"1574967460986","179","0.021484375","-0.8466797","-0.040039062","-3.84375","0.34375","10.09375"
"1574967461577","180","0.01953125","-0.8457031","-0.037109375","-7.9375","8.28125","14.40625"
"1574967461578","181","0.046875","-0.8671875","-0.048828125","-4.4375","12.71875","12.875"
"1574967461579","182","0.040039062","-0.8496094","-0.05859375","-11.15625","14.3125","13.3125"
"1574967461579","183","0.06933594","-0.8457031","-0.06542969","-11.96875","17.0625","12.59375"
"1574967461579","184","0.07421875","-0.8720703","-0.07128906","-18.96875","14.5","13.0"
"1574967461580","185","0.06738281","-0.86328125","-0.07324219","-23.8125","14.25","10.1875"
"1574967461580","186","0.057617188","-0.8486328","-0.09082031","-15.375","11.75","10.15625"
"1574967461580","187","0.061523438","-0.8574219","-0.083984375","-18.125","7.59375","9.78125"
"1574967461580","188","-0.0087890625","-0.88378906","-0.12988281","-15.0625","6.0","9.15625"
"1574967461581","189","0.01171875","-0.8310547","-0.15917969","-21.96875","6.0625","12.40625"
"1574967462173","190","-0.033203125","-0.88378906","-0.17675781","-21.3125","7.46875","10.875"
"1574967462174","191","-0.10644531","-0.89160156","-0.20214844","-16.15625","12.59375","11.84375"
"1574967462174","192","-0.044921875","-0.828125","-0.20410156","-8.90625","12.28125","15.5"
"1574967462176","193","-0.059570312","-0.8388672","-0.13964844","-9.875","17.25","15.625"
"1574967462176","194","-0.09472656","-0.8798828","-0.18945312","-1.53125","13.34375","16.1875"
"1574967462176","195","-0.02734375","-0.8466797","-0.21777344","-2.125","7.90625","14.84375"
"1574967462177","196","-0.0234375","-0.8486328","-0.171875","-2.5625","7.28125","11.3125"
"1574967462177","197","-0.07519531","-0.859375","-0.17773438","1.90625","8.03125","14.71875"
"1574967462177","198","-0.1171875","-0.8486328","-0.24414062","2.875","8.375","18.5625"
"1574967462177","199","-0.13867188","-0.86816406","-0.1484375","-0.25","11.625","25.40625"
"1574967462373","200","-0.095703125","-0.8828125","-0.21777344","3.0625","14.0625","24.375"
"1574967462374","201","-0.1328125","-0.87597656","-0.24511719","3.1875","11.0625","21.8125"
"1574967462374","202","-0.15722656","-0.8564453","-0.19335938","-3.09375","12.21875","19.0625"
"1574967462374","203","-0.09765625","-0.8339844","-0.21972656","-0.1875","7.90625","13.8125"
"1574967462375","204","-0.111328125","-0.8515625","-0.20507812","7.5","3.3125","8.6875"
"1574967462376","205","-0.18847656","-0.86621094","-0.21875","4.28125","2.78125","9.84375"
"1574967462377","206","-0.15722656","-0.8417969","-0.21972656","1.40625","4.90625","6.78125"
"1574967462377","207","-0.17285156","-0.8417969","-0.23535156","4.21875","0.34375","8.25"
"1574967462377","208","-0.171875","-0.83691406","-0.23046875","1.34375","2.96875","10.6875"
"1574967462377","209","-0.19335938","-0.8457031","-0.21679688","3.71875","0.46875","7.09375"
"1574967462571","210","-0.20996094","-0.85546875","-0.21386719","-0.375","2.09375","9.96875"
"1574967462572","211","-0.21289062","-0.8701172","-0.21484375","1.53125","2.15625","9.03125"
"1574967462572","212","-0.22363281","-0.8535156","-0.23242188","1.84375","1.90625","10.9375"
"1574967462572","213","-0.21679688","-0.8388672","-0.22753906","-0.65625","1.0625","10.625"
"1574967462573","214","-0.22558594","-0.83691406","-0.24902344","3.84375","-0.28125","9.40625"
"1574967462573","215","-0.20898438","-0.8330078","-0.21679688","0.84375","1.84375","8.1875"
"1574967462573","216","-0.23046875","-0.8203125","-0.2421875","1.65625","-3.09375","6.125"
"1574967462574","217","-0.20410156","-0.8183594","-0.22460938","3.78125","-6.375","6.0625"
"1574967462574","218","-0.25683594","-0.81933594","-0.20605469","5.5625","-7.40625","6.125"
"1574967462576","219","-0.26660156","-0.8183594","-0.23828125","7.75","-8.875","5.375"
"1574967462971","220","-0.24609375","-0.82421875","-0.21191406","4.75","-11.8125","3.375"
"1574967462971","221","-0.28125","-0.8330078","-0.18847656","10.75","-5.34375","2.8125"
"1574967462971","222","-0.25195312","-0.828125","-0.2109375","3.46875","-5.65625","-1.21875"
"1574967462972","223","-0.20214844","-0.83691406","-0.20410156","7.03125","-7.40625","-5.125"
"1574967462972","224","-0.25195312","-0.8720703","-0.17089844","-3.21875","-1.9375","-7.0"
"1574967462972","225","-0.23144531","-0.84472656","-0.18359375","-0.125","-10.78125","-7.5625"
"1574967462973","226","-0.21777344","-0.8076172","-0.1953125","3.375","-13.84375","-10.78125"
"1574967462973","227","-0.27148438","-0.8544922","-0.21679688","6.21875","-5.15625","-11.28125"
"1574967462973","228","-0.18847656","-0.84472656","-0.18554688","2.9375","-0.28125","-11.65625"
"1574967462974","229","-0.13574219","-0.83203125","-0.1796875","6.71875","-7.3125","-15.6875"
"1574967463367","230","-0.13671875","-0.8515625","-0.17480469","7.75","-11.4375","-17.1875"
"1574967463367","231","-0.1640625","-0.8203125","-0.16503906","6.09375","-15.59375","-19.59375"
"1574967463368","232","-0.1953125","-0.8339844","-0.16992188","3.375","-12.65625","-20.75"
"1574967463368","233","-0.2109375","-0.89746094","-0.171875","3.125","-3.75","-21.71875"
"1574967463368","234","-0.19824219","-0.90234375","-0.18652344","1.78125","-2.53125","-15.3125"
"1574967463368","235","-0.09667969","-0.85058594","-0.17675781","3.96875","-5.15625","-16.53125"
"1574967463369","236","-0.11035156","-0.8330078","-0.17285156","8.3125","-4.625","-17.03125"
"1574967463369","237","-0.15429688","-0.85058594","-0.15917969","9.21875","-4.0625","-16.84375"
"1574967463369","238","-0.103515625","-0.86621094","-0.15820312","8.71875","-3.5","-15.5625"
"1574967463369","239","-0.06933594","-0.8671875","-0.14648438","12.625","-6.3125","-13.84375"
"1574967463764","240","-0.08105469","-0.84765625","-0.14648438","13.90625","-7.0625","-11.65625"
"1574967463767","241","-0.060546875","-0.84375","-0.13183594","15.09375","-9.9375","-12.25"
"1574967463767","242","-0.025390625","-0.8564453","-0.13183594","16.90625","-10.28125","-11.96875"
"1574967463767","243","0.01171875","-0.8886719","-0.10058594","14.65625","-17.0","-13.90625"
"1574967463768","244","0.04296875","-0.87597656","-0.08984375","24.59375","-23.15625","-9.6875"
"1574967463768","245","-0.005859375","-0.8701172","-0.037109375","12.625","-25.59375","-9.21875"
"1574967463768","246","0.016601562","-0.8730469","-0.045898438","17.71875","-24.8125","-9.8125"
"1574967463771","247","0.044921875","-0.8847656","-0.060546875","14.46875","-26.84375","-9.34375"
"1574967463771","248","0.032226562","-0.88378906","-0.0703125","12.53125","-21.875","-14.46875"
"1574967463774","249","0.06933594","-0.84472656","-0.06542969","11.0","-20.0625","-11.34375"
"1574967464359","250","0.051757812","-0.8330078","-0.0146484375","13.125","-19.4375","-7.9375"
"1574967464360","251","0.016601562","-0.8623047","0.01171875","12.8125","-17.1875","-7.0"
"1574967464360","252","0.064453125","-0.84375","0.01953125","15.09375","-16.6875","-8.0"
"1574967464361","253","0.08105469","-0.8388672","0.005859375","17.21875","-18.71875","-7.5625"
"1574967464362","254","0.07128906","-0.8339844","0.01953125","13.625","-15.71875","-6.59375"
"1574967464362","255","0.08984375","-0.8642578","0.033203125","10.0625","-16.5","-7.125"
"1574967464362","256","0.07324219","-0.8378906","0.020507812","5.125","-15.78125","-4.875"
"1574967464363","257","0.09082031","-0.86035156","0.01953125","3.78125","-14.625","-5.375"
"1574967464363","258","0.09667969","-0.8388672","0.033203125","-1.78125","-15.0","-2.90625"
"1574967464363","259","0.08691406","-0.8339844","0.033203125","2.75","-11.21875","-3.40625"
"1574967464559","260","0.10253906","-0.8339844","0.01953125","-0.3125","-6.8125","-2.125"
"1574967464559","261","0.09472656","-0.86621094","0.0107421875","-2.3125","-0.59375","-0.78125"
"1574967464560","262","0.080078125","-0.8378906","0.024414062","3.0625","0.75","0.125"
"1574967464560","263","0.1171875","-0.81152344","0.036132812","8.96875","-0.03125","0.8125"
"1574967464560","264","0.13085938","-0.8125","0.017578125","4.75","0.34375","1.34375"
"1574967464562","265","0.068359375","-0.8535156","0.04296875","-4.5625","6.5","2.625"
"1574967464562","266","0.14941406","-0.87109375","0.033203125","-3.78125","-2.71875","2.5"
"1574967464562","267","0.12109375","-0.85546875","0.001953125","-9.40625","-7.125","6.1875"
"1574967464562","268","0.0048828125","-0.8417969","-0.037109375","-16.53125","1.6875","6.125"
"1574967464563","269","0.09667969","-0.8691406","0.01171875","-7.6875","3.25","9.03125"
"1574967465155","270","0.1328125","-0.8613281","-0.037109375","-13.25","0.46875","4.9375"
"1574967465156","271","-0.017578125","-0.8798828","-0.032226562","-10.125","7.46875","9.59375"
"1574967465156","272","0.087890625","-0.8203125","-0.030273438","-6.03125","4.96875","10.625"
"1574967465156","273","0.07519531","-0.85058594","-0.036132812","-9.9375","4.125","9.84375"
"1574967465156","274","0.026367188","-0.8466797","-0.032226562","-13.5","11.3125","10.1875"
"1574967465157","275","0.08984375","-0.87890625","-0.07421875","-10.6875","7.84375","9.28125"
"1574967465157","276","0.030273438","-0.8671875","-0.07324219","-15.5625","7.46875","12.75"
"1574967465158","277","0.059570312","-0.83691406","-0.06542969","-15.875","8.5","11.53125"
"1574967465158","278","0.05859375","-0.8623047","-0.10839844","-11.96875","4.40625","13.0625"
"1574967465159","279","0.025390625","-0.8691406","-0.09277344","-19.21875","4.71875","14.53125"
"1574967465355","280","0.041015625","-0.85546875","-0.08300781","-17.09375","4.0625","12.15625"
"1574967465355","281","0.032226562","-0.875","-0.11328125","-11.09375","-7.1875","10.875"
"1574967465356","282","-0.047851562","-0.85058594","-0.12890625","-15.3125","-6.5625","11.78125"
"1574967465356","283","-0.08496094","-0.8417969","-0.15820312","-12.8125","0.03125","12.75"
"1574967465356","284","-0.07910156","-0.85058594","-0.17480469","-11.65625","5.9375","16.5625"
"1574967465356","285","-0.09277344","-0.86621094","-0.18164062","-11.96875","12.21875","14.40625"
"1574967465356","286","-0.119140625","-0.8730469","-0.17285156","-1.65625","12.34375","20.28125"
"1574967465357","287","-0.13867188","-0.8544922","-0.1875","1.09375","11.625","26.125"
"1574967465357","288","-0.18164062","-0.86816406","-0.18164062","6.15625","19.25","30.78125"
"1574967465358","289","-0.19140625","-0.8574219","-0.18652344","8.4375","24.625","31.375"
"1574967465754","290","-0.11425781","-0.859375","-0.203125","16.78125","21.28125","28.875"
"1574967465755","291","-0.13769531","-0.81933594","-0.18554688","7.5","16.4375","21.625"
"1574967465755","292","-0.15722656","-0.83691406","-0.14550781","5.875","13.15625","15.15625"
"1574967465755","293","-0.11328125","-0.8671875","-0.17578125","-2.9375","14.4375","7.21875"
"1574967465755","294","-0.1640625","-0.8564453","-0.16699219","3.3125","8.75","7.8125"
"1574967465756","295","-0.21679688","-0.82910156","-0.16894531","-1.28125","10.78125","6.53125"
"1574967465756","296","-0.18359375","-0.85839844","-0.18554688","-2.0","12.65625","9.59375"
"1574967465756","297","-0.21875","-0.85546875","-0.19140625","0.5625","14.25","7.40625"
"1574967465756","298","-0.20214844","-0.8466797","-0.19433594","2.5","12.21875","7.625"
"1574967465757","299","-0.18554688","-0.84277344","-0.19433594","-2.25","10.9375","5.125"
"1574967466151","300","-0.22070312","-0.85058594","-0.19433594","0.25","8.21875","5.4375"
"1574967466152","301","-0.22363281","-0.85058594","-0.19335938","0.8125","9.84375","4.9375"
"1574967466152","302","-0.23339844","-0.83984375","-0.19433594","0.375","10.09375","4.9375"
"1574967466152","303","-0.21777344","-0.83496094","-0.20703125","-0.65625","12.96875","5.4375"
"1574967466153","304","-0.22070312","-0.8642578","-0.19824219","0.4375","15.34375","2.5625"
"1574967466153","305","-0.20605469","-0.85058594","-0.20214844","0.5625","12.125","4.28125"
"1574967466153","306","-0.19140625","-0.8359375","-0.22753906","-1.59375","8.5","4.65625"
"1574967466153","307","-0.17480469","-0.8466797","-0.22363281","0.3125","2.28125","3.0"
"1574967466154","308","-0.24902344","-0.8417969","-0.21582031","0.96875","-1.0625","3.0625"
"1574967466154","309","-0.19921875","-0.8339844","-0.23925781","3.59375","-4.0","2.03125"
"1574967466546","310","-0.16601562","-0.82128906","-0.19824219","4.09375","-5.28125","1.71875"
"1574967466547","311","-0.25195312","-0.8251953","-0.14550781","10.5625","-9.125","-3.71875"
"1574967466547","312","-0.265625","-0.8232422","-0.23925781","6.65625","-7.65625","-0.1875"
"1574967466548","313","-0.15039062","-0.828125","-0.25097656","8.71875","-8.6875","-4.375"
"1574967466549","314","-0.21679688","-0.8466797","-0.16992188","-1.65625","-13.53125","-5.78125"
"1574967466549","315","-0.23535156","-0.86328125","-0.21484375","4.65625","-11.03125","-5.125"
"1574967466549","316","-0.1796875","-0.8574219","-0.18554688","3.46875","-12.125","-3.90625"
"1574967466549","317","-0.20703125","-0.8261719","-0.16796875","3.0","-13.40625","-7.0"
"1574967466550","318","-0.24707031","-0.8417969","-0.18847656","3.40625","-7.96875","-5.78125"
"1574967466550","319","-0.16503906","-0.8642578","-0.1796875","3.40625","-8.59375","-5.4375"
"1574967466944","320","-0.18945312","-0.8535156","-0.15136719","3.3125","-10.96875","-10.0625"
"1574967466945","321","-0.203125","-0.84375","-0.1796875","4.34375","-9.625","-10.25"
"1574967466945","322","-0.12988281","-0.8613281","-0.20019531","6.15625","-14.1875","-10.1875"
"1574967466945","323","-0.109375","-0.8388672","-0.15332031","6.90625","-15.71875","-12.9375"
"1574967466945","324","-0.18066406","-0.8671875","-0.13183594","8.78125","-18.09375","-12.9375"
"1574967466947","325","-0.16113281","-0.8515625","-0.171875","9.03125","-21.46875","-9.15625"
"1574967466947","326","-0.10253906","-0.8251953","-0.15234375","10.3125","-21.59375","-12.1875"
"1574967466947","327","-0.14355469","-0.8457031","-0.13085938","9.84375","-19.1875","-13.84375"
"1574967466948","328","-0.17871094","-0.9013672","-0.15039062","3.25","-11.15625","-16.09375"
"1574967466948","329","-0.12207031","-0.8808594","-0.15917969","2.375","-12.59375","-14.59375"
"1574967467343","330","-0.11328125","-0.85546875","-0.13476562","1.71875","-11.21875","-13.0625"
"1574967467344","331","-0.14648438","-0.8359375","-0.16796875","6.84375","-12.4375","-11.40625"
"1574967467344","332","-0.123046875","-0.7910156","-0.12695312","15.375","-7.90625","-15.4375"
"1574967467344","333","-0.033203125","-0.83691406","-0.10839844","19.21875","-6.03125","-13.71875"
"1574967467344","334","0.03125","-0.9296875","-0.06347656","18.0","-18.96875","-16.78125"
"1574967467345","335","0.024414062","-0.8925781","-0.0703125","21.3125","-33.59375","-17.3125"
"1574967467345","336","0.0029296875","-0.87890625","-0.03125","5.0625","-37.28125","-15.25"
"1574967467346","337","-0.041015625","-0.8847656","-0.072265625","11.28125","-31.90625","-15.5"
"1574967467347","338","0.046875","-0.8496094","-0.078125","12.625","-42.34375","-8.84375"
"1574967467347","339","0.028320312","-0.8496094","-0.018554688","6.46875","-42.5625","-7.125"
"1574967467739","340","-0.0146484375","-0.8955078","-0.057617188","3.25","-35.3125","-9.4375"
"1574967467740","341","-0.0087890625","-0.8876953","-0.10644531","2.75","-33.84375","-2.75"
"1574967467740","342","-0.0068359375","-0.8769531","-0.041015625","3.53125","-26.03125","-0.96875"
"1574967467741","343","0.024414062","-0.8535156","-0.051757812","8.65625","-27.0625","-0.78125"
"1574967467741","344","0.04296875","-0.84277344","-0.034179688","6.09375","-26.9375","-0.90625"
"1574967467741","345","0.00390625","-0.8388672","0.0048828125","5.9375","-18.65625","-1.53125"
"1574967467741","346","0.02734375","-0.86328125","-0.0126953125","6.53125","-14.375","-2.3125"
"1574967467741","347","0.057617188","-0.87109375","-0.026367188","1.15625","-9.6875","-4.75"
"1574967467742","348","0.060546875","-0.85058594","-0.024414062","0.25","-5.40625","-2.90625"
"1574967467743","349","0.076171875","-0.84277344","0.0","3.375","-8.9375","-5.3125"
"1574967468337","350","0.047851562","-0.8232422","0.024414062","10.6875","-8.75","-5.0625"
"1574967468337","351","0.08886719","-0.8457031","0.0048828125","11.53125","-6.125","-6.09375"
"1574967468338","352","0.0859375","-0.8496094","-0.017578125","3.0625","-6.5625","-7.125"
"1574967468338","353","0.064453125","-0.8535156","9.765625E-4","0.625","-3.09375","-4.03125"
"1574967468338","354","0.07714844","-0.85253906","-0.00390625","-2.5","1.125","-4.6875"
"1574967468339","355","0.08886719","-0.8798828","-0.013671875","3.71875","0.5","-1.21875"
"1574967468339","356","0.029296875","-0.83496094","-0.040039062","5.375","2.90625","0.75"
"1574967468339","357","0.060546875","-0.8720703","0.033203125","-4.4375","8.5","0.875"
"1574967468339","358","0.10058594","-0.859375","-0.04296875","0.3125","7.96875","1.90625"
"1574967468340","359","0.046875","-0.84375","-0.0126953125","-4.21875","7.90625","4.09375"
"1574967468535","360","0.099609375","-0.84472656","0.0078125","0.0625","7.71875","3.65625"
"1574967468536","361","0.052734375","-0.8691406","-0.013671875","-6.15625","7.90625","5.8125"
"1574967468536","362","0.08691406","-0.8359375","-0.018554688","-9.15625","10.21875","6.1875"
"1574967468536","363","0.09765625","-0.8857422","-0.041015625","-5.71875","4.90625","6.96875"
"1574967468537","364","0.043945312","-0.8466797","-0.05078125","-10.5","4.0625","10.09375"
"1574967468537","365","0.07128906","-0.8564453","-0.046875","-6.15625","4.90625","10.625"
"1574967468537","366","0.020507812","-0.8486328","-0.0390625","-6.96875","5.75","14.71875"
"1574967468537","367","0.0390625","-0.8251953","-0.05078125","-6.59375","8.15625","17.84375"
"1574967468538","368","0.07910156","-0.8701172","-0.060546875","-10.0","5.09375","16.78125"
"1574967468538","369","0.059570312","-0.8701172","-0.061523438","-13.78125","-2.90625","15.21875"
"1574967468933","370","-0.01171875","-0.9091797","-0.07324219","-15.5625","-7.0","12.21875"
"1574967468934","371","-0.07519531","-0.9091797","-0.14257812","-19.09375","-2.96875","13.6875"
"1574967468934","372","-0.060546875","-0.81347656","-0.1484375","-9.75","-1.4375","14.71875"
"1574967468935","373","-0.06933594","-0.8125","-0.11328125","0.90625","2.40625","17.21875"
"1574967468936","374","-0.119140625","-0.8466797","-0.107421875","2.125","9.84375","17.21875"
"1574967468936","375","-0.15429688","-0.88671875","-0.12402344","-3.90625","16.25","18.5"
"1574967468936","376","-0.12207031","-0.8779297","-0.12695312","-1.59375","23.03125","19.25"
"1574967468936","377","-0.1328125","-0.86816406","-0.18164062","6.03125","23.59375","19.53125"
"1574967468937","378","-0.20605469","-0.8574219","-0.109375","-4.5625","30.40625","21.96875"
"1574967468937","379","-0.11621094","-0.890625","-0.20605469","-6.90625","32.3125","16.4375"
"1574967469331","380","-0.001953125","-0.890625","-0.19726562","-8.1875","17.96875","11.90625"
"1574967469331","381","-0.08886719","-0.83984375","-0.15820312","-6.65625","7.53125","8.84375"
"1574967469331","382","-0.16796875","-0.8359375","-0.15136719","-6.28125","5.53125","5.75"
"1574967469332","383","-0.15234375","-0.83496094","-0.19726562","-6.03125","4.78125","10.5625"
"1574967469332","384","-0.12988281","-0.87109375","-0.20410156","6.90625","0.875","9.46875"
"1574967469333","385","-0.16210938","-0.85253906","-0.16796875","11.78125","-7.25","11.0625"
"1574967469334","386","-0.20214844","-0.8486328","-0.16210938","17.21875","-11.03125","11.78125"
"1574967469334","387","-0.19042969","-0.83691406","-0.17578125","11.125","-7.65625","10.4375"
"1574967469334","388","-0.21484375","-0.8652344","-0.14550781","5.375","-2.84375","7.21875"
"1574967469334","389","-0.2265625","-0.85058594","-0.14453125","0.4375","-3.8125","6.25"
"1574967469728","390","-0.2265625","-0.84375","-0.16015625","-0.25","0.625","6.46875"
"1574967469729","391","-0.21289062","-0.83984375","-0.15527344","-2.25","3.75","8.84375"
"1574967469729","392","-0.19433594","-0.83691406","-0.19238281","-2.0625","2.34375","7.625"
"1574967469729","393","-0.21386719","-0.8359375","-0.17480469","-3.28125","3.625","7.34375"
"1574967469730","394","-0.22167969","-0.8232422","-0.19824219","-0.25","3.6875","5.375"
"1574967469730","395","-0.16308594","-0.8251953","-0.17382812","5.75","1.4375","3.5625"
"1574967469730","396","-0.22363281","-0.8339844","-0.17480469","7.6875","-1.0625","-0.28125"
"1574967469731","397","-0.18261719","-0.8417969","-0.16796875","5.5625","-8.46875","0.5625"
"1574967469732","398","-0.18164062","-0.8408203","-0.15429688","2.9375","-14.5625","-4.15625"
"1574967469735","399","-0.20703125","-0.8466797","-0.14648438","4.15625","-16.5625","-5.375"
"1574967470125","400","-0.26464844","-0.86035156","-0.15234375","1.90625","-19.8125","-2.875"
"1574967470126","401","-0.22363281","-0.85546875","-0.16015625","2.9375","-18.34375","-2.375"
"1574967470126","402","-0.22558594","-0.8417969","-0.14355469","2.5625","-21.28125","-1.5625"
"1574967470126","403","-0.23339844","-0.8154297","-0.15527344","3.78125","-23.65625","-3.65625"
"1574967470127","404","-0.22851562","-0.8330078","-0.15722656","5.75","-21.28125","-5.78125"
"1574967470127","405","-0.171875","-0.8515625","-0.15234375","6.71875","-21.03125","-11.40625"
"1574967470127","406","-0.16894531","-0.8222656","-0.12109375","7.75","-21.34375","-15.375"
"1574967470127","407","-0.18652344","-0.8417969","-0.10546875","8.5625","-15.90625","-19.03125"
"1574967470128","408","-0.171875","-0.85058594","-0.11230469","10.1875","-11.4375","-20.3125"
"1574967470128","409","-0.16699219","-0.8730469","-0.08105469","8.5","-3.34375","-20.125"
"1574967470921","410","-0.15722656","-0.8779297","-0.083984375","11.53125","-1.8125","-20.0"
"1574967470921","411","-0.064453125","-0.9003906","-0.072265625","10.25","-7.40625","-19.34375"
"1574967470921","412","-0.119140625","-0.8798828","-0.1015625","10.5625","-5.65625","-16.15625"
"1574967470922","413","-0.123046875","-0.84277344","-0.095703125","12.6875","-6.6875","-12.0625"
"1574967470922","414","-0.049804688","-0.83691406","-0.041992188","14.59375","-2.34375","-15.75"
"1574967470922","415","-0.1015625","-0.8642578","-0.029296875","12.9375","-5.71875","-10.125"
"1574967470922","416","-0.072265625","-0.8515625","-0.06542969","11.125","-5.21875","-9.5625"
"1574967470923","417","-0.0390625","-0.87402344","-0.04296875","8.5625","-9.25","-10.0625"
"1574967470923","418","-0.00390625","-0.8574219","-0.0390625","6.09375","-14.875","-10.0"
"1574967470923","419","-0.025390625","-0.8496094","-0.036132812","6.59375","-16.8125","-9.5625"
"1574967471118","420","-0.0146484375","-0.8925781","-0.041015625","9.28125","-19.4375","-9.5"
"1574967471119","421","0.034179688","-0.87597656","-0.028320312","7.8125","-25.59375","-10.3125"
"1574967471120","422","0.018554688","-0.8310547","0.03515625","9.59375","-28.84375","-5.96875"
"1574967471120","423","-0.0390625","-0.8486328","0.0029296875","13.96875","-23.03125","-6.59375"
"1574967471120","424","0.04296875","-0.875","0.00390625","16.4375","-20.53125","-7.5"
"1574967471120","425","0.053710938","-0.8544922","0.013671875","13.0","-19.875","-6.40625"
"1574967471121","426","-0.0078125","-0.8261719","0.051757812","7.6875","-14.0625","-7.5"
"1574967471121","427","0.061523438","-0.85058594","0.038085938","10.9375","-12.5625","-5.65625"
"1574967471121","428","0.0703125","-0.8496094","0.049804688","12.46875","-14.8125","-3.65625"
"1574967471121","429","0.0126953125","-0.828125","0.061523438","12.6875","-17.78125","-2.3125"
"1574967471317","430","0.091796875","-0.8173828","0.041015625","13.75","-18.28125","-3.90625"
"1574967471317","431","0.07519531","-0.8769531","0.0859375","7.875","-21.03125","-3.46875"
"1574967471317","432","0.0107421875","-0.8544922","0.061523438","4.03125","-20.65625","-3.53125"
"1574967471318","433","0.026367188","-0.81640625","0.017578125","-2.625","-17.1875","-2.125"
"1574967471319","434","0.1015625","-0.87402344","0.04296875","-2.75","-12.90625","-6.09375"
"1574967471319","435","0.12792969","-0.8769531","0.044921875","-6.78125","-20.3125","-8.0"
"1574967471319","436","0.13183594","-0.8564453","0.04296875","-15.1875","-26.46875","-9.03125"
"1574967471319","437","0.038085938","-0.83203125","0.001953125","-17.5625","-20.0625","-5.0625"
"1574967471320","438","0.10644531","-0.83691406","0.024414062","-2.8125","-23.78125","-2.375"
"1574967471320","439","0.11816406","-0.8535156","0.017578125","-7.9375","-22.125","-2.625"
"1574967471715","440","0.033203125","-0.8310547","0.0107421875","-7.5","-14.3125","-1.75"
"1574967471716","441","0.08984375","-0.8339844","0.0078125","-3.90625","-11.3125","-0.1875"
"1574967471716","442","0.09375","-0.8310547","-0.001953125","-1.15625","-10.40625","-0.0625"
"1574967471716","443","0.0703125","-0.8300781","-0.022460938","-2.6875","-5.46875","-0.40625"
"1574967471717","444","0.07421875","-0.8544922","0.0029296875","-0.65625","-1.375","2.34375"
"1574967471718","445","0.1015625","-0.8574219","-0.036132812","-6.78125","3.1875","0.75"
"1574967471719","446","0.12109375","-0.8671875","-0.046875","0.0625","1.625","2.15625"
"1574967471719","447","0.09765625","-0.8457031","-0.013671875","-6.15625","-0.53125","3.25"
"1574967471719","448","0.0859375","-0.83691406","-0.01953125","-5.1875","4.84375","4.53125"
"1574967471719","449","0.107421875","-0.8486328","-0.021484375","-2.5","1.4375","5.4375"
"1574967472112","450","0.051757812","-0.8564453","-0.037109375","-1.8125","5.09375","6.25"
"1574967472112","451","0.08691406","-0.83203125","-0.05859375","-1.875","7.34375","6.34375"
"1574967472112","452","0.064453125","-0.8730469","-0.0703125","-8.0","12.0","7.6875"
"1574967472112","453","0.057617188","-0.8671875","-0.068359375","-7.875","18.03125","9.03125"
"1574967472113","454","0.06933594","-0.85058594","-0.07714844","-12.75","17.0","12.53125"
"1574967472113","455","0.05859375","-0.85546875","-0.08300781","-17.5625","17.46875","13.75"
"1574967472113","456","0.053710938","-0.88183594","-0.08496094","-18.96875","16.875","12.9375"
"1574967472114","457","0.0234375","-0.8935547","-0.09472656","-16.90625","13.875","11.65625"
"1574967472114","458","0.06347656","-0.83691406","-0.15234375","-11.90625","5.65625","10.625"
"1574967472115","459","0.038085938","-0.8017578","-0.13769531","-11.90625","9.5625","8.5625"
"1574967472509","460","0.0107421875","-0.8535156","-0.11328125","-6.40625","15.65625","8.125"
"1574967472510","461","-0.053710938","-0.8955078","-0.1328125","-5.84375","12.84375","12.53125"
"1574967472510","462","-0.107421875","-0.87109375","-0.13183594","-4.21875","17.1875","14.46875"
"1574967472511","463","0.015625","-0.8300781","-0.119140625","-2.0","12.71875","11.71875"
"1574967472511","464","0.013671875","-0.8496094","-0.13476562","5.0","9.84375","7.875"
"1574967472511","465","-0.060546875","-0.8515625","-0.13476562","-8.59375","9.96875","3.71875"
"1574967472511","466","-0.022460938","-0.87597656","-0.17382812","-2.4375","7.09375","1.46875"
"1574967472511","467","-0.0126953125","-0.859375","-0.15332031","-1.28125","2.71875","1.90625"
"1574967472512","468","-0.048828125","-0.8457031","-0.14355469","0.0625","2.65625","2.21875"
"1574967472512","469","-0.038085938","-0.84765625","-0.14355469","1.03125","5.6875","1.15625"
"1574967472908","470","-0.025390625","-0.8828125","-0.16113281","1.46875","5.46875","-0.84375"
"1574967472908","471","-0.037109375","-0.8564453","-0.16699219","0.0","4.3125","0.0"
"1574967472909","472","-0.038085938","-0.85839844","-0.15820312","-0.71875","5.46875","-1.28125"
"1574967472909","473","-0.041015625","-0.86035156","-0.15429688","1.15625","7.21875","-0.96875"
"1574967472909","474","-0.037109375","-0.8642578","-0.15332031","-1.9375","7.65625","-1.625"
"1574967472909","475","-0.033203125","-0.85839844","-0.16308594","-0.96875","8.28125","-1.9375"
"1574967472909","476","-0.041015625","-0.86328125","-0.15332031","-1.59375","10.59375","-1.15625"
"1574967472910","477","-0.01953125","-0.8613281","-0.1640625","-2.75","11.5","-1.8125"
"1574967472910","478","-0.016601562","-0.8623047","-0.16015625","-3.15625","10.78125","-1.46875"
"1574967472910","479","-0.017578125","-0.85253906","-0.15820312","0.125","9.5625","-0.53125"
