"# PR data"
"# Start time: 20191128T194923"
"# Subject: santi"
"# Activity type: Knee extension"
"# Correctness: Incorrect"
"# Notes: "
""
"timestamp","seq","accel_x","accel_y","accel_z","gyro_x","gyro_y","gyro_z"
"1574966963910","0","-0.016601562","-0.85839844","-0.16992188","0.5625","-4.96875","0.375"
"1574966963911","1","-0.015625","-0.8642578","-0.16113281","1.78125","-3.625","1.03125"
"1574966963911","2","-0.01171875","-0.8515625","-0.16503906","1.78125","-4.625","0.8125"
"1574966963911","3","9.765625E-4","-0.86035156","-0.17773438","1.59375","-4.96875","1.28125"
"1574966963911","4","-9.765625E-4","-0.8798828","-0.16601562","0.6875","-4.78125","1.84375"
"1574966963911","5","-0.0048828125","-0.8671875","-0.17285156","1.15625","-5.53125","1.34375"
"1574966963912","6","-0.0068359375","-0.86035156","-0.17773438","1.65625","-3.625","1.21875"
"1574966963912","7","-0.026367188","-0.8691406","-0.17285156","-2.4375","-3.28125","0.6875"
"1574966963912","8","-0.016601562","-0.85058594","-0.17773438","-0.59375","-2.96875","1.96875"
"1574966963912","9","-0.00390625","-0.8564453","-0.17480469","1.71875","-0.875","3.125"
"1574966964305","10","-0.028320312","-0.87402344","-0.18066406","-1.21875","-1.3125","2.15625"
"1574966964305","11","-0.028320312","-0.8613281","-0.1796875","-0.125","-0.65625","2.625"
"1574966964306","12","-0.018554688","-0.8623047","-0.18164062","-0.375","-1.0","2.6875"
"1574966964307","13","-0.020507812","-0.8642578","-0.18457031","-0.53125","1.5625","2.5"
"1574966964307","14","-0.0078125","-0.8613281","-0.18261719","-2.75","1.25","3.25"
"1574966964307","15","-0.0146484375","-0.8623047","-0.15917969","-1.21875","-3.21875","3.5"
"1574966964308","16","-0.0234375","-0.82714844","-0.19726562","6.90625","-1.5625","4.46875"
"1574966964308","17","-0.021484375","-0.85546875","-0.14648438","-3.28125","-4.25","0.4375"
"1574966964308","18","-0.0029296875","-0.85546875","-0.20800781","2.25","-4.5625","0.1875"
"1574966964308","19","-0.03515625","-0.87597656","-0.18261719","-0.1875","-6.3125","-0.34375"
"1574966964704","20","-0.018554688","-0.8564453","-0.1796875","-1.8125","-7.125","-2.25"
"1574966964705","21","-0.038085938","-0.859375","-0.19140625","-0.5","-8.59375","-0.25"
"1574966964705","22","-0.052734375","-0.86035156","-0.19042969","0.96875","-5.15625","2.34375"
"1574966964705","23","-0.020507812","-0.86621094","-0.19238281","3.90625","-4.0625","2.625"
"1574966964705","24","-0.041015625","-0.8613281","-0.19921875","0.6875","-5.84375","2.28125"
"1574966964707","25","-0.022460938","-0.8544922","-0.20117188","0.25","-3.75","0.5"
"1574966964707","26","-0.01953125","-0.87597656","-0.18554688","-1.9375","-0.28125","0.3125"
"1574966964707","27","-0.028320312","-0.86621094","-0.18261719","-3.0","-1.25","0.5"
"1574966964708","28","-0.01953125","-0.86035156","-0.18652344","-1.9375","-2.125","-0.59375"
"1574966964708","29","-0.036132812","-0.8574219","-0.1875","-3.21875","-2.53125","-1.03125"
"1574966965101","30","-0.030273438","-0.8564453","-0.19335938","-3.90625","-0.09375","-1.03125"
"1574966965101","31","-0.036132812","-0.85546875","-0.20117188","-2.875","1.78125","-3.03125"
"1574966965102","32","-0.016601562","-0.8701172","-0.21679688","-0.5","0.6875","-4.5625"
"1574966965102","33","-0.009765625","-0.85546875","-0.22070312","-4.21875","-2.96875","-5.78125"
"1574966965103","34","-0.018554688","-0.8671875","-0.20507812","-7.0","-1.75","-2.3125"
"1574966965103","35","-0.0087890625","-0.8691406","-0.23632812","-6.15625","-3.875","-2.4375"
"1574966965103","36","-0.017578125","-0.8828125","-0.23828125","-3.65625","0.9375","4.90625"
"1574966965104","37","0.034179688","-0.8417969","-0.28515625","4.875","-5.90625","2.5"
"1574966965104","38","0.00390625","-0.8330078","-0.19238281","-4.6875","-10.90625","2.21875"
"1574966965104","39","-0.024414062","-0.82128906","-0.234375","-6.15625","0.625","3.0"
"1574966965498","40","-0.013671875","-0.8691406","-0.23730469","-0.96875","-2.65625","-0.53125"
"1574966965498","41","0.0","-0.8378906","-0.234375","-5.71875","-5.71875","-1.8125"
"1574966965499","42","-0.02734375","-0.8544922","-0.24804688","-3.65625","-1.625","-1.34375"
"1574966965499","43","-0.0078125","-0.87109375","-0.25195312","-1.78125","1.0625","-2.3125"
"1574966965499","44","-0.016601562","-0.86816406","-0.26367188","2.5625","-1.75","-0.78125"
"1574966965499","45","-0.015625","-0.8486328","-0.23730469","0.0","-1.4375","-0.25"
"1574966965500","46","0.0087890625","-0.82714844","-0.2548828","2.8125","-1.5625","-0.71875"
"1574966965500","47","-0.015625","-0.85546875","-0.234375","3.71875","1.0625","0.875"
"1574966965500","48","0.0146484375","-0.8486328","-0.25","-1.40625","-1.5625","-2.625"
"1574966965501","49","0.018554688","-0.8496094","-0.25097656","0.125","-0.15625","-1.09375"
"1574966965896","50","-0.03125","-0.88378906","-0.24414062","3.40625","-0.40625","-0.34375"
"1574966965897","51","0.041992188","-0.828125","-0.26464844","4.40625","-5.09375","-0.125"
"1574966965897","52","-0.005859375","-0.8652344","-0.2109375","6.03125","1.25","2.4375"
"1574966965897","53","-0.0048828125","-0.8408203","-0.24316406","4.28125","-4.4375","0.75"
"1574966965898","54","0.048828125","-0.8203125","-0.25683594","3.84375","-1.3125","1.0"
"1574966965898","55","-0.044921875","-0.8876953","-0.21679688","-1.53125","0.9375","-2.125"
"1574966965898","56","0.0048828125","-0.8232422","-0.25683594","-1.78125","-2.84375","-1.34375"
"1574966965898","57","-0.009765625","-0.8964844","-0.21191406","4.71875","1.625","1.46875"
"1574966965899","58","-0.02734375","-0.8720703","-0.21386719","2.75","-4.3125","0.8125"
"1574966965899","59","0.013671875","-0.8359375","-0.25976562","12.53125","-0.71875","3.5"
"1574966966491","60","-0.021484375","-0.8671875","-0.19335938","0.90625","-3.21875","-0.84375"
"1574966966492","61","0.072265625","-0.8408203","-0.29882812","-0.0625","-5.40625","-2.8125"
"1574966966492","62","0.0078125","-0.8847656","-0.22265625","-4.21875","-2.15625","-1.9375"
"1574966966493","63","0.046875","-0.82714844","-0.2783203","-5.5625","-7.90625","-2.875"
"1574966966493","64","0.040039062","-0.8779297","-0.25976562","-3.46875","-4.75","-3.46875"
"1574966966493","65","0.05078125","-0.8388672","-0.2685547","-0.78125","-13.46875","-1.53125"
"1574966966493","66","-9.765625E-4","-0.83691406","-0.24414062","0.96875","0.875","2.09375"
"1574966966494","67","-0.020507812","-0.88671875","-0.2421875","-1.21875","-5.34375","-1.46875"
"1574966966494","68","0.033203125","-0.7841797","-0.25976562","-1.15625","-7.78125","2.09375"
"1574966966494","69","-0.0107421875","-0.8828125","-0.24023438","-1.28125","0.34375","1.28125"
"1574966966691","70","0.0068359375","-0.87402344","-0.23632812","-0.59375","-3.75","0.4375"
"1574966966691","71","-0.0048828125","-0.84472656","-0.24707031","0.375","-2.59375","0.4375"
"1574966966692","72","0.0234375","-0.8457031","-0.26757812","-0.5","-3.09375","1.21875"
"1574966966693","73","0.01171875","-0.85546875","-0.24902344","0.375","-0.9375","1.71875"
"1574966966693","74","0.0146484375","-0.8378906","-0.2626953","-0.53125","-2.96875","-0.1875"
"1574966966694","75","0.032226562","-0.82714844","-0.2685547","-0.5","-4.6875","0.75"
"1574966966694","76","-0.021484375","-0.8691406","-0.24511719","-3.21875","-0.21875","-0.90625"
"1574966966694","77","0.018554688","-0.8300781","-0.2705078","-1.03125","-3.625","1.78125"
"1574966966694","78","-0.0048828125","-0.8642578","-0.26171875","0.625","-2.84375","0.75"
"1574966966694","79","0.0146484375","-0.8408203","-0.2626953","0.75","-4.75","1.0"
"1574966967088","80","0.020507812","-0.8544922","-0.27929688","4.03125","-3.40625","3.0625"
"1574966967089","81","0.021484375","-0.84277344","-0.33203125","3.0","-10.46875","1.71875"
"1574966967089","82","-0.001953125","-0.83984375","-0.20117188","3.40625","-4.0","2.4375"
"1574966967090","83","-0.001953125","-0.84277344","-0.28710938","0.0","0.875","0.3125"
"1574966967090","84","0.0390625","-0.8378906","-0.27441406","3.46875","-3.9375","0.3125"
"1574966967094","85","-0.0146484375","-0.8671875","-0.22949219","-0.65625","0.5","0.1875"
"1574966967095","86","0.00390625","-0.8330078","-0.25","-3.78125","-2.28125","-4.5625"
"1574966967095","87","0.040039062","-0.8339844","-0.27441406","-0.375","-0.84375","-0.71875"
"1574966967100","88","0.020507812","-0.8935547","-0.27246094","3.78125","0.15625","-1.5625"
"1574966967100","89","-0.005859375","-0.8623047","-0.24804688","6.34375","-5.03125","-4.3125"
"1574966967485","90","0.022460938","-0.8222656","-0.26660156","6.21875","-1.8125","-2.8125"
"1574966967486","91","0.06933594","-0.8935547","-0.27148438","6.65625","-3.4375","-4.875"
"1574966967486","92","0.041015625","-0.8691406","-0.24414062","2.125","-10.53125","-6.40625"
"1574966967487","93","0.037109375","-0.8154297","-0.25097656","7.09375","-5.09375","-2.75"
"1574966967487","94","0.0078125","-0.9121094","-0.2685547","6.34375","-4.625","-3.03125"
"1574966967487","95","0.08105469","-0.7988281","-0.24121094","3.0","-7.90625","0.4375"
"1574966967487","96","-0.0087890625","-0.85253906","-0.23242188","1.40625","-5.34375","1.09375"
"1574966967488","97","0.038085938","-0.8046875","-0.22558594","2.25","-8.28125","-4.375"
"1574966967488","98","0.0234375","-0.8251953","-0.24023438","-2.0","-3.03125","-3.71875"
"1574966967488","99","0.0234375","-0.8828125","-0.2548828","-4.15625","0.09375","-3.46875"
"1574966967883","100","0.048828125","-0.8808594","-0.27441406","-1.40625","2.09375","-1.5625"
"1574966967884","101","0.057617188","-0.88964844","-0.26367188","-2.0","-0.65625","-0.53125"
"1574966967884","102","0.037109375","-0.8261719","-0.2705078","0.0625","-0.65625","2.21875"
"1574966967884","103","0.033203125","-0.8300781","-0.26757812","-2.5625","-0.21875","2.9375"
"1574966967885","104","0.053710938","-0.8300781","-0.22460938","5.5625","1.1875","4.40625"
"1574966967885","105","0.025390625","-0.85058594","-0.24414062","-0.90625","2.03125","2.21875"
"1574966967885","106","0.041015625","-0.8652344","-0.2763672","4.46875","1.75","2.15625"
"1574966967886","107","0.041992188","-0.85839844","-0.25683594","4.40625","1.125","2.5"
"1574966967886","108","0.0546875","-0.8378906","-0.26171875","2.09375","1.375","1.34375"
"1574966967887","109","0.032226562","-0.83691406","-0.25585938","4.03125","1.75","0.25"
"1574966968281","110","0.041992188","-0.8388672","-0.25195312","2.1875","2.34375","1.15625"
"1574966968282","111","0.0390625","-0.8574219","-0.21875","3.78125","2.71875","1.40625"
"1574966968282","112","0.020507812","-0.85546875","-0.23730469","1.84375","0.03125","0.125"
"1574966968282","113","0.041992188","-0.8671875","-0.24316406","4.34375","1.5625","1.28125"
"1574966968282","114","0.051757812","-0.8613281","-0.234375","6.40625","1.125","0.9375"
"1574966968283","115","0.046875","-0.85839844","-0.24414062","1.34375","0.03125","0.4375"
"1574966968283","116","0.05859375","-0.8574219","-0.23730469","5.1875","0.5625","-0.71875"
"1574966968283","117","0.043945312","-0.8378906","-0.25878906","6.21875","-0.53125","0.25"
"1574966968283","118","0.06542969","-0.8232422","-0.22851562","1.78125","1.75","-0.65625"
"1574966968284","119","0.045898438","-0.83203125","-0.22363281","4.8125","-1.125","-1.9375"
"1574966968677","120","0.029296875","-0.8535156","-0.20898438","0.3125","-0.53125","-0.96875"
"1574966968679","121","0.04296875","-0.8623047","-0.22070312","0.4375","-0.09375","-2.125"
"1574966968679","122","0.056640625","-0.8720703","-0.22265625","1.28125","-2.96875","-0.78125"
"1574966968679","123","0.05859375","-0.86621094","-0.23632812","0.8125","-2.90625","0.0"
"1574966968679","124","0.080078125","-0.84375","-0.24609375","2.4375","-4.84375","-0.28125"
"1574966968680","125","0.0703125","-0.8466797","-0.2265625","1.90625","-3.625","1.53125"
"1574966968680","126","0.07519531","-0.8564453","-0.24023438","1.71875","-5.15625","-2.3125"
"1574966968680","127","0.06347656","-0.8515625","-0.2109375","-2.1875","-5.21875","0.375"
"1574966968680","128","0.06933594","-0.859375","-0.21582031","3.71875","-2.53125","-0.53125"
"1574966968681","129","0.046875","-0.8408203","-0.2265625","-1.40625","-7.34375","-0.53125"
"1574966969272","130","0.05859375","-0.8457031","-0.22265625","3.0","-0.53125","1.59375"
"1574966969272","131","0.061523438","-0.86328125","-0.23144531","6.21875","-4.0625","2.28125"
"1574966969273","132","0.043945312","-0.84277344","-0.22363281","-0.71875","-4.25","4.34375"
"1574966969274","133","0.05859375","-0.8378906","-0.22558594","2.375","-3.5625","0.5625"
"1574966969274","134","0.059570312","-0.8564453","-0.23242188","-2.9375","-4.125","2.875"
"1574966969275","135","0.044921875","-0.86816406","-0.2265625","2.1875","-2.40625","3.375"
"1574966969275","136","0.040039062","-0.8515625","-0.22753906","3.46875","-4.4375","3.84375"
"1574966969275","137","0.044921875","-0.8671875","-0.23242188","6.28125","-3.875","5.3125"
"1574966969276","138","0.046875","-0.8359375","-0.22851562","4.34375","-4.375","3.90625"
"1574966969276","139","0.030273438","-0.8544922","-0.234375","5.25","-1.875","7.03125"
"1574966969473","140","0.026367188","-0.8457031","-0.21972656","3.65625","-6.4375","5.25"
"1574966969474","141","0.033203125","-0.8066406","-0.22460938","5.625","-4.78125","3.84375"
"1574966969474","142","0.009765625","-0.8730469","-0.22070312","1.46875","2.40625","3.96875"
"1574966969474","143","0.043945312","-0.86035156","-0.20800781","6.09375","-2.46875","-1.28125"
"1574966969474","144","0.043945312","-0.8251953","-0.2265625","7.28125","-7.71875","-1.34375"
"1574966969476","145","0.0029296875","-0.8955078","-0.19628906","0.90625","-4.125","2.15625"
"1574966969476","146","-0.0048828125","-0.87597656","-0.19140625","-1.03125","-7.78125","5.125"
"1574966969476","147","0.0625","-0.8925781","-0.20117188","1.03125","-15.15625","10.625"
"1574966969477","148","0.021484375","-0.89453125","-0.19824219","-6.53125","-16.34375","11.1875"
"1574966969477","149","0.0068359375","-0.84472656","-0.19824219","-10.5625","-6.75","8.90625"
"1574966969872","150","-0.0107421875","-0.85839844","-0.23535156","-7.75","-7.40625","6.46875"
"1574966969872","151","0.07128906","-0.81640625","-0.2607422","0.3125","-8.15625","4.46875"
"1574966969873","152","-0.020507812","-0.8574219","-0.23339844","-6.84375","-4.5","3.84375"
"1574966969873","153","-0.04296875","-0.84375","-0.20507812","3.78125","-9.375","4.59375"
"1574966969873","154","-0.0107421875","-0.82128906","-0.23925781","-9.15625","-2.71875","1.28125"
"1574966969873","155","-0.04296875","-0.87402344","-0.2734375","-2.1875","-0.9375","0.1875"
"1574966969873","156","-0.0107421875","-0.85058594","-0.25195312","-4.09375","-1.4375","-0.34375"
"1574966969875","157","0.018554688","-0.8652344","-0.26953125","-2.75","-3.6875","-2.1875"
"1574966969875","158","-0.0068359375","-0.86035156","-0.265625","-1.46875","-4.5","-3.84375"
"1574966969876","159","0.009765625","-0.83691406","-0.26171875","0.5625","-1.5","-1.875"
"1574966970269","160","0.0126953125","-0.8623047","-0.24023438","3.46875","-3.6875","-1.75"
"1574966970269","161","-0.0068359375","-0.83984375","-0.24414062","2.5625","-5.78125","-1.5625"
"1574966970270","162","0.0029296875","-0.8535156","-0.24707031","6.28125","-2.15625","0.5625"
"1574966970270","163","0.020507812","-0.86816406","-0.24804688","6.65625","-6.125","0.8125"
"1574966970270","164","0.022460938","-0.8300781","-0.26171875","2.8125","-8.46875","-0.84375"
"1574966970270","165","-0.017578125","-0.8544922","-0.22460938","0.96875","-0.21875","-1.53125"
"1574966970271","166","0.0029296875","-0.86621094","-0.23242188","1.34375","-3.5625","-0.90625"
"1574966970271","167","0.01953125","-0.83691406","-0.24804688","1.09375","-8.6875","-0.1875"
"1574966970271","168","-0.015625","-0.8730469","-0.23242188","2.125","-3.6875","1.15625"
"1574966970273","169","0.015625","-0.8535156","-0.2529297","3.90625","-7.59375","0.3125"
"1574966970666","170","0.00390625","-0.8564453","-0.23925781","1.84375","-3.09375","2.21875"
"1574966970666","171","0.0029296875","-0.85253906","-0.2548828","1.28125","-5.53125","1.09375"
"1574966970667","172","0.0126953125","-0.83496094","-0.25585938","0.375","-5.21875","0.8125"
"1574966970667","173","-0.00390625","-0.8642578","-0.23242188","1.34375","-2.96875","0.625"
"1574966970667","174","0.009765625","-0.8388672","-0.24609375","-1.21875","-3.625","-0.25"
"1574966970667","175","-0.0029296875","-0.8623047","-0.27734375","2.3125","-2.96875","0.0"
"1574966970668","176","0.0068359375","-0.828125","-0.22753906","-2.875","-9.625","-1.5625"
"1574966970668","177","0.01953125","-0.85546875","-0.26953125","-0.59375","2.03125","0.75"
"1574966970668","178","-0.0078125","-0.90234375","-0.23339844","3.3125","-3.09375","0.9375"
"1574966970669","179","0.020507812","-0.7988281","-0.26660156","-5.4375","-5.46875","0.5625"
"1574966971263","180","0.018554688","-0.86816406","-0.27441406","0.3125","0.21875","1.15625"
"1574966971264","181","0.00390625","-0.8691406","-0.24902344","0.1875","-0.71875","1.21875"
"1574966971265","182","0.018554688","-0.82421875","-0.2685547","3.46875","-4.375","1.71875"
"1574966971265","183","-0.001953125","-0.8330078","-0.23828125","0.3125","-0.09375","2.625"
"1574966971265","184","-0.017578125","-0.86621094","-0.23632812","3.90625","0.6875","2.5"
"1574966971266","185","0.028320312","-0.82714844","-0.2607422","5.8125","-5.65625","3.1875"
"1574966971266","186","0.0029296875","-0.85253906","-0.25390625","3.96875","-3.6875","2.8125"
"1574966971266","187","-0.009765625","-0.8564453","-0.25585938","6.46875","-3.5625","2.75"
"1574966971267","188","-0.0107421875","-0.8496094","-0.23632812","4.34375","-2.15625","2.4375"
"1574966971267","189","-0.020507812","-0.86328125","-0.23925781","2.25","-1.3125","2.09375"
"1574966971460","190","-0.0126953125","-0.8515625","-0.24121094","3.0","-1.3125","3.3125"
"1574966971461","191","-0.016601562","-0.87109375","-0.22753906","7.3125","-0.28125","3.5625"
"1574966971461","192","-0.018554688","-0.85058594","-0.23144531","5.75","0.75","2.5"
"1574966971463","193","9.765625E-4","-0.8359375","-0.234375","4.09375","1.90625","1.78125"
"1574966971463","194","-0.01953125","-0.8671875","-0.21386719","3.40625","3.375","0.25"
"1574966971463","195","0.0107421875","-0.8535156","-0.22753906","-0.53125","-0.9375","-2.96875"
"1574966971464","196","-0.024414062","-0.8857422","-0.18066406","2.6875","3.875","-1.875"
"1574966971464","197","-0.026367188","-0.8515625","-0.23730469","6.28125","0.8125","-5.90625"
"1574966971464","198","0.015625","-0.84277344","-0.19433594","-10.5625","-3.875","-8.59375"
"1574966971464","199","0.057617188","-0.8720703","-0.26464844","-9.21875","-0.59375","-10.96875"
"1574966971860","200","0.0","-0.91015625","-0.22265625","-9.28125","-2.90625","-10.125"
"1574966971860","201","0.036132812","-0.8203125","-0.22070312","-4.75","-6.9375","-7.0625"
"1574966971860","202","0.07519531","-0.82714844","-0.25878906","-0.125","-4.4375","-3.84375"
"1574966971861","203","0.048828125","-0.8798828","-0.26171875","3.40625","-4.0","-2.3125"
"1574966971861","204","0.034179688","-0.8417969","-0.28320312","1.65625","-4.84375","-0.84375"
"1574966971862","205","0.07421875","-0.8359375","-0.26757812","5.625","-3.34375","2.34375"
"1574966971863","206","0.009765625","-0.85546875","-0.26660156","-0.0625","-2.90625","-1.15625"
"1574966971863","207","0.041015625","-0.82128906","-0.24609375","1.65625","-1.6875","-0.53125"
"1574966971863","208","0.01953125","-0.84765625","-0.24707031","1.96875","-0.28125","-0.59375"
"1574966971863","209","0.0107421875","-0.8535156","-0.2626953","-1.34375","-1.5","-2.3125"
"1574966972256","210","0.013671875","-0.859375","-0.25683594","0.90625","0.625","-0.25"
"1574966972256","211","0.022460938","-0.8623047","-0.27148438","-0.25","1.625","-0.125"
"1574966972257","212","0.030273438","-0.8388672","-0.26953125","2.3125","-0.15625","2.4375"
"1574966972257","213","0.043945312","-0.8261719","-0.25585938","4.09375","0.8125","3.5"
"1574966972257","214","0.049804688","-0.8310547","-0.25195312","2.5","1.90625","2.375"
"1574966972257","215","0.045898438","-0.8623047","-0.23925781","2.9375","1.5","3.125"
"1574966972257","216","0.029296875","-0.859375","-0.23730469","3.84375","0.46875","2.6875"
"1574966972259","217","0.038085938","-0.86035156","-0.23535156","8.5625","-3.28125","3.78125"
"1574966972259","218","0.043945312","-0.8535156","-0.234375","6.40625","-3.40625","3.1875"
"1574966972260","219","0.029296875","-0.8623047","-0.2265625","6.65625","-3.03125","2.625"
"1574966972653","220","0.043945312","-0.8486328","-0.25390625","9.71875","-0.9375","5.75"
"1574966972654","221","0.037109375","-0.8466797","-0.21191406","2.375","-2.125","0.5625"
"1574966972654","222","0.03515625","-0.8544922","-0.25","8.84375","0.40625","3.625"
"1574966972654","223","0.0390625","-0.86816406","-0.20800781","5.0","-1.0625","4.15625"
"1574966972655","224","0.009765625","-0.8769531","-0.20019531","3.65625","-0.59375","3.90625"
"1574966972655","225","0.0107421875","-0.85839844","-0.21191406","4.53125","-3.9375","3.5"
"1574966972655","226","0.0068359375","-0.8359375","-0.18066406","0.5625","-0.21875","3.3125"
"1574966972655","227","0.001953125","-0.85253906","-0.203125","2.25","-2.84375","1.65625"
"1574966972656","228","0.009765625","-0.8496094","-0.19042969","-4.03125","-4.0625","0.0"
"1574966972657","229","0.00390625","-0.8642578","-0.20703125","-3.0625","-5.28125","-3.21875"
"1574966973250","230","0.029296875","-0.859375","-0.23144531","-1.46875","-5.28125","-1.21875"
"1574966973251","231","0.041992188","-0.8730469","-0.2421875","-1.71875","-3.15625","-1.75"
"1574966973251","232","0.0390625","-0.84375","-0.25","-1.8125","-5.78125","-1.8125"
"1574966973251","233","0.046875","-0.8457031","-0.23632812","-3.34375","-4.125","-4.1875"
"1574966973251","234","0.0390625","-0.8417969","-0.24511719","-1.78125","-5.78125","-4.15625"
"1574966973252","235","0.044921875","-0.8535156","-0.234375","-5.96875","-4.0625","-3.53125"
"1574966973252","236","0.043945312","-0.88183594","-0.2265625","-4.03125","-2.96875","-8.0625"
"1574966973252","237","0.018554688","-0.85546875","-0.26660156","0.4375","-6.25","-2.25"
"1574966973252","238","0.068359375","-0.8408203","-0.23925781","-2.5625","-4.5625","-0.84375"
"1574966973252","239","0.038085938","-0.8613281","-0.25390625","-1.40625","-7.125","-1.875"
"1574966973844","240","0.021484375","-0.83203125","-0.26367188","0.5","-8.34375","0.25"
"1574966973846","241","0.049804688","-0.8261719","-0.22558594","-3.71875","-3.8125","-0.84375"
"1574966973846","242","0.07324219","-0.8310547","-0.25097656","-1.78125","-7.40625","-2.625"
"1574966973847","243","-0.0078125","-0.8808594","-0.234375","-5.1875","-3.34375","0.5625"
"1574966973847","244","0.04296875","-0.85058594","-0.2578125","0.6875","-6.25","2.28125"
"1574966973847","245","0.0546875","-0.85546875","-0.24414062","3.1875","-8.8125","6.25"
"1574966973848","246","0.053710938","-0.8408203","-0.26660156","11.1875","-12.59375","4.34375"
"1574966973848","247","0.048828125","-0.8173828","-0.2705078","1.90625","-11.875","2.625"
"1574966973848","248","0.07421875","-0.8642578","-0.28710938","5.0","-5.34375","3.90625"
"1574966973848","249","0.045898438","-0.86328125","-0.2626953","3.53125","-15.78125","2.21875"
"1574966974241","250","0.018554688","-0.82910156","-0.24316406","0.8125","-13.84375","2.625"
"1574966974241","251","0.0107421875","-0.83984375","-0.2421875","3.125","-8.46875","2.09375"
"1574966974242","252","0.0029296875","-0.8642578","-0.23535156","-0.84375","-7.46875","3.0"
"1574966974243","253","-0.015625","-0.8876953","-0.234375","1.46875","-9.3125","5.0"
"1574966974244","254","-0.03125","-0.8457031","-0.23535156","1.53125","-9.4375","7.15625"
"1574966974244","255","0.0234375","-0.8457031","-0.2626953","2.3125","-7.25","4.65625"
"1574966974244","256","0.0126953125","-0.86328125","-0.24902344","-0.25","-3.9375","3.84375"
"1574966974244","257","-0.0087890625","-0.8466797","-0.25878906","-3.71875","-0.46875","2.34375"
"1574966974245","258","0.005859375","-0.85839844","-0.2607422","-6.46875","3.9375","1.03125"
"1574966974245","259","0.009765625","-0.8642578","-0.30371094","-9.34375","3.5625","0.875"
"1574966974439","260","0.037109375","-0.85839844","-0.28808594","-3.15625","3.1875","3.625"
"1574966974439","261","-0.0107421875","-0.8486328","-0.2607422","4.75","-2.84375","4.40625"
"1574966974439","262","-0.0126953125","-0.7939453","-0.27734375","1.15625","-0.53125","6.59375"
"1574966974439","263","-0.001953125","-0.859375","-0.26464844","0.0","3.875","2.875"
"1574966974440","264","0.015625","-0.82910156","-0.27539062","-1.8125","-1.75","-0.34375"
"1574966974441","265","-0.00390625","-0.84472656","-0.2626953","-2.75","3.03125","-1.21875"
"1574966974441","266","0.013671875","-0.8691406","-0.27246094","-0.125","2.65625","-3.46875"
"1574966974442","267","0.015625","-0.85058594","-0.26367188","1.28125","2.59375","-3.15625"
"1574966974442","268","0.0029296875","-0.8564453","-0.25878906","3.0","1.4375","-3.46875"
"1574966974442","269","0.041992188","-0.8232422","-0.29492188","1.28125","0.34375","-3.65625"
"1574966974640","270","0.0234375","-0.8515625","-0.28027344","-0.65625","0.5","-5.25"
"1574966974640","271","0.013671875","-0.8623047","-0.22851562","5.8125","0.28125","-3.46875"
"1574966974640","272","0.056640625","-0.8378906","-0.28320312","-0.78125","-2.0625","-5.25"
"1574966974641","273","0.030273438","-0.85546875","-0.28027344","6.0","-1.8125","-3.28125"
"1574966974641","274","0.033203125","-0.8330078","-0.2734375","3.25","-1.3125","-3.28125"
"1574966974641","275","0.046875","-0.8515625","-0.27148438","3.46875","-2.34375","-3.78125"
"1574966974641","276","0.02734375","-0.83203125","-0.2626953","5.0625","-2.34375","-2.4375"
"1574966974643","277","0.025390625","-0.83203125","-0.27148438","2.625","1.78125","-2.125"
"1574966974643","278","0.033203125","-0.8798828","-0.24316406","3.71875","2.21875","-1.15625"
"1574966974643","279","0.049804688","-0.8457031","-0.26367188","5.375","-4.84375","-1.5625"
"1574966975434","280","0.044921875","-0.8652344","-0.2578125","6.15625","1.3125","0.9375"
"1574966975434","281","0.06347656","-0.8457031","-0.26660156","4.9375","-3.4375","0.6875"
"1574966975434","282","0.07714844","-0.8222656","-0.25585938","3.59375","-9.4375","1.90625"
"1574966975435","283","0.04296875","-0.8261719","-0.22753906","2.625","-5.34375","0.25"
"1574966975435","284","0.041992188","-0.8779297","-0.2421875","0.96875","-3.34375","-1.875"
"1574966975435","285","0.043945312","-0.8730469","-0.25","2.4375","-4.90625","-1.28125"
"1574966975436","286","0.059570312","-0.83203125","-0.24804688","3.375","-4.625","-0.53125"
"1574966975436","287","0.043945312","-0.8691406","-0.24804688","3.1875","-0.78125","0.0"
"1574966975436","288","0.0625","-0.8564453","-0.23828125","3.46875","-3.875","-0.0625"
"1574966975437","289","0.07519531","-0.8144531","-0.25585938","3.71875","-4.5625","0.75"
"1574966975437","290","0.037109375","-0.8642578","-0.24707031","3.53125","1.0625","1.53125"
"1574966975437","291","0.051757812","-0.83691406","-0.23632812","3.78125","-2.65625","1.21875"
"1574966975438","292","0.04296875","-0.8574219","-0.23046875","2.125","0.5","2.5625"
"1574966975438","293","0.030273438","-0.8798828","-0.20214844","4.40625","-1.8125","1.78125"
"1574966975438","294","0.0546875","-0.8408203","-0.2685547","7.03125","-3.5","2.9375"
"1574966975438","295","0.044921875","-0.8769531","-0.21679688","0.375","-4.75","0.4375"
"1574966975439","296","0.078125","-0.8330078","-0.265625","4.03125","-3.6875","2.15625"
"1574966975439","297","0.040039062","-0.8701172","-0.24609375","3.90625","-1.875","2.5"
"1574966975439","298","0.043945312","-0.83203125","-0.234375","3.84375","-3.40625","3.4375"
"1574966975439","299","0.03515625","-0.84277344","-0.23046875","7.28125","-0.59375","4.65625"
"1574966976032","300","0.013671875","-0.8574219","-0.20898438","2.9375","0.5","3.4375"
"1574966976033","301","0.03125","-0.8417969","-0.20605469","6.21875","-1.0","4.34375"
"1574966976033","302","0.018554688","-0.86621094","-0.20507812","4.8125","1.1875","4.03125"
"1574966976033","303","0.034179688","-0.8691406","-0.21679688","3.59375","1.6875","1.90625"
"1574966976034","304","0.0546875","-0.8623047","-0.21289062","6.46875","1.375","1.96875"
"1574966976034","305","0.0234375","-0.86035156","-0.20996094","5.8125","1.75","2.03125"
"1574966976034","306","0.060546875","-0.83984375","-0.22460938","3.53125","-0.71875","0.0625"
"1574966976034","307","0.07519531","-0.8466797","-0.22265625","1.90625","-2.46875","-1.28125"
"1574966976035","308","0.030273438","-0.87402344","-0.20605469","-2.625","-1.0625","-3.71875"
"1574966976035","309","0.04296875","-0.85253906","-0.21289062","-1.34375","-0.03125","-6.28125"
"1574966976231","310","0.06640625","-0.8798828","-0.20019531","1.65625","-3.5625","-7.5625"
"1574966976231","311","0.017578125","-0.8652344","-0.20800781","0.84375","-4.1875","-4.5625"
"1574966976232","312","0.0625","-0.82714844","-0.19433594","-0.5","-6.4375","-3.96875"
"1574966976233","313","0.076171875","-0.86816406","-0.203125","4.53125","-8.6875","-5.125"
"1574966976233","314","0.047851562","-0.8613281","-0.22460938","-2.4375","-6.3125","-4.5625"
"1574966976233","315","0.07421875","-0.8466797","-0.22167969","-0.59375","-6.375","-4.15625"
"1574966976234","316","0.07324219","-0.8388672","-0.21582031","3.125","-8.40625","-2.3125"
"1574966976234","317","0.060546875","-0.82714844","-0.2265625","-4.5","-4.0625","-1.09375"
"1574966976234","318","0.072265625","-0.8652344","-0.21386719","-3.0625","-1.4375","-2.0"
"1574966976234","319","0.060546875","-0.8300781","-0.2734375","-1.71875","-4.1875","-2.8125"
"1574966976628","320","0.052734375","-0.86328125","-0.19921875","-9.46875","-2.59375","-3.15625"
"1574966976629","321","0.07910156","-0.85839844","-0.2548828","-6.71875","3.4375","-2.125"
"1574966976629","322","0.06738281","-0.86816406","-0.24707031","-4.9375","-0.53125","-0.78125"
"1574966976629","323","0.06347656","-0.8496094","-0.25097656","-2.4375","-1.0","0.75"
"1574966976630","324","0.072265625","-0.82128906","-0.24023438","-3.53125","0.75","2.15625"
"1574966976630","325","0.08300781","-0.8408203","-0.25195312","-2.375","-0.03125","1.78125"
"1574966976630","326","0.078125","-0.8300781","-0.2626953","0.0","-1.875","2.15625"
"1574966976631","327","0.07421875","-0.8300781","-0.24511719","-1.53125","0.6875","1.40625"
"1574966976631","328","0.091796875","-0.85253906","-0.2607422","0.5625","-0.59375","-1.28125"
"1574966976631","329","0.08496094","-0.8457031","-0.2626953","2.625","-1.8125","0.375"
"1574966977026","330","0.08105469","-0.8486328","-0.2529297","0.6875","0.75","1.90625"
"1574966977026","331","0.06933594","-0.84765625","-0.24414062","2.6875","0.75","1.65625"
"1574966977027","332","0.080078125","-0.83203125","-0.24511719","0.5","-0.9375","1.53125"
"1574966977027","333","0.091796875","-0.83984375","-0.24707031","0.75","-3.09375","-0.28125"
"1574966977027","334","0.0703125","-0.83984375","-0.2529297","2.6875","-3.03125","-0.78125"
"1574966977027","335","0.08691406","-0.8496094","-0.2578125","-0.3125","-0.59375","-0.65625"
"1574966977027","336","0.08691406","-0.85839844","-0.25390625","2.4375","-1.5625","0.5"
"1574966977028","337","0.08105469","-0.83496094","-0.25390625","2.4375","-3.5625","0.375"
"1574966977028","338","0.08300781","-0.84472656","-0.2548828","1.15625","-2.0625","1.09375"
"1574966977028","339","0.08984375","-0.8388672","-0.2626953","2.875","-1.9375","2.09375"
"1574966977425","340","0.07421875","-0.8466797","-0.2529297","-0.125","-2.125","1.21875"
"1574966977425","341","0.078125","-0.8330078","-0.25390625","1.46875","-1.75","2.28125"
"1574966977426","342","0.076171875","-0.8339844","-0.27539062","-1.28125","-3.5","-0.46875"
"1574966977426","343","0.07519531","-0.85546875","-0.21679688","2.875","-2.125","-0.53125"
"1574966977426","344","0.09667969","-0.85546875","-0.2548828","-1.03125","-0.34375","-1.875"
"1574966977426","345","0.1015625","-0.8496094","-0.2919922","3.25","-4.5625","0.5"
"1574966977427","346","0.099609375","-0.83496094","-0.23242188","1.15625","-4.5","1.03125"
"1574966977427","347","0.07714844","-0.85058594","-0.22949219","5.375","-3.75","-1.09375"
"1574966977427","348","0.087890625","-0.8300781","-0.25976562","7.625","-6.625","2.09375"
"1574966977428","349","0.08984375","-0.8496094","-0.24121094","0.3125","-2.90625","1.15625"
"1574966977821","350","0.06640625","-0.8378906","-0.2529297","2.5625","-1.375","0.5625"
"1574966977822","351","0.05859375","-0.8486328","-0.2265625","-2.375","1.0","2.375"
"1574966977822","352","0.111328125","-0.85546875","-0.23535156","3.0625","1.375","1.84375"
"1574966977822","353","0.09277344","-0.87597656","-0.24804688","5.0","-1.625","3.78125"
"1574966977823","354","0.076171875","-0.8300781","-0.23339844","2.75","-4.1875","5.0"
"1574966977823","355","0.09082031","-0.82421875","-0.21191406","7.625","-5.40625","6.65625"
"1574966977823","356","0.078125","-0.8544922","-0.23828125","5.375","-7.90625","6.46875"
"1574966977823","357","0.0625","-0.8408203","-0.22851562","7.8125","-8.9375","7.03125"
"1574966977824","358","0.04296875","-0.85058594","-0.23632812","7.03125","-5.59375","7.6875"
"1574966977824","359","0.08203125","-0.86035156","-0.22558594","9.03125","-12.375","4.9375"
"1574966978418","360","0.030273438","-0.82128906","-0.22460938","6.96875","-11.75","3.375"
"1574966978420","361","0.0029296875","-0.8671875","-0.21777344","-0.25","-4.375","3.84375"
"1574966978420","362","0.0087890625","-0.88671875","-0.22851562","0.25","-2.53125","0.5"
"1574966978420","363","0.0625","-0.8330078","-0.25","-7.1875","-2.96875","-0.0625"
"1574966978421","364","0.024414062","-0.92089844","-0.23828125","-6.28125","3.9375","2.8125"
"1574966978421","365","0.03125","-0.85546875","-0.22363281","-9.59375","1.78125","2.4375"
"1574966978422","366","0.060546875","-0.8359375","-0.26464844","-4.40625","4.0625","2.09375"
"1574966978422","367","0.041015625","-0.8652344","-0.28222656","-6.34375","4.96875","0.0"
"1574966978422","368","0.05859375","-0.8076172","-0.22558594","-10.0","-1.0","-2.90625"
"1574966978423","369","0.06738281","-0.8388672","-0.25683594","-7.0625","1.5","-3.78125"
"1574966978615","370","0.037109375","-0.8515625","-0.2763672","-5.78125","1.3125","-1.75"
"1574966978615","371","0.0703125","-0.84375","-0.2685547","0.1875","1.6875","-2.5625"
"1574966978616","372","0.061523438","-0.8486328","-0.2626953","2.125","1.75","-2.6875"
"1574966978617","373","0.0703125","-0.8359375","-0.25683594","2.09375","5.28125","-3.46875"
"1574966978617","374","0.07421875","-0.84375","-0.2685547","0.84375","6.1875","-3.96875"
"1574966978617","375","0.078125","-0.85546875","-0.25390625","3.375","1.6875","-4.3125"
"1574966978618","376","0.09375","-0.828125","-0.2578125","2.8125","-1.75","-5.84375"
"1574966978618","377","0.0859375","-0.85058594","-0.26367188","1.34375","-2.15625","-4.1875"
"1574966978618","378","0.0859375","-0.8417969","-0.24511719","1.15625","-5.34375","-6.09375"
"1574966978618","379","0.091796875","-0.8203125","-0.28125","4.28125","-5.96875","-6.53125"
"1574966979014","380","0.0859375","-0.8574219","-0.26171875","2.4375","-6.3125","-6.28125"
"1574966979014","381","0.095703125","-0.82910156","-0.2763672","4.28125","-5.34375","-3.21875"
"1574966979015","382","0.099609375","-0.86621094","-0.25683594","7.15625","-2.15625","-2.90625"
"1574966979015","383","0.12109375","-0.8496094","-0.23730469","5.8125","-6.8125","-1.40625"
"1574966979015","384","0.10644531","-0.82910156","-0.24023438","7.5625","-6.9375","-0.0625"
"1574966979016","385","0.103515625","-0.83496094","-0.22851562","6.71875","-4.125","1.09375"
"1574966979016","386","0.10839844","-0.8261719","-0.24121094","4.65625","-4.375","1.90625"
"1574966979018","387","0.10253906","-0.87109375","-0.23339844","3.90625","-5.65625","2.75"
"1574966979019","388","0.091796875","-0.8535156","-0.23339844","-0.4375","-6.3125","2.375"
"1574966979019","389","0.09472656","-0.85839844","-0.2421875","-1.875","-6.3125","1.34375"
"1574966979411","390","0.099609375","-0.84765625","-0.24804688","-2.625","-7.0625","1.96875"
"1574966979412","391","0.1015625","-0.8730469","-0.22949219","-2.625","-4.78125","2.875"
"1574966979412","392","0.10449219","-0.8330078","-0.28808594","1.09375","-6.9375","0.6875"
"1574966979412","393","0.09765625","-0.83984375","-0.23242188","-5.4375","-7.59375","0.9375"
"1574966979412","394","0.115234375","-0.86035156","-0.2861328","-3.46875","-4.375","0.375"
"1574966979413","395","0.095703125","-0.8183594","-0.27148438","-2.5625","-10.90625","0.625"
"1574966979413","396","0.06640625","-0.8222656","-0.27929688","-7.25","-4.96875","2.15625"
"1574966979414","397","0.095703125","-0.85839844","-0.27929688","-3.28125","-4.125","2.21875"
"1574966979415","398","0.068359375","-0.8378906","-0.2578125","-2.5625","-5.71875","3.5"
"1574966979415","399","0.076171875","-0.8310547","-0.2763672","1.15625","-2.96875","2.8125"
"1574966979810","400","0.08496094","-0.82714844","-0.27441406","0.625","-3.4375","2.75"
"1574966979810","401","0.07910156","-0.82910156","-0.27246094","0.1875","-4.3125","0.0625"
"1574966979811","402","0.08203125","-0.8515625","-0.29882812","0.90625","-3.21875","1.78125"
"1574966979811","403","0.072265625","-0.8613281","-0.31347656","2.75","-1.1875","3.25"
"1574966979811","404","0.10546875","-0.8496094","-0.30078125","7.21875","-2.15625","4.46875"
"1574966979811","405","0.09863281","-0.84375","-0.28710938","10.5625","-2.15625","6.78125"
"1574966979812","406","0.0703125","-0.83203125","-0.26367188","9.03125","0.34375","8.75"
"1574966979812","407","0.080078125","-0.81347656","-0.24902344","8.65625","-2.78125","8.0"
"1574966979812","408","0.0625","-0.83496094","-0.23046875","7.5","-1.125","8.0"
"1574966979813","409","0.033203125","-0.84277344","-0.22167969","4.40625","-4.3125","4.40625"
"1574966980802","410","0.056640625","-0.8261719","-0.23535156","0.125","-4.4375","1.84375"
"1574966980802","411","0.053710938","-0.85839844","-0.234375","1.34375","-2.46875","-0.65625"
"1574966980802","412","0.053710938","-0.85253906","-0.25","7.625","-5.46875","-3.28125"
"1574966980803","413","0.07519531","-0.85058594","-0.2421875","2.375","0.5","-4.15625"
"1574966980803","414","0.06933594","-0.89941406","-0.21972656","4.21875","-1.3125","-4.9375"
"1574966980803","415","0.10546875","-0.8330078","-0.23535156","9.09375","-8.40625","-2.0"
"1574966980803","416","0.064453125","-0.84277344","-0.21972656","0.625","-8.65625","-3.21875"
"1574966980803","417","0.06738281","-0.8691406","-0.25195312","1.53125","-7.125","-2.875"
"1574966980804","418","0.052734375","-0.8720703","-0.25","-2.25","-8.03125","-1.6875"
"1574966980804","419","0.10253906","-0.8564453","-0.26953125","2.125","-14.5625","-5.53125"
"1574966981196","420","0.10546875","-0.85253906","-0.24414062","1.84375","-12.71875","2.21875"
"1574966981197","421","0.040039062","-0.8691406","-0.21875","-3.0625","-6.875","3.90625"
"1574966981197","422","0.06640625","-0.7988281","-0.23828125","1.78125","-10.46875","0.75"
"1574966981198","423","0.06640625","-0.8359375","-0.24707031","-2.1875","-7.1875","1.84375"
"1574966981198","424","0.0859375","-0.84375","-0.26757812","-1.59375","-7.125","-0.59375"
"1574966981199","425","0.08984375","-0.8417969","-0.25585938","-3.28125","-4.5625","-0.0625"
"1574966981199","426","0.056640625","-0.8808594","-0.2685547","-2.375","-3.625","1.28125"
"1574966981200","427","0.078125","-0.85058594","-0.27539062","-0.84375","-3.4375","3.71875"
"1574966981200","428","0.078125","-0.8408203","-0.2861328","0.1875","-5.65625","4.09375"
"1574966981200","429","0.06933594","-0.8203125","-0.27148438","-1.46875","-5.34375","5.0"
"1574966981201","430","0.03515625","-0.84375","-0.2548828","2.1875","-1.25","5.875"
"1574966981201","431","0.0546875","-0.83203125","-0.27148438","-0.90625","-1.8125","5.25"
"1574966981201","432","0.052734375","-0.86035156","-0.25585938","-0.1875","-0.59375","6.0625"
"1574966981202","433","0.05078125","-0.85253906","-0.25976562","2.625","-4.3125","6.46875"
"1574966981202","434","0.051757812","-0.8300781","-0.24902344","2.1875","-3.40625","5.75"
"1574966981202","435","0.036132812","-0.8496094","-0.26171875","6.78125","-4.3125","4.71875"
"1574966981202","436","0.061523438","-0.8300781","-0.26464844","-2.1875","-5.78125","4.34375"
"1574966981202","437","0.04296875","-0.8613281","-0.2783203","-2.75","-3.03125","-0.84375"
"1574966981203","438","0.040039062","-0.8691406","-0.27246094","-5.96875","-4.6875","-3.40625"
"1574966981203","439","0.049804688","-0.8378906","-0.26953125","0.25","-0.9375","-1.21875"
"1574966981398","440","0.032226562","-0.84375","-0.27148438","-1.46875","-2.53125","-2.625"
"1574966981399","441","0.064453125","-0.8261719","-0.28125","1.65625","-3.75","-2.375"
"1574966981399","442","0.060546875","-0.8310547","-0.25878906","1.59375","-5.34375","-2.3125"
"1574966981399","443","0.047851562","-0.83984375","-0.27148438","0.8125","-7.46875","-3.84375"
"1574966981400","444","0.053710938","-0.859375","-0.27246094","4.09375","-5.46875","-4.6875"
"1574966981401","445","0.068359375","-0.8564453","-0.2763672","2.4375","-4.5","-5.125"
"1574966981401","446","0.08105469","-0.84375","-0.28808594","3.59375","-6.75","-4.03125"
"1574966981401","447","0.083984375","-0.8515625","-0.27539062","1.65625","-10.21875","-3.15625"
"1574966981402","448","0.072265625","-0.84765625","-0.2763672","2.875","-7.90625","-3.28125"
"1574966981402","449","0.083984375","-0.84375","-0.2578125","2.25","-5.34375","-2.3125"
"1574966981796","450","0.083984375","-0.86035156","-0.27148438","5.3125","-7.25","-1.03125"
"1574966981797","451","0.080078125","-0.8466797","-0.28222656","2.875","-8.46875","-1.34375"
"1574966981797","452","0.07519531","-0.83203125","-0.2607422","3.84375","-6.4375","0.1875"
"1574966981797","453","0.06738281","-0.828125","-0.24316406","1.46875","-5.21875","1.53125"
"1574966981797","454","0.060546875","-0.84375","-0.26171875","2.375","-3.40625","2.15625"
"1574966981798","455","0.06933594","-0.85058594","-0.2705078","3.0","-2.78125","3.71875"
"1574966981798","456","0.06933594","-0.8496094","-0.25","4.71875","-6.375","3.71875"
"1574966981799","457","0.053710938","-0.83984375","-0.2548828","2.25","-3.15625","3.78125"
"1574966981800","458","0.061523438","-0.8496094","-0.26660156","1.21875","-0.34375","4.34375"
"1574966981800","459","0.06347656","-0.84375","-0.25976562","1.28125","-4.75","2.4375"
"1574966982192","460","0.041992188","-0.8232422","-0.2763672","0.625","-4.6875","2.5"
"1574966982193","461","0.07421875","-0.8701172","-0.28808594","1.03125","-1.875","5.0"
"1574966982193","462","0.09765625","-0.8730469","-0.26660156","-0.3125","-8.03125","4.90625"
"1574966982193","463","0.060546875","-0.8408203","-0.28125","1.53125","-8.9375","5.25"
"1574966982193","464","0.030273438","-0.8486328","-0.20800781","-3.21875","-9.875","3.84375"
"1574966982194","465","0.0087890625","-0.81933594","-0.3173828","-4.8125","-3.34375","4.15625"
"1574966982194","466","0.0390625","-0.8691406","-0.28222656","-4.21875","-5.40625","5.125"
"1574966982194","467","0.06933594","-0.86621094","-0.2626953","-3.34375","-9.125","3.84375"
"1574966982194","468","0.033203125","-0.8222656","-0.3017578","-0.84375","-8.65625","2.375"
"1574966982195","469","0.016601562","-0.8339844","-0.29882812","0.0","0.5625","4.21875"
"1574966982789","470","0.033203125","-0.859375","-0.2783203","6.03125","-0.71875","7.53125"
"1574966982790","471","0.032226562","-0.83691406","-0.26464844","5.1875","-4.84375","6.84375"
"1574966982790","472","0.005859375","-0.81347656","-0.2705078","2.875","-3.4375","6.46875"
"1574966982790","473","0.018554688","-0.84472656","-0.26367188","3.71875","3.125","4.71875"
"1574966982790","474","0.0234375","-0.8623047","-0.2734375","2.3125","0.09375","2.21875"
"1574966982791","475","0.015625","-0.8359375","-0.28515625","2.5625","-1.875","-0.34375"
"1574966982791","476","0.0390625","-0.8417969","-0.28515625","1.59375","-2.34375","-3.21875"
"1574966982791","477","0.028320312","-0.8642578","-0.2626953","6.15625","-0.46875","-1.75"
"1574966982792","478","0.017578125","-0.8408203","-0.26660156","5.1875","-4.78125","-3.34375"
"1574966982792","479","0.03125","-0.8378906","-0.26171875","4.71875","-0.28125","-1.40625"
"1574966983582","480","0.009765625","-0.86328125","-0.2578125","7.875","-0.59375","-1.03125"
"1574966983583","481","0.0390625","-0.82910156","-0.2763672","5.375","-4.5625","-0.125"
"1574966983583","482","0.026367188","-0.87109375","-0.25878906","7.09375","0.875","-0.53125"
"1574966983583","483","0.032226562","-0.85253906","-0.24023438","8.65625","-4.1875","-1.875"
"1574966983584","484","0.03515625","-0.8408203","-0.21875","2.4375","-2.65625","-1.9375"
"1574966983585","485","0.038085938","-0.8466797","-0.23925781","14.53125","-3.15625","-1.53125"
"1574966983586","486","0.05078125","-0.84472656","-0.20898438","4.09375","-4.96875","-3.78125"
"1574966983586","487","0.028320312","-0.88183594","-0.23632812","7.28125","-2.15625","-3.03125"
"1574966983586","488","0.05859375","-0.8515625","-0.22558594","6.78125","-2.0","-1.625"
"1574966983586","489","0.043945312","-0.86816406","-0.22363281","6.21875","-1.8125","-0.84375"
"1574966983779","490","0.052734375","-0.8388672","-0.22070312","5.8125","-1.625","0.0"
"1574966983779","491","0.044921875","-0.84472656","-0.2265625","0.96875","2.03125","-0.34375"
"1574966983780","492","0.05078125","-0.8779297","-0.20898438","1.28125","0.875","-1.21875"
"1574966983781","493","0.046875","-0.84472656","-0.20507812","2.03125","-2.0625","1.65625"
"1574966983781","494","0.052734375","-0.859375","-0.24609375","0.4375","-0.78125","2.375"
"1574966983782","495","0.0703125","-0.8925781","-0.23046875","0.5","-2.0","0.625"
"1574966983782","496","0.043945312","-0.8261719","-0.203125","0.625","-5.09375","3.78125"
"1574966983783","497","0.0390625","-0.8310547","-0.21875","-0.125","-0.65625","2.75"
"1574966983783","498","0.04296875","-0.8564453","-0.2265625","1.53125","-3.34375","2.875"
"1574966983783","499","0.037109375","-0.8544922","-0.21972656","-2.625","-1.25","3.84375"
"1574966983979","500","0.005859375","-0.87109375","-0.20800781","-4.34375","1.25","2.6875"
"1574966983980","501","0.043945312","-0.85058594","-0.2548828","-11.53125","-2.65625","0.5625"
"1574966983980","502","0.041015625","-0.86621094","-0.24121094","-10.96875","1.125","0.375"
"1574966983980","503","0.04296875","-0.85253906","-0.25390625","-5.0625","0.34375","3.375"
"1574966983980","504","0.061523438","-0.8251953","-0.25097656","0.1875","-0.65625","2.875"
"1574966983982","505","0.037109375","-0.8388672","-0.23535156","1.84375","-2.34375","3.5"
"1574966983982","506","0.033203125","-0.80859375","-0.24023438","-2.0625","-1.1875","3.0"
"1574966983983","507","0.03515625","-0.8701172","-0.25","-1.59375","-1.3125","1.0"
"1574966983983","508","0.034179688","-0.8779297","-0.29101562","2.3125","-6.3125","-0.40625"
"1574966983983","509","-0.0048828125","-0.859375","-0.23339844","0.96875","-2.65625","2.03125"
"1574966984180","510","0.057617188","-0.83203125","-0.28027344","-0.4375","-2.28125","-0.90625"
"1574966984180","511","0.053710938","-0.859375","-0.2763672","3.1875","-1.0","1.46875"
"1574966984181","512","0.0126953125","-0.83691406","-0.25","0.4375","-3.03125","0.5625"
"1574966984181","513","0.055664062","-0.81347656","-0.25878906","0.75","-0.46875","-2.0625"
"1574966984181","514","0.043945312","-0.87597656","-0.25390625","4.9375","-2.34375","-2.25"
"1574966984181","515","0.060546875","-0.8574219","-0.23925781","4.34375","-10.03125","-5.0625"
"1574966984182","516","0.028320312","-0.84472656","-0.25","-3.59375","-3.5625","-7.4375"
"1574966984183","517","0.057617188","-0.87109375","-0.26367188","-2.4375","-0.65625","-10.5625"
"1574966984184","518","0.064453125","-0.8808594","-0.25683594","12.09375","-5.34375","-7.6875"
"1574966984184","519","0.03125","-0.8232422","-0.23828125","11.125","-9.96875","0.125"
"1574966984577","520","0.07519531","-0.82128906","-0.25585938","3.125","-2.71875","-0.96875"
"1574966984578","521","0.11328125","-0.86035156","-0.25195312","3.3125","-5.96875","-3.34375"
"1574966984578","522","0.05859375","-0.8330078","-0.24609375","3.53125","-5.15625","-3.15625"
"1574966984578","523","0.080078125","-0.8310547","-0.24902344","-1.28125","-3.875","-7.6875"
"1574966984578","524","0.09082031","-0.8691406","-0.2265625","1.21875","-4.3125","-5.0625"
"1574966984579","525","0.041015625","-0.8535156","-0.24804688","-0.4375","-3.21875","-2.4375"
"1574966984579","526","0.064453125","-0.8564453","-0.26171875","-0.71875","-2.96875","-1.46875"
"1574966984579","527","0.07324219","-0.859375","-0.2548828","-0.0625","-2.96875","0.5"
"1574966984580","528","0.064453125","-0.83984375","-0.25","-0.25","0.5","2.03125"
"1574966984580","529","0.07421875","-0.84765625","-0.23632812","-0.3125","2.65625","1.90625"
"1574966984978","530","0.056640625","-0.8378906","-0.23828125","-2.3125","4.375","2.6875"
"1574966984978","531","0.0546875","-0.8310547","-0.234375","-3.28125","8.375","5.0625"
"1574966984978","532","0.09082031","-0.8652344","-0.22753906","-4.5625","8.3125","3.84375"
"1574966984979","533","0.08300781","-0.87890625","-0.22753906","-1.40625","1.78125","2.15625"
"1574966984979","534","0.09765625","-0.8388672","-0.27929688","0.84375","2.90625","0.3125"
"1574966984979","535","0.09765625","-0.8613281","-0.2421875","-3.28125","-1.5","-1.6875"
"1574966984979","536","0.12792969","-0.82714844","-0.29785156","-2.875","-3.40625","-0.0625"
"1574966984980","537","0.10253906","-0.8408203","-0.28515625","-6.84375","-5.40625","-2.8125"
"1574966984980","538","0.10839844","-0.8359375","-0.30273438","1.15625","-5.40625","-1.40625"
"1574966984980","539","0.0625","-0.8378906","-0.23828125","4.8125","-9.375","0.625"
"1574966985573","540","0.047851562","-0.78222656","-0.26953125","0.3125","-7.40625","-1.34375"
"1574966985573","541","0.09277344","-0.84765625","-0.28808594","1.15625","-3.8125","-1.28125"
"1574966985574","542","0.04296875","-0.8730469","-0.25878906","-0.3125","-3.6875","-0.59375"
"1574966985574","543","0.08105469","-0.8232422","-0.27441406","2.125","-7.3125","-0.59375"
"1574966985574","544","0.103515625","-0.8876953","-0.29003906","-0.125","-4.0625","-1.75"
"1574966985575","545","0.087890625","-0.8310547","-0.3046875","3.25","-8.875","-0.25"
"1574966985575","546","0.13574219","-0.8300781","-0.23925781","-1.875","-2.59375","1.03125"
"1574966985576","547","0.10253906","-0.83203125","-0.296875","4.59375","-8.15625","-5.125"
"1574966985576","548","0.07421875","-0.83691406","-0.2548828","2.5625","-3.15625","0.8125"
"1574966985576","549","0.115234375","-0.84277344","-0.25976562","6.28125","-1.375","-2.25"
"1574966985770","550","0.08203125","-0.8330078","-0.25976562","2.6875","-2.125","-1.28125"
"1574966985770","551","0.0703125","-0.8378906","-0.27539062","5.6875","-0.53125","0.0"
"1574966985771","552","0.10449219","-0.82910156","-0.26464844","9.46875","0.625","3.0625"
"1574966985772","553","0.09375","-0.8261719","-0.20019531","9.78125","-1.3125","6.34375"
"1574966985772","554","0.038085938","-0.7910156","-0.27246094","14.53125","-1.0625","2.75"
"1574966985772","555","0.05859375","-0.8535156","-0.24121094","10.9375","5.59375","6.125"
"1574966985773","556","0.059570312","-0.86621094","-0.21289062","17.75","4.59375","1.40625"
"1574966985773","557","0.061523438","-0.859375","-0.27734375","14.53125","-4.78125","2.75"
"1574966985773","558","0.06640625","-0.8828125","-0.21191406","10.75","4.125","5.6875"
"1574966985773","559","0.12402344","-0.8330078","-0.22460938","4.21875","5.59375","-2.90625"
