"# PR data"
"# Start time: 20191114T222536"
"# Subject: Adela"
"# Activity type: Squats"
"# Correctness: Incorrect"
"# Notes: "
""
"timestamp","seq","accel_x","accel_y","accel_z","gyro_x","gyro_y","gyro_z"
"1573770336426","0","-0.037109375","-1.0","-0.15917969","7.78125","-3.03125","-2.03125"
"1573770336427","1","-0.030273438","-1.0166016","-0.12402344","8.53125","1.5","-1.71875"
"1573770336427","2","-0.015625","-0.99121094","-0.13867188","3.75","-3.5625","-0.625"
"1573770336427","3","-0.040039062","-1.0214844","-0.1328125","15.96875","-0.34375","-3.4375"
"1573770336428","4","-0.029296875","-0.9941406","-0.119140625","3.21875","-1.375","-1.625"
"1573770336428","5","-0.02734375","-1.0048828","-0.12695312","12.375","-0.46875","-3.25"
"1573770336428","6","-0.033203125","-1.0058594","-0.107421875","8.9375","-0.65625","-2.21875"
"1573770336428","7","-0.016601562","-1.0068359","-0.1015625","7.5625","0.34375","-2.40625"
"1573770336428","8","-0.020507812","-1.0019531","-0.099609375","8.28125","0.40625","-2.15625"
"1573770336429","9","-0.020507812","-1.0097656","-0.09375","5.15625","0.6875","-1.375"
"1573770337019","10","-0.015625","-1.0029297","-0.08886719","3.59375","2.59375","-1.125"
"1573770337020","11","-0.01953125","-1.0","-0.08300781","-0.09375","3.125","-0.15625"
"1573770337020","12","-0.026367188","-0.9970703","-0.08105469","-2.53125","2.34375","0.34375"
"1573770337021","13","-0.0234375","-0.9902344","-0.09082031","-4.65625","0.8125","0.96875"
"1573770337022","14","-0.022460938","-0.9902344","-0.08496094","-4.28125","-1.0","0.65625"
"1573770337023","15","-0.0126953125","-1.0214844","-0.10546875","0.40625","8.21875","2.53125"
"1573770337023","16","9.765625E-4","-0.9951172","-0.08984375","-6.375","5.03125","1.25"
"1573770337023","17","-0.028320312","-1.0263672","-0.12597656","4.3125","-5.03125","-0.21875"
"1573770337023","18","-0.0234375","-1.0039062","-0.10058594","-1.53125","0.09375","1.4375"
"1573770337024","19","-0.025390625","-0.99902344","-0.10253906","3.28125","-2.1875","-1.1875"
"1573770337419","20","-0.030273438","-1.0058594","-0.11230469","1.3125","-1.5","-0.21875"
"1573770337419","21","-0.001953125","-1.0185547","-0.08886719","0.65625","-0.21875","0.59375"
"1573770337420","22","-0.0234375","-1.0029297","-0.09375","-0.6875","-0.9375","-0.03125"
"1573770337420","23","-0.026367188","-1.0068359","-0.095703125","-1.78125","-1.625","1.0"
"1573770337420","24","-0.030273438","-1.0029297","-0.1015625","-3.0625","-1.0625","-0.09375"
"1573770337421","25","-0.026367188","-1.0058594","-0.109375","-4.15625","-0.71875","0.59375"
"1573770337422","26","-0.01953125","-1.0097656","-0.10644531","-2.15625","-1.0625","0.15625"
"1573770337422","27","-0.02734375","-1.0068359","-0.09667969","-1.90625","-2.53125","0.78125"
"1573770337422","28","-0.026367188","-1.0097656","-0.1015625","-3.5625","-4.5625","1.875"
"1573770337422","29","-0.020507812","-1.0029297","-0.111328125","-0.15625","0.5625","1.8125"
"1573770337620","30","-0.026367188","-1.0117188","-0.095703125","-8.1875","1.4375","1.6875"
"1573770337620","31","-0.038085938","-1.0009766","-0.13378906","-2.78125","-12.1875","1.375"
"1573770337620","32","-0.044921875","-1.0107422","-0.115234375","-6.5","-7.53125","5.40625"
"1573770337621","33","-0.051757812","-1.0039062","-0.125","-6.3125","-4.4375","4.5"
"1573770337621","34","-0.056640625","-1.0126953","-0.15332031","-0.5625","-0.15625","4.25"
"1573770337621","35","-0.048828125","-1.0097656","-0.125","-0.875","4.65625","2.90625"
"1573770337621","36","-0.046875","-1.0097656","-0.12597656","4.125","2.53125","1.375"
"1573770337622","37","-0.05078125","-0.9980469","-0.123046875","6.5625","2.03125","1.0"
"1573770337623","38","-0.049804688","-0.9941406","-0.12695312","8.03125","5.625","0.71875"
"1573770337623","39","-0.040039062","-0.9951172","-0.12011719","3.875","4.59375","0.71875"
"1573770338018","40","-0.0390625","-1.0009766","-0.12011719","3.09375","5.09375","0.15625"
"1573770338018","41","-0.03515625","-1.0097656","-0.099609375","3.65625","5.8125","-0.8125"
"1573770338019","42","-0.03515625","-1.0214844","-0.09863281","0.03125","3.3125","-1.375"
"1573770338019","43","-0.0126953125","-0.9892578","-0.10449219","1.4375","5.34375","-2.21875"
"1573770338019","44","-0.028320312","-0.98535156","-0.072265625","-7.59375","4.40625","-3.25"
"1573770338019","45","-0.026367188","-0.9111328","-0.10253906","-7.46875","0.75","-1.0625"
"1573770338020","46","-0.041992188","-0.8847656","-0.12792969","-7.53125","6.5625","2.90625"
"1573770338020","47","-0.029296875","-0.87109375","-0.15820312","-3.25","2.59375","2.46875"
"1573770338020","48","-0.0048828125","-0.9638672","-0.19238281","-2.65625","-8.15625","3.15625"
"1573770338022","49","-0.0146484375","-0.99316406","-0.140625","-1.59375","-13.03125","-1.5"
"1573770338415","50","-0.06933594","-0.92578125","-0.11328125","-0.5625","-15.0","-1.0"
"1573770338415","51","-0.078125","-0.93066406","-0.072265625","-0.25","-1.875","2.0"
"1573770338415","52","-0.12109375","-0.95996094","-0.08105469","2.25","5.9375","-2.40625"
"1573770338416","53","-0.051757812","-0.96191406","-0.13085938","-1.90625","6.875","-4.0625"
"1573770338416","54","-0.025390625","-1.0166016","-0.14355469","-5.875","13.15625","-4.25"
"1573770338416","55","0.0107421875","-0.96972656","-0.15527344","2.0625","9.3125","-5.03125"
"1573770338416","56","0.025390625","-1.0166016","-0.16699219","0.59375","-2.46875","-0.4375"
"1573770338416","57","-0.0078125","-1.0244141","-0.15722656","2.125","1.0","-4.40625"
"1573770338417","58","-0.05859375","-1.0351562","-0.11621094","-3.25","2.34375","-4.28125"
"1573770338417","59","-0.01953125","-1.0087891","-0.12988281","-3.8125","2.28125","-2.03125"
"1573770338812","60","-0.03125","-1.0322266","-0.12402344","-3.125","6.625","-3.3125"
"1573770338813","61","-0.01953125","-1.0048828","-0.14160156","-9.1875","3.625","-2.53125"
"1573770338814","62","-0.022460938","-1.0019531","-0.14550781","-7.65625","9.90625","-0.8125"
"1573770338814","63","-0.0078125","-1.0126953","-0.16796875","-6.3125","9.25","-1.3125"
"1573770338814","64","9.765625E-4","-1.0292969","-0.16992188","-1.96875","1.78125","-2.46875"
"1573770338815","65","-0.04296875","-1.0234375","-0.14746094","-3.0625","0.8125","-2.46875"
"1573770338815","66","-0.028320312","-1.0253906","-0.16210938","-3.75","6.25","-1.5"
"1573770338815","67","-0.001953125","-1.0527344","-0.16601562","-0.4375","1.71875","-1.90625"
"1573770338816","68","-0.0146484375","-1.0263672","-0.16796875","-5.21875","1.3125","-1.3125"
"1573770338816","69","0.009765625","-1.0605469","-0.17382812","-6.0625","4.3125","2.125"
"1573770339209","70","0.0","-1.0751953","-0.16210938","-5.625","-0.09375","4.75"
"1573770339210","71","9.765625E-4","-1.0273438","-0.15625","-12.90625","6.0","1.0"
"1573770339210","72","0.053710938","-0.95214844","-0.13183594","-10.59375","-5.53125","-6.625"
"1573770339211","73","0.038085938","-0.9824219","-0.25","2.90625","-19.25","-0.21875"
"1573770339212","74","-0.034179688","-1.0146484","-0.17675781","-3.625","-8.59375","3.40625"
"1573770339212","75","-0.06347656","-1.0205078","-0.16308594","-7.84375","-4.90625","5.78125"
"1573770339215","76","-0.06640625","-1.1201172","-0.22753906","-7.09375","1.0","1.25"
"1573770339216","77","0.018554688","-1.1005859","-0.2763672","-8.5","1.3125","0.46875"
"1573770339216","78","0.0048828125","-1.1572266","-0.26367188","-7.96875","-8.71875","3.34375"
"1573770339216","79","-0.045898438","-1.1591797","-0.24902344","2.84375","-9.4375","0.59375"
"1573770339608","80","-0.06542969","-1.0693359","-0.24902344","-2.8125","-3.15625","-0.625"
"1573770339608","81","-0.018554688","-0.9785156","-0.22460938","1.8125","-2.53125","-1.90625"
"1573770339609","82","-0.07421875","-1.0087891","-0.21191406","-3.1875","-2.96875","-1.375"
"1573770339609","83","-0.016601562","-1.0380859","-0.20507812","-3.0","-1.5625","0.34375"
"1573770339609","84","-0.078125","-1.0693359","-0.22558594","-1.125","0.8125","4.75"
"1573770339610","85","-0.026367188","-0.98339844","-0.2705078","18.21875","9.96875","0.90625"
"1573770339610","86","0.009765625","-0.9589844","-0.18554688","-16.3125","-0.15625","4.8125"
"1573770339610","87","-0.060546875","-0.96972656","-0.22167969","14.6875","7.21875","-1.25"
"1573770339611","88","-0.009765625","-1.0341797","-0.20703125","-5.03125","-4.25","1.3125"
"1573770339611","89","-0.043945312","-0.9716797","-0.21582031","10.78125","-0.90625","-3.9375"
"1573770340005","90","0.024414062","-0.9589844","-0.24511719","7.96875","-4.90625","-1.3125"
"1573770340006","91","-0.040039062","-0.9277344","-0.17382812","3.34375","-1.1875","-4.78125"
"1573770340006","92","-0.032226562","-0.9736328","-0.18945312","4.875","6.5625","-0.5625"
"1573770340006","93","0.0126953125","-0.96484375","-0.17089844","-0.625","-1.6875","-1.78125"
"1573770340006","94","-0.040039062","-1.0185547","-0.18554688","-3.5625","-1.3125","-0.5"
"1573770340007","95","-0.0126953125","-1.0253906","-0.18164062","-1.0","3.0","-1.625"
"1573770340007","96","-0.038085938","-1.0048828","-0.20214844","-2.875","-0.46875","-0.6875"
"1573770340007","97","9.765625E-4","-1.0429688","-0.19433594","-7.71875","2.96875","1.0625"
"1573770340007","98","-0.047851562","-0.94921875","-0.19042969","2.65625","1.78125","-1.4375"
"1573770340008","99","0.001953125","-1.0039062","-0.21875","6.21875","0.21875","0.46875"
"1573770340403","100","-0.0078125","-0.9589844","-0.19335938","-6.5625","0.28125","1.5"
"1573770340403","101","-0.022460938","-1.015625","-0.19433594","8.40625","1.625","1.0625"
"1573770340403","102","-0.0390625","-0.984375","-0.17773438","-5.15625","-1.1875","1.9375"
"1573770340404","103","-0.025390625","-1.0097656","-0.18652344","1.75","2.90625","0.84375"
"1573770340404","104","-0.029296875","-0.98828125","-0.23242188","1.25","3.0","1.75"
"1573770340404","105","-0.01171875","-0.99316406","-0.20214844","-0.875","3.5","2.25"
"1573770340405","106","-0.0234375","-0.9785156","-0.19726562","-1.71875","2.53125","1.8125"
"1573770340405","107","-0.0126953125","-1.0039062","-0.19921875","3.875","2.03125","2.0"
"1573770340405","108","-0.018554688","-0.99316406","-0.19140625","-0.1875","-0.65625","0.34375"
"1573770340406","109","-0.009765625","-0.9707031","-0.20214844","-0.6875","-0.53125","1.3125"
"1573770340799","110","-0.009765625","-0.98535156","-0.18847656","-2.875","-1.125","1.6875"
"1573770340799","111","-0.046875","-0.95996094","-0.18164062","1.1875","-1.125","1.75"
"1573770340799","112","-0.024414062","-0.9667969","-0.19238281","-2.28125","-2.84375","4.6875"
"1573770340800","113","-0.045898438","-0.97265625","-0.19921875","1.625","-1.5625","0.34375"
"1573770340800","114","-0.048828125","-0.9746094","-0.17089844","2.25","-2.125","0.28125"
"1573770340800","115","-0.03125","-1.0039062","-0.22363281","2.3125","-7.3125","2.0"
"1573770340800","116","-0.038085938","-1.0292969","-0.21289062","-1.375","-2.84375","-0.75"
"1573770340801","117","-0.022460938","-0.9921875","-0.17773438","-1.0","-5.71875","-0.5625"
"1573770340801","118","-0.064453125","-0.9892578","-0.15722656","2.59375","-5.09375","0.65625"
"1573770340801","119","-0.07324219","-0.99609375","-0.21386719","2.4375","-0.34375","-1.4375"
"1573770341197","120","-0.024414062","-0.99902344","-0.22851562","-2.875","2.09375","0.40625"
"1573770341197","121","0.052734375","-0.98339844","-0.21679688","0.03125","-5.21875","0.09375"
"1573770341198","122","-0.037109375","-0.9951172","-0.16699219","9.25","-9.6875","-3.625"
"1573770341198","123","-0.06347656","-0.98046875","-0.18164062","5.28125","-8.46875","0.46875"
"1573770341198","124","-0.047851562","-1.0253906","-0.18652344","8.09375","-2.90625","3.09375"
"1573770341198","125","-0.0703125","-0.96777344","-0.17480469","7.78125","-1.0","0.96875"
"1573770341199","126","-0.0146484375","-0.9394531","-0.18554688","7.5625","-1.375","1.25"
"1573770341199","127","-0.015625","-0.9638672","-0.16113281","-1.0","-3.03125","0.78125"
"1573770341199","128","-0.055664062","-1.0029297","-0.17675781","3.71875","-3.34375","-1.84375"
"1573770341199","129","-0.064453125","-1.0205078","-0.18457031","21.71875","0.6875","-1.71875"
"1573770341595","130","-0.034179688","-0.9423828","-0.13574219","20.3125","1.5625","-1.1875"
"1573770341596","131","-0.078125","-0.9980469","-0.16796875","22.75","4.84375","-1.71875"
"1573770341596","132","0.00390625","-1.0078125","-0.13867188","-6.125","6.625","0.59375"
"1573770341597","133","-0.047851562","-1.0527344","-0.09082031","0.71875","7.34375","-1.25"
"1573770341598","134","-0.061523438","-1.0117188","-0.12890625","8.28125","3.1875","-1.375"
"1573770341598","135","-0.056640625","-1.0048828","-0.119140625","1.09375","6.5625","-1.625"
"1573770341598","136","-0.03515625","-0.9824219","-0.109375","-1.4375","7.53125","-1.71875"
"1573770341599","137","-0.005859375","-0.99121094","-0.12792969","1.09375","5.6875","-1.84375"
"1573770341599","138","-0.0048828125","-0.9941406","-0.13574219","-3.0","6.0625","-1.4375"
"1573770341599","139","-0.013671875","-0.9921875","-0.12792969","-2.875","0.8125","0.46875"
"1573770341993","140","-0.043945312","-0.9707031","-0.11621094","-3.875","1.1875","-1.5"
"1573770341993","141","-0.026367188","-1.0048828","-0.12597656","-8.125","-0.9375","-2.90625"
"1573770341994","142","-0.021484375","-0.99609375","-0.109375","1.6875","1.4375","-4.0"
"1573770341994","143","-0.001953125","-0.97753906","-0.12792969","-5.03125","-5.34375","-2.71875"
"1573770341994","144","-0.009765625","-0.96875","-0.14746094","0.71875","-10.84375","-1.65625"
"1573770341996","145","-0.061523438","-1.0058594","-0.13378906","0.34375","-5.59375","2.0625"
"1573770341996","146","-0.0625","-1.046875","-0.15917969","-13.9375","4.90625","8.65625"
"1573770341997","147","-0.0107421875","-1.0771484","-0.15917969","2.65625","4.34375","2.59375"
"1573770341997","148","-0.045898438","-0.9765625","-0.115234375","-20.53125","-15.34375","7.78125"
"1573770341997","149","0.00390625","-0.97753906","-0.16699219","-6.125","-6.6875","3.15625"
"1573770342390","150","-0.015625","-0.98046875","-0.16894531","-1.90625","-11.21875","-1.4375"
"1573770342391","151","-0.06738281","-0.98339844","-0.16894531","-2.15625","0.28125","1.625"
"1573770342391","152","-0.0234375","-1.0126953","-0.1796875","-4.53125","6.375","-0.375"
"1573770342391","153","0.0087890625","-1.0126953","-0.18359375","-2.9375","3.25","-4.0625"
"1573770342391","154","-0.029296875","-1.0019531","-0.17089844","-6.625","-1.375","-3.6875"
"1573770342392","155","-0.053710938","-0.97558594","-0.17578125","-14.0625","-1.4375","-0.625"
"1573770342392","156","-0.044921875","-0.8984375","-0.20410156","6.5625","-8.8125","-4.84375"
"1573770342393","157","-0.024414062","-0.89160156","-0.17675781","-0.875","-11.875","-3.625"
"1573770342394","158","-0.060546875","-0.90234375","-0.17285156","-1.125","-8.40625","-1.5"
"1573770342394","159","-0.041992188","-0.95410156","-0.18164062","-0.625","-1.75","1.5"
"1573770342786","160","-0.033203125","-1.0224609","-0.19433594","-2.875","-0.09375","4.0625"
"1573770342787","161","-0.01171875","-0.96484375","-0.21289062","0.65625","4.40625","1.625"
"1573770342787","162","-0.0126953125","-0.9951172","-0.19238281","-10.09375","2.03125","3.6875"
"1573770342787","163","-0.032226562","-1.03125","-0.20410156","1.5","0.40625","1.875"
"1573770342787","164","-0.0703125","-0.96972656","-0.16308594","4.75","-0.9375","-1.125"
"1573770342788","165","-0.07128906","-0.93847656","-0.13964844","13.71875","1.25","1.4375"
"1573770342788","166","-0.0390625","-0.9892578","-0.18554688","6.15625","5.875","1.75"
"1573770342788","167","-0.037109375","-0.9863281","-0.19140625","-0.875","5.15625","0.21875"
"1573770342788","168","0.001953125","-0.9921875","-0.18847656","1.375","9.65625","-0.09375"
"1573770342790","169","-0.0146484375","-1.0400391","-0.17871094","-1.25","4.90625","-0.625"
"1573770343780","170","-0.048828125","-1.0019531","-0.17285156","0.90625","5.8125","-0.875"
"1573770343780","171","-0.040039062","-1.0146484","-0.19628906","0.53125","3.625","0.90625"
"1573770343781","172","-0.047851562","-1.0351562","-0.19433594","0.03125","1.0","0.21875"
"1573770343781","173","-0.043945312","-1.0214844","-0.19335938","3.40625","0.625","-1.0"
"1573770343781","174","-0.0078125","-1.0107422","-0.16308594","10.0","2.46875","-0.21875"
"1573770343781","175","-0.040039062","-1.0009766","-0.14257812","10.0625","0.8125","-0.5625"
"1573770343782","176","-0.036132812","-0.9921875","-0.16503906","10.46875","1.375","0.59375"
"1573770343782","177","-0.03515625","-0.9941406","-0.14746094","2.90625","4.46875","2.71875"
"1573770343782","178","-0.03125","-0.9941406","-0.111328125","-3.1875","3.9375","-0.34375"
"1573770343783","179","-0.009765625","-1.015625","-0.19628906","9.75","-0.90625","0.46875"
"1573770343979","180","-0.030273438","-1.0097656","-0.12207031","-2.21875","2.21875","-0.5625"
"1573770343981","181","-0.033203125","-0.99316406","-0.14648438","-4.46875","-3.46875","0.90625"
"1573770343981","182","-0.051757812","-0.9951172","-0.16113281","-3.0625","-1.25","2.46875"
"1573770343981","183","-0.0546875","-0.9863281","-0.14550781","-2.53125","0.9375","0.96875"
"1573770343982","184","-0.0234375","-0.98828125","-0.171875","0.03125","1.1875","1.375"
"1573770343982","185","-0.013671875","-1.0087891","-0.15136719","-1.84375","-0.34375","0.40625"
"1573770343982","186","-0.059570312","-1.0283203","-0.14257812","-3.125","-0.84375","0.84375"
"1573770343983","187","-0.05859375","-1.0214844","-0.16503906","-3.9375","4.125","2.1875"
"1573770343983","188","-0.041015625","-1.0078125","-0.15039062","-6.3125","-0.21875","1.5"
"1573770343983","189","-0.06542969","-0.9824219","-0.15820312","-1.71875","-2.46875","-0.9375"
"1573770344174","190","-0.026367188","-1.0068359","-0.15332031","-6.375","-7.71875","2.25"
"1573770344175","191","-0.06738281","-1.015625","-0.14746094","-8.75","-7.53125","2.0625"
"1573770344175","192","-0.056640625","-1.0273438","-0.18652344","-4.53125","-2.90625","2.65625"
"1573770344176","193","-0.044921875","-0.99121094","-0.21875","-6.3125","-4.1875","0.46875"
"1573770344176","194","-0.07519531","-0.97265625","-0.18554688","-14.0","-3.28125","4.5"
"1573770344177","195","-0.076171875","-1.0253906","-0.21777344","-1.1875","-11.375","3.46875"
"1573770344177","196","-0.0859375","-1.0527344","-0.23046875","-6.0","-3.15625","-0.5"
"1573770344177","197","-0.032226562","-1.0810547","-0.27929688","-12.96875","-4.25","-1.5625"
"1573770344177","198","-0.038085938","-1.1513672","-0.30859375","-10.40625","-10.71875","0.28125"
"1573770344178","199","0.015625","-1.28125","-0.27539062","-6.78125","5.03125","-3.3125"
"1573770344377","200","-0.09082031","-1.1367188","-0.21191406","13.34375","3.6875","-6.375"
"1573770344378","201","-0.1328125","-1.1035156","-0.1875","13.96875","4.53125","-5.625"
"1573770344378","202","-0.026367188","-1.0224609","-0.2109375","11.8125","13.8125","-16.875"
"1573770344378","203","-0.013671875","-1.0849609","-0.15234375","0.15625","0.09375","-5.21875"
"1573770344379","204","-0.0048828125","-0.9970703","-0.16796875","5.03125","2.09375","-0.875"
"1573770344380","205","0.061523438","-0.9296875","-0.24511719","0.59375","-8.75","-3.9375"
"1573770344380","206","0.0126953125","-0.92285156","-0.19726562","-3.25","-14.3125","-2.21875"
"1573770344381","207","-0.064453125","-0.93847656","-0.140625","-8.25","-8.59375","2.96875"
"1573770344381","208","-0.07519531","-0.9970703","-0.171875","-4.21875","-3.5625","3.9375"
"1573770344381","209","-0.05859375","-0.9628906","-0.17773438","1.875","0.8125","0.15625"
"1573770344774","210","-0.049804688","-0.92578125","-0.23339844","-6.125","-0.34375","-2.28125"
"1573770344774","211","0.024414062","-0.9511719","-0.29003906","10.96875","1.375","-2.59375"
"1573770344774","212","-0.024414062","-1.0175781","-0.20117188","14.1875","15.78125","-2.71875"
"1573770344775","213","-0.0068359375","-1.0224609","-0.16210938","15.3125","19.5625","-8.3125"
"1573770344775","214","-0.046875","-0.97558594","-0.15527344","5.65625","9.0625","-3.625"
"1573770344775","215","-0.0126953125","-0.9921875","-0.17871094","7.0","14.5625","-1.0625"
"1573770344775","216","0.0","-1.0166016","-0.17089844","-3.375","9.65625","-2.84375"
"1573770344777","217","-0.0126953125","-1.0078125","-0.18066406","3.40625","5.03125","-1.125"
"1573770344777","218","-0.020507812","-1.0410156","-0.16601562","-1.46875","5.625","0.78125"
"1573770344777","219","-0.02734375","-1.0263672","-0.15917969","1.09375","2.21875","0.59375"
"1573770345171","220","-0.025390625","-1.0351562","-0.15429688","3.15625","2.40625","2.40625"
"1573770345171","221","-0.025390625","-1.0","-0.16894531","-6.90625","4.71875","7.3125"
"1573770345172","222","-0.026367188","-0.97265625","-0.18554688","-9.90625","3.1875","11.09375"
"1573770345172","223","0.0126953125","-0.9238281","-0.16699219","0.46875","0.875","6.4375"
"1573770345172","224","-0.01953125","-0.96972656","-0.15039062","2.59375","-2.46875","4.375"
"1573770345172","225","-0.026367188","-0.9863281","-0.13574219","1.6875","-3.46875","2.65625"
"1573770345173","226","0.0078125","-1.0126953","-0.1875","0.90625","-8.9375","3.09375"
"1573770345173","227","-0.017578125","-0.9951172","-0.16113281","3.71875","-0.78125","-0.34375"
"1573770345173","228","0.00390625","-0.9716797","-0.16992188","-0.8125","-3.5625","0.71875"
"1573770345175","229","0.001953125","-0.9628906","-0.19042969","-0.3125","-0.53125","-1.4375"
"1573770345766","230","-0.009765625","-0.96484375","-0.17871094","-5.5","-17.96875","-1.3125"
"1573770345766","231","-0.057617188","-0.9746094","-0.14453125","-8.9375","-6.4375","-2.28125"
"1573770345766","232","-0.051757812","-0.99316406","-0.13671875","-1.375","-12.375","-2.28125"
"1573770345767","233","-0.044921875","-1.0009766","-0.16796875","2.96875","-9.875","-2.34375"
"1573770345767","234","-0.064453125","-0.9589844","-0.17089844","9.875","-10.96875","1.9375"
"1573770345767","235","-0.049804688","-0.9589844","-0.234375","-0.09375","-11.375","9.25"
"1573770345767","236","-0.07519531","-0.9873047","-0.18847656","-2.03125","-4.96875","5.96875"
"1573770345767","237","-0.051757812","-1.0019531","-0.18261719","-0.9375","-7.96875","1.0"
"1573770345768","238","-0.095703125","-1.0029297","-0.16210938","6.5625","-6.5","-0.9375"
"1573770345768","239","-0.09863281","-1.0234375","-0.17089844","3.53125","-1.25","3.03125"
"1573770345968","240","-0.09472656","-0.9980469","-0.20214844","10.53125","9.125","3.53125"
"1573770345968","241","-0.091796875","-0.98046875","-0.16308594","-0.09375","10.21875","7.125"
"1573770345969","242","-0.052734375","-0.98339844","-0.17871094","16.40625","18.6875","2.71875"
"1573770345969","243","-0.0048828125","-0.9560547","-0.15625","3.65625","13.875","-0.03125"
"1573770345969","244","0.018554688","-0.9941406","-0.15917969","4.25","10.46875","-0.5"
"1573770345969","245","0.0029296875","-0.9814453","-0.1640625","-1.71875","3.375","-0.875"
"1573770345969","246","-0.036132812","-0.97753906","-0.111328125","0.28125","0.625","-3.125"
"1573770345970","247","-0.051757812","-0.9746094","-0.119140625","2.4375","-0.09375","-2.9375"
"1573770345970","248","-0.044921875","-1.0","-0.12011719","-0.03125","-2.84375","-0.9375"
"1573770345970","249","-0.0703125","-1.0488281","-0.13964844","-3.75","-2.21875","0.46875"
"1573770346365","250","-0.068359375","-1.0439453","-0.18457031","-3.125","1.96875","3.09375"
"1573770346365","251","-0.022460938","-0.9863281","-0.15917969","-7.90625","0.34375","2.65625"
"1573770346365","252","-0.057617188","-0.96191406","-0.140625","-7.46875","-10.53125","3.03125"
"1573770346367","253","-0.05859375","-0.953125","-0.14257812","-5.9375","-9.1875","4.5625"
"1573770346368","254","-0.064453125","-0.97265625","-0.15527344","-4.53125","-5.34375","1.625"
"1573770346368","255","-0.057617188","-0.8779297","-0.17578125","2.3125","2.46875","-0.5"
"1573770346368","256","-0.022460938","-0.8457031","-0.13671875","-9.34375","-3.625","-0.34375"
"1573770346368","257","-0.01171875","-0.8798828","-0.22265625","4.75","-3.03125","-2.65625"
"1573770346369","258","-0.037109375","-0.92089844","-0.171875","-8.1875","-8.15625","0.46875"
"1573770346369","259","-0.09765625","-0.98828125","-0.17871094","-3.75","-7.125","0.78125"
"1573770346761","260","-0.07324219","-0.9550781","-0.16113281","3.03125","-6.875","-0.6875"
"1573770346762","261","-0.123046875","-1.0029297","-0.10644531","2.25","2.09375","-2.03125"
"1573770346762","262","-0.11328125","-1.0087891","-0.15527344","2.0625","8.25","-0.8125"
"1573770346762","263","-0.0029296875","-0.97265625","-0.23242188","6.6875","10.34375","-3.3125"
"1573770346762","264","0.055664062","-1.015625","-0.20117188","-1.78125","-3.625","-2.15625"
"1573770346764","265","-0.07421875","-1.0478516","-0.17675781","1.625","-7.65625","-0.03125"
"1573770346764","266","-0.091796875","-1.0625","-0.13964844","-1.0","-0.15625","0.96875"
"1573770346765","267","-0.06738281","-1.0556641","-0.171875","4.8125","1.375","-0.21875"
"1573770346765","268","-0.0625","-1.0097656","-0.15820312","0.84375","-1.8125","-2.71875"
"1573770346765","269","-0.0625","-0.9863281","-0.19824219","6.5625","-5.90625","-3.3125"
"1573770347159","270","-0.030273438","-1.0087891","-0.1328125","4.6875","3.25","-2.53125"
"1573770347159","271","-0.051757812","-0.9970703","-0.17675781","2.125","-6.6875","0.34375"
"1573770347159","272","-0.055664062","-0.9980469","-0.12695312","-3.8125","-0.40625","0.15625"
"1573770347160","273","-0.03515625","-0.98339844","-0.14257812","-0.875","-4.5625","0.96875"
"1573770347160","274","-0.06933594","-0.9863281","-0.12695312","-7.46875","-12.1875","1.375"
"1573770347160","275","-0.049804688","-1.0126953","-0.18945312","-0.5625","-5.15625","4.375"
"1573770347160","276","-0.14746094","-1.0380859","-0.15722656","3.15625","-0.90625","-3.875"
"1573770347162","277","-0.021484375","-0.9951172","-0.1875","-3.75","-0.21875","-7.03125"
"1573770347162","278","-0.020507812","-1.0136719","-0.18457031","-3.125","-12.125","-6.1875"
"1573770347162","279","-0.059570312","-1.0195312","-0.17480469","-7.46875","-14.875","-1.4375"
"1573770347760","280","-0.048828125","-1.0185547","-0.171875","-5.03125","-9.3125","-1.71875"
"1573770347760","281","-0.036132812","-1.0283203","-0.19433594","-11.3125","-10.03125","0.40625"
"1573770347760","282","-0.064453125","-1.0185547","-0.1875","-7.46875","-10.84375","-2.28125"
"1573770347761","283","-0.024414062","-1.0419922","-0.29296875","6.625","-5.40625","-4.125"
"1573770347761","284","-0.09375","-0.98828125","-0.12988281","-4.28125","11.0","-6.5625"
"1573770347761","285","-0.10253906","-1.0371094","-0.16992188","9.6875","-2.125","-0.875"
"1573770347761","286","-0.009765625","-1.0390625","-0.2265625","6.21875","7.53125","-3.25"
"1573770347762","287","0.0","-1.0908203","-0.20214844","8.9375","4.96875","-4.78125"
"1573770347762","288","0.029296875","-1.109375","-0.17089844","11.09375","4.0625","-8.4375"
"1573770347763","289","0.0087890625","-1.1289062","-0.15722656","-15.03125","2.34375","-3.0625"
"1573770348153","290","-0.03125","-1.1269531","-0.13964844","-5.625","-2.1875","-3.5"
"1573770348153","291","-0.029296875","-1.0869141","-0.17382812","-10.625","3.5","2.34375"
"1573770348153","292","-0.16210938","-1.1054688","-0.1953125","-16.75","2.21875","13.53125"
"1573770348154","293","-0.15820312","-1.1015625","-0.22167969","-9.125","33.53125","21.34375"
"1573770348154","294","0.11328125","-1.1054688","-0.25976562","-6.78125","19.125","-4.1875"
"1573770348154","295","0.076171875","-1.0732422","-0.22460938","-0.5625","1.3125","-8.3125"
"1573770348155","296","0.0107421875","-1.0488281","-0.25585938","1.8125","-10.15625","-5.28125"
"1573770348155","297","-0.03125","-0.9892578","-0.17578125","5.78125","-8.09375","0.71875"
"1573770348155","298","-0.046875","-0.93847656","-0.20800781","10.1875","-8.59375","-1.0625"
"1573770348156","299","-0.076171875","-0.8925781","-0.17773438","1.1875","-3.9375","0.34375"
"1573770348551","300","-0.043945312","-0.89746094","-0.17578125","2.4375","-2.65625","1.0625"
"1573770348553","301","-0.034179688","-0.98535156","-0.20214844","-5.8125","-2.53125","1.9375"
"1573770348553","302","-0.030273438","-1.0019531","-0.20507812","-1.25","1.71875","1.0"
"1573770348554","303","-0.020507812","-1.0039062","-0.21972656","-4.0","-2.1875","2.96875"
"1573770348554","304","-0.013671875","-1.015625","-0.20996094","-2.65625","-5.28125","-1.5625"
"1573770348554","305","-0.021484375","-0.96875","-0.19433594","-0.5625","-5.84375","-5.28125"
"1573770348555","306","-0.056640625","-0.98046875","-0.18847656","-5.4375","-3.625","-1.4375"
"1573770348555","307","-0.033203125","-0.9580078","-0.24414062","0.96875","2.21875","-1.65625"
"1573770348555","308","-0.005859375","-0.95410156","-0.19824219","0.09375","7.53125","-0.75"
"1573770348555","309","-0.022460938","-0.9199219","-0.17578125","-1.125","6.5","-0.75"
"1573770348949","310","-0.026367188","-0.9765625","-0.20996094","-3.5","3.0","-0.4375"
"1573770348949","311","-0.03125","-0.9511719","-0.19140625","2.78125","2.03125","-3.25"
"1573770348949","312","-0.051757812","-0.95214844","-0.19042969","3.53125","4.25","0.90625"
"1573770348951","313","-0.01171875","-0.95703125","-0.21875","-1.0","5.03125","1.4375"
"1573770348951","314","-0.030273438","-0.9707031","-0.23730469","4.9375","-2.21875","1.4375"
"1573770348952","315","-0.043945312","-0.9609375","-0.19433594","4.3125","5.75","-0.75"
"1573770348952","316","0.005859375","-0.9550781","-0.22265625","-3.1875","6.6875","-1.625"
"1573770348952","317","0.0703125","-0.9658203","-0.22558594","-3.0","5.53125","-6.0625"
"1573770348952","318","0.017578125","-0.96777344","-0.18066406","-6.78125","-17.0","-3.25"
"1573770348953","319","-0.13671875","-0.9482422","-0.20898438","2.71875","-17.75","2.34375"
"1573770349345","320","-0.064453125","-0.97558594","-0.22558594","8.65625","-1.8125","9.4375"
"1573770349346","321","-0.06640625","-0.9638672","-0.13574219","10.96875","7.65625","0.71875"
"1573770349346","322","-0.06640625","-0.9589844","-0.15429688","13.59375","11.4375","-0.5"
"1573770349347","323","0.0068359375","-1.0019531","-0.19824219","11.34375","8.75","-2.84375"
"1573770349347","324","0.001953125","-1.015625","-0.19042969","-0.9375","3.4375","-0.9375"
"1573770349348","325","0.001953125","-0.98339844","-0.21972656","1.4375","-1.9375","1.3125"
"1573770349349","326","-0.0078125","-0.9970703","-0.13867188","-0.1875","-6.6875","1.4375"
"1573770349349","327","-0.068359375","-1.0087891","-0.15234375","4.5","-7.40625","-0.5625"
"1573770349349","328","-0.053710938","-0.9941406","-0.16503906","1.09375","-6.03125","2.96875"
"1573770349350","329","-0.10058594","-0.95410156","-0.18164062","-0.03125","8.4375","8.21875"
"1573770349742","330","-0.016601562","-0.9980469","-0.16015625","-8.125","23.40625","7.25"
"1573770349743","331","0.0234375","-1.0380859","-0.22753906","0.96875","-4.375","-0.6875"
"1573770349743","332","-0.030273438","-1.0302734","-0.1953125","8.59375","-2.34375","-1.3125"
"1573770349743","333","-0.060546875","-1.0009766","-0.19042969","2.46875","8.03125","2.1875"
"1573770349743","334","-0.032226562","-0.9560547","-0.18554688","2.3125","9.90625","1.8125"
"1573770349744","335","-0.055664062","-0.9785156","-0.15332031","2.90625","0.15625","0.40625"
"1573770349744","336","-0.051757812","-1.0253906","-0.15039062","-0.09375","4.3125","0.71875"
"1573770349744","337","-0.056640625","-1.0410156","-0.17285156","1.8125","1.375","2.0"
"1573770349745","338","-0.028320312","-1.0292969","-0.19726562","1.9375","3.0","2.59375"
"1573770349745","339","0.01171875","-1.0019531","-0.21582031","-1.0625","-6.03125","-0.8125"
"1573770350141","340","-0.037109375","-0.96484375","-0.17578125","-6.1875","-10.40625","-1.125"
"1573770350142","341","-0.080078125","-0.9345703","-0.16601562","-0.15625","-7.65625","3.6875"
"1573770350142","342","-0.07910156","-1.0009766","-0.13964844","-3.4375","-0.46875","7.375"
"1573770350142","343","-0.11816406","-0.9121094","-0.16113281","7.96875","-3.6875","1.6875"
"1573770350142","344","0.0068359375","-0.9482422","-0.17773438","4.6875","-0.9375","1.5"
"1573770350143","345","0.0078125","-0.93359375","-0.15039062","0.28125","-5.53125","-6.4375"
"1573770350143","346","-0.03515625","-0.8027344","-0.14941406","10.90625","-7.96875","-8.03125"
"1573770350143","347","0.0048828125","-0.7714844","-0.18554688","10.96875","-1.5625","-2.9375"
"1573770350143","348","0.013671875","-0.89746094","-0.171875","7.25","-6.6875","-2.84375"
"1573770350144","349","-0.083984375","-0.9140625","-0.16113281","-2.34375","-12.0625","-4.46875"
"1573770350539","350","-0.07128906","-1.0419922","-0.1015625","-1.53125","9.71875","-3.8125"
"1573770350539","351","-0.09765625","-1.140625","-0.123046875","5.96875","-3.875","-4.59375"
"1573770350540","352","-0.01953125","-0.9277344","-0.19042969","8.71875","-2.46875","-8.1875"
"1573770350540","353","0.06542969","-1.1220703","-0.23242188","2.90625","9.5","-9.0"
"1573770350540","354","0.013671875","-1.0595703","-0.1484375","4.1875","3.0","-3.375"
"1573770350541","355","-0.0078125","-1.0253906","-0.12695312","5.34375","2.71875","-4.0"
"1573770350541","356","-0.021484375","-1.0292969","-0.0703125","4.8125","6.75","-6.625"
"1573770350541","357","-0.025390625","-0.9707031","-0.111328125","2.0","4.59375","-1.375"
"1573770350541","358","-0.0234375","-0.99609375","-0.13183594","-3.3125","6.125","6.8125"
"1573770350542","359","0.001953125","-1.0019531","-0.12988281","-17.46875","6.1875","7.0"
"1573770350936","360","-0.005859375","-1.0556641","-0.15039062","10.46875","0.4375","3.09375"
"1573770350938","361","-0.055664062","-1.0224609","-0.11816406","5.53125","-1.3125","-0.03125"
"1573770350939","362","-0.041992188","-1.0791016","-0.107421875","3.15625","-12.71875","-1.375"
"1573770350939","363","-0.034179688","-1.0439453","-0.095703125","15.71875","0.28125","-4.0"
"1573770350939","364","0.020507812","-1.0390625","-0.11328125","17.5625","-4.375","-6.125"
"1573770350940","365","-0.00390625","-1.0302734","-0.13574219","-7.34375","-3.625","-0.875"
"1573770350941","366","0.018554688","-1.046875","-0.09472656","0.15625","4.71875","2.25"
"1573770350941","367","-0.0078125","-1.0068359","-0.1015625","2.1875","-2.90625","1.1875"
"1573770350941","368","-0.03125","-1.0556641","-0.10546875","-4.46875","2.15625","2.90625"
"1573770350941","369","-0.06640625","-1.0556641","-0.095703125","-2.15625","0.4375","-0.625"
"1573770351334","370","-0.022460938","-0.9785156","-0.1171875","-4.15625","-3.34375","-1.96875"
"1573770351334","371","0.024414062","-1.046875","-0.1484375","-5.6875","2.03125","2.34375"
"1573770351335","372","0.025390625","-1.0800781","-0.1328125","7.90625","1.25","2.1875"
"1573770351336","373","-0.0029296875","-1.1015625","-0.11425781","-8.875","-11.3125","4.625"
"1573770351336","374","-0.072265625","-1.1103516","-0.17089844","21.09375","-3.34375","-3.3125"
"1573770351336","375","0.10058594","-1.0810547","-0.13476562","62.46875","52.8125","14.5625"
"1573770351337","376","0.14453125","-1.1289062","0.072265625","54.0","2.90625","19.3125"
"1573770351337","377","-0.23339844","-1.1660156","-0.19433594","14.5","-11.03125","24.8125"
"1573770351337","378","-0.040039062","-1.0859375","-0.041015625","0.40625","6.3125","14.0"
"1573770351338","379","-0.13183594","-1.0253906","0.0087890625","7.375","-15.84375","4.875"
"1573770351730","380","-0.2109375","-1.0908203","0.0234375","8.59375","-8.28125","8.46875"
"1573770351730","381","-0.17089844","-1.0664062","0.048828125","4.9375","-10.28125","5.46875"
"1573770351730","382","-0.111328125","-1.0087891","-0.005859375","5.46875","6.4375","0.21875"
"1573770351731","383","-0.059570312","-0.98535156","-0.0078125","-0.09375","0.03125","-2.90625"
"1573770351731","384","-0.091796875","-0.9873047","0.005859375","-7.78125","2.78125","0.71875"
"1573770351732","385","-0.09277344","-0.94433594","0.018554688","-9.40625","4.0","1.375"
"1573770351732","386","-0.11230469","-1.0146484","0.041992188","-14.65625","0.34375","5.03125"
"1573770351733","387","-0.07128906","-0.97265625","-0.0126953125","-13.5625","-2.40625","2.46875"
"1573770351733","388","-0.11328125","-1.015625","-0.046875","-14.90625","-1.25","-1.125"
"1573770351733","389","-0.08300781","-0.9863281","-0.041992188","-16.375","3.25","-0.5625"
"1573770352129","390","-0.076171875","-0.99121094","-0.05859375","-15.46875","1.78125","-0.15625"
"1573770352129","391","-0.064453125","-1.0185547","-0.06738281","-13.15625","-0.09375","-1.625"
"1573770352130","392","-0.05859375","-0.9941406","-0.09277344","-9.125","-1.0","-5.40625"
"1573770352130","393","-0.040039062","-1.0048828","-0.08984375","-9.71875","-6.6875","-2.15625"
"1573770352130","394","-0.076171875","-0.95703125","-0.053710938","-8.5","-0.09375","-2.34375"
"1573770352130","395","-0.072265625","-0.921875","-0.07324219","-3.75","-1.3125","-1.71875"
"1573770352131","396","-0.05859375","-0.91015625","-0.09277344","-2.03125","-3.46875","0.09375"
"1573770352132","397","-0.09667969","-0.94628906","-0.09375","-7.46875","-0.03125","1.75"
"1573770352132","398","-0.076171875","-0.9951172","-0.107421875","-10.34375","9.78125","2.28125"
"1573770352133","399","-0.0859375","-0.9736328","-0.14648438","-10.46875","8.8125","0.03125"
"1573770352722","400","-0.047851562","-0.9951172","-0.10839844","-13.09375","5.875","2.90625"
"1573770352722","401","-0.029296875","-0.9296875","-0.10058594","-8.875","-3.46875","-0.03125"
"1573770352723","402","-0.08886719","-0.9423828","-0.099609375","-8.125","-0.28125","-1.1875"
"1573770352723","403","-0.052734375","-1.0058594","-0.1484375","-16.125","-1.625","-0.6875"
"1573770352723","404","-0.06347656","-1.0136719","-0.15234375","-14.3125","0.21875","-4.34375"
"1573770352723","405","-0.037109375","-0.99902344","-0.17578125","-11.375","-2.1875","-5.09375"
"1573770352723","406","-0.041992188","-0.9716797","-0.1484375","-7.59375","-9.0625","-9.25"
"1573770352724","407","-0.099609375","-0.9316406","-0.15136719","-5.09375","-6.1875","-7.15625"
"1573770352724","408","-0.080078125","-0.9892578","-0.20898438","-7.03125","2.03125","-2.78125"
"1573770352725","409","-0.026367188","-1.0136719","-0.20703125","-6.96875","-4.6875","-6.1875"
"1573770352923","410","-0.07128906","-0.96484375","-0.203125","-4.34375","-5.40625","-2.78125"
"1573770352924","411","-0.064453125","-1.0136719","-0.19238281","-3.3125","-1.75","-1.4375"
"1573770352924","412","-0.037109375","-1.0078125","-0.19921875","-1.0","-1.6875","-3.25"
"1573770352924","413","-0.04296875","-0.9667969","-0.203125","1.5","0.5","-2.53125"
"1573770352925","414","-0.049804688","-0.9921875","-0.171875","-4.0","1.25","-1.90625"
"1573770352925","415","-0.08203125","-0.9736328","-0.20410156","0.96875","-2.84375","-1.5"
"1573770352925","416","-0.016601562","-0.96191406","-0.18847656","-1.65625","4.3125","-0.34375"
"1573770352925","417","-0.044921875","-0.9941406","-0.16113281","-3.375","-4.5625","0.90625"
"1573770352926","418","-0.07421875","-1.0605469","-0.22363281","-6.125","1.0","0.71875"
"1573770352926","419","-0.030273438","-1.0576172","-0.23535156","-7.34375","0.5625","-2.9375"
"1573770353321","420","-0.013671875","-0.96484375","-0.20410156","1.3125","-5.09375","-3.4375"
"1573770353323","421","-0.041992188","-0.9716797","-0.19140625","5.0","-10.15625","-2.34375"
"1573770353323","422","-0.07714844","-1.0048828","-0.20214844","1.3125","-1.375","-1.96875"
"1573770353323","423","-0.0146484375","-1.0097656","-0.22753906","1.1875","1.71875","-2.78125"
"1573770353323","424","0.0048828125","-0.97753906","-0.22167969","4.625","-4.4375","-4.0625"
"1573770353324","425","-0.032226562","-0.97265625","-0.15527344","2.90625","-1.375","-2.53125"
"1573770353324","426","-0.0703125","-0.9550781","-0.16992188","8.15625","1.90625","-2.90625"
"1573770353324","427","-0.041992188","-0.9091797","-0.171875","13.59375","8.875","-1.78125"
"1573770353325","428","-0.0234375","-0.8857422","-0.16503906","-0.625","0.21875","1.1875"
"1573770353325","429","-0.013671875","-0.9013672","-0.21386719","5.40625","-1.3125","0.21875"
"1573770353717","430","0.00390625","-0.8857422","-0.18457031","1.4375","0.4375","-2.34375"
"1573770353718","431","-0.015625","-0.89453125","-0.17382812","-4.65625","-3.6875","0.15625"
"1573770353718","432","-0.0126953125","-0.95410156","-0.15429688","-1.46875","4.84375","1.25"
"1573770353720","433","-0.080078125","-0.86816406","-0.12695312","11.03125","2.96875","-1.4375"
"1573770353720","434","-0.05078125","-0.9345703","-0.16308594","-2.09375","10.03125","1.0625"
"1573770353720","435","-0.03515625","-1.09375","-0.17382812","-8.0625","13.875","0.71875"
"1573770353720","436","0.03125","-0.94140625","-0.20410156","0.15625","5.6875","-6.3125"
"1573770353721","437","0.038085938","-1.0166016","-0.2109375","-9.71875","-6.5","3.8125"
"1573770353721","438","-0.095703125","-1.046875","-0.17675781","-5.375","-6.1875","3.40625"
"1573770353721","439","-0.0703125","-1.0048828","-0.21972656","-2.40625","2.71875","3.75"
"1573770354312","440","-0.034179688","-1.0820312","-0.19726562","-4.90625","2.46875","3.03125"
"1573770354312","441","-0.041992188","-0.99121094","-0.19238281","6.28125","0.5625","-3.25"
"1573770354313","442","-0.0078125","-1.0322266","-0.22460938","0.53125","2.59375","3.09375"
"1573770354313","443","-0.041992188","-1.0107422","-0.17480469","1.9375","2.21875","-1.4375"
"1573770354313","444","-0.03515625","-1.0117188","-0.18847656","-0.1875","-5.34375","0.46875"
"1573770354314","445","-0.017578125","-1.0117188","-0.17089844","6.6875","-2.0625","-2.03125"
"1573770354315","446","-0.025390625","-1.0175781","-0.17871094","0.96875","-1.1875","-3.75"
"1573770354315","447","0.0","-1.03125","-0.16308594","-4.0625","0.9375","-2.78125"
"1573770354315","448","-0.01953125","-1.0136719","-0.19433594","-3.8125","-2.46875","-4.46875"
"1573770354316","449","0.0126953125","-1.0693359","-0.18554688","-9.46875","-0.9375","-1.4375"
"1573770354514","450","-0.0625","-1.0185547","-0.20507812","-11.25","-5.21875","-0.875"
"1573770354514","451","-0.013671875","-1.0654297","-0.25195312","-10.34375","1.125","3.09375"
"1573770354515","452","-0.020507812","-1.0791016","-0.26171875","-5.5","-2.65625","-0.21875"
"1573770354515","453","-0.026367188","-1.1376953","-0.26757812","-4.28125","0.28125","4.3125"
"1573770354515","454","-0.033203125","-1.1396484","-0.23828125","7.625","3.75","2.84375"
"1573770354516","455","-0.05078125","-1.1845703","-0.22460938","-0.8125","3.875","2.1875"
"1573770354516","456","0.045898438","-1.0849609","-0.27441406","24.6875","1.0625","2.0"
"1573770354517","457","-0.037109375","-1.1064453","-0.18457031","3.71875","-5.03125","8.28125"
"1573770354518","458","-0.06640625","-1.0791016","-0.25976562","13.34375","7.65625","8.40625"
"1573770354518","459","-0.036132812","-1.1337891","-0.18261719","-3.0625","-7.40625","11.9375"
"1573770354911","460","-0.14648438","-1.1181641","-0.16308594","8.46875","0.5","6.3125"
"1573770354912","461","-0.08203125","-1.0458984","-0.18457031","11.6875","-0.09375","9.1875"
"1573770354912","462","-0.076171875","-0.97558594","-0.17578125","11.46875","3.9375","6.75"
"1573770354912","463","-0.046875","-0.91503906","-0.16796875","7.78125","-0.71875","2.40625"
"1573770354913","464","-0.095703125","-0.9609375","-0.15039062","3.03125","-2.21875","2.1875"
"1573770354913","465","-0.09765625","-0.94433594","-0.13574219","6.21875","2.15625","-0.03125"
"1573770354913","466","-0.07421875","-0.9404297","-0.12597656","-0.1875","1.0","-0.8125"
"1573770354913","467","-0.07128906","-0.9296875","-0.16015625","-3.875","-1.0625","-2.34375"
"1573770354914","468","-0.076171875","-0.9794922","-0.12109375","-11.5","-1.25","-2.90625"
"1573770354915","469","-0.07324219","-0.97265625","-0.19433594","-3.1875","-6.625","-2.65625"
"1573770355307","470","-0.08691406","-1.0039062","-0.17089844","-6.3125","-1.1875","-3.3125"
"1573770355308","471","-0.059570312","-0.96777344","-0.18359375","-4.96875","-2.46875","-3.5"
"1573770355308","472","-0.08886719","-0.9863281","-0.18652344","-3.875","-0.09375","-2.90625"
"1573770355308","473","-0.033203125","-0.9736328","-0.19335938","-1.90625","6.125","-2.90625"
"1573770355308","474","-0.037109375","-0.9316406","-0.15234375","-3.0","1.5625","-5.15625"
"1573770355309","475","-0.03125","-0.91796875","-0.18945312","-4.90625","3.25","-5.15625"
"1573770355309","476","-0.0234375","-0.9482422","-0.16894531","-4.78125","-3.15625","-1.0625"
"1573770355309","477","-0.068359375","-0.9423828","-0.20117188","-13.9375","-3.5","0.28125"
"1573770355309","478","-0.043945312","-0.9824219","-0.24414062","-6.0","-4.625","-0.6875"
"1573770355310","479","-0.05859375","-0.9316406","-0.18261719","-4.21875","-4.4375","-0.625"
"1573770355706","480","-0.056640625","-0.99316406","-0.1796875","-2.875","1.96875","-2.21875"
"1573770355707","481","-0.03125","-0.99902344","-0.20117188","1.75","3.4375","-7.96875"
"1573770355707","482","-0.044921875","-0.95214844","-0.16308594","-2.09375","3.1875","-6.25"
"1573770355707","483","-0.030273438","-0.96777344","-0.25097656","-0.375","-0.90625","0.59375"
"1573770355707","484","-0.02734375","-0.9707031","-0.23046875","-8.0625","1.1875","2.34375"
"1573770355708","485","-0.0234375","-0.9580078","-0.21679688","-4.34375","3.25","1.5"
"1573770355708","486","-0.02734375","-0.97753906","-0.22363281","-0.9375","-0.71875","0.46875"
"1573770355708","487","-0.05078125","-1.0","-0.23242188","2.4375","-4.625","-1.4375"
"1573770355708","488","-0.0068359375","-0.9423828","-0.20996094","0.09375","-0.15625","-2.15625"
"1573770355709","489","-0.044921875","-0.99121094","-0.20507812","-3.5","-3.09375","-1.90625"
"1573770356104","490","-0.033203125","-0.98828125","-0.20996094","-5.6875","2.40625","1.25"
"1573770356105","491","-0.0078125","-1.0146484","-0.21777344","-6.71875","-6.75","0.15625"
"1573770356105","492","-0.05859375","-0.9863281","-0.22460938","-0.03125","-8.8125","-2.9375"
"1573770356106","493","-0.07324219","-0.9394531","-0.203125","2.46875","-1.3125","-0.15625"
"1573770356107","494","-0.059570312","-0.98535156","-0.23828125","-0.15625","6.1875","8.34375"
"1573770356107","495","0.00390625","-1.0722656","-0.26953125","-2.9375","7.15625","1.5"
"1573770356107","496","-0.015625","-1.0517578","-0.22558594","-0.625","-6.3125","-6.0"
"1573770356108","497","-0.06347656","-0.9423828","-0.24023438","12.1875","-6.875","-2.53125"
"1573770356108","498","-0.06738281","-0.9892578","-0.20996094","2.96875","-1.75","2.28125"
"1573770356108","499","-0.046875","-0.9873047","-0.23339844","2.84375","2.53125","-1.65625"
"1573770356500","500","-0.0126953125","-0.9814453","-0.22949219","3.59375","-0.46875","-1.0"
"1573770356501","501","-0.013671875","-1.0058594","-0.20605469","6.09375","1.3125","-1.90625"
"1573770356501","502","-0.064453125","-0.98339844","-0.16699219","7.625","7.71875","-3.6875"
"1573770356501","503","-0.051757812","-0.93847656","-0.19140625","10.90625","8.03125","-3.375"
"1573770356502","504","0.0087890625","-0.9453125","-0.20117188","4.375","1.0","-0.09375"
"1573770356503","505","-0.0029296875","-0.9423828","-0.18359375","-4.40625","-1.125","1.4375"
"1573770356503","506","-0.013671875","-0.9199219","-0.17773438","1.125","1.4375","1.5"
"1573770356504","507","-0.033203125","-0.8769531","-0.20410156","8.21875","-3.5","2.34375"
"1573770356504","508","-0.030273438","-0.9560547","-0.21386719","3.03125","-5.28125","4.8125"
"1573770356504","509","-0.041015625","-0.9892578","-0.22851562","-3.25","-4.4375","1.625"
"1573770356899","510","-0.04296875","-0.9707031","-0.15039062","0.84375","-0.53125","-1.375"
"1573770356899","511","-0.053710938","-0.90722656","-0.16894531","12.25","-2.46875","0.34375"
"1573770356899","512","-0.026367188","-0.9941406","-0.17773438","3.9375","1.78125","0.28125"
"1573770356900","513","-0.022460938","-0.9560547","-0.14941406","-0.5","-0.84375","-1.125"
"1573770356900","514","-0.07519531","-0.90625","-0.19921875","-4.15625","1.625","2.1875"
"1573770356900","515","-0.046875","-1.0449219","-0.18945312","-8.75","3.4375","3.9375"
"1573770356901","516","-0.06738281","-0.9248047","-0.18945312","1.875","0.28125","-1.71875"
"1573770356902","517","-0.052734375","-0.9892578","-0.22460938","-4.34375","-4.8125","3.875"
"1573770356903","518","-0.044921875","-1.0400391","-0.19433594","-1.59375","0.6875","-0.75"
"1573770356903","519","-0.072265625","-0.9863281","-0.18457031","-0.75","-2.40625","0.71875"
"1573770357295","520","-0.040039062","-1.0097656","-0.20800781","-5.5625","2.15625","2.46875"
"1573770357296","521","-0.02734375","-0.9921875","-0.18847656","0.28125","0.21875","-1.25"
"1573770357296","522","-0.040039062","-0.9941406","-0.2109375","-4.59375","-1.4375","1.5"
"1573770357296","523","-0.041992188","-1.0019531","-0.21484375","0.65625","-3.28125","0.28125"
"1573770357296","524","-0.07324219","-1.0136719","-0.171875","-7.03125","-4.3125","-0.15625"
"1573770357297","525","-0.08496094","-0.9970703","-0.22265625","-10.6875","-3.09375","6.03125"
"1573770357297","526","-0.0390625","-1.0253906","-0.23828125","-19.78125","-4.75","10.65625"
"1573770357297","527","-0.030273438","-1.0273438","-0.24023438","-9.0625","-4.6875","-1.0"
"1573770357297","528","-0.046875","-1.0556641","-0.2841797","-10.15625","-2.0","-0.75"
"1573770357299","529","-0.0703125","-1.0605469","-0.23339844","-9.0","-4.6875","-0.15625"
"1573770357693","530","-0.047851562","-1.0517578","-0.2578125","-8.125","6.4375","-1.1875"
"1573770357693","531","-0.047851562","-1.0820312","-0.27929688","-1.3125","2.15625","-3.375"
"1573770357694","532","-0.061523438","-1.015625","-0.27734375","-1.46875","1.6875","-2.59375"
"1573770357695","533","-0.03125","-1.0527344","-0.2734375","-6.125","-1.8125","0.03125"
"1573770357695","534","-0.06347656","-1.1230469","-0.32421875","-7.78125","-0.53125","1.0625"
"1573770357695","535","-0.021484375","-1.1298828","-0.31152344","-5.75","-0.9375","-2.53125"
"1573770357696","536","-0.07421875","-1.1376953","-0.33496094","-2.71875","-2.71875","2.71875"
"1573770357696","537","-0.09082031","-1.1347656","-0.20996094","11.875","12.90625","2.71875"
"1573770357696","538","-0.068359375","-1.0117188","-0.29589844","19.15625","11.375","-1.0"
"1573770357697","539","-0.0068359375","-1.0107422","-0.33203125","5.0","-4.0","15.90625"
"1573770358091","540","-0.06738281","-1.1796875","-0.26171875","-1.0625","-5.46875","12.5"
"1573770358093","541","-0.17382812","-1.0888672","-0.24511719","3.21875","3.3125","12.96875"
"1573770358094","542","-0.001953125","-1.0742188","-0.3125","0.59375","-2.28125","10.84375"
"1573770358094","543","-0.083984375","-1.0185547","-0.24023438","11.75","-9.625","0.40625"
"1573770358094","544","-0.06542969","-0.9296875","-0.24804688","6.375","-6.03125","1.625"
"1573770358095","545","-0.12988281","-1.03125","-0.20214844","-0.15625","-6.125","4.4375"
"1573770358095","546","-0.119140625","-0.9423828","-0.22558594","5.34375","0.6875","-0.21875"
"1573770358095","547","-0.10546875","-0.9658203","-0.20605469","-1.59375","-1.25","2.90625"
"1573770358096","548","-0.111328125","-0.9580078","-0.22851562","7.3125","0.6875","-1.125"
"1573770358096","549","-0.09082031","-0.9716797","-0.20898438","-0.9375","-4.25","1.0625"
"1573770358488","550","-0.080078125","-0.9042969","-0.19140625","5.90625","-1.5625","-3.6875"
"1573770358489","551","-0.07324219","-0.9013672","-0.23144531","8.03125","-2.53125","-3.0"
"1573770358489","552","-0.12207031","-0.9394531","-0.20214844","-2.34375","-1.5625","-0.28125"
"1573770358490","553","-0.1015625","-0.92578125","-0.26660156","16.53125","3.5","-2.09375"
"1573770358491","554","-0.08203125","-0.91503906","-0.19726562","10.59375","4.0","-1.0625"
"1573770358491","555","-0.1015625","-0.9140625","-0.17773438","14.3125","6.90625","-0.6875"
"1573770358491","556","-0.10449219","-0.921875","-0.19042969","23.1875","12.71875","-3.5625"
"1573770358492","557","-0.064453125","-0.8984375","-0.13476562","27.375","9.84375","-3.8125"
"1573770358492","558","-0.09472656","-0.9472656","-0.16210938","0.84375","0.875","4.90625"
"1573770358492","559","-0.04296875","-1.0214844","-0.16503906","-0.8125","9.71875","0.78125"
"1573770358885","560","-0.0625","-0.99316406","-0.12402344","3.21875","-9.875","-4.65625"
"1573770358886","561","-0.123046875","-0.9511719","-0.14257812","10.34375","-4.375","-1.25"
"1573770358886","562","-0.09863281","-0.9814453","-0.15722656","6.15625","1.25","0.65625"
"1573770358886","563","-0.059570312","-0.97265625","-0.13476562","6.875","0.21875","-2.59375"
"1573770358886","564","-0.08105469","-0.9814453","-0.12011719","3.34375","-2.0","-3.625"
"1573770358888","565","-0.087890625","-0.9736328","-0.14550781","5.90625","2.90625","-5.53125"
"1573770358889","566","-0.07714844","-1.0","-0.12402344","-1.53125","3.125","-5.46875"
"1573770358889","567","-0.041992188","-0.9765625","-0.15527344","7.5625","-0.59375","-4.90625"
"1573770358889","568","-0.06542969","-1.0029297","-0.11425781","-2.875","0.03125","-6.125"
"1573770358889","569","-0.055664062","-0.95996094","-0.13964844","-6.4375","3.375","-3.4375"
"1573770359482","570","-0.043945312","-1.0136719","-0.13671875","-9.40625","0.28125","-1.375"
"1573770359482","571","-0.107421875","-1.0498047","-0.15332031","-8.4375","1.4375","-0.21875"
"1573770359482","572","-0.017578125","-1.0283203","-0.16796875","-4.59375","9.0","-3.5"
"1573770359483","573","-0.029296875","-1.0029297","-0.12792969","-2.65625","-6.125","-5.8125"
"1573770359483","574","-0.078125","-0.9560547","-0.12597656","1.125","-1.5","-3.25"
"1573770359483","575","-0.064453125","-0.9892578","-0.14941406","-5.28125","0.8125","0.53125"
"1573770359483","576","-0.052734375","-1.0283203","-0.17285156","-4.71875","2.28125","0.03125"
"1573770359485","577","-0.01953125","-1.0253906","-0.17382812","-2.875","-2.0625","-3.0"
"1573770359485","578","-0.021484375","-1.0166016","-0.15820312","-1.46875","-8.9375","-4.59375"
"1573770359486","579","-0.072265625","-1.0048828","-0.15625","0.71875","-1.4375","-3.875"
"1573770359878","580","-0.07128906","-0.99121094","-0.12402344","-5.5625","4.125","-3.0"
"1573770359878","581","-0.03515625","-0.984375","-0.19042969","-3.8125","-8.8125","2.0"
"1573770359878","582","-0.053710938","-0.98828125","-0.16894531","-7.09375","-2.96875","2.1875"
"1573770359879","583","-0.037109375","-0.91308594","-0.17089844","-4.53125","-4.6875","0.71875"
"1573770359879","584","-0.025390625","-0.8935547","-0.19238281","-6.5","-12.78125","-1.375"
"1573770359879","585","-0.018554688","-0.9326172","-0.18359375","-9.84375","-8.8125","-2.46875"
"1573770359879","586","-0.037109375","-0.90625","-0.16894531","-8.4375","-1.75","-1.3125"
"1573770359880","587","-0.0546875","-0.84765625","-0.20703125","1.75","3.6875","4.875"
"1573770359880","588","0.0078125","-0.859375","-0.23144531","7.0625","1.5625","4.625"
"1573770359882","589","0.025390625","-0.9433594","-0.21289062","-6.125","-15.1875","-0.15625"
"1573770360078","590","-0.11425781","-0.90722656","-0.12597656","-1.125","-9.1875","0.21875"
"1573770360078","591","-0.125","-0.98535156","-0.15429688","4.8125","-6.8125","1.0"
"1573770360079","592","-0.0234375","-1.0273438","-0.1796875","-5.625","-7.46875","0.78125"
"1573770360079","593","-0.08886719","-0.9873047","-0.20410156","3.03125","-0.09375","-3.6875"
"1573770360079","594","0.001953125","-0.99316406","-0.20605469","-4.53125","-4.625","3.15625"
"1573770360079","595","-0.029296875","-0.9892578","-0.22265625","1.9375","-12.5","5.03125"
"1573770360079","596","-0.11621094","-1.0439453","-0.20410156","3.71875","-5.34375","5.53125"
"1573770360080","597","-0.11035156","-1.0009766","-0.18652344","7.65625","2.03125","7.78125"
"1573770360080","598","-0.11621094","-0.9941406","-0.17578125","9.1875","21.09375","3.53125"
"1573770360080","599","-0.028320312","-0.96972656","-0.17675781","6.75","13.28125","-4.71875"
"1573770360475","600","-0.03125","-1.0048828","-0.16308594","-2.71875","1.90625","-0.4375"
"1573770360477","601","-0.08300781","-1.0595703","-0.17871094","-1.4375","8.15625","4.1875"
"1573770360478","602","-0.041015625","-1.0410156","-0.1953125","-2.03125","4.125","5.28125"
"1573770360478","603","-0.057617188","-1.0400391","-0.18164062","5.28125","5.03125","1.5"
"1573770360478","604","-0.08984375","-1.0546875","-0.17285156","2.4375","0.28125","1.875"
"1573770360478","605","-0.12011719","-1.0332031","-0.16503906","2.0","1.625","1.625"
"1573770360479","606","-0.08300781","-1.0751953","-0.17773438","7.5625","-4.1875","1.4375"
"1573770360479","607","-0.072265625","-1.0527344","-0.16601562","6.09375","2.65625","-2.84375"
"1573770360479","608","-0.080078125","-1.0673828","-0.15917969","-1.4375","-1.1875","-1.65625"
"1573770360479","609","-0.064453125","-1.1162109","-0.18945312","6.75","1.0625","-1.25"
"1573770360872","610","-0.0625","-1.1455078","-0.18554688","4.625","-5.46875","-2.46875"
"1573770360873","611","-0.12109375","-1.2265625","-0.13476562","10.40625","0.34375","2.1875"
"1573770360873","612","-0.06347656","-1.1923828","-0.21972656","15.71875","8.875","0.28125"
"1573770360874","613","-0.018554688","-1.1152344","-0.14550781","3.875","0.4375","1.375"
"1573770360875","614","-0.06933594","-1.0380859","-0.12207031","11.15625","-6.1875","0.46875"
"1573770360875","615","-0.099609375","-1.0556641","-0.14648438","2.71875","-1.5625","1.3125"
"1573770360875","616","-0.080078125","-1.0976562","-0.13183594","-6.71875","-5.15625","1.375"
"1573770360876","617","-0.13769531","-1.1132812","-0.13476562","-3.8125","2.78125","5.03125"
"1573770360876","618","-0.061523438","-1.0527344","-0.16503906","4.6875","2.34375","0.15625"
"1573770360876","619","-0.07714844","-0.9863281","-0.13378906","-0.375","-7.65625","1.3125"
"1573770361271","620","-0.09667969","-0.9580078","-0.16210938","6.28125","2.96875","1.375"
"1573770361272","621","-0.10644531","-1.0419922","-0.087890625","-6.78125","2.21875","0.34375"
"1573770361272","622","-0.11328125","-0.9892578","-0.14257812","1.5","0.625","-0.15625"
"1573770361272","623","-0.09375","-1.0068359","-0.125","-5.9375","2.28125","-2.09375"
"1573770361273","624","-0.083984375","-0.9941406","-0.16113281","-3.4375","1.4375","-1.0625"
"1573770361274","625","-0.0546875","-0.9658203","-0.15429688","-2.71875","2.15625","-0.625"
"1573770361274","626","-0.04296875","-0.9160156","-0.12695312","0.90625","-2.71875","-2.71875"
"1573770361274","627","-0.07421875","-0.921875","-0.119140625","-3.9375","-3.8125","-1.375"
"1573770361275","628","-0.09667969","-0.96484375","-0.15234375","-2.8125","-0.34375","-1.3125"
"1573770361275","629","-0.07519531","-0.9550781","-0.14648438","-3.375","1.0625","-1.1875"
"1573770361669","630","-0.0625","-0.9277344","-0.12695312","-2.46875","-1.0625","-1.4375"
"1573770361669","631","-0.0546875","-0.90722656","-0.13476562","1.125","-0.40625","-1.25"
"1573770361670","632","-0.046875","-0.92578125","-0.14648438","-7.03125","-1.375","-6.5"
"1573770361670","633","0.009765625","-0.9199219","-0.11425781","-2.28125","-10.28125","-11.375"
"1573770361670","634","-0.038085938","-0.9013672","-0.12402344","2.3125","-7.40625","-10.28125"
"1573770361671","635","-0.03515625","-0.96875","-0.091796875","-18.75","-4.25","-8.4375"
"1573770361671","636","-0.04296875","-1.0107422","-0.16113281","-6.25","-6.6875","-9.3125"
"1573770361672","637","-0.016601562","-0.95703125","-0.1875","-7.34375","-10.15625","-8.875"
"1573770361673","638","-0.013671875","-0.9765625","-0.18652344","-6.0625","-13.78125","-11.5"
"1573770361673","639","-0.0625","-0.96875","-0.20019531","-8.5","-9.5","-7.65625"
"1573770362262","640","-0.076171875","-0.9433594","-0.22363281","-7.03125","-1.0625","0.28125"
"1573770362263","641","-0.009765625","-0.9921875","-0.21679688","-6.5625","-7.59375","0.03125"
"1573770362263","642","-0.0703125","-1.0068359","-0.203125","-2.65625","-8.8125","-0.15625"
"1573770362263","643","-0.12011719","-1.0380859","-0.21777344","-4.96875","4.46875","4.96875"
"1573770362263","644","-0.06542969","-1.0712891","-0.22070312","-4.96875","7.21875","5.53125"
"1573770362264","645","-0.029296875","-0.98046875","-0.18652344","8.28125","4.96875","-1.5625"
"1573770362264","646","-0.00390625","-0.93359375","-0.18945312","7.375","-2.40625","-1.1875"
"1573770362264","647","-0.025390625","-0.9736328","-0.19335938","4.125","-6.03125","-1.84375"
"1573770362265","648","-0.032226562","-1.0039062","-0.18164062","2.1875","3.6875","2.1875"
"1573770362266","649","-0.033203125","-0.99316406","-0.19238281","-6.125","3.375","3.46875"
"1573770362464","650","-0.024414062","-1.0136719","-0.20898438","-0.09375","4.0","3.03125"
"1573770362465","651","-0.028320312","-1.015625","-0.19921875","0.71875","1.4375","-0.15625"
"1573770362465","652","-0.0234375","-1.0126953","-0.19433594","1.5","3.375","-0.03125"
"1573770362466","653","-0.018554688","-1.0087891","-0.19433594","3.03125","2.53125","-1.3125"
"1573770362466","654","-0.026367188","-0.98828125","-0.19042969","2.4375","4.78125","-1.125"
"1573770362466","655","-0.024414062","-0.984375","-0.19335938","7.25","7.28125","-2.71875"
"1573770362466","656","-0.047851562","-0.9550781","-0.18164062","7.3125","8.9375","-2.71875"
"1573770362467","657","-0.021484375","-0.89941406","-0.18652344","8.09375","7.15625","-2.15625"
"1573770362467","658","0.034179688","-0.95410156","-0.18554688","-4.90625","-1.375","0.96875"
"1573770362467","659","-0.009765625","-0.93359375","-0.15722656","-0.03125","-3.8125","-2.65625"
"1573770362860","660","-0.051757812","-0.8330078","-0.15917969","6.09375","-0.46875","2.46875"
"1573770362861","661","-0.047851562","-0.91796875","-0.20605469","-2.46875","-0.84375","6.3125"
"1573770362862","662","-0.051757812","-1.0253906","-0.17675781","-7.46875","2.46875","6.875"
"1573770362862","663","-0.057617188","-0.9453125","-0.20898438","6.375","5.40625","4.125"
"1573770362862","664","-0.055664062","-0.99902344","-0.14355469","11.34375","8.5625","7.4375"
"1573770362862","665","-0.04296875","-0.9277344","-0.16015625","16.09375","11.5","2.96875"
"1573770362863","666","-0.015625","-0.8925781","-0.16699219","16.75","8.3125","0.71875"
"1573770362863","667","-0.032226562","-0.94433594","-0.1328125","3.875","5.46875","1.375"
"1573770362863","668","-0.040039062","-0.95410156","-0.12207031","0.28125","6.90625","3.75"
"1573770362863","669","-0.025390625","-1.0205078","-0.12597656","-1.90625","3.125","4.5"
"1573770363257","670","-0.055664062","-1.0615234","-0.12207031","-1.96875","2.59375","2.125"
"1573770363258","671","-0.057617188","-0.9785156","-0.16210938","2.65625","-4.84375","1.75"
"1573770363258","672","-0.032226562","-0.9921875","-0.15136719","-0.5","-5.78125","2.40625"
"1573770363259","673","-0.07324219","-1.0117188","-0.12988281","-0.375","-3.15625","0.90625"
"1573770363260","674","-0.06347656","-0.9980469","-0.13085938","4.8125","-3.40625","0.78125"
"1573770363260","675","-0.06347656","-0.99121094","-0.1640625","7.71875","0.40625","-0.28125"
"1573770363260","676","-0.037109375","-0.9941406","-0.13574219","-7.34375","1.125","2.40625"
"1573770363261","677","-0.072265625","-1.0273438","-0.14160156","3.59375","-10.21875","0.03125"
"1573770363261","678","-0.12695312","-1.0771484","-0.16992188","1.8125","-1.25","-0.4375"
"1573770363261","679","-0.046875","-1.0771484","-0.1328125","7.0625","-0.53125","-3.375"
"1573770363656","680","-0.052734375","-1.0537109","-0.13671875","7.1875","-5.15625","-4.1875"
"1573770363657","681","-0.036132812","-1.0615234","-0.14355469","4.8125","1.625","-3.6875"
"1573770363657","682","-0.0029296875","-1.0888672","-0.119140625","-5.5625","-1.5","-2.28125"
"1573770363657","683","-0.0703125","-1.1748047","-0.1171875","-9.78125","-1.875","-0.625"
"1573770363658","684","-0.08691406","-1.1835938","-0.14355469","-4.46875","0.75","0.65625"
"1573770363659","685","0.005859375","-1.1699219","-0.17089844","1.9375","5.09375","1.3125"
"1573770363660","686","-0.041992188","-1.1728516","-0.140625","3.9375","-3.15625","1.375"
"1573770363660","687","-0.05859375","-1.109375","-0.16210938","4.375","8.5","3.15625"
"1573770363660","688","-0.060546875","-1.0996094","-0.15234375","0.65625","4.125","4.75"
"1573770363660","689","-0.09472656","-1.0839844","-0.12402344","-5.375","5.875","5.34375"
"1573770364054","690","-0.034179688","-1.0791016","-0.14160156","-13.75","1.5","0.65625"
"1573770364054","691","-0.12109375","-1.1367188","-0.14746094","-8.25","-10.0","-0.375"
"1573770364055","692","-0.053710938","-1.0625","-0.20214844","-4.0","7.90625","3.34375"
"1573770364055","693","0.01171875","-1.0273438","-0.203125","-10.46875","-8.71875","0.90625"
"1573770364055","694","-0.049804688","-0.98828125","-0.16210938","-6.5","-9.75","4.0"
"1573770364056","695","-0.10058594","-1.0332031","-0.17480469","-4.90625","1.5625","5.78125"
"1573770364056","696","-0.04296875","-1.0166016","-0.16503906","-3.6875","1.0","1.4375"
"1573770364057","697","-0.08984375","-0.96777344","-0.16015625","-4.09375","-6.625","3.6875"
"1573770364058","698","-0.103515625","-0.94628906","-0.171875","-7.03125","-1.625","3.15625"
"1573770364058","699","-0.107421875","-0.953125","-0.20898438","-6.6875","0.28125","2.65625"
"1573770364452","700","-0.061523438","-0.9580078","-0.19238281","-5.28125","1.375","2.34375"
"1573770364452","701","-0.07421875","-0.96484375","-0.18847656","-5.5","-4.8125","-0.15625"
"1573770364452","702","-0.103515625","-0.9296875","-0.24316406","-3.0625","-5.09375","-1.0625"
"1573770364453","703","-0.060546875","-0.94628906","-0.20117188","-3.5","-0.71875","2.25"
"1573770364453","704","-0.07421875","-0.9589844","-0.21484375","3.21875","0.875","-0.34375"
"1573770364453","705","-0.060546875","-0.9404297","-0.21289062","1.75","-1.6875","-2.09375"
"1573770364453","706","-0.08300781","-0.92871094","-0.18945312","0.40625","5.59375","0.21875"
"1573770364454","707","-0.051757812","-0.9433594","-0.18652344","1.09375","-0.78125","-4.78125"
"1573770364454","708","-0.060546875","-0.9091797","-0.17675781","5.09375","-6.25","-5.40625"
"1573770364455","709","-0.08886719","-0.92871094","-0.16503906","0.40625","3.5625","-1.5625"
"1573770364847","710","-0.06542969","-0.91503906","-0.18945312","3.71875","3.875","-3.25"
"1573770364848","711","-0.087890625","-0.9433594","-0.17578125","1.625","3.0625","-1.5"
"1573770364848","712","-0.10253906","-0.97753906","-0.18945312","2.71875","5.59375","-2.9375"
"1573770364848","713","-0.08105469","-0.9423828","-0.19921875","6.9375","10.78125","-2.21875"
"1573770364849","714","-0.0390625","-0.9628906","-0.16210938","9.1875","4.0625","-2.46875"
"1573770364849","715","-0.064453125","-1.0087891","-0.15625","2.0","4.96875","-7.21875"
"1573770364849","716","-0.030273438","-1.0175781","-0.15332031","-1.78125","-1.9375","-5.34375"
"1573770364849","717","-0.041015625","-1.0009766","-0.18359375","-0.25","0.03125","-5.46875"
"1573770364850","718","-0.040039062","-0.9638672","-0.14257812","-13.03125","-0.46875","-5.28125"
"1573770364850","719","-0.041992188","-0.9746094","-0.20996094","5.53125","-1.4375","-6.6875"
"1573770365443","720","-0.0048828125","-0.9550781","-0.18164062","-3.875","-1.4375","-6.84375"
"1573770365444","721","-0.025390625","-1.0048828","-0.20019531","-3.5","-0.59375","1.875"
"1573770365445","722","0.001953125","-1.0595703","-0.26367188","-11.1875","1.78125","2.78125"
"1573770365446","723","0.025390625","-1.0185547","-0.2265625","-6.78125","-9.0625","-6.3125"
"1573770365446","724","-0.07910156","-0.93847656","-0.17578125","-4.65625","-7.71875","0.21875"
"1573770365446","725","-0.09863281","-0.96875","-0.18457031","1.75","-4.96875","4.25"
"1573770365447","726","-0.07910156","-0.9863281","-0.18945312","-4.34375","0.4375","3.625"
"1573770365447","727","-0.047851562","-1.03125","-0.22460938","-3.25","-0.28125","0.78125"
"1573770365447","728","-0.00390625","-1.0224609","-0.25","3.9375","1.0","-2.15625"
"1573770365447","729","-0.022460938","-0.9667969","-0.20410156","3.21875","0.6875","0.34375"
"1573770365644","730","-0.05078125","-0.96972656","-0.19238281","1.1875","-1.6875","3.46875"
"1573770365644","731","-0.08496094","-0.9921875","-0.22558594","0.34375","6.96875","3.875"
"1573770365645","732","-0.02734375","-1.0429688","-0.1953125","-4.96875","2.71875","-0.8125"
"1573770365646","733","-0.0234375","-0.9707031","-0.22167969","1.125","-7.90625","-0.8125"
"1573770365646","734","-0.048828125","-0.9863281","-0.21191406","-0.9375","-3.8125","0.21875"
"1573770365646","735","-0.03125","-0.97753906","-0.20703125","-2.65625","-3.875","-0.34375"
"1573770365647","736","-0.0390625","-0.9863281","-0.20117188","-3.625","-5.09375","0.40625"
"1573770365647","737","-0.055664062","-1.0078125","-0.22558594","0.15625","-2.78125","0.46875"
"1573770365647","738","-0.038085938","-0.9863281","-0.20605469","0.46875","1.0625","-0.28125"
"1573770365648","739","-0.045898438","-0.98535156","-0.203125","1.875","-1.5","0.46875"
"1573770366042","740","-0.040039062","-0.99316406","-0.22363281","2.375","-0.78125","0.40625"
"1573770366043","741","-0.026367188","-1.0039062","-0.22460938","3.40625","-0.34375","-1.375"
"1573770366043","742","-0.01953125","-1.0097656","-0.21386719","3.75","-3.46875","-2.15625"
"1573770366043","743","-0.057617188","-0.99902344","-0.21386719","7.65625","-2.71875","-3.5625"
"1573770366044","744","-0.059570312","-0.98046875","-0.19824219","2.0","-1.625","-0.5625"
"1573770366045","745","-0.0703125","-0.9941406","-0.20410156","7.4375","-0.9375","-1.5"
"1573770366045","746","-0.049804688","-0.98535156","-0.20507812","8.84375","2.09375","-0.09375"
"1573770366046","747","-0.020507812","-0.95996094","-0.19140625","5.53125","0.03125","-1.5"
"1573770366046","748","-0.026367188","-1.0058594","-0.1796875","12.96875","-2.46875","-2.09375"
"1573770366046","749","-0.034179688","-0.9863281","-0.15722656","2.59375","-5.40625","-3.0625"
"1573770366440","750","-0.04296875","-0.9658203","-0.15917969","7.96875","-2.78125","-1.5"
"1573770366440","751","-0.025390625","-0.9814453","-0.18945312","9.9375","-2.0","-0.875"
"1573770366440","752","-0.020507812","-0.93359375","-0.16503906","7.375","-4.6875","-2.71875"
"1573770366441","753","-0.021484375","-0.9238281","-0.15039062","6.75","-6.25","-2.40625"
"1573770366441","754","-0.013671875","-0.8886719","-0.13476562","4.875","-1.6875","-1.1875"
"1573770366441","755","-0.034179688","-0.86328125","-0.125","0.28125","-0.21875","2.40625"
"1573770366441","756","-0.053710938","-0.8876953","-0.1484375","-1.4375","2.65625","8.40625"
"1573770366443","757","-0.052734375","-0.9248047","-0.16210938","5.28125","-0.09375","4.8125"
"1573770366443","758","-0.09765625","-0.9707031","-0.09863281","5.59375","-1.125","0.40625"
"1573770366444","759","-0.09375","-1.0214844","-0.12890625","3.28125","3.5","1.0625"
"1573770366838","760","0.00390625","-1.0214844","-0.15527344","5.21875","1.0625","-2.53125"
"1573770366838","761","-0.026367188","-1.0205078","-0.08203125","6.15625","3.4375","-7.28125"
"1573770366839","762","0.016601562","-1.0224609","-0.16503906","-1.375","-5.46875","0.34375"
"1573770366839","763","-0.0087890625","-1.1035156","-0.14355469","-6.3125","-3.40625","0.78125"
"1573770366839","764","-0.044921875","-0.9716797","-0.12792969","0.90625","-8.15625","-2.09375"
"1573770366839","765","-0.061523438","-0.9736328","-0.1640625","0.84375","-4.0625","1.875"
"1573770366840","766","-0.061523438","-1.0087891","-0.14746094","-4.53125","6.1875","3.09375"
"1573770366840","767","-0.013671875","-1.0166016","-0.13769531","-9.65625","6.625","0.90625"
"1573770366840","768","-0.015625","-1.0234375","-0.15039062","-6.3125","0.15625","-3.4375"
"1573770366841","769","-0.041015625","-1.0029297","-0.14453125","-5.03125","-4.1875","-1.78125"
"1573770367430","770","-0.061523438","-0.99902344","-0.1484375","-3.8125","-5.71875","1.5"
"1573770367431","771","-0.06347656","-1.0361328","-0.14648438","2.3125","3.875","0.78125"
"1573770367431","772","-0.0546875","-1.046875","-0.17382812","1.5","5.28125","0.15625"
"1573770367432","773","-0.03125","-1.0097656","-0.16015625","2.46875","3.5625","0.53125"
"1573770367432","774","-0.052734375","-0.9921875","-0.17578125","3.53125","4.0625","2.1875"
"1573770367432","775","-0.06347656","-1.0371094","-0.11035156","-7.59375","9.78125","3.6875"
"1573770367432","776","-0.041992188","-1.0585938","-0.17382812","3.53125","8.4375","-0.28125"
"1573770367433","777","-0.061523438","-1.0742188","-0.13964844","-6.5625","4.78125","-4.0625"
"1573770367433","778","-0.028320312","-1.0205078","-0.16015625","-4.84375","2.71875","-1.65625"
"1573770367433","779","-0.024414062","-1.0722656","-0.19628906","-8.125","-4.5","1.125"
"1573770367631","780","-0.076171875","-1.0791016","-0.16113281","-1.3125","6.6875","-1.0"
"1573770367633","781","-0.038085938","-1.0859375","-0.16503906","-5.9375","0.625","-1.90625"
"1573770367633","782","-0.009765625","-1.0878906","-0.20605469","-1.46875","1.625","-1.96875"
"1573770367634","783","-0.00390625","-1.1298828","-0.18164062","-0.03125","-2.46875","-3.0625"
"1573770367634","784","-0.0146484375","-1.1162109","-0.22949219","5.84375","5.9375","-1.71875"
"1573770367634","785","-0.080078125","-1.1269531","-0.20507812","9.8125","12.84375","5.71875"
"1573770367635","786","-0.06640625","-1.03125","-0.23242188","8.84375","23.65625","11.34375"
"1573770367635","787","0.0234375","-1.0439453","-0.13378906","-7.90625","0.40625","7.0625"
"1573770367635","788","-0.09277344","-0.9970703","-0.12890625","16.59375","4.84375","1.3125"
"1573770367636","789","-0.076171875","-1.125","-0.12402344","-0.03125","0.75","2.1875"
"1573770368030","790","-0.034179688","-1.0058594","-0.19433594","10.1875","7.34375","1.375"
"1573770368031","791","0.03125","-1.0517578","-0.18457031","-0.3125","4.84375","0.96875"
"1573770368031","792","-0.018554688","-0.9375","-0.119140625","13.71875","-2.40625","-2.09375"
"1573770368032","793","-0.043945312","-0.99609375","-0.15136719","-6.78125","-5.40625","7.59375"
"1573770368033","794","-0.064453125","-1.0537109","-0.11425781","2.375","5.9375","-0.15625"
"1573770368033","795","-0.07910156","-0.93847656","-0.103515625","3.03125","-5.46875","1.5"
"1573770368033","796","-0.12011719","-1.0205078","-0.15429688","-3.4375","-6.8125","13.78125"
"1573770368034","797","-0.056640625","-1.0703125","-0.18945312","6.75","18.09375","-4.1875"
"1573770368034","798","-0.020507812","-0.93847656","-0.040039062","1.8125","-10.15625","-3.4375"
"1573770368034","799","-0.09667969","-0.9892578","-0.18554688","7.90625","-2.96875","-1.84375"
"1573770368425","800","-0.024414062","-1.0048828","-0.13183594","-7.28125","-2.0625","0.28125"
"1573770368425","801","-0.080078125","-0.9941406","-0.13964844","-5.5","1.0625","-3.3125"
"1573770368426","802","-0.041015625","-0.9892578","-0.123046875","1.6875","-4.125","-0.6875"
"1573770368426","803","-0.10546875","-0.9970703","-0.13671875","6.5","5.15625","-1.96875"
"1573770368426","804","0.043945312","-0.91015625","-0.13378906","0.46875","4.0625","-5.28125"
"1573770368428","805","-0.10253906","-1.03125","-0.0859375","1.1875","-4.4375","0.65625"
"1573770368429","806","-0.05078125","-0.9785156","-0.18457031","12.75","9.0","-7.28125"
"1573770368429","807","-0.015625","-0.97558594","-0.083984375","-6.0","-5.96875","1.5"
"1573770368429","808","-0.07910156","-0.984375","-0.16015625","6.09375","5.9375","-4.25"
"1573770368430","809","0.0068359375","-0.9326172","-0.11816406","5.0","-2.46875","0.59375"
"1573770368823","810","-0.05859375","-0.9375","-0.1640625","-2.65625","-1.75","-0.4375"
"1573770368824","811","-0.020507812","-0.9189453","-0.06542969","4.4375","4.71875","1.4375"
"1573770368824","812","-0.13378906","-0.9736328","-0.12011719","-3.25","-6.8125","5.09375"
"1573770368824","813","0.0087890625","-0.98535156","-0.15136719","-5.8125","3.625","5.09375"
"1573770368824","814","-0.041015625","-1.0683594","-0.09765625","-16.9375","-11.6875","1.0"
"1573770368825","815","-0.04296875","-0.9628906","-0.10253906","-0.3125","-2.125","-5.21875"
"1573770368825","816","0.015625","-0.97558594","-0.11035156","-11.4375","-16.8125","0.09375"
"1573770368826","817","-0.06347656","-0.9433594","-0.15136719","0.28125","-4.8125","-7.84375"
"1573770368826","818","-0.02734375","-0.9472656","-0.099609375","-10.34375","-10.65625","-4.0"
"1573770368827","819","-0.015625","-1.0","-0.15429688","-8.125","-16.46875","-4.84375"
"1573770369221","820","-0.076171875","-0.99609375","-0.14160156","-5.6875","-4.0625","-11.0625"
"1573770369222","821","-0.022460938","-0.91308594","-0.16503906","-7.28125","-14.0","-1.65625"
"1573770369222","822","-0.005859375","-0.9736328","-0.19726562","-10.6875","-10.0","2.28125"
"1573770369222","823","-0.00390625","-1.0","-0.17871094","5.0","-3.5625","-4.25"
"1573770369222","824","-0.052734375","-1.03125","-0.16308594","-6.71875","-10.84375","4.125"
"1573770369223","825","-0.041015625","-1.0878906","-0.25097656","-5.09375","-8.65625","1.625"
"1573770369223","826","-0.04296875","-1.0087891","-0.19238281","4.6875","-4.6875","-2.09375"
"1573770369223","827","-0.056640625","-0.96972656","-0.17285156","-3.125","-7.125","1.0"
"1573770369223","828","-0.044921875","-0.96777344","-0.15625","0.53125","-6.3125","-2.09375"
"1573770369224","829","-0.05859375","-0.95703125","-0.15917969","-0.9375","-7.53125","1.3125"
"1573770369619","830","-0.051757812","-1.0068359","-0.1796875","-3.875","-4.0","4.90625"
"1573770369619","831","-0.0234375","-1.0029297","-0.20117188","-0.625","-2.0625","4.0"
"1573770369620","832","-0.05078125","-0.99609375","-0.20019531","0.96875","-2.0","2.90625"
"1573770369620","833","-0.064453125","-1.0302734","-0.18945312","-2.53125","2.40625","3.46875"
"1573770369620","834","-0.033203125","-0.9970703","-0.20605469","-0.875","-0.15625","3.46875"
"1573770369620","835","-0.046875","-0.99902344","-0.17285156","-3.125","-3.46875","4.96875"
"1573770369621","836","-0.0703125","-0.9394531","-0.17089844","3.21875","-7.375","5.96875"
"1573770369621","837","-0.09375","-0.86328125","-0.15527344","7.90625","-11.3125","8.46875"
"1573770369621","838","-0.0390625","-0.89160156","-0.22851562","8.78125","-9.6875","6.5625"
"1573770369621","839","-0.033203125","-0.8720703","-0.15039062","-1.0625","-10.71875","2.0625"
"1573770370016","840","-0.09667969","-0.85058594","-0.14550781","-0.9375","-0.46875","3.09375"
"1573770370017","841","-0.055664062","-0.85253906","-0.17578125","-3.625","9.375","9.5"
"1573770370018","842","-0.013671875","-0.96777344","-0.20800781","-4.84375","-5.09375","5.46875"
"1573770370018","843","-0.08300781","-0.99121094","-0.13378906","-3.125","-6.4375","-4.28125"
"1573770370018","844","-0.17871094","-0.9511719","-0.14355469","9.875","1.6875","-8.6875"
"1573770370019","845","-0.045898438","-1.0302734","-0.17675781","-4.78125","1.25","-2.21875"
"1573770370019","846","-0.038085938","-1.0830078","-0.14160156","-6.5","10.28125","-3.4375"
"1573770370019","847","-0.009765625","-1.0078125","-0.19628906","10.0625","0.40625","-4.40625"
"1573770370020","848","-0.05078125","-0.97753906","-0.17773438","9.5625","-9.625","-2.59375"
"1573770370020","849","-0.12011719","-1.0615234","-0.171875","9.0","4.125","-2.90625"
"1573770370412","850","-0.056640625","-0.9638672","-0.2109375","20.125","-0.03125","-1.65625"
"1573770370413","851","-0.07519531","-0.9638672","-0.14257812","7.71875","-0.40625","5.40625"
"1573770370413","852","-0.087890625","-0.9941406","-0.14257812","12.25","4.34375","2.53125"
"1573770370414","853","-0.07421875","-1.0107422","-0.12792969","12.5","4.0","0.03125"
"1573770370415","854","-0.103515625","-1.0273438","-0.109375","7.4375","3.3125","0.96875"
"1573770370415","855","-0.06933594","-1.0351562","-0.12597656","2.71875","5.03125","1.625"
"1573770370415","856","-0.09765625","-1.0458984","-0.10644531","3.46875","6.125","2.46875"
"1573770370415","857","-0.06738281","-1.0380859","-0.11621094","3.46875","5.46875","1.0"
"1573770370416","858","-0.095703125","-1.0351562","-0.08300781","-1.375","5.28125","-0.75"
"1573770370416","859","-0.08984375","-1.0273438","-0.10253906","-3.125","5.09375","-3.125"
"1573770370810","860","-0.08105469","-1.0507812","-0.12402344","-4.21875","1.25","-5.6875"
"1573770370810","861","-0.060546875","-1.0078125","-0.109375","-4.0","2.34375","-6.6875"
"1573770370810","862","-0.072265625","-1.0976562","-0.15625","-5.75","-1.1875","-4.90625"
"1573770370811","863","-0.056640625","-1.09375","-0.115234375","-4.28125","3.3125","-7.59375"
"1573770370811","864","-0.016601562","-1.1425781","-0.18066406","-2.71875","-7.40625","-0.5"
"1573770370812","865","-0.072265625","-1.1708984","-0.21875","23.96875","-17.8125","-10.75"
"1573770370812","866","0.0068359375","-1.1953125","-0.07519531","37.75","-26.59375","-7.90625"
"1573770370813","867","-0.057617188","-1.1044922","-0.091796875","30.25","-3.875","-2.53125"
"1573770370813","868","-0.0068359375","-1.1464844","-0.06933594","31.28125","5.21875","-1.0625"
"1573770370813","869","-0.095703125","-1.0292969","-0.034179688","5.84375","0.4375","5.71875"
"1573770371209","870","0.046875","-1.078125","-0.09277344","8.53125","3.5625","3.34375"
"1573770371209","871","-0.099609375","-1.0771484","0.005859375","-4.84375","-6.09375","2.53125"
"1573770371210","872","-0.08105469","-1.0771484","-0.020507812","-3.3125","-1.75","8.28125"
"1573770371210","873","-0.0234375","-1.0908203","-0.064453125","-0.625","2.65625","-0.9375"
"1573770371210","874","-0.02734375","-1.0224609","-0.045898438","-2.875","-4.6875","-0.09375"
"1573770371210","875","-0.07421875","-1.0214844","-0.03515625","-7.59375","-1.3125","1.5"
"1573770371211","876","-0.087890625","-1.1035156","-0.080078125","-7.71875","0.4375","1.6875"
"1573770371212","877","-0.032226562","-1.0351562","-0.038085938","-1.0","2.96875","-4.71875"
"1573770371212","878","-0.0087890625","-0.93652344","-0.06640625","-7.78125","-8.71875","0.03125"
"1573770371213","879","-0.068359375","-1.0117188","-0.07910156","-2.53125","-2.78125","-3.6875"
"1573770371606","880","-0.05859375","-0.9589844","-0.087890625","-9.34375","-7.59375","-3.5625"
"1573770371607","881","-0.06640625","-0.96777344","-0.07128906","-5.6875","-6.3125","-0.5"
"1573770371607","882","-0.053710938","-0.9248047","-0.111328125","-0.875","-3.28125","-1.71875"
"1573770371608","883","-0.03515625","-0.9628906","-0.059570312","-1.71875","-4.25","-3.9375"
"1573770371608","884","-0.052734375","-0.9238281","-0.048828125","-2.875","-1.4375","-3.25"
"1573770371608","885","-0.0703125","-0.97265625","-0.08886719","-6.90625","-0.53125","-1.0625"
"1573770371608","886","-0.038085938","-0.96777344","-0.11035156","-8.9375","2.21875","-1.3125"
"1573770371609","887","-0.044921875","-0.93847656","-0.08203125","-4.21875","3.8125","-1.5"
"1573770371609","888","-0.048828125","-0.9501953","-0.09765625","-0.875","1.5625","-0.28125"
"1573770371611","889","-0.048828125","-0.9560547","-0.10058594","-3.5","6.90625","-0.09375"
"1573770372004","890","-0.032226562","-0.9658203","-0.08886719","-3.1875","8.3125","-1.0"
"1573770372005","891","-0.0078125","-0.93359375","-0.13769531","3.875","4.25","-1.96875"
"1573770372005","892","-0.040039062","-0.9707031","-0.08691406","-8.0","1.25","-3.8125"
"1573770372005","893","0.0390625","-0.96191406","-0.12890625","1.03125","-0.65625","-1.84375"
"1573770372006","894","0.0068359375","-0.9824219","-0.07324219","-17.71875","-9.4375","-2.28125"
"1573770372006","895","-0.06933594","-0.97558594","-0.09472656","-11.875","-7.125","-5.625"
"1573770372006","896","-0.045898438","-0.9873047","-0.125","-9.59375","0.40625","-2.40625"
"1573770372006","897","-0.040039062","-0.99902344","-0.13574219","-3.6875","1.5","-4.0"
"1573770372007","898","-0.030273438","-0.9560547","-0.12402344","0.46875","2.96875","-4.34375"
"1573770372007","899","-0.0078125","-0.9511719","-0.12597656","4.375","-3.46875","-1.71875"
"1573770372401","900","-0.022460938","-0.99609375","-0.123046875","1.03125","-1.25","0.09375"
"1573770372402","901","-0.041015625","-1.0068359","-0.13183594","-5.15625","3.1875","-2.59375"
"1573770372403","902","-0.009765625","-0.984375","-0.15722656","-2.28125","4.40625","0.03125"
"1573770372403","903","-0.009765625","-1.0136719","-0.13867188","-0.03125","1.90625","0.84375"
"1573770372403","904","-0.022460938","-0.96972656","-0.13671875","-1.0","1.4375","-1.84375"
"1573770372404","905","-0.034179688","-1.0166016","-0.15917969","-5.5","1.375","-0.9375"
"1573770372404","906","0.005859375","-1.0107422","-0.13671875","0.34375","8.5","-1.25"
"1573770372404","907","-0.005859375","-0.9814453","-0.13476562","-6.3125","-5.90625","0.71875"
"1573770372405","908","-0.032226562","-1.0175781","-0.14257812","2.90625","0.8125","0.65625"
"1573770372405","909","-0.018554688","-0.9873047","-0.13867188","-0.875","-0.03125","1.625"
