"# PR data"
"# Start time: 20191112T204538"
"# Subject: Adela"
"# Activity type: Heel raises"
"# Correctness: Incorrect"
"# Notes: "
""
"timestamp","seq","accel_x","accel_y","accel_z","gyro_x","gyro_y","gyro_z"
"1573591538639","0","-0.14550781","-0.9765625","-0.2421875","-2.21875","-3.4375","-0.75"
"1573591538640","1","-0.140625","-0.9873047","-0.23339844","-3.96875","-1.34375","-1.96875"
"1573591538641","2","-0.13964844","-0.9921875","-0.23925781","-5.15625","-1.40625","-2.03125"
"1573591538641","3","-0.14355469","-0.98339844","-0.2421875","-6.59375","2.4375","-2.6875"
"1573591538641","4","-0.15332031","-0.9716797","-0.22558594","-6.90625","-2.8125","-1.53125"
"1573591538641","5","-0.15722656","-0.9794922","-0.22949219","-2.40625","0.09375","-1.46875"
"1573591538642","6","-0.15234375","-0.9902344","-0.23925781","-2.875","-3.25","-1.90625"
"1573591538642","7","-0.14648438","-0.97558594","-0.22851562","-1.53125","0.15625","-2.28125"
"1573591538642","8","-0.13769531","-0.98535156","-0.23632812","-1.96875","0.59375","-2.21875"
"1573591538642","9","-0.13671875","-0.98828125","-0.24511719","-1.53125","-1.125","-1.46875"
"1573591539035","10","-0.13964844","-0.9580078","-0.234375","-4.03125","2.71875","-2.75"
"1573591539035","11","-0.14941406","-1.0097656","-0.2548828","-3.1875","2.90625","-2.75"
"1573591539035","12","-0.125","-0.95996094","-0.21386719","-9.34375","6.21875","-3.75"
"1573591539036","13","-0.140625","-0.9951172","-0.2734375","-2.46875","-0.6875","-1.65625"
"1573591539036","14","-0.13183594","-0.9716797","-0.24511719","-3.0625","0.59375","-2.625"
"1573591539037","15","-0.12988281","-0.9814453","-0.24902344","-2.625","-0.875","-1.78125"
"1573591539037","16","-0.14160156","-0.9824219","-0.25195312","-3.1875","0.46875","-2.34375"
"1573591539037","17","-0.125","-0.97558594","-0.25097656","-5.5625","-0.4375","-1.90625"
"1573591539038","18","-0.12792969","-0.9824219","-0.26367188","-2.875","-0.75","-1.65625"
"1573591539040","19","-0.12402344","-0.97753906","-0.2607422","-2.8125","-1.34375","-1.46875"
"1573591539434","20","-0.12792969","-0.98535156","-0.2578125","-3.5625","-2.59375","-1.65625"
"1573591539434","21","-0.12988281","-0.9814453","-0.2578125","-5.4375","-1.71875","-1.84375"
"1573591539435","22","-0.13085938","-0.99121094","-0.2626953","-5.03125","-4.34375","-2.40625"
"1573591539435","23","-0.13769531","-1.0","-0.265625","-2.21875","-5.25","-2.8125"
"1573591539435","24","-0.12597656","-0.96875","-0.26757812","-0.6875","-1.59375","-3.125"
"1573591539436","25","-0.13964844","-0.9941406","-0.2626953","-10.875","-3.125","-3.96875"
"1573591539436","26","-0.115234375","-0.984375","-0.25","-1.0625","-3.1875","-2.875"
"1573591539436","27","-0.12792969","-0.9746094","-0.27246094","-3.6875","-4.40625","-1.90625"
"1573591539437","28","-0.12695312","-0.96972656","-0.25","-3.125","-2.28125","-1.34375"
"1573591539437","29","-0.14453125","-0.9892578","-0.2529297","-1.46875","-1.71875","-0.9375"
"1573591539830","30","-0.14648438","-0.99609375","-0.24804688","-2.28125","1.375","-0.8125"
"1573591539830","31","-0.15429688","-0.9921875","-0.24316406","-0.25","5.28125","-0.3125"
"1573591539830","32","-0.13964844","-0.9873047","-0.24316406","2.0","6.34375","-0.4375"
"1573591539831","33","-0.1328125","-0.98828125","-0.23828125","3.21875","5.21875","-1.0625"
"1573591539831","34","-0.13476562","-0.98046875","-0.25390625","-0.0625","-3.1875","-0.5"
"1573591539831","35","-0.13867188","-0.9785156","-0.24023438","6.5625","0.21875","0.46875"
"1573591539831","36","-0.13378906","-0.9921875","-0.24902344","8.28125","3.90625","0.71875"
"1573591539833","37","-0.12890625","-0.9873047","-0.23144531","1.3125","5.0625","2.25"
"1573591539833","38","-0.12988281","-0.97558594","-0.24609375","1.6875","4.3125","2.3125"
"1573591539833","39","-0.15820312","-0.9921875","-0.21875","-1.1875","4.3125","1.5625"
"1573591540228","40","-0.12109375","-0.97558594","-0.24316406","-1.0625","7.96875","2.0625"
"1573591540228","41","-0.15722656","-0.9716797","-0.2607422","-0.5625","-0.1875","2.84375"
"1573591540228","42","-0.12988281","-1.0019531","-0.23925781","0.46875","6.21875","2.0625"
"1573591540229","43","-0.1328125","-0.9863281","-0.23046875","0.84375","4.9375","2.25"
"1573591540229","44","-0.13574219","-0.9794922","-0.21582031","-0.3125","3.15625","1.6875"
"1573591540229","45","-0.15722656","-0.98339844","-0.20898438","-1.0625","5.96875","2.0"
"1573591540230","46","-0.16308594","-0.98046875","-0.22265625","-3.5625","4.3125","1.8125"
"1573591540230","47","-0.14550781","-0.96875","-0.23046875","0.71875","1.5625","0.65625"
"1573591540230","48","-0.15234375","-0.97753906","-0.22363281","0.09375","2.1875","0.53125"
"1573591540230","49","-0.14746094","-0.984375","-0.22265625","0.15625","4.25","-0.75"
"1573591540822","50","-0.11816406","-0.9873047","-0.23535156","-1.59375","-1.1875","0.03125"
"1573591540822","51","-0.14941406","-1.0273438","-0.23144531","-6.125","-1.46875","1.5"
"1573591540822","52","-0.14355469","-0.97558594","-0.25195312","-1.3125","-1.46875","0.90625"
"1573591540823","53","-0.17382812","-1.0175781","-0.20800781","-0.375","-1.53125","-2.03125"
"1573591540823","54","-0.13769531","-0.9892578","-0.1953125","-2.8125","1.28125","-1.53125"
"1573591540823","55","-0.16699219","-0.9951172","-0.22460938","-2.28125","-4.21875","-1.3125"
"1573591540823","56","-0.14355469","-0.9394531","-0.22167969","-2.28125","-1.46875","-1.84375"
"1573591540824","57","-0.14160156","-0.95996094","-0.23828125","-2.09375","-0.1875","-2.53125"
"1573591540824","58","-0.14160156","-1.0039062","-0.24609375","-5.03125","-1.65625","-3.25"
"1573591540824","59","-0.15625","-0.98339844","-0.23925781","-7.65625","1.6875","-4.03125"
"1573591541024","60","-0.16015625","-0.9970703","-0.21289062","-5.25","-3.5","-3.375"
"1573591541025","61","-0.17089844","-0.9746094","-0.24609375","-2.625","-1.84375","-2.28125"
"1573591541026","62","-0.1484375","-0.94628906","-0.2529297","-5.03125","-2.21875","-1.90625"
"1573591541026","63","-0.14941406","-0.96972656","-0.2421875","1.28125","-0.5625","-3.375"
"1573591541026","64","-0.13769531","-0.96875","-0.25585938","-5.3125","1.8125","-3.625"
"1573591541027","65","-0.09765625","-1.015625","-0.22363281","-4.21875","-1.25","-1.46875"
"1573591541027","66","-0.14355469","-1.0068359","-0.24316406","-5.5625","-23.34375","-2.03125"
"1573591541027","67","-0.16601562","-0.98046875","-0.26367188","-4.65625","-16.6875","0.90625"
"1573591541027","68","-0.16894531","-0.9658203","-0.20214844","-8.75","0.59375","-1.96875"
"1573591541028","69","-0.14941406","-1.0029297","-0.25097656","2.5","-8.4375","-1.0625"
"1573591541422","70","-0.17480469","-0.96875","-0.23339844","0.96875","2.375","-2.21875"
"1573591541423","71","-0.16015625","-0.95703125","-0.22363281","1.5625","5.78125","-1.25"
"1573591541423","72","-0.17089844","-0.9394531","-0.20117188","4.875","5.53125","1.3125"
"1573591541424","73","-0.15625","-0.9296875","-0.22363281","3.65625","12.75","-1.1875"
"1573591541425","74","-0.103515625","-0.8984375","-0.24414062","0.40625","11.8125","-1.84375"
"1573591541425","75","-0.072265625","-0.9970703","-0.25","-4.09375","7.625","-3.1875"
"1573591541425","76","-0.12011719","-0.8671875","-0.203125","-0.9375","1.28125","-4.90625"
"1573591541426","77","-0.16015625","-0.92871094","-0.23925781","0.96875","-1.65625","3.78125"
"1573591541426","78","-0.15527344","-1.0078125","-0.21582031","10.46875","9.5625","0.53125"
"1573591541426","79","-0.17675781","-1.1025391","-0.19140625","10.90625","5.125","-0.8125"
"1573591541817","80","-0.18261719","-1.0224609","-0.171875","1.3125","11.03125","-0.8125"
"1573591541817","81","-0.14746094","-0.9794922","-0.20019531","-0.625","11.875","-1.34375"
"1573591541817","82","-0.125","-0.9511719","-0.20019531","8.28125","10.71875","-0.6875"
"1573591541818","83","-0.107421875","-0.9873047","-0.19824219","-3.75","10.84375","-1.34375"
"1573591541818","84","-0.10253906","-0.9814453","-0.23242188","-0.5625","0.65625","-0.6875"
"1573591541819","85","-0.123046875","-1.0126953","-0.21582031","-7.21875","5.53125","0.03125"
"1573591541819","86","-0.13769531","-1.0712891","-0.23242188","-5.15625","2.84375","-1.46875"
"1573591541819","87","-0.14746094","-1.0458984","-0.21972656","-2.9375","1.625","-1.71875"
"1573591541820","88","-0.1328125","-1.0585938","-0.22265625","-3.625","-1.34375","0.28125"
"1573591541820","89","-0.12792969","-1.0253906","-0.19433594","-3.0625","-4.65625","-1.53125"
"1573591542217","90","-0.15527344","-0.93652344","-0.19726562","-9.125","-8.8125","-1.78125"
"1573591542217","91","-0.15429688","-0.94921875","-0.21582031","-5.4375","0.71875","0.40625"
"1573591542218","92","-0.14355469","-0.9580078","-0.22070312","-3.4375","4.0","-0.125"
"1573591542218","93","-0.12890625","-1.0283203","-0.22851562","-3.0625","1.8125","0.28125"
"1573591542218","94","-0.13085938","-1.0146484","-0.21386719","-5.09375","0.21875","-1.34375"
"1573591542218","95","-0.13085938","-0.99609375","-0.22070312","-5.09375","-3.625","0.96875"
"1573591542219","96","-0.15136719","-0.9794922","-0.203125","-3.375","-2.03125","0.53125"
"1573591542220","97","-0.15136719","-0.94433594","-0.22753906","-1.1875","-2.28125","2.65625"
"1573591542221","98","-0.15234375","-0.9560547","-0.21679688","2.65625","1.6875","4.6875"
"1573591542221","99","-0.18554688","-0.9746094","-0.20800781","-7.46875","2.375","0.90625"
"1573591542613","100","-0.13085938","-0.97558594","-0.20898438","0.03125","2.96875","2.96875"
"1573591542614","101","-0.15722656","-0.97265625","-0.25","0.03125","0.78125","3.03125"
"1573591542614","102","-0.15429688","-0.9111328","-0.19824219","4.875","-0.5","3.46875"
"1573591542614","103","-0.15527344","-0.89941406","-0.23730469","6.875","-1.96875","5.40625"
"1573591542614","104","-0.12695312","-0.9716797","-0.22558594","6.5625","1.03125","5.59375"
"1573591542615","105","-0.15234375","-0.99316406","-0.19726562","6.34375","0.09375","7.0"
"1573591542615","106","-0.24609375","-1.1503906","-0.19335938","13.15625","10.90625","10.84375"
"1573591542615","107","-0.23046875","-1.0566406","-0.15332031","20.0625","7.8125","11.9375"
"1573591542616","108","-0.26464844","-0.9560547","-0.11816406","23.78125","-5.6875","19.8125"
"1573591542616","109","-0.21875","-0.9433594","-0.15625","23.65625","6.21875","17.75"
"1573591543011","110","-0.20117188","-0.9375","-0.15917969","19.9375","17.1875","14.3125"
"1573591543011","111","-0.17675781","-0.99609375","-0.14257812","18.0625","14.9375","12.375"
"1573591543012","112","-0.17773438","-0.99609375","-0.09082031","19.40625","0.15625","11.03125"
"1573591543012","113","-0.20605469","-1.0224609","-0.10058594","10.78125","-12.09375","11.59375"
"1573591543012","114","-0.2705078","-1.0048828","-0.09863281","7.3125","-12.34375","11.28125"
"1573591543012","115","-0.22949219","-0.93652344","-0.12792969","10.125","-0.6875","7.25"
"1573591543013","116","-0.27148438","-1.0039062","-0.12597656","4.0","1.4375","6.03125"
"1573591543013","117","-0.22460938","-0.9951172","-0.07910156","9.125","6.6875","0.90625"
"1573591543013","118","-0.21386719","-0.9951172","-0.119140625","-0.4375","0.96875","0.09375"
"1573591543013","119","-0.24511719","-0.9941406","-0.08203125","-0.1875","4.0625","-3.1875"
"1573591543407","120","-0.24316406","-0.99121094","-0.087890625","-1.34375","7.4375","-4.78125"
"1573591543408","121","-0.24414062","-0.9970703","-0.07714844","-2.03125","8.21875","-7.9375"
"1573591543409","122","-0.2265625","-0.9892578","-0.07910156","-6.96875","7.3125","-9.46875"
"1573591543409","123","-0.21191406","-0.9902344","-0.080078125","-2.46875","4.0625","-8.5625"
"1573591543409","124","-0.22949219","-0.9970703","-0.091796875","-10.9375","3.71875","-9.65625"
"1573591543409","125","-0.21582031","-0.984375","-0.080078125","-9.90625","3.65625","-10.34375"
"1573591543410","126","-0.22167969","-0.9921875","-0.09472656","-13.5","3.34375","-10.875"
"1573591543410","127","-0.22070312","-0.97558594","-0.10546875","-12.84375","3.65625","-9.96875"
"1573591543410","128","-0.21679688","-0.9863281","-0.10839844","-11.5625","5.28125","-8.5"
"1573591543410","129","-0.20605469","-0.98339844","-0.11328125","-6.4375","6.09375","-7.875"
"1573591543806","130","-0.19628906","-0.98828125","-0.115234375","-6.3125","4.8125","-7.21875"
"1573591543806","131","-0.20117188","-0.9863281","-0.11425781","-8.4375","6.40625","-7.40625"
"1573591543806","132","-0.1953125","-0.99609375","-0.12402344","-7.28125","2.5","-6.3125"
"1573591543808","133","-0.18164062","-0.99316406","-0.11035156","-6.84375","4.9375","-6.0625"
"1573591543808","134","-0.18164062","-0.97558594","-0.14160156","-11.71875","8.84375","-8.25"
"1573591543808","135","-0.171875","-0.99609375","-0.12792969","-1.90625","-0.5625","-5.625"
"1573591543808","136","-0.18652344","-0.984375","-0.15039062","-10.21875","4.1875","-5.9375"
"1573591543809","137","-0.16210938","-0.98046875","-0.13476562","-9.40625","5.1875","-5.9375"
"1573591543809","138","-0.16503906","-0.99902344","-0.14355469","-5.21875","2.59375","-5.03125"
"1573591543809","139","-0.16503906","-0.98828125","-0.15625","-6.5","2.3125","-5.25"
"1573591544205","140","-0.14941406","-0.9902344","-0.1640625","-5.5625","2.3125","-5.21875"
"1573591544206","141","-0.1484375","-0.9902344","-0.16308594","-5.8125","1.3125","-4.28125"
"1573591544206","142","-0.1484375","-0.984375","-0.16308594","-6.25","1.625","-4.53125"
"1573591544207","143","-0.13574219","-0.9951172","-0.16015625","-2.59375","0.96875","-4.34375"
"1573591544207","144","-0.14746094","-0.97753906","-0.15429688","5.0","-2.09375","-4.09375"
"1573591544207","145","-0.14355469","-0.99316406","-0.16796875","-7.34375","-5.9375","-2.34375"
"1573591544208","146","-0.14453125","-0.99121094","-0.15429688","-5.75","-0.375","-5.15625"
"1573591544208","147","-0.1484375","-0.99121094","-0.16699219","-4.96875","-2.59375","-4.65625"
"1573591544209","148","-0.14160156","-0.9921875","-0.15039062","-5.15625","-2.6875","-5.5625"
"1573591544209","149","-0.12402344","-1.0068359","-0.16894531","-7.09375","-2.09375","-6.1875"
"1573591544797","150","-0.13378906","-0.9892578","-0.17382812","-3.75","0.78125","-5.75"
"1573591544797","151","-0.15820312","-1.0058594","-0.15625","-13.8125","0.40625","-5.625"
"1573591544797","152","-0.119140625","-0.96875","-0.16992188","-9.125","5.0625","-3.90625"
"1573591544798","153","-0.16601562","-0.9941406","-0.19921875","-6.65625","-0.3125","-2.59375"
"1573591544798","154","-0.12890625","-0.9765625","-0.171875","-2.875","7.0625","-2.9375"
"1573591544798","155","-0.13964844","-1.0","-0.18457031","-4.53125","10.3125","-2.625"
"1573591544798","156","-0.12695312","-1.0039062","-0.18359375","-4.53125","7.96875","-2.09375"
"1573591544799","157","-0.12402344","-0.98046875","-0.1796875","-3.0","6.8125","-1.53125"
"1573591544800","158","-0.125","-0.984375","-0.18945312","0.0","7.0","-0.625"
"1573591544800","159","-0.12402344","-0.98339844","-0.18066406","0.46875","8.90625","0.46875"
"1573591544998","160","-0.11425781","-1.0078125","-0.17578125","-0.375","8.96875","-0.375"
"1573591544998","161","-0.11621094","-0.9941406","-0.17773438","-2.59375","9.5","-0.375"
"1573591544998","162","-0.11425781","-0.9863281","-0.1796875","-1.96875","8.15625","0.09375"
"1573591544999","163","-0.12207031","-1.0058594","-0.18066406","-0.5625","10.0","1.15625"
"1573591544999","164","-0.11425781","-0.9921875","-0.18847656","0.15625","12.25","1.375"
"1573591544999","165","-0.115234375","-1.0039062","-0.19238281","2.125","13.15625","2.71875"
"1573591544999","166","-0.1171875","-1.0146484","-0.18945312","1.03125","14.625","3.71875"
"1573591544999","167","-0.12792969","-0.9746094","-0.20410156","2.0","13.40625","3.90625"
"1573591545000","168","-0.15234375","-1.0029297","-0.18359375","-4.96875","14.875","2.78125"
"1573591545001","169","-0.107421875","-0.95996094","-0.18359375","-5.75","17.9375","3.65625"
"1573591545394","170","-0.12597656","-0.99609375","-0.24121094","0.0","6.5625","4.4375"
"1573591545395","171","-0.12109375","-0.9951172","-0.20800781","6.6875","4.5625","4.125"
"1573591545395","172","-0.14550781","-0.99316406","-0.20117188","-0.75","5.1875","2.25"
"1573591545395","173","-0.14746094","-0.98339844","-0.19921875","0.78125","7.625","0.96875"
"1573591545396","174","-0.13867188","-0.99902344","-0.19824219","-4.46875","8.53125","2.4375"
"1573591545396","175","-0.14941406","-0.99121094","-0.20507812","-3.1875","10.96875","3.34375"
"1573591545396","176","-0.14746094","-0.99316406","-0.21777344","-1.59375","10.40625","4.375"
"1573591545397","177","-0.14160156","-0.99609375","-0.20507812","0.46875","6.5625","4.25"
"1573591545397","178","-0.14550781","-0.99902344","-0.20214844","0.0","4.6875","3.34375"
"1573591545397","179","-0.16015625","-0.984375","-0.20410156","-1.25","4.9375","3.46875"
"1573591545792","180","-0.15722656","-1.0068359","-0.20507812","-3.5625","4.875","4.0"
"1573591545793","181","-0.16796875","-1.0068359","-0.19824219","-1.65625","5.1875","3.40625"
"1573591545794","182","-0.18359375","-0.9951172","-0.20898438","-3.5","1.9375","3.90625"
"1573591545794","183","-0.19042969","-1.0126953","-0.19921875","-0.4375","1.75","5.34375"
"1573591545794","184","-0.17773438","-0.96777344","-0.20898438","5.21875","6.46875","4.9375"
"1573591545794","185","-0.21386719","-0.98828125","-0.20703125","-2.34375","5.96875","4.6875"
"1573591545794","186","-0.17089844","-0.96191406","-0.1796875","3.65625","9.5","5.40625"
"1573591545795","187","-0.20605469","-1.0107422","-0.23632812","2.0625","3.46875","6.28125"
"1573591545795","188","-0.1953125","-0.9970703","-0.19921875","3.46875","7.90625","3.09375"
"1573591545795","189","-0.19824219","-1.0107422","-0.2109375","-0.375","5.28125","2.5625"
"1573591546191","190","-0.18652344","-1.0087891","-0.203125","0.03125","0.71875","1.375"
"1573591546191","191","-0.16894531","-0.98046875","-0.19335938","-2.15625","-1.0625","-0.375"
"1573591546192","192","-0.18847656","-0.9550781","-0.18261719","-1.90625","-2.8125","0.15625"
"1573591546193","193","-0.17480469","-0.9501953","-0.20800781","-1.96875","-2.6875","-1.65625"
"1573591546194","194","-0.16503906","-0.9765625","-0.20507812","-1.40625","-5.5","-3.5"
"1573591546194","195","-0.15625","-1.0","-0.19238281","-3.75","-8.3125","-4.65625"
"1573591546194","196","-0.16113281","-1.0185547","-0.1796875","-5.5625","-10.8125","-5.5625"
"1573591546194","197","-0.15625","-0.9638672","-0.18359375","-4.53125","-15.21875","-7.15625"
"1573591546195","198","-0.15917969","-0.95996094","-0.18261719","-3.125","-22.53125","-6.3125"
"1573591546195","199","-0.15234375","-0.9980469","-0.17480469","-4.15625","-22.28125","-7.40625"
"1573591546589","200","-0.15429688","-0.95703125","-0.18066406","-0.4375","-15.8125","-10.34375"
"1573591546589","201","-0.19238281","-0.9892578","-0.15527344","-12.59375","-16.96875","-11.25"
"1573591546590","202","-0.14257812","-0.99121094","-0.1484375","-6.1875","-15.9375","-8.875"
"1573591546590","203","-0.16503906","-0.98828125","-0.22265625","-7.78125","-20.875","-7.34375"
"1573591546590","204","-0.16308594","-0.96484375","-0.16699219","-5.3125","-17.78125","-6.25"
"1573591546592","205","-0.15527344","-0.9707031","-0.16601562","-2.34375","-18.9375","-4.21875"
"1573591546592","206","-0.17480469","-0.98339844","-0.18261719","-2.75","-17.03125","-4.34375"
"1573591546592","207","-0.15722656","-0.97558594","-0.16210938","-4.65625","-13.5","-4.40625"
"1573591546593","208","-0.17285156","-0.96484375","-0.16894531","-3.0","-12.40625","-3.25"
"1573591546593","209","-0.171875","-1.0","-0.171875","-2.15625","-6.25","-3.375"
"1573591547182","210","-0.16601562","-0.9951172","-0.18261719","-3.75","-4.53125","-3.5"
"1573591547182","211","-0.14550781","-0.97753906","-0.15625","-2.6875","-3.96875","-3.1875"
"1573591547182","212","-0.17871094","-1.0107422","-0.16699219","-0.5625","-0.8125","-2.53125"
"1573591547183","213","-0.15234375","-0.9794922","-0.16894531","-2.21875","0.46875","-1.65625"
"1573591547183","214","-0.15332031","-0.95214844","-0.15625","0.21875","-0.9375","-1.0625"
"1573591547183","215","-0.17382812","-1.0117188","-0.16308594","1.875","7.25","-0.625"
"1573591547183","216","-0.15820312","-0.98046875","-0.16992188","-1.96875","4.625","-3.1875"
"1573591547185","217","-0.17089844","-1.0273438","-0.14746094","-3.4375","5.0","-0.875"
"1573591547185","218","-0.15429688","-0.9482422","-0.14550781","-7.59375","13.21875","-3.4375"
"1573591547186","219","-0.16601562","-0.9824219","-0.1796875","1.625","2.5","2.0"
"1573591547383","220","-0.14648438","-0.9707031","-0.14648438","4.1875","10.46875","-1.53125"
"1573591547383","221","-0.123046875","-0.84472656","-0.13476562","3.34375","3.34375","-2.15625"
"1573591547384","222","-0.10546875","-0.65722656","-0.16503906","7.3125","-6.3125","-0.375"
"1573591547384","223","-0.14941406","-0.5761719","-0.18457031","8.40625","-12.28125","1.03125"
"1573591547384","224","-0.099609375","-1.0449219","-0.14453125","10.96875","-7.53125","10.90625"
"1573591547384","225","-0.21582031","-1.1357422","-0.16699219","20.75","17.5625","0.21875"
"1573591547385","226","-0.6464844","-2.0","0.044921875","-0.875","94.03125","52.71875"
"1573591547385","227","0.032226562","-0.59472656","-0.24414062","-12.15625","36.59375","-95.90625"
"1573591547385","228","0.22070312","-0.22070312","-0.07714844","-28.34375","-70.09375","59.5625"
"1573591547387","229","-0.2783203","-1.1660156","-0.18261719","62.4375","6.09375","18.125"
"1573591547779","230","-0.27148438","-1.2431641","-0.203125","3.65625","29.65625","1.3125"
"1573591547780","231","-0.041015625","-0.7294922","-0.17382812","-12.28125","25.9375","-5.75"
"1573591547780","232","-0.060546875","-1.2050781","-0.10253906","7.25","12.875","18.21875"
"1573591547780","233","-0.20898438","-1.0556641","-0.18359375","2.3125","-19.53125","-5.25"
"1573591547781","234","-0.22460938","-0.8330078","-0.16210938","-4.21875","4.3125","3.46875"
"1573591547781","235","-0.033203125","-0.99902344","-0.12207031","12.9375","18.0","4.875"
"1573591547781","236","-0.16015625","-1.046875","-0.15429688","6.46875","5.59375","5.125"
"1573591547781","237","-0.14746094","-1.0322266","-0.16308594","0.65625","9.125","3.34375"
"1573591547782","238","-0.13085938","-0.9970703","-0.15527344","-4.84375","4.0625","-0.125"
"1573591547782","239","-0.13867188","-0.95996094","-0.12890625","0.40625","6.46875","2.125"
"1573591548375","240","-0.14746094","-1.0019531","-0.12988281","-0.0625","5.84375","2.5625"
"1573591548376","241","-0.14746094","-1.03125","-0.11035156","-1.96875","4.0","0.28125"
"1573591548376","242","-0.15234375","-1.0058594","-0.11816406","-5.75","1.3125","-1.78125"
"1573591548377","243","-0.119140625","-0.98828125","-0.13671875","-2.75","-1.1875","-3.25"
"1573591548377","244","-0.1171875","-0.9873047","-0.16113281","-11.1875","-4.40625","-4.46875"
"1573591548377","245","-0.087890625","-0.98339844","-0.16210938","-3.0625","-12.34375","-7.03125"
"1573591548377","246","-0.13867188","-1.0205078","-0.13964844","-10.28125","-20.59375","-10.5625"
"1573591548378","247","-0.18359375","-0.97558594","-0.111328125","-1.53125","-8.9375","-16.25"
"1573591548378","248","-0.15039062","-0.9824219","-0.12597656","-9.125","-6.5","-12.78125"
"1573591548378","249","-0.09765625","-1.0400391","-0.043945312","1.625","-4.84375","-13.4375"
"1573591548576","250","-0.064453125","-1.0146484","-0.13867188","-15.46875","-2.15625","-13.8125"
"1573591548577","251","-0.14453125","-0.99902344","-0.14355469","-16.4375","-11.375","-11.0625"
"1573591548577","252","-0.119140625","-0.97265625","-0.18359375","-19.65625","-4.46875","-9.0625"
"1573591548578","253","-0.1171875","-0.9765625","-0.17675781","-8.25","-5.5","-10.28125"
"1573591548579","254","-0.11035156","-0.9951172","-0.19335938","1.5625","-11.78125","-8.0625"
"1573591548579","255","-0.0859375","-1.0009766","-0.17773438","0.15625","-7.53125","-8.125"
"1573591548579","256","-0.095703125","-1.0019531","-0.16308594","-7.21875","-1.3125","-7.8125"
"1573591548579","257","-0.10546875","-0.9980469","-0.18359375","-10.40625","1.8125","-7.28125"
"1573591548580","258","-0.08203125","-1.0","-0.17871094","-8.375","3.84375","-9.28125"
"1573591548580","259","-0.080078125","-0.9921875","-0.19042969","-11.96875","6.09375","-9.96875"
"1573591548975","260","-0.059570312","-0.98046875","-0.16699219","-9.71875","0.03125","-6.375"
"1573591548975","261","-0.13574219","-0.9667969","-0.2109375","-5.375","-0.375","1.875"
"1573591548976","262","-0.06933594","-0.9941406","-0.041992188","10.84375","2.25","0.96875"
"1573591548976","263","-0.10253906","-1.0273438","-0.18066406","3.9375","-5.75","2.90625"
"1573591548976","264","-0.052734375","-1.015625","-0.15234375","10.84375","-6.84375","2.5"
"1573591548978","265","-0.08300781","-0.95214844","-0.19140625","1.3125","-1.34375","0.78125"
"1573591548979","266","-0.09765625","-0.9970703","-0.14160156","11.75","-7.09375","4.0"
"1573591548979","267","-0.09277344","-1.0009766","-0.14355469","7.0625","-1.53125","2.78125"
"1573591548981","268","-0.099609375","-1.0400391","-0.09765625","5.84375","-3.8125","1.5625"
"1573591548981","269","-0.09375","-1.0595703","-0.12109375","4.9375","-3.4375","0.09375"
"1573591549373","270","-0.10449219","-1.1425781","-0.14941406","-2.53125","-5.3125","-1.0625"
"1573591549374","271","-0.07128906","-1.0849609","-0.10839844","-8.3125","-8.3125","-5.09375"
"1573591549374","272","-0.06347656","-1.0341797","-0.13378906","-10.8125","-17.21875","-6.0625"
"1573591549374","273","-0.10546875","-1.0244141","-0.15722656","-13.5625","-14.65625","-3.625"
"1573591549374","274","-0.111328125","-0.9404297","-0.13769531","-11.25","-16.4375","0.03125"
"1573591549375","275","-0.13378906","-0.99316406","-0.19042969","-6.96875","-11.96875","0.65625"
"1573591549375","276","-0.11035156","-0.9902344","-0.15039062","-7.03125","-7.78125","-1.34375"
"1573591549376","277","-0.1328125","-0.9296875","-0.14746094","-9.0","-7.34375","0.78125"
"1573591549376","278","-0.15429688","-0.9638672","-0.14550781","-7.40625","-4.90625","7.5625"
"1573591549377","279","-0.13085938","-0.98535156","-0.16601562","3.03125","1.09375","3.71875"
"1573591549769","280","-0.11230469","-1.0439453","-0.20214844","-6.3125","-3.5625","4.3125"
"1573591549770","281","-0.045898438","-0.98046875","-0.15527344","-6.4375","-2.46875","6.6875"
"1573591549770","282","-0.12207031","-0.99902344","-0.1875","-8.6875","-10.15625","7.5625"
"1573591549770","283","-0.12597656","-0.9082031","-0.14453125","-5.8125","-4.15625","8.71875"
"1573591549771","284","-0.13769531","-0.97265625","-0.16601562","-4.21875","1.09375","9.375"
"1573591549771","285","-0.15527344","-0.97753906","-0.19335938","-4.09375","-0.8125","11.03125"
"1573591549771","286","-0.15332031","-0.95996094","-0.17480469","-6.53125","-6.59375","10.375"
"1573591549771","287","-0.15332031","-0.9169922","-0.083984375","0.84375","-33.21875","23.3125"
"1573591549772","288","-0.2734375","-0.96191406","-0.14746094","19.09375","1.5","17.5"
"1573591549772","289","-0.17382812","-1.0439453","-0.16992188","7.90625","18.53125","12.5"
"1573591550165","290","-0.15527344","-1.0","-0.11816406","8.46875","13.65625","9.125"
"1573591550165","291","-0.18554688","-0.97753906","-0.12109375","7.0","14.28125","3.78125"
"1573591550166","292","-0.18847656","-0.9785156","-0.16992188","8.71875","21.78125","0.0"
"1573591550166","293","-0.18847656","-0.99316406","-0.14453125","2.125","23.53125","-0.9375"
"1573591550166","294","-0.19921875","-0.9951172","-0.12792969","-1.71875","28.84375","-1.3125"
"1573591550167","295","-0.2109375","-1.0146484","-0.15234375","2.78125","24.75","0.15625"
"1573591550167","296","-0.23828125","-0.95410156","-0.13769531","-4.90625","17.8125","0.46875"
"1573591550167","297","-0.20800781","-0.9609375","-0.11425781","1.875","13.40625","9.03125"
"1573591550167","298","-0.22363281","-0.984375","-0.14160156","8.46875","8.15625","9.03125"
"1573591550168","299","-0.16503906","-0.97753906","-0.16308594","8.96875","-16.75","13.15625"
"1573591550565","300","-0.15527344","-0.91308594","-0.0859375","-1.65625","-8.8125","17.6875"
"1573591550566","301","-0.21386719","-0.85058594","-0.07324219","-6.5","-0.625","17.1875"
"1573591550567","302","-0.22167969","-0.6503906","-0.15820312","4.8125","0.0","9.8125"
"1573591550567","303","-0.06738281","-0.4970703","-0.23632812","27.625","-6.375","5.53125"
"1573591550567","304","-0.16601562","-0.9267578","-0.103515625","30.125","18.1875","17.0625"
"1573591550567","305","-0.7392578","-1.3886719","-0.15820312","29.90625","48.375","13.15625"
"1573591550568","306","-0.43164062","-2.0","-0.16894531","-61.0625","35.8125","-49.21875"
"1573591550568","307","0.07421875","-0.2939453","0.31445312","14.9375","-16.4375","-44.9375"
"1573591550568","308","-0.0068359375","-0.29296875","-0.39453125","-1.25","-54.8125","20.3125"
"1573591550569","309","-0.4814453","-1.4296875","-0.3046875","-10.75","18.65625","38.6875"
"1573591550961","310","-0.25878906","-1.1035156","-0.04296875","32.6875","47.09375","-41.09375"
"1573591550962","311","0.020507812","-0.7783203","-0.0390625","-26.6875","-20.34375","-19.0"
"1573591550962","312","-0.36035156","-1.1708984","-0.171875","-47.125","-17.59375","-4.09375"
"1573591550963","313","-0.27929688","-0.9277344","-0.19726562","-32.1875","5.46875","-21.375"
"1573591550963","314","-0.15429688","-0.9091797","-0.171875","-14.34375","-6.84375","-8.6875"
"1573591550964","315","-0.14453125","-0.9970703","-0.18164062","-14.34375","0.59375","-15.15625"
"1573591550964","316","-0.23046875","-0.99902344","-0.1953125","-22.46875","6.9375","-9.34375"
"1573591550964","317","-0.19140625","-1.0107422","-0.23046875","-16.3125","-3.625","-10.8125"
"1573591550965","318","-0.16601562","-0.97265625","-0.19433594","-7.15625","-0.375","-12.15625"
"1573591550965","319","-0.17382812","-0.9394531","-0.19140625","-2.8125","9.3125","-8.5"
"1573591551357","320","-0.16113281","-0.9863281","-0.22558594","-5.5","7.75","-0.75"
"1573591551357","321","-0.16503906","-1.0087891","-0.20410156","-1.78125","5.46875","-0.8125"
"1573591551358","322","-0.17480469","-0.9863281","-0.20117188","2.0","4.0","-4.15625"
"1573591551358","323","-0.19238281","-0.9628906","-0.19335938","0.0","3.65625","-3.4375"
"1573591551358","324","-0.18261719","-0.9736328","-0.18359375","6.09375","4.0625","-3.625"
"1573591551359","325","-0.1640625","-1.0039062","-0.18457031","3.90625","4.75","0.0"
"1573591551360","326","-0.17871094","-0.98535156","-0.20800781","1.5625","2.71875","-0.4375"
"1573591551360","327","-0.15917969","-0.96875","-0.18945312","-2.09375","4.25","0.0"
"1573591551360","328","-0.17285156","-0.9970703","-0.20605469","1.875","3.78125","-1.34375"
"1573591551360","329","-0.171875","-0.9970703","-0.17578125","-3.25","8.78125","-2.21875"
"1573591551950","330","-0.13476562","-0.9824219","-0.19824219","-9.34375","11.65625","-3.3125"
"1573591551950","331","-0.16796875","-1.0351562","-0.20605469","-5.625","1.28125","-0.9375"
"1573591551951","332","-0.17382812","-0.9814453","-0.22851562","-15.53125","11.53125","-1.40625"
"1573591551951","333","-0.19238281","-1.0175781","-0.19726562","-5.03125","12.875","1.5625"
"1573591551951","334","-0.203125","-1.0273438","-0.22753906","3.40625","11.15625","4.0625"
"1573591551951","335","-0.18652344","-1.0224609","-0.19824219","1.3125","10.1875","4.5625"
"1573591551952","336","-0.20117188","-1.0419922","-0.18652344","6.21875","10.46875","5.59375"
"1573591551953","337","-0.16015625","-0.97265625","-0.22265625","9.09375","-0.125","5.59375"
"1573591551953","338","-0.15625","-0.9238281","-0.11035156","14.3125","-6.4375","3.59375"
"1573591551954","339","-0.18457031","-0.9082031","-0.12792969","14.15625","-7.875","-0.3125"
"1573591552154","340","-0.15917969","-0.99609375","-0.15429688","8.78125","-3.75","-1.71875"
"1573591552155","341","-0.125","-1.0146484","-0.1328125","0.65625","-1.3125","-7.34375"
"1573591552156","342","-0.14746094","-1.0185547","-0.12695312","-3.0625","-4.71875","-9.90625"
"1573591552156","343","-0.14453125","-0.9980469","-0.14550781","-3.5","-14.1875","-9.84375"
"1573591552156","344","-0.12988281","-0.94140625","-0.13964844","7.1875","-19.375","-10.15625"
"1573591552156","345","-0.17578125","-1.0048828","-0.12597656","-0.125","-20.53125","-14.53125"
"1573591552157","346","-0.14160156","-0.9580078","-0.12695312","2.78125","-14.125","-17.28125"
"1573591552157","347","-0.16210938","-1.0107422","-0.16210938","-2.8125","-21.6875","-16.875"
"1573591552157","348","-0.09082031","-1.0458984","-0.14355469","-4.65625","-11.90625","-22.53125"
"1573591552158","349","-0.09082031","-1.0322266","-0.15234375","-10.40625","-8.3125","-22.15625"
"1573591552551","350","-0.07910156","-1.0302734","-0.12597656","-13.6875","-21.25","-24.125"
"1573591552551","351","-0.064453125","-0.95214844","-0.17871094","-27.25","-27.96875","-22.53125"
"1573591552552","352","-0.072265625","-0.92089844","-0.20800781","-10.75","-13.8125","-15.9375"
"1573591552552","353","-0.10253906","-0.96484375","-0.20605469","0.46875","-5.375","-8.5"
"1573591552553","354","-0.10449219","-0.99316406","-0.19140625","6.5","-12.09375","-3.96875"
"1573591552553","355","-0.052734375","-1.0507812","-0.13867188","15.125","-8.25","-3.0"
"1573591552553","356","-0.057617188","-1.0214844","-0.12207031","3.65625","-7.53125","-4.03125"
"1573591552553","357","-0.09277344","-0.984375","-0.12792969","0.15625","-4.34375","0.0"
"1573591552554","358","-0.12597656","-1.0166016","-0.16015625","2.96875","7.5","-4.40625"
"1573591552554","359","-0.12207031","-0.95410156","-0.19433594","14.5","26.0","4.5625"
"1573591552947","360","-0.032226562","-1.0263672","0.026367188","31.53125","4.875","14.28125"
"1573591552948","361","-0.080078125","-1.0771484","-0.099609375","7.5625","13.03125","16.34375"
"1573591552949","362","-0.016601562","-0.9824219","-0.125","3.03125","2.90625","27.4375"
"1573591552949","363","-0.14550781","-0.96875","-0.056640625","8.03125","13.03125","36.59375"
"1573591552949","364","-0.16015625","-0.9658203","-0.111328125","10.0625","12.0625","33.375"
"1573591552949","365","-0.17773438","-0.9716797","-0.08886719","7.125","14.09375","27.34375"
"1573591552950","366","-0.18359375","-0.98046875","-0.07421875","8.21875","18.0","22.75"
"1573591552950","367","-0.17675781","-0.984375","-0.068359375","3.34375","16.53125","15.5625"
"1573591552950","368","-0.15917969","-1.0019531","-0.07324219","0.09375","12.375","10.0625"
"1573591552950","369","-0.16992188","-1.0117188","-0.061523438","-3.5","10.53125","5.78125"
"1573591553345","370","-0.1796875","-0.98046875","-0.052734375","-3.875","7.4375","2.90625"
"1573591553345","371","-0.20214844","-0.9716797","-0.06933594","-5.8125","4.0625","4.8125"
"1573591553345","372","-0.20800781","-1.0498047","-0.055664062","-6.1875","2.0","0.96875"
"1573591553346","373","-0.16015625","-0.8466797","-0.051757812","-3.625","-11.25","-6.125"
"1573591553346","374","-0.18847656","-0.93359375","-0.06933594","-7.03125","-1.40625","2.84375"
"1573591553347","375","-0.17089844","-0.8701172","-0.14453125","4.625","-3.3125","-6.0"
"1573591553347","376","-0.1328125","-0.7998047","-0.033203125","-4.21875","-5.09375","6.03125"
"1573591553347","377","-0.24414062","-0.8857422","-0.064453125","0.28125","-8.9375","2.25"
"1573591553347","378","-0.19726562","-0.91503906","-0.020507812","15.71875","0.34375","-2.75"
"1573591553348","379","-0.34277344","-0.9785156","-0.125","15.5625","28.96875","2.71875"
"1573591553743","380","-0.6796875","-2.0","-0.24609375","-11.5","54.84375","-19.5"
"1573591553744","381","0.15527344","-0.2421875","0.18652344","-28.40625","-29.9375","-40.1875"
"1573591553744","382","-0.041992188","-0.59277344","-0.21777344","-9.65625","-41.59375","36.0"
"1573591553744","383","-0.4921875","-1.4853516","-0.25878906","8.59375","20.1875","2.5"
"1573591553745","384","-0.068359375","-0.7421875","-0.0390625","10.375","26.96875","-31.9375"
"1573591553747","385","-0.07421875","-1.0703125","-0.06542969","-2.625","14.03125","13.40625"
"1573591553747","386","-0.25390625","-1.1435547","-0.123046875","-24.78125","8.28125","-11.625"
"1573591553747","387","-0.22949219","-0.8232422","-0.13183594","-6.375","12.4375","-4.34375"
"1573591553748","388","-0.1171875","-0.99316406","-0.109375","11.8125","10.59375","0.78125"
"1573591553748","389","-0.11425781","-1.03125","-0.09765625","12.0625","6.46875","-4.84375"
"1573591554142","390","-0.20410156","-1.0419922","-0.12011719","-8.4375","8.65625","-2.03125"
"1573591554142","391","-0.15820312","-0.9746094","-0.119140625","-2.8125","4.5","-5.09375"
"1573591554142","392","-0.14746094","-0.98828125","-0.11328125","-0.9375","6.5","-3.75"
"1573591554143","393","-0.15722656","-1.0009766","-0.119140625","0.65625","7.375","-2.875"
"1573591554143","394","-0.15429688","-0.9951172","-0.10058594","-1.53125","9.4375","-3.90625"
"1573591554143","395","-0.16015625","-0.9970703","-0.13671875","-8.8125","6.9375","-5.75"
"1573591554143","396","-0.11816406","-0.9902344","-0.09667969","1.21875","6.03125","-4.28125"
"1573591554145","397","-0.15722656","-1.0029297","-0.13964844","-8.5","2.4375","-3.75"
"1573591554145","398","-0.13378906","-0.9892578","-0.119140625","-6.78125","5.40625","-5.25"
"1573591554146","399","-0.13769531","-0.9921875","-0.12597656","-5.5","4.6875","-4.90625"
"1573591554539","400","-0.13671875","-1.0009766","-0.11816406","-4.84375","1.75","-4.59375"
"1573591554540","401","-0.12402344","-0.9970703","-0.12597656","-6.25","2.0","-5.5"
"1573591554540","402","-0.14355469","-0.9921875","-0.12890625","-9.0625","-3.96875","-6.84375"
"1573591554540","403","-0.13574219","-0.9892578","-0.16308594","-11.90625","-6.25","-5.25"
"1573591554540","404","-0.09667969","-1.0058594","-0.14453125","-0.125","0.40625","-7.28125"
"1573591554541","405","-0.09863281","-1.0039062","-0.15039062","2.4375","2.3125","-8.375"
"1573591554541","406","-0.080078125","-1.0029297","-0.140625","-13.3125","-2.15625","-4.34375"
"1573591554541","407","-0.08105469","-1.0078125","-0.140625","-12.65625","4.8125","-7.9375"
"1573591554542","408","-0.08886719","-1.0009766","-0.15429688","-16.9375","-1.3125","-9.28125"
"1573591554543","409","-0.055664062","-0.9902344","-0.15820312","-13.6875","-2.03125","-11.84375"
"1573591554936","410","-0.080078125","-0.9736328","-0.19238281","-16.75","-5.03125","-11.4375"
"1573591554936","411","-0.109375","-1.0605469","-0.140625","-20.84375","-5.5625","-11.1875"
"1573591554936","412","-0.087890625","-1.0449219","-0.15039062","-17.40625","-7.53125","-8.5625"
"1573591554936","413","-0.15136719","-1.0693359","-0.20117188","-18.03125","-14.0625","-4.71875"
"1573591554937","414","-0.09863281","-1.1201172","-0.16210938","-7.78125","-4.53125","-8.1875"
"1573591554937","415","-0.09863281","-1.0117188","-0.16894531","-13.1875","-14.3125","-6.53125"
"1573591554937","416","-0.11425781","-0.9580078","-0.16503906","-7.78125","-9.21875","-2.15625"
"1573591554937","417","-0.11328125","-0.9296875","-0.18652344","-4.40625","-1.46875","-1.40625"
"1573591554938","418","-0.09765625","-0.9902344","-0.18652344","-2.625","4.875","-0.75"
"1573591554938","419","-0.05859375","-1.0175781","-0.21777344","-3.3125","2.96875","-5.25"
"1573591555333","420","-0.046875","-0.9560547","-0.22363281","-5.5625","-6.1875","-3.625"
"1573591555334","421","-0.068359375","-0.9091797","-0.20996094","-5.5","-7.28125","-0.1875"
"1573591555334","422","-0.13378906","-0.93066406","-0.19824219","-3.125","6.75","2.25"
"1573591555335","423","-0.12695312","-0.99121094","-0.21875","2.0625","15.5","1.375"
"1573591555335","424","-0.12109375","-0.9765625","-0.23339844","5.46875","20.1875","-3.5625"
"1573591555335","425","-0.0546875","-1.0273438","-0.17578125","9.9375","13.84375","-7.09375"
"1573591555336","426","0.022460938","-0.99316406","-0.13867188","6.28125","15.4375","-9.96875"
"1573591555336","427","0.0087890625","-0.96972656","-0.13769531","-1.71875","22.375","-12.03125"
"1573591555336","428","0.026367188","-1.0703125","-0.20019531","-7.09375","11.53125","-12.40625"
"1573591555336","429","-0.0078125","-0.98046875","-0.17480469","-18.5","9.3125","-11.96875"
"1573591555730","430","-0.0107421875","-1.0166016","-0.18457031","-17.34375","3.46875","-8.6875"
"1573591555730","431","-0.00390625","-1.0117188","-0.2529297","-9.125","0.78125","-13.1875"
"1573591555731","432","-0.0234375","-0.98828125","-0.24707031","-15.46875","-1.0","-7.53125"
"1573591555732","433","-0.060546875","-0.9511719","-0.24902344","-13.3125","-0.25","-3.125"
"1573591555733","434","-0.053710938","-1.0146484","-0.25195312","-2.875","10.53125","0.09375"
"1573591555733","435","-0.03125","-0.96191406","-0.22851562","-0.625","5.1875","2.3125"
"1573591555733","436","-0.02734375","-0.9951172","-0.26953125","-0.5","13.0","6.5625"
"1573591555734","437","-0.036132812","-0.9638672","-0.2763672","-0.125","6.5","9.25"
"1573591555734","438","-0.09863281","-0.9707031","-0.25585938","2.0","20.75","21.34375"
"1573591555734","439","-0.125","-1.0292969","-0.25878906","-1.1875","23.53125","31.71875"
"1573591556130","440","-0.09472656","-0.9794922","-0.17089844","6.03125","33.84375","28.96875"
"1573591556130","441","-0.076171875","-0.8701172","-0.3046875","15.84375","19.9375","26.21875"
"1573591556131","442","-0.11816406","-0.875","-0.23339844","12.375","30.375","29.53125"
"1573591556131","443","-0.18066406","-1.0869141","-0.29003906","12.75","31.1875","30.625"
"1573591556131","444","-0.1328125","-0.9472656","-0.21484375","5.40625","25.125","20.5625"
"1573591556133","445","-0.1953125","-0.9658203","-0.19433594","11.03125","26.28125","22.9375"
"1573591556133","446","-0.16308594","-0.9189453","-0.23242188","9.6875","33.0625","11.15625"
"1573591556133","447","-0.08984375","-0.7597656","-0.15820312","2.90625","26.34375","14.875"
"1573591556134","448","-0.13183594","-0.83691406","-0.14257812","8.59375","24.03125","28.25"
"1573591556134","449","-0.23242188","-1.0205078","-0.20214844","1.21875","28.84375","33.0625"
"1573591556525","450","-0.28222656","-1.1855469","-0.34277344","-8.8125","24.09375","30.3125"
"1573591556526","451","-0.23828125","-1.1259766","-0.1875","9.6875","29.65625","19.75"
"1573591556526","452","-0.23144531","-0.8808594","-0.17773438","27.5","0.65625","25.8125"
"1573591556526","453","-0.30566406","-1.1269531","-0.12792969","34.46875","11.8125","33.25"
"1573591556527","454","-0.26660156","-1.1513672","-0.16015625","31.96875","17.3125","10.0625"
"1573591556527","455","-0.14550781","-0.8457031","-0.09472656","15.65625","-2.9375","9.375"
"1573591556527","456","-0.15625","-0.92578125","-0.15820312","9.1875","-10.5","16.78125"
"1573591556529","457","-0.26171875","-0.9765625","-0.19824219","12.8125","-0.75","14.09375"
"1573591556529","458","-0.26757812","-0.97753906","-0.09082031","8.65625","-0.8125","11.15625"
"1573591556530","459","-0.27734375","-1.0126953","-0.06933594","15.90625","-7.28125","8.28125"
"1573591556922","460","-0.31445312","-1.0380859","-0.140625","11.875","-14.40625","2.0"
"1573591556922","461","-0.2998047","-0.96777344","-0.10546875","4.5","-9.71875","-6.84375"
"1573591556923","462","-0.2890625","-0.9736328","-0.10058594","-1.0","-12.78125","-4.59375"
"1573591556923","463","-0.2998047","-0.9980469","-0.09082031","-11.25","-13.03125","-2.6875"
"1573591556923","464","-0.33398438","-0.9707031","-0.1015625","-12.15625","-7.28125","-4.59375"
"1573591556923","465","-0.33496094","-0.98339844","-0.123046875","-4.96875","-5.21875","-6.0"
"1573591556923","466","-0.2890625","-0.98046875","-0.11816406","-6.0","-4.34375","-10.5625"
"1573591556924","467","-0.27148438","-0.98339844","-0.09472656","-4.53125","-2.9375","-12.71875"
"1573591556924","468","-0.28125","-0.9873047","-0.095703125","-10.875","-2.34375","-11.625"
"1573591556925","469","-0.27246094","-0.9746094","-0.10644531","-13.625","-1.65625","-11.3125"
"1573591557320","470","-0.2734375","-0.9707031","-0.109375","-12.21875","-2.21875","-11.125"
"1573591557320","471","-0.24804688","-0.9658203","-0.109375","-10.5625","-0.4375","-10.5625"
"1573591557320","472","-0.24707031","-0.97265625","-0.13183594","-4.90625","-1.90625","-10.5"
"1573591557320","473","-0.24804688","-0.9902344","-0.09375","-11.78125","0.65625","-11.5625"
"1573591557321","474","-0.19824219","-0.95996094","-0.13183594","-13.8125","-1.34375","-10.5"
"1573591557321","475","-0.23144531","-0.9980469","-0.13183594","-10.875","-10.625","-9.53125"
"1573591557321","476","-0.20898438","-0.9794922","-0.13183594","-7.875","-2.8125","-13.375"
"1573591557321","477","-0.19042969","-0.984375","-0.12597656","-11.84375","-5.4375","-13.9375"
"1573591557322","478","-0.1875","-0.98339844","-0.13378906","-12.21875","-8.625","-14.0"
"1573591557322","479","-0.19140625","-1.0019531","-0.18847656","-12.28125","-6.65625","-15.53125"
"1573591557717","480","-0.15136719","-0.9980469","-0.15917969","-15.34375","-5.4375","-15.875"
"1573591557718","481","-0.1875","-0.98828125","-0.12890625","-14.65625","-8.3125","-15.34375"
"1573591557719","482","-0.15136719","-0.95996094","-0.16503906","-16.25","-12.96875","-15.03125"
"1573591557719","483","-0.12402344","-1.0068359","-0.20605469","-17.21875","-8.125","-17.78125"
"1573591557719","484","-0.12597656","-1.0029297","-0.18164062","-19.125","-11.6875","-19.0"
"1573591557719","485","-0.10253906","-0.99609375","-0.16992188","-17.59375","-10.21875","-23.28125"
"1573591557720","486","-0.09667969","-0.9941406","-0.23828125","-17.65625","-7.59375","-23.75"
"1573591557720","487","-0.103515625","-1.0","-0.21777344","-11.0","-4.09375","-24.625"
"1573591557720","488","-0.08203125","-1.0146484","-0.14648438","-12.96875","-18.4375","-24.1875"
"1573591557720","489","-0.13476562","-0.9970703","-0.1484375","-14.84375","-42.9375","-16.4375"
"1573591558115","490","-0.048828125","-0.99121094","-0.21777344","-9.28125","-8.1875","-19.59375"
"1573591558115","491","-0.0625","-1.0810547","-0.22265625","-17.03125","-13.5","-14.96875"
"1573591558116","492","-0.111328125","-0.99902344","-0.20117188","-14.90625","-14.65625","-14.84375"
"1573591558117","493","-0.11230469","-0.9785156","-0.20019531","-8.0625","-5.8125","-13.03125"
"1573591558117","494","-0.068359375","-0.97558594","-0.2265625","-5.25","1.9375","-9.59375"
"1573591558117","495","-0.024414062","-1.015625","-0.23828125","-1.125","1.375","-7.21875"
"1573591558118","496","-0.0107421875","-1.0322266","-0.23730469","-0.5","-2.75","-6.25"
"1573591558118","497","-0.033203125","-0.9892578","-0.25390625","-2.28125","-7.09375","-4.21875"
"1573591558124","498","-0.048828125","-0.9550781","-0.21972656","-1.125","-2.15625","-1.65625"
"1573591558124","499","-0.056640625","-0.9873047","-0.20703125","12.125","-6.3125","0.09375"
"1573591558513","500","-0.057617188","-0.97265625","-0.25","6.40625","-16.75","0.84375"
"1573591558513","501","-0.041992188","-0.9609375","-0.23242188","3.9375","-9.34375","-0.6875"
"1573591558513","502","-0.016601562","-0.9794922","-0.25878906","10.1875","-3.75","-2.03125"
"1573591558514","503","-0.05859375","-0.96972656","-0.26757812","-1.0","-2.15625","-3.75"
"1573591558514","504","-0.03515625","-1.0019531","-0.20507812","2.1875","-5.25","-1.71875"
"1573591558514","505","-0.045898438","-0.984375","-0.21582031","-0.25","-6.84375","-2.21875"
"1573591558515","506","-0.043945312","-0.9501953","-0.19140625","-0.5625","-7.03125","-1.65625"
"1573591558515","507","-0.07324219","-0.9716797","-0.18164062","-3.90625","-14.65625","-0.375"
"1573591558515","508","-0.07324219","-1.0048828","-0.20507812","-7.21875","-10.09375","-0.1875"
"1573591558516","509","-0.0625","-0.97753906","-0.20410156","-4.84375","-4.21875","0.46875"
"1573591558913","510","-0.05859375","-0.9658203","-0.25585938","7.5625","-3.875","-0.5"
"1573591558913","511","-0.043945312","-0.9628906","-0.26171875","5.96875","-7.78125","3.40625"
"1573591558913","512","-0.05078125","-1.0351562","-0.2109375","4.9375","-0.5","7.5"
"1573591558914","513","-0.03515625","-1.0029297","-0.22460938","8.09375","-4.59375","-0.125"
"1573591558914","514","-0.091796875","-0.9628906","-0.19140625","1.03125","-9.28125","6.6875"
"1573591558914","515","-0.109375","-0.96777344","-0.20019531","2.78125","-4.40625","6.46875"
"1573591558914","516","-0.08984375","-1.0097656","-0.19042969","4.875","-3.375","6.9375"
"1573591558915","517","-0.10058594","-0.92871094","-0.1875","7.84375","-7.15625","0.65625"
"1573591558915","518","-0.140625","-1.0341797","-0.15039062","-0.9375","0.03125","6.15625"
"1573591558916","519","-0.0625","-0.88671875","-0.16113281","4.25","-5.5625","-4.03125"
"1573591559311","520","-0.078125","-0.8535156","-0.19921875","4.9375","-8.8125","6.15625"
"1573591559312","521","-0.12988281","-0.90625","-0.203125","5.1875","-2.09375","5.53125"
"1573591559312","522","-0.072265625","-0.8642578","-0.14648438","4.9375","-0.3125","14.375"
"1573591559312","523","-0.07519531","-1.0449219","-0.051757812","18.40625","8.71875","6.5625"
"1573591559315","524","-0.20703125","-0.82910156","-0.1796875","22.375","-25.21875","-8.375"
"1573591559315","525","-0.13574219","-1.3759766","-0.115234375","-10.40625","55.84375","44.65625"
"1573591559315","526","0.10839844","-1.5068359","0.01171875","20.8125","-18.6875","-60.75"
"1573591559316","527","-0.24511719","-0.73828125","-0.18066406","-57.5","-32.65625","-11.0"
"1573591559316","528","0.005859375","-1.0332031","-0.49804688","5.90625","9.125","10.59375"
"1573591559316","529","0.033203125","-0.92578125","-0.020507812","15.78125","-34.8125","-4.84375"
"1573591559903","530","-0.12890625","-0.92285156","-0.16210938","19.6875","-28.53125","-5.21875"
"1573591559903","531","-0.08300781","-1.0078125","-0.1484375","7.375","3.34375","-9.21875"
"1573591559904","532","0.026367188","-1.0917969","-0.06933594","4.875","-2.875","-17.84375"
"1573591559904","533","-0.0087890625","-1.0449219","-0.15429688","-12.34375","-9.21875","-19.65625"
"1573591559904","534","-0.015625","-1.0263672","-0.16992188","-12.03125","-9.28125","-13.25"
"1573591559904","535","-0.033203125","-0.9277344","-0.14648438","-1.78125","-6.125","-15.75"
"1573591559905","536","-0.04296875","-1.0039062","-0.13574219","10.78125","-12.78125","-2.6875"
"1573591559905","537","-0.0107421875","-1.0439453","-0.11035156","3.71875","-10.15625","-5.15625"
"1573591559905","538","-0.0087890625","-0.99316406","-0.11621094","-3.6875","-12.21875","-1.125"
"1573591559906","539","-0.041992188","-0.9970703","-0.123046875","0.34375","-3.90625","1.8125"
"1573591560103","540","-0.045898438","-0.9921875","-0.13574219","-0.375","-5.6875","0.53125"
"1573591560104","541","-0.03515625","-0.9902344","-0.111328125","3.46875","-1.96875","4.8125"
"1573591560104","542","-0.043945312","-1.0146484","-0.123046875","2.0","1.03125","8.03125"
"1573591560104","543","-0.037109375","-1.0029297","-0.10253906","3.09375","1.5625","8.03125"
"1573591560105","544","-0.045898438","-1.0039062","-0.111328125","1.15625","3.09375","7.5"
"1573591560105","545","-0.00390625","-1.0097656","-0.13867188","-3.0","2.25","5.34375"
"1573591560105","546","0.00390625","-1.0244141","-0.083984375","-16.0","5.71875","3.71875"
"1573591560106","547","-0.12207031","-0.9892578","-0.19726562","-7.09375","12.6875","-4.65625"
"1573591560106","548","-0.072265625","-0.9980469","-0.087890625","-1.3125","7.625","-2.09375"
"1573591560106","549","-0.024414062","-1.0341797","-0.115234375","4.6875","7.5625","-3.5625"
"1573591560700","550","-0.038085938","-0.9863281","-0.12890625","2.71875","10.25","-2.03125"
"1573591560700","551","-0.055664062","-0.9794922","-0.10058594","-9.28125","9.75","-4.84375"
"1573591560700","552","-0.021484375","-0.99121094","-0.15625","-1.34375","11.34375","-4.90625"
"1573591560702","553","-0.005859375","-1.03125","-0.15332031","-9.65625","11.21875","-4.71875"
"1573591560702","554","-0.0087890625","-1.0117188","-0.15527344","-13.8125","13.46875","-8.25"
"1573591560703","555","0.0126953125","-1.0009766","-0.18652344","-12.90625","6.15625","-11.71875"
"1573591560703","556","-0.017578125","-0.9941406","-0.17285156","-23.4375","7.5","-8.8125"
"1573591560703","557","-0.052734375","-0.9638672","-0.07519531","-29.96875","-4.71875","-5.375"
"1573591560703","558","0.036132812","-1.0488281","-0.15234375","-13.625","0.0","-5.6875"
"1573591560704","559","-0.0078125","-1.0615234","-0.22949219","-15.46875","3.84375","-3.0"
"1573591560898","560","-0.056640625","-1.0732422","-0.19140625","-15.03125","5.84375","2.96875"
"1573591560898","561","-0.08886719","-1.0576172","-0.19238281","-7.8125","5.53125","4.9375"
"1573591560898","562","-0.05859375","-1.0947266","-0.19628906","-2.59375","10.3125","5.53125"
"1573591560898","563","-0.047851562","-1.0830078","-0.15722656","-1.90625","10.53125","5.90625"
"1573591560899","564","-0.059570312","-1.0253906","-0.17578125","2.65625","9.03125","5.0"
"1573591560900","565","-0.06347656","-0.9267578","-0.17871094","5.65625","7.25","10.0625"
"1573591560900","566","-0.06933594","-0.9199219","-0.14160156","9.8125","9.9375","11.8125"
"1573591560900","567","-0.072265625","-0.9355469","-0.12792969","14.5","20.125","12.875"
"1573591560901","568","-0.08203125","-0.91308594","-0.19824219","3.59375","16.34375","12.0625"
"1573591560901","569","-0.046875","-0.9580078","-0.13671875","13.53125","18.40625","13.40625"
"1573591561296","570","-0.080078125","-1.015625","-0.18847656","14.15625","22.125","11.03125"
"1573591561296","571","-0.09472656","-1.0019531","-0.18261719","2.65625","11.9375","10.25"
"1573591561297","572","-0.09472656","-0.9941406","-0.16699219","3.21875","15.5625","9.25"
"1573591561297","573","-0.115234375","-0.99902344","-0.14941406","3.40625","11.71875","5.34375"
"1573591561297","574","-0.10449219","-0.99121094","-0.14453125","0.0","17.4375","2.96875"
"1573591561297","575","-0.09277344","-1.0058594","-0.13964844","-0.1875","11.65625","-1.0625"
"1573591561298","576","-0.109375","-0.9638672","-0.16894531","-4.78125","6.8125","-2.15625"
"1573591561299","577","-0.09082031","-1.0029297","-0.15136719","-8.0625","2.5","-1.0625"
"1573591561299","578","-0.080078125","-0.97753906","-0.13964844","-5.09375","0.09375","-8.9375"
"1573591561300","579","-0.13183594","-0.9892578","-0.16210938","-6.3125","0.40625","-7.21875"
"1573591561892","580","-0.12109375","-0.9824219","-0.16601562","-7.40625","10.40625","-7.34375"
"1573591561892","581","-0.06738281","-1.0146484","-0.16699219","-6.0","7.625","-9.84375"
"1573591561893","582","-0.07128906","-0.93847656","-0.16796875","-11.71875","0.65625","-6.5"
"1573591561893","583","-0.087890625","-1.0742188","-0.16113281","-13.6875","2.0","0.21875"
"1573591561893","584","0.0146484375","-0.9863281","-0.15820312","-3.75","-8.375","-7.65625"
"1573591561894","585","-0.060546875","-0.9316406","-0.19824219","-12.59375","-14.34375","-0.5625"
"1573591561894","586","-0.08300781","-0.96972656","-0.18261719","-0.5625","-13.4375","-2.625"
"1573591561894","587","-0.08105469","-0.8857422","-0.1796875","-3.6875","-11.6875","5.90625"
"1573591561894","588","-0.05078125","-0.86816406","-0.16699219","5.1875","-21.5","0.40625"
"1573591561895","589","-0.12011719","-0.6347656","-0.19238281","8.78125","-11.625","5.34375"
"1573591562288","590","-0.13476562","-1.1113281","-0.1171875","9.5","16.84375","21.71875"
"1573591562289","591","-0.09082031","-1.2119141","-0.16699219","27.4375","-6.78125","-3.875"
"1573591562289","592","-0.13867188","-0.84375","-0.12695312","12.0","-15.28125","22.03125"
"1573591562289","593","-0.17578125","-1.3710938","-0.19921875","13.0","2.90625","21.84375"
"1573591562290","594","-0.080078125","-1.1015625","-0.022460938","29.78125","-9.65625","1.6875"
"1573591562290","595","-0.18359375","-1.0498047","-0.005859375","19.8125","-13.6875","16.9375"
"1573591562290","596","-0.2265625","-0.99609375","-0.0703125","10.53125","-0.6875","13.15625"
"1573591562290","597","-0.15820312","-0.8857422","-0.087890625","4.75","5.0","15.1875"
"1573591562291","598","-0.12109375","-1.0234375","-0.12011719","11.71875","6.5625","13.59375"
"1573591562291","599","-0.09472656","-1.0458984","-0.14648438","9.375","2.5","4.0"
"1573591562687","600","-0.17675781","-1.0234375","-0.09765625","-11.0625","3.34375","9.6875"
"1573591562689","601","-0.23339844","-0.984375","-0.14160156","-1.90625","7.5625","4.125"
"1573591562689","602","-0.17675781","-0.9814453","-0.076171875","9.5","9.5","1.09375"
"1573591562689","603","-0.14648438","-1.0039062","-0.08496094","0.90625","12.75","-1.90625"
"1573591562690","604","-0.16894531","-1.0087891","-0.030273438","-0.8125","13.65625","-2.15625"
"1573591562690","605","-0.16113281","-0.984375","-0.06640625","-1.1875","7.1875","-0.25"
"1573591562690","606","-0.19238281","-0.9970703","-0.049804688","-1.84375","6.5","1.6875"
"1573591562691","607","-0.17871094","-0.9746094","-0.064453125","-1.46875","6.28125","-1.46875"
"1573591562691","608","-0.18847656","-1.0039062","-0.07910156","-0.6875","4.625","-0.9375"
"1573591562691","609","-0.16796875","-1.0039062","-0.06738281","0.46875","6.28125","-3.90625"
"1573591563084","610","-0.16113281","-1.0029297","-0.061523438","-2.15625","3.9375","-5.375"
"1573591563085","611","-0.16210938","-1.0009766","-0.068359375","-4.78125","4.8125","-5.5"
"1573591563085","612","-0.16015625","-1.0","-0.07324219","-9.71875","5.0","-5.8125"
"1573591563087","613","-0.16503906","-0.984375","-0.08203125","-15.875","6.5","-5.03125"
"1573591563087","614","-0.16210938","-1.0087891","-0.10253906","-11.90625","2.96875","-4.71875"
"1573591563088","615","-0.15625","-0.9873047","-0.09082031","-4.34375","6.625","-3.4375"
"1573591563088","616","-0.16796875","-0.9921875","-0.103515625","-12.40625","6.40625","-6.125"
"1573591563088","617","-0.13769531","-0.9970703","-0.103515625","-3.4375","3.65625","-4.40625"
"1573591563088","618","-0.13183594","-1.0068359","-0.16113281","-7.9375","0.84375","-5.9375"
"1573591563089","619","-0.10253906","-1.0117188","-0.14160156","-6.5","1.375","-7.03125"
"1573591563481","620","-0.091796875","-1.0185547","-0.111328125","-12.65625","-4.96875","-8.0"
"1573591563481","621","-0.11816406","-0.9746094","-0.14648438","-22.0625","-25.65625","1.3125"
"1573591563481","622","-0.16601562","-1.0048828","-0.18457031","-14.1875","-5.875","-5.3125"
"1573591563482","623","-0.107421875","-0.97558594","-0.19238281","-15.03125","2.4375","-6.375"
"1573591563482","624","-0.12207031","-0.97753906","-0.22265625","-16.3125","7.3125","-6.375"
"1573591563483","625","-0.11328125","-0.9892578","-0.19824219","-18.75","13.0","-8.625"
"1573591563484","626","-0.12695312","-0.9746094","-0.20996094","-17.40625","19.40625","-7.46875"
"1573591563484","627","-0.1640625","-1.0537109","-0.18652344","-16.8125","14.8125","-5.8125"
"1573591563484","628","-0.115234375","-0.99121094","-0.1484375","-10.75","13.34375","-9.0"
"1573591563485","629","-0.123046875","-1.03125","-0.203125","-13.625","9.875","-5.03125"
"1573591563879","630","-0.12207031","-0.9970703","-0.19921875","-8.6875","14.3125","-2.40625"
"1573591563879","631","-0.16015625","-1.0097656","-0.1875","-16.96875","12.9375","-0.1875"
"1573591563880","632","-0.15332031","-1.0019531","-0.18457031","-0.6875","10.0","2.0625"
"1573591563880","633","-0.16015625","-0.9824219","-0.2265625","4.125","14.875","1.875"
"1573591563880","634","-0.15039062","-0.9580078","-0.18945312","10.0625","26.65625","2.78125"
"1573591563880","635","-0.19042969","-0.9941406","-0.20117188","17.0625","38.9375","9.8125"
"1573591563880","636","-0.12109375","-0.99316406","-0.15429688","31.0625","2.84375","13.59375"
"1573591563882","637","-0.053710938","-1.0126953","-0.16210938","5.59375","4.5625","19.625"
"1573591563882","638","-0.1328125","-0.96875","-0.16210938","4.125","6.21875","17.375"
"1573591563882","639","-0.16015625","-0.98828125","-0.20410156","-1.90625","6.625","19.6875"
"1573591564277","640","-0.12890625","-0.9980469","-0.18652344","0.84375","7.375","12.625"
"1573591564277","641","-0.20410156","-1.0410156","-0.16503906","-3.125","8.96875","13.15625"
"1573591564278","642","-0.19335938","-1.0380859","-0.16308594","-4.46875","8.78125","9.6875"
"1573591564278","643","-0.17578125","-0.99902344","-0.16503906","-7.53125","9.5","7.8125"
"1573591564278","644","-0.18554688","-0.97265625","-0.20800781","-7.15625","8.96875","7.5"
"1573591564278","645","-0.18261719","-0.9345703","-0.22851562","-1.96875","5.28125","6.8125"
"1573591564279","646","-0.21289062","-1.0712891","-0.21972656","-11.71875","10.65625","7.5"
"1573591564279","647","-0.14453125","-0.9511719","-0.17089844","-0.3125","4.3125","2.65625"
"1573591564279","648","-0.11621094","-0.9326172","-0.20605469","2.71875","-21.0","14.28125"
"1573591564280","649","-0.21386719","-0.93359375","-0.1875","20.1875","-30.40625","22.75"
"1573591564675","650","-0.24414062","-0.9609375","-0.140625","22.1875","-12.53125","17.3125"
"1573591564675","651","-0.2783203","-0.9511719","-0.09472656","21.78125","-10.875","12.1875"
"1573591564676","652","-0.23339844","-0.94628906","-0.09667969","29.78125","-3.625","4.3125"
"1573591564676","653","-0.28125","-0.8925781","-0.07324219","26.03125","-7.65625","10.59375"
"1573591564676","654","-0.22753906","-0.9472656","-0.083984375","29.9375","-0.5625","14.625"
"1573591564676","655","-0.26367188","-0.9667969","-0.029296875","28.375","-7.65625","17.375"
"1573591564677","656","-0.2998047","-0.921875","-0.020507812","30.875","-8.375","18.28125"
"1573591564677","657","-0.35742188","-0.93847656","-0.005859375","28.96875","-4.65625","18.96875"
"1573591564677","658","-0.34960938","-0.89941406","0.0107421875","33.625","-0.5625","23.375"
"1573591564677","659","-0.36523438","-0.9033203","0.09472656","25.9375","-2.59375","29.34375"
"1573591565072","660","-0.4404297","-0.89941406","0.07324219","28.84375","-0.375","29.46875"
"1573591565074","661","-0.4267578","-0.92871094","0.07714844","32.15625","4.8125","28.375"
"1573591565074","662","-0.40722656","-0.8847656","0.080078125","24.21875","2.25","24.40625"
"1573591565074","663","-0.46289062","-0.9482422","0.12011719","21.46875","1.09375","27.15625"
"1573591565075","664","-0.453125","-0.89160156","0.111328125","23.90625","0.28125","22.09375"
"1573591565075","665","-0.4482422","-0.9394531","0.12402344","11.8125","4.375","18.0625"
"1573591565075","666","-0.51660156","-0.9375","0.13867188","12.0625","16.9375","9.03125"
"1573591565075","667","-0.46679688","-0.8984375","0.13183594","2.5625","9.5","1.03125"
"1573591565076","668","-0.43164062","-0.8828125","0.15820312","2.78125","11.59375","1.625"
"1573591565076","669","-0.44921875","-0.9433594","0.16601562","-7.59375","2.3125","-0.875"
"1573591565468","670","-0.4423828","-0.8984375","0.18554688","-2.59375","-4.96875","-11.0"
"1573591565469","671","-0.37304688","-0.8076172","0.05078125","-12.03125","-16.8125","-14.90625"
"1573591565470","672","-0.3076172","-0.8154297","0.10449219","-13.375","-9.28125","-13.25"
"1573591565470","673","-0.24121094","-0.61816406","0.015625","-10.21875","-35.21875","-23.4375"
"1573591565471","674","-0.21289062","-0.68847656","0.2421875","-37.84375","-12.71875","-10.9375"
"1573591565471","675","-0.65625","-0.9580078","0.125","-14.84375","8.78125","-11.625"
"1573591565471","676","-0.62402344","-1.0556641","0.30273438","4.75","30.8125","-2.28125"
"1573591565471","677","-0.51660156","-1.2451172","0.119140625","22.375","23.90625","-3.5625"
"1573591565472","678","-0.45507812","-1.2802734","-0.11230469","6.9375","-33.59375","4.3125"
"1573591565472","679","-0.19042969","-0.76464844","0.390625","9.09375","-37.125","-12.84375"
"1573591565866","680","-0.3779297","-0.5957031","0.09667969","-18.8125","0.71875","-10.28125"
"1573591565867","681","-0.5673828","-1.234375","-0.083984375","-36.03125","28.90625","2.125"
"1573591565867","682","-0.31054688","-0.9970703","0.08886719","-15.46875","30.625","-41.03125"
"1573591565867","683","-0.2783203","-0.9160156","0.15234375","-29.125","-9.59375","-10.40625"
"1573591565868","684","-0.43164062","-1.0097656","-0.0078125","-28.09375","13.34375","-20.09375"
"1573591565868","685","-0.30664062","-0.83496094","0.057617188","-29.5625","19.46875","-28.40625"
"1573591565868","686","-0.32421875","-0.91308594","0.0234375","-32.1875","26.09375","-19.71875"
"1573591565869","687","-0.2783203","-1.0136719","0.0107421875","-23.09375","26.34375","-23.40625"
"1573591565869","688","-0.3046875","-0.94921875","-9.765625E-4","-28.09375","11.53125","-18.03125"
"1573591565869","689","-0.29003906","-0.9375","-0.026367188","-17.90625","10.65625","-13.0625"
"1573591566660","690","-0.23535156","-0.9169922","-0.029296875","-5.6875","13.78125","-12.96875"
"1573591566660","691","-0.2861328","-0.984375","-0.03515625","-14.46875","5.34375","-10.6875"
"1573591566661","692","-0.24316406","-0.92871094","-0.01953125","-4.40625","9.4375","-9.90625"
"1573591566661","693","-0.2421875","-0.9980469","-0.07714844","-11.4375","3.28125","-4.46875"
"1573591566661","694","-0.24511719","-0.98828125","-0.025390625","-8.4375","7.5","-6.71875"
"1573591566662","695","-0.25878906","-0.96875","-0.0546875","-13.3125","3.46875","-4.71875"
"1573591566662","696","-0.22558594","-0.9794922","-0.076171875","-7.8125","1.3125","-7.28125"
"1573591566663","697","-0.21777344","-0.98339844","-0.099609375","-9.15625","-1.34375","-8.375"
"1573591566664","698","-0.22949219","-0.9716797","-0.08105469","-4.84375","0.90625","-9.34375"
"1573591566664","699","-0.25683594","-1.015625","-0.08300781","-6.71875","1.5","-6.125"
"1573591566856","700","-0.23632812","-1.0029297","-0.109375","-5.09375","1.625","-6.65625"
"1573591566857","701","-0.24121094","-0.9560547","-0.10449219","-8.4375","4.1875","-4.15625"
"1573591566858","702","-0.23242188","-0.953125","-0.10546875","-0.9375","6.625","-3.1875"
"1573591566858","703","-0.23925781","-1.0087891","-0.12597656","1.3125","10.46875","-2.6875"
"1573591566858","704","-0.24023438","-1.0292969","-0.11328125","-1.59375","10.78125","-6.59375"
"1573591566859","705","-0.25390625","-1.0458984","-0.107421875","-2.28125","13.0","-4.71875"
"1573591566859","706","-0.22265625","-1.0273438","-0.11035156","-6.375","20.5","-5.375"
"1573591566859","707","-0.23535156","-1.0566406","-0.080078125","2.71875","-3.0","4.125"
"1573591566860","708","-0.15332031","-1.0244141","-0.08300781","0.46875","-8.75","0.71875"
"1573591566860","709","-0.234375","-0.9423828","-0.107421875","-8.1875","-5.9375","1.375"
"1573591567454","710","-0.22753906","-0.99902344","-0.12402344","-6.1875","0.59375","-2.15625"
"1573591567455","711","-0.19921875","-1.0546875","-0.07910156","-3.25","-3.3125","-4.59375"
"1573591567455","712","-0.21972656","-1.0068359","-0.0546875","-4.03125","-6.53125","-8.25"
"1573591567456","713","-0.19433594","-0.87890625","-0.12792969","-5.3125","-19.125","-7.40625"
"1573591567456","714","-0.19726562","-0.89453125","-0.12207031","-8.8125","-9.21875","0.96875"
"1573591567456","715","-0.20117188","-0.89746094","-0.095703125","0.03125","-3.3125","7.90625"
"1573591567457","716","-0.18554688","-0.9609375","-0.11230469","5.84375","-17.03125","10.0625"
"1573591567457","717","-0.26367188","-1.0097656","-0.076171875","5.1875","-11.96875","16.21875"
"1573591567457","718","-0.31054688","-0.9550781","-0.09863281","10.125","-5.21875","9.8125"
"1573591567457","719","-0.24609375","-0.9580078","-0.038085938","14.28125","-4.15625","9.9375"
"1573591567653","720","-0.2841797","-0.8925781","-0.068359375","9.375","0.21875","8.71875"
"1573591567655","721","-0.27539062","-1.0546875","-0.044921875","0.59375","-1.1875","13.03125"
"1573591567655","722","-0.26953125","-0.95703125","-0.049804688","5.34375","2.0","1.875"
"1573591567656","723","-0.27734375","-0.9316406","-0.087890625","5.0","-3.25","4.9375"
"1573591567656","724","-0.25585938","-0.99902344","-0.048828125","4.25","6.6875","0.53125"
"1573591567656","725","-0.30859375","-0.9980469","-0.049804688","0.09375","9.25","-3.6875"
"1573591567657","726","-0.26660156","-0.9667969","-0.020507812","4.125","11.15625","-1.78125"
"1573591567657","727","-0.26660156","-1.0039062","-0.026367188","1.875","6.8125","-5.625"
"1573591567657","728","-0.27441406","-0.9238281","-0.032226562","1.3125","1.09375","-7.71875"
"1573591567657","729","-0.2578125","-0.9580078","-0.051757812","-7.15625","5.96875","-9.40625"
"1573591567856","730","-0.22460938","-0.9765625","-0.04296875","-12.28125","2.65625","-13.25"
"1573591567856","731","-0.22949219","-0.94140625","0.038085938","-3.90625","2.3125","-14.59375"
"1573591567857","732","-0.25195312","-0.91796875","-0.08496094","-1.71875","-33.84375","-14.96875"
"1573591567857","733","-0.1328125","-0.80859375","-0.0126953125","-1.40625","-38.15625","-5.25"
"1573591567857","734","-0.25976562","-1.03125","-0.08496094","-3.875","-9.46875","-7.53125"
"1573591567857","735","-0.14746094","-0.7402344","-0.059570312","-0.6875","-32.3125","-13.6875"
"1573591567858","736","-0.15625","-0.56152344","0.0546875","-5.25","-3.6875","2.90625"
"1573591567858","737","-0.5107422","-1.3662109","-0.09863281","-26.8125","37.28125","7.8125"
"1573591567858","738","-0.36816406","-1.5869141","0.10839844","-3.125","59.25","-13.0625"
"1573591567858","739","-0.18457031","-1.0722656","-0.037109375","-5.25","-9.21875","-16.875"
"1573591568251","740","-0.038085938","-0.8984375","-0.203125","-11.6875","-37.625","15.5625"
"1573591568252","741","-0.091796875","-0.8046875","0.017578125","-1.0625","-4.84375","4.9375"
"1573591568252","742","-0.36523438","-1.0341797","-0.07421875","13.15625","11.8125","2.3125"
"1573591568252","743","-0.16308594","-1.0400391","-0.10058594","10.59375","2.1875","-3.625"
"1573591568253","744","-0.16113281","-1.0527344","-0.099609375","-4.15625","-6.71875","5.59375"
"1573591568254","745","-0.2939453","-1.0644531","-0.08691406","-8.75","-6.59375","0.0"
"1573591568254","746","-0.17773438","-0.8691406","-0.091796875","4.125","-7.03125","-4.15625"
"1573591568255","747","-0.14160156","-1.0205078","-0.11035156","4.0","9.5625","-1.0"
"1573591568255","748","-0.20507812","-1.0390625","-0.080078125","-3.75","13.34375","-6.25"
"1573591568256","749","-0.1796875","-1.0039062","-0.06640625","-8.4375","2.0","-6.65625"
"1573591568650","750","-0.19238281","-0.99316406","-0.08496094","-10.15625","1.375","-9.0625"
"1573591568650","751","-0.17285156","-0.97265625","-0.08691406","-10.4375","6.625","-7.53125"
"1573591568650","752","-0.16210938","-0.9824219","-0.09765625","-6.375","10.0","-9.71875"
"1573591568651","753","-0.1875","-1.0244141","-0.09863281","-19.0","9.5","-13.03125"
"1573591568651","754","-0.12792969","-0.9746094","-0.111328125","-10.75","10.1875","-11.375"
"1573591568651","755","-0.15722656","-0.9941406","-0.15136719","-16.25","2.5","-9.0625"
"1573591568652","756","-0.125","-0.9902344","-0.12011719","-11.0","7.625","-9.71875"
"1573591568653","757","-0.12597656","-0.9863281","-0.14160156","-9.84375","8.78125","-9.28125"
"1573591568653","758","-0.1328125","-1.0","-0.13574219","-11.125","10.1875","-7.40625"
"1573591568654","759","-0.13085938","-0.9892578","-0.14257812","-9.90625","11.875","-7.53125"
"1573591569046","760","-0.10058594","-0.99316406","-0.13378906","-1.3125","11.21875","-6.0"
"1573591569046","761","-0.13964844","-0.9941406","-0.14648438","-3.625","12.6875","-6.78125"
"1573591569046","762","-0.10253906","-0.9941406","-0.16015625","-6.1875","12.1875","-7.59375"
"1573591569047","763","-0.076171875","-1.0029297","-0.16308594","-8.1875","7.625","-6.0"
"1573591569047","764","-0.080078125","-0.9941406","-0.17578125","-9.40625","4.625","-5.375"
"1573591569047","765","-0.080078125","-0.9921875","-0.18261719","-9.71875","1.4375","-3.875"
"1573591569048","766","-0.09277344","-0.99902344","-0.17773438","-13.5","0.90625","-3.3125"
"1573591569048","767","-0.07324219","-1.0078125","-0.1640625","-5.75","2.90625","-3.0"
"1573591569048","768","-0.109375","-0.98828125","-0.16796875","-13.125","-3.6875","-8.0"
"1573591569049","769","-0.07714844","-0.9814453","-0.17480469","-7.28125","-11.25","-6.5"
"1573591569444","770","-0.091796875","-1.0117188","-0.234375","-11.625","-4.46875","-6.84375"
"1573591569445","771","-0.08886719","-1.0029297","-0.18066406","-12.78125","-6.3125","-6.5"
"1573591569445","772","-0.14257812","-1.0166016","-0.16894531","-15.40625","-4.78125","-5.25"
"1573591569445","773","-0.12988281","-1.0205078","-0.18847656","-9.90625","-5.375","-4.03125"
"1573591569446","774","-0.115234375","-1.0722656","-0.19140625","-5.4375","0.78125","-3.875"
"1573591569446","775","-0.15234375","-1.1601562","-0.21191406","-7.46875","-1.0625","-2.9375"
"1573591569446","776","-0.11035156","-1.0644531","-0.20996094","-13.03125","-3.90625","-2.75"
"1573591569447","777","-0.10644531","-0.9375","-0.16113281","-10.09375","-14.59375","1.8125"
"1573591569447","778","-0.1484375","-0.9589844","-0.2109375","-9.125","-12.53125","4.375"
"1573591569447","779","-0.09277344","-0.95996094","-0.22949219","-0.875","-6.25","5.78125"
"1573591570039","780","-0.09472656","-0.9296875","-0.17871094","-4.34375","-14.59375","5.90625"
"1573591570040","781","-0.16992188","-0.94628906","-0.21289062","-10.5","-7.9375","4.4375"
"1573591570041","782","-0.107421875","-0.84472656","-0.24023438","-15.34375","-0.1875","8.21875"
"1573591570041","783","-0.12207031","-1.0078125","-0.26660156","-22.84375","-10.21875","13.65625"
"1573591570041","784","-0.07324219","-1.0341797","-0.24609375","6.75","-54.6875","16.15625"
"1573591570041","785","-0.20410156","-1.0537109","-0.2548828","6.9375","-56.65625","27.8125"
"1573591570042","786","-0.27539062","-1.0488281","-0.2939453","11.09375","-32.375","15.96875"
"1573591570042","787","-0.19140625","-0.9892578","-0.18457031","-2.21875","-19.375","13.28125"
"1573591570042","788","-0.22558594","-0.84472656","-0.18652344","-4.96875","1.28125","7.125"
"1573591570042","789","-0.171875","-0.94140625","-0.20703125","1.625","7.25","9.25"
"1573591570239","790","-0.24707031","-0.8935547","-0.22265625","14.09375","3.21875","15.84375"
"1573591570240","791","-0.27441406","-0.96777344","-0.12988281","27.4375","-4.65625","26.84375"
"1573591570240","792","-0.3310547","-0.96191406","-0.13769531","33.3125","8.71875","24.40625"
"1573591570241","793","-0.2734375","-0.8925781","-0.14355469","40.03125","12.625","28.78125"
"1573591570241","794","-0.29589844","-0.8964844","-0.06347656","38.875","8.46875","34.53125"
"1573591570242","795","-0.34765625","-0.9003906","-0.09667969","39.78125","11.9375","28.78125"
"1573591570242","796","-0.36914062","-0.9501953","-0.03125","27.875","16.90625","26.90625"
"1573591570242","797","-0.44433594","-0.9091797","-0.049804688","17.875","22.4375","18.53125"
"1573591570243","798","-0.40820312","-0.9746094","-0.049804688","6.5625","26.46875","15.3125"
"1573591570243","799","-0.34472656","-0.9970703","-0.036132812","16.34375","21.15625","7.625"
"1573591570637","800","-0.36621094","-0.94921875","-0.060546875","8.15625","12.75","5.78125"
"1573591570638","801","-0.36621094","-0.9433594","-0.015625","3.34375","13.28125","3.65625"
"1573591570638","802","-0.37890625","-0.93066406","-0.091796875","3.34375","11.71875","-3.125"
"1573591570638","803","-0.30859375","-0.80859375","-0.087890625","1.21875","9.25","-10.21875"
"1573591570638","804","-0.24902344","-0.8701172","-0.06640625","-13.75","3.9375","-5.5625"
"1573591570640","805","-0.2705078","-0.67285156","-0.03125","4.0625","18.71875","-22.71875"
"1573591570640","806","-0.10449219","-0.57910156","0.015625","0.15625","-21.375","-12.15625"
"1573591570640","807","-0.6982422","-1.1914062","-0.08886719","-26.625","58.59375","1.15625"
"1573591570641","808","-0.72753906","-1.3759766","-0.076171875","-19.375","69.625","0.96875"
"1573591570641","809","-0.43847656","-1.7763672","-0.37890625","-12.09375","12.4375","-41.875"
"1573591571033","810","-0.05859375","-0.36035156","0.16699219","1.3125","-44.3125","-19.3125"
"1573591571034","811","-0.20117188","-0.59472656","-0.27441406","10.125","-39.6875","26.53125"
"1573591571034","812","-0.5888672","-1.2119141","-0.23535156","-12.09375","45.5625","4.0625"
"1573591571034","813","-0.25976562","-0.8847656","-0.13183594","1.625","49.59375","-26.1875"
"1573591571035","814","-0.15625","-1.0322266","0.07421875","9.5","10.84375","-5.875"
"1573591571035","815","-0.359375","-1.0390625","-0.19140625","-18.75","-0.9375","-10.03125"
"1573591571035","816","-0.2861328","-0.9658203","-0.17382812","-13.5","1.9375","-12.28125"
"1573591571036","817","-0.2626953","-0.9013672","-0.14648438","-1.90625","9.1875","-16.5625"
"1573591571036","818","-0.28710938","-0.95996094","-0.115234375","-7.53125","13.21875","-11.375"
"1573591571037","819","-0.26660156","-0.9736328","-0.12207031","-12.34375","12.4375","-13.25"
"1573591571431","820","-0.28515625","-0.9814453","-0.15527344","-13.0625","4.25","-11.84375"
"1573591571431","821","-0.25195312","-0.96875","-0.12207031","-3.875","1.15625","-12.96875"
"1573591571431","822","-0.26464844","-0.9423828","-0.14746094","-3.90625","-2.09375","-9.96875"
"1573591571431","823","-0.23632812","-0.9267578","-0.15625","0.96875","-2.875","-6.3125"
"1573591571432","824","-0.24414062","-0.93359375","-0.1484375","3.71875","-8.9375","-4.46875"
"1573591571432","825","-0.2421875","-0.9873047","-0.13867188","8.09375","-3.5","-6.5"
"1573591571432","826","-0.22558594","-0.9433594","-0.125","12.875","-10.03125","-5.5625"
"1573591571432","827","-0.24121094","-1.0341797","-0.15722656","1.8125","-10.09375","-8.5625"
"1573591571433","828","-0.18457031","-0.9716797","-0.10644531","3.84375","-12.71875","-11.1875"
"1573591571434","829","-0.24707031","-1.0136719","-0.16796875","-4.15625","-12.65625","-8.3125"
"1573591571830","830","-0.23828125","-0.98828125","-0.13378906","1.8125","-0.1875","-14.125"
"1573591571830","831","-0.21289062","-1.0048828","-0.15332031","-3.0625","-1.96875","-15.34375"
"1573591571830","832","-0.20898438","-1.0234375","-0.14941406","-5.875","-3.96875","-16.875"
"1573591571831","833","-0.24023438","-1.0097656","-0.12597656","-11.25","6.15625","-16.6875"
"1573591571831","834","-0.21972656","-1.0371094","-0.16308594","-5.9375","-1.65625","-15.34375"
"1573591571831","835","-0.20117188","-1.1142578","-0.15039062","-9.46875","-1.34375","-13.375"
"1573591571831","836","-0.19335938","-1.0742188","-0.13476562","-6.375","-0.5625","-14.53125"
"1573591571832","837","-0.14941406","-1.0195312","-0.111328125","1.5","-18.6875","-9.34375"
"1573591571832","838","-0.16796875","-1.0214844","-0.13671875","-2.59375","-24.1875","-7.21875"
"1573591571832","839","-0.17089844","-0.9375","-0.09863281","3.46875","-15.53125","-9.78125"
"1573591572226","840","-0.17382812","-0.94921875","-0.109375","-1.96875","-8.8125","-11.5"
"1573591572228","841","-0.10449219","-0.9423828","-0.11816406","0.03125","1.625","-13.9375"
"1573591572228","842","-0.07421875","-1.0351562","-0.095703125","-15.6875","-6.84375","-15.46875"
"1573591572229","843","-0.10449219","-0.9628906","-0.09863281","-11.78125","-10.5","-13.3125"
"1573591572229","844","-0.0859375","-0.9501953","-0.14453125","-4.59375","-7.46875","-6.65625"
"1573591572229","845","-0.072265625","-0.9189453","-0.11425781","-3.25","-9.59375","-4.78125"
"1573591572229","846","-0.08496094","-0.95214844","-0.111328125","5.28125","-7.21875","-3.5"
"1573591572230","847","-0.12109375","-1.0390625","-0.12402344","-1.46875","-3.0","-6.1875"
"1573591572230","848","-0.11816406","-1.0361328","-0.11328125","-4.09375","3.71875","-6.53125"
"1573591572230","849","-0.09472656","-0.99121094","-0.10546875","-1.59375","1.5","-5.25"
"1573591572625","850","-0.06933594","-0.9423828","-0.109375","4.25","1.03125","-1.53125"
"1573591572626","851","-0.06640625","-0.99902344","-0.119140625","0.78125","2.1875","-1.40625"
"1573591572626","852","-0.076171875","-1.0292969","-0.10546875","-4.90625","5.0625","-0.375"
"1573591572627","853","-0.078125","-1.0019531","-0.13085938","-4.71875","3.28125","0.65625"
"1573591572628","854","-0.09765625","-0.99609375","-0.13085938","-6.375","2.0","1.6875"
"1573591572628","855","-0.1015625","-0.9980469","-0.103515625","-5.875","8.15625","2.3125"
"1573591572628","856","-0.11035156","-0.9980469","-0.1015625","-1.84375","9.75","1.875"
"1573591572629","857","-0.10058594","-1.0224609","-0.12890625","-12.90625","18.0625","2.1875"
"1573591572629","858","-0.099609375","-0.9667969","-0.119140625","-4.59375","2.96875","1.6875"
"1573591572629","859","-0.10546875","-0.921875","-0.14453125","-6.0","2.71875","7.375"
"1573591573022","860","-0.08300781","-0.9824219","-0.12207031","-3.5","8.78125","3.40625"
"1573591573022","861","-0.087890625","-0.8847656","-0.1328125","-2.03125","8.40625","4.0625"
"1573591573023","862","-0.15917969","-1.0009766","-0.15820312","-8.6875","8.65625","5.34375"
"1573591573023","863","-0.107421875","-0.7285156","-0.13574219","-0.1875","3.40625","7.5625"
"1573591573023","864","-0.1484375","-0.95410156","-0.07128906","10.375","5.59375","20.5625"
"1573591573024","865","-0.18066406","-0.8847656","-0.115234375","17.1875","8.59375","10.0625"
"1573591573025","866","-0.26171875","-0.94921875","-0.10253906","4.125","20.5625","22.625"
"1573591573025","867","-0.27539062","-1.2324219","-0.12011719","24.46875","33.375","17.1875"
"1573591573025","868","-0.22753906","-1.4785156","-0.025390625","14.5","33.125","26.59375"
"1573591573026","869","-0.15234375","-1.1367188","-0.21484375","6.75","-2.6875","-5.5"
"1573591573418","870","0.0390625","-0.53515625","-0.099609375","-6.84375","-37.3125","28.5625"
"1573591573419","871","-0.18554688","-1.0927734","-0.24121094","22.375","-9.84375","29.78125"
"1573591573419","872","-0.39648438","-1.0771484","-0.16796875","10.1875","14.15625","5.90625"
"1573591573419","873","-0.09765625","-0.89160156","-0.078125","18.34375","6.875","8.15625"
"1573591573419","874","-0.25","-1.1757812","-0.15820312","-6.90625","-0.0625","10.0625"
"1573591573420","875","-0.21679688","-0.9560547","-0.123046875","-5.5625","0.71875","-8.6875"
"1573591573420","876","-0.17285156","-0.92578125","-0.13769531","0.0","2.71875","-1.78125"
"1573591573421","877","-0.1875","-1.0244141","-0.103515625","-0.4375","3.34375","-6.0625"
"1573591573421","878","-0.22265625","-1.0185547","-0.11035156","-9.71875","4.0625","-8.6875"
"1573591573422","879","-0.22265625","-0.99121094","-0.12402344","-13.625","3.9375","-9.96875"
