"# PR data"
"# Start time: 20191112T205054"
"# Subject: Adela"
"# Activity type: Wall push offs"
"# Correctness: Incorrect"
"# Notes: "
""
"timestamp","seq","accel_x","accel_y","accel_z","gyro_x","gyro_y","gyro_z"
"1573591854652","0","-0.29003906","-0.9296875","0.12597656","-2.09375","6.09375","-4.09375"
"1573591854653","1","-0.2939453","-0.9472656","0.12011719","-3.4375","1.625","-3.625"
"1573591854653","2","-0.29101562","-0.9716797","0.13769531","-6.65625","1.15625","-2.59375"
"1573591854653","3","-0.28125","-0.9453125","0.12011719","-6.65625","1.375","-3.1875"
"1573591854654","4","-0.2841797","-0.9560547","0.13085938","1.09375","-5.875","0.84375"
"1573591854654","5","-0.31152344","-0.95410156","0.115234375","-1.71875","-3.3125","-1.78125"
"1573591854654","6","-0.2939453","-0.9404297","0.14648438","0.78125","-2.09375","-1.90625"
"1573591854654","7","-0.31054688","-0.94921875","0.12207031","-3.8125","-6.65625","-2.6875"
"1573591854655","8","-0.30078125","-0.95410156","0.12207031","-4.59375","-1.125","-2.03125"
"1573591854655","9","-0.29589844","-0.953125","0.12402344","-2.8125","0.46875","-1.65625"
"1573591855048","10","-0.28320312","-0.95410156","0.12695312","-5.9375","3.15625","-1.0"
"1573591855049","11","-0.2998047","-0.953125","0.13671875","-4.21875","-1.0625","-1.125"
"1573591855049","12","-0.296875","-0.95214844","0.12597656","-0.875","-1.125","0.0"
"1573591855051","13","-0.28125","-0.9550781","0.12597656","-2.59375","-1.0","-0.6875"
"1573591855051","14","-0.296875","-0.9453125","0.12792969","-0.9375","-1.25","0.0"
"1573591855052","15","-0.2861328","-0.9658203","0.12011719","-4.03125","-1.3125","0.40625"
"1573591855052","16","-0.28808594","-0.93652344","0.123046875","-7.53125","-2.40625","-3.0625"
"1573591855052","17","-0.30273438","-0.95996094","0.13574219","-6.59375","-1.3125","-3.125"
"1573591855052","18","-0.28222656","-0.94140625","0.11035156","-0.0625","-2.8125","-2.6875"
"1573591855053","19","-0.2763672","-0.95996094","0.107421875","-1.65625","-3.0","-0.125"
"1573591855444","20","-0.28320312","-0.96191406","0.13867188","-3.25","2.78125","-2.21875"
"1573591855445","21","-0.28125","-0.9433594","0.11816406","-3.6875","-0.8125","-0.25"
"1573591855445","22","-0.30273438","-0.95996094","0.11621094","-4.34375","2.25","-1.3125"
"1573591855446","23","-0.27929688","-0.94921875","0.115234375","-1.0625","1.8125","-0.625"
"1573591855446","24","-0.28808594","-0.9667969","0.12011719","-2.09375","1.28125","0.21875"
"1573591855447","25","-0.27734375","-0.94921875","0.11425781","0.65625","1.75","-0.3125"
"1573591855448","26","-0.2763672","-0.9589844","0.11425781","-2.9375","1.28125","0.15625"
"1573591855448","27","-0.28320312","-0.96875","0.111328125","-2.53125","2.125","0.21875"
"1573591855448","28","-0.28808594","-0.95214844","0.11230469","-2.21875","1.5625","-0.25"
"1573591855449","29","-0.27929688","-0.9501953","0.11328125","-1.71875","2.96875","-0.6875"
"1573591856437","30","-0.29101562","-0.95410156","0.11230469","-8.4375","4.8125","-1.65625"
"1573591856438","31","-0.25390625","-0.9472656","0.08886719","-1.59375","8.15625","-0.625"
"1573591856438","32","-0.27929688","-0.9609375","0.07714844","-14.78125","9.625","-2.8125"
"1573591856439","33","-0.2421875","-0.9628906","0.080078125","0.71875","5.90625","1.15625"
"1573591856439","34","-0.25390625","-0.9580078","0.043945312","-1.59375","2.78125","1.75"
"1573591856439","35","-0.25390625","-0.9609375","0.06933594","4.75","6.5625","3.34375"
"1573591856439","36","-0.27539062","-0.98339844","0.08691406","-0.5","4.625","4.4375"
"1573591856440","37","-0.28125","-0.96191406","0.08496094","-2.53125","2.375","1.09375"
"1573591856441","38","-0.28222656","-0.9501953","0.0859375","1.03125","-0.375","1.5625"
"1573591856441","39","-0.28027344","-0.9628906","0.08984375","0.0","0.65625","1.875"
"1573591856837","40","-0.27441406","-0.94433594","0.078125","-0.25","0.40625","2.0625"
"1573591856838","41","-0.2685547","-0.9794922","0.068359375","4.0625","-7.59375","4.0"
"1573591856838","42","-0.28222656","-0.9580078","0.08984375","1.75","-3.5625","3.21875"
"1573591856838","43","-0.2998047","-0.9326172","0.111328125","-9.65625","9.09375","0.21875"
"1573591856838","44","-0.23632812","-0.97265625","0.10058594","-5.8125","3.03125","-0.125"
"1573591856839","45","-0.24707031","-0.9423828","0.05859375","-3.375","-3.375","0.0"
"1573591856839","46","-0.33203125","-0.94921875","0.10253906","-13.03125","-4.34375","0.15625"
"1573591856839","47","-0.3154297","-0.9658203","0.13476562","2.96875","-9.65625","6.21875"
"1573591856839","48","-0.3486328","-0.9375","0.12695312","0.03125","-12.71875","5.125"
"1573591856840","49","-0.2939453","-0.92285156","0.099609375","1.6875","-5.03125","5.34375"
"1573591856843","50","-0.31347656","-0.95410156","0.10058594","0.71875","-1.84375","2.125"
"1573591856844","51","-0.328125","-0.91503906","0.12988281","-1.53125","0.96875","4.375"
"1573591856844","52","-0.31152344","-0.92578125","0.123046875","0.09375","-1.40625","4.6875"
"1573591856844","53","-0.31640625","-0.93847656","0.123046875","1.625","-7.03125","5.0625"
"1573591856844","54","-0.3359375","-0.9238281","0.14257812","-2.8125","-13.125","6.28125"
"1573591856845","55","-0.31835938","-0.953125","0.15234375","1.28125","-17.09375","7.375"
"1573591856845","56","-0.34960938","-0.9277344","0.14257812","0.40625","-17.90625","6.5625"
"1573591856845","57","-0.32714844","-0.9433594","0.19140625","1.09375","-22.21875","6.8125"
"1573591856845","58","-0.3642578","-0.9003906","0.19824219","-1.84375","-36.75","12.9375"
"1573591856846","59","-0.35546875","-0.9609375","0.13476562","12.5625","-12.65625","17.75"
"1573591857234","60","-0.36523438","-0.90722656","0.16503906","8.40625","-5.9375","9.9375"
"1573591857235","61","-0.3623047","-0.91308594","0.19628906","12.4375","-6.375","11.15625"
"1573591857236","62","-0.35351562","-0.8935547","0.20507812","9.625","-3.0625","8.59375"
"1573591857236","63","-0.38378906","-0.87890625","0.203125","10.125","-4.40625","6.46875"
"1573591857236","64","-0.37695312","-0.8876953","0.24121094","6.46875","2.65625","7.375"
"1573591857237","65","-0.36914062","-0.9111328","0.21386719","8.03125","0.84375","6.28125"
"1573591857237","66","-0.41503906","-0.90625","0.22949219","7.90625","0.78125","6.03125"
"1573591857237","67","-0.40039062","-0.9003906","0.24902344","7.125","4.9375","5.40625"
"1573591857238","68","-0.390625","-0.8935547","0.23828125","5.90625","3.09375","4.1875"
"1573591857238","69","-0.390625","-0.8808594","0.25195312","4.75","6.5625","2.65625"
"1573591857632","70","-0.3984375","-0.8828125","0.25195312","5.125","3.59375","0.65625"
"1573591857633","71","-0.3828125","-0.86328125","0.265625","13.15625","2.4375","-0.8125"
"1573591857633","72","-0.3984375","-0.8798828","0.25683594","24.21875","-3.75","-4.15625"
"1573591857634","73","-0.39746094","-0.8808594","0.2783203","27.09375","0.0","-3.3125"
"1573591857635","74","-0.37695312","-0.8769531","0.27734375","15.0","-3.1875","-1.96875"
"1573591857635","75","-0.38378906","-0.86328125","0.30566406","11.65625","-7.28125","1.15625"
"1573591857635","76","-0.4091797","-0.8564453","0.3017578","8.40625","-7.53125","5.34375"
"1573591857636","77","-0.4267578","-0.8564453","0.32714844","0.59375","-0.375","1.3125"
"1573591857636","78","-0.39257812","-0.85839844","0.35351562","0.96875","-0.8125","1.4375"
"1573591857636","79","-0.39257812","-0.8691406","0.3251953","4.6875","3.59375","-2.53125"
"1573591858029","80","-0.40820312","-0.8515625","0.36523438","2.0","2.5","1.15625"
"1573591858030","81","-0.36328125","-0.86621094","0.3466797","1.3125","2.375","-0.875"
"1573591858030","82","-0.42382812","-0.84765625","0.3623047","-0.8125","-3.8125","-0.1875"
"1573591858030","83","-0.38867188","-0.8251953","0.32910156","-3.4375","0.40625","0.46875"
"1573591858030","84","-0.41992188","-0.8388672","0.33691406","-1.46875","-0.5","0.09375"
"1573591858032","85","-0.39746094","-0.84277344","0.3359375","-2.875","2.25","-0.4375"
"1573591858032","86","-0.4111328","-0.8417969","0.31640625","2.5","5.0625","-1.65625"
"1573591858032","87","-0.4013672","-0.87890625","0.30859375","4.1875","12.375","0.28125"
"1573591858033","88","-0.3828125","-0.8613281","0.32128906","-6.84375","10.65625","4.9375"
"1573591858033","89","-0.390625","-0.86328125","0.36035156","-4.34375","1.5625","6.8125"
"1573591858427","90","-0.4375","-0.82910156","0.34472656","-1.90625","4.125","4.0"
"1573591858428","91","-0.375","-0.8544922","0.32910156","-5.375","7.75","0.90625"
"1573591858428","92","-0.38476562","-0.8691406","0.3076172","-16.375","3.84375","-2.03125"
"1573591858428","93","-0.39648438","-0.8544922","0.30859375","-19.1875","5.59375","-2.59375"
"1573591858428","94","-0.3857422","-0.8964844","0.28222656","-21.3125","2.0","0.09375"
"1573591858429","95","-0.38964844","-0.8720703","0.30371094","-20.9375","-1.34375","0.96875"
"1573591858429","96","-0.4345703","-0.8251953","0.29785156","-17.09375","-8.5","3.65625"
"1573591858430","97","-0.45117188","-0.8544922","0.27441406","-10.34375","-0.8125","4.5625"
"1573591858430","98","-0.44335938","-0.87109375","0.2607422","-6.71875","1.8125","-1.0"
"1573591858431","99","-0.453125","-0.8544922","0.28710938","-7.28125","-0.5625","0.78125"
"1573591859021","100","-0.4267578","-0.86621094","0.26171875","-0.75","5.34375","-1.46875"
"1573591859021","101","-0.39648438","-0.9111328","0.23242188","-2.8125","6.40625","-0.9375"
"1573591859022","102","-0.45214844","-0.8339844","0.3125","-5.625","1.15625","2.5"
"1573591859022","103","-0.3779297","-0.8564453","0.24902344","-4.53125","13.59375","4.9375"
"1573591859022","104","-0.4501953","-0.87890625","0.265625","-7.28125","0.40625","3.34375"
"1573591859022","105","-0.43652344","-0.86816406","0.29003906","-5.5625","0.65625","1.6875"
"1573591859023","106","-0.44628906","-0.90625","0.24609375","-7.8125","5.40625","-1.71875"
"1573591859023","107","-0.47558594","-0.88183594","0.28125","-6.5","-1.34375","-5.75"
"1573591859023","108","-0.45507812","-0.91308594","0.24804688","-9.21875","16.34375","-3.0"
"1573591859024","109","-0.45996094","-0.8964844","0.30371094","-17.90625","12.6875","-5.09375"
"1573591859221","110","-0.43847656","-0.8574219","0.28710938","-22.40625","13.78125","-1.3125"
"1573591859221","111","-0.46484375","-0.8798828","0.20214844","-11.96875","13.90625","-6.59375"
"1573591859222","112","-0.43066406","-0.890625","0.22070312","-8.125","12.0","-9.0"
"1573591859222","113","-0.4013672","-0.89746094","0.23046875","-8.375","6.75","-8.1875"
"1573591859222","114","-0.4296875","-0.88671875","0.21679688","-12.15625","5.71875","-6.71875"
"1573591859223","115","-0.46484375","-0.8671875","0.23144531","-11.71875","5.1875","-8.625"
"1573591859223","116","-0.43847656","-0.8857422","0.23144531","-12.96875","12.1875","-10.21875"
"1573591859223","117","-0.42871094","-0.8828125","0.16992188","-4.09375","6.21875","-12.21875"
"1573591859224","118","-0.4716797","-0.87402344","0.17675781","-2.625","5.96875","-11.4375"
"1573591859224","119","-0.40722656","-0.87890625","0.1953125","0.71875","9.25","-7.15625"
"1573591859621","120","-0.45117188","-0.9013672","0.171875","-0.875","15.5625","-3.90625"
"1573591859622","121","-0.421875","-0.890625","0.18457031","-3.0625","17.375","-1.84375"
"1573591859623","122","-0.4658203","-0.8886719","0.20117188","-5.5","24.15625","-1.46875"
"1573591859623","123","-0.3623047","-0.91796875","0.13476562","-9.59375","32.9375","1.3125"
"1573591859623","124","-0.375","-0.88964844","0.1171875","3.34375","13.84375","-0.5625"
"1573591859623","125","-0.38183594","-0.8984375","0.10839844","8.71875","11.03125","5.90625"
"1573591859624","126","-0.3017578","-0.94921875","0.06933594","11.8125","3.46875","7.5"
"1573591859624","127","-0.3642578","-0.94628906","0.07324219","8.53125","-2.15625","2.125"
"1573591859624","128","-0.3876953","-0.92871094","0.099609375","2.71875","-0.875","-0.9375"
"1573591859625","129","-0.3798828","-0.9033203","0.107421875","3.03125","-1.71875","-7.78125"
"1573591860016","130","-0.4267578","-0.9013672","0.13867188","1.15625","6.09375","-11.78125"
"1573591860016","131","-0.3798828","-0.9296875","0.1015625","-4.53125","16.09375","-14.40625"
"1573591860016","132","-0.33789062","-0.9394531","0.09863281","-3.5","9.625","-15.15625"
"1573591860019","133","-0.3095703","-0.91308594","0.083984375","-3.875","7.0625","-11.6875"
"1573591860019","134","-0.3388672","-0.9609375","0.123046875","-9.59375","-0.5","-9.34375"
"1573591860019","135","-0.37890625","-0.94433594","0.09863281","-22.40625","-2.75","-12.21875"
"1573591860020","136","-0.33691406","-0.8886719","0.04296875","-18.03125","4.25","-10.21875"
"1573591860020","137","-0.2841797","-0.92285156","0.09082031","-17.90625","11.75","-3.625"
"1573591860020","138","-0.25683594","-0.96777344","0.043945312","-9.59375","-2.46875","1.5"
"1573591860020","139","-0.3310547","-0.9277344","0.05078125","-0.4375","-5.6875","2.3125"
"1573591860414","140","-0.32910156","-0.9638672","0.046875","2.4375","-8.3125","4.3125"
"1573591860415","141","-0.31347656","-0.9091797","0.064453125","7.84375","-14.25","3.78125"
"1573591860415","142","-0.296875","-0.9296875","0.08203125","-1.96875","-5.625","6.9375"
"1573591860415","143","-0.30371094","-0.91503906","0.06347656","3.9375","-10.8125","2.90625"
"1573591860415","144","-0.3408203","-0.93066406","0.05859375","3.34375","-6.78125","10.1875"
"1573591860417","145","-0.33691406","-0.9433594","0.08886719","4.75","-2.09375","9.6875"
"1573591860417","146","-0.3955078","-0.9394531","0.11425781","6.15625","-1.3125","9.25"
"1573591860417","147","-0.390625","-0.94140625","0.10449219","6.03125","2.90625","5.21875"
"1573591860417","148","-0.37402344","-0.9189453","0.11425781","7.1875","-0.625","4.375"
"1573591860418","149","-0.38964844","-0.9326172","0.13769531","1.09375","3.34375","5.0625"
"1573591860811","150","-0.3486328","-0.9472656","0.12109375","4.5625","4.125","5.53125"
"1573591860812","151","-0.39453125","-0.953125","0.10546875","-6.1875","6.15625","-3.8125"
"1573591860812","152","-0.33691406","-0.94628906","0.09667969","-14.125","8.15625","-4.96875"
"1573591860812","153","-0.3779297","-0.9326172","0.13867188","-9.0625","-0.0625","-9.0"
"1573591860812","154","-0.40625","-0.90625","0.11621094","2.84375","2.1875","-10.03125"
"1573591860813","155","-0.3486328","-0.94628906","0.11035156","-3.5625","1.28125","-5.8125"
"1573591860813","156","-0.3642578","-0.9189453","0.10449219","-5.8125","1.9375","-6.375"
"1573591860813","157","-0.3564453","-0.9267578","0.11328125","-5.3125","2.375","-1.53125"
"1573591860814","158","-0.36132812","-0.92089844","0.111328125","-8.0","2.59375","-2.21875"
"1573591860814","159","-0.3798828","-0.9277344","0.123046875","-6.71875","1.375","-0.5"
"1573591861209","160","-0.37695312","-0.92871094","0.10449219","-7.46875","2.59375","-1.65625"
"1573591861209","161","-0.36621094","-0.9296875","0.099609375","-4.34375","2.90625","-3.75"
"1573591861209","162","-0.35839844","-0.93359375","0.1015625","-4.34375","1.03125","-3.4375"
"1573591861209","163","-0.33496094","-0.9277344","0.095703125","-7.53125","-2.9375","-2.46875"
"1573591861210","164","-0.36035156","-0.9345703","0.099609375","-5.09375","-3.0625","0.0"
"1573591861210","165","-0.3701172","-0.94628906","0.103515625","-6.25","1.03125","-0.625"
"1573591861210","166","-0.34277344","-0.91796875","0.08496094","-0.5","-2.28125","-2.8125"
"1573591861210","167","-0.3876953","-0.94433594","0.09472656","-14.1875","0.96875","-2.46875"
"1573591861210","168","-0.34375","-0.93847656","0.08984375","-10.03125","7.1875","-5.09375"
"1573591861212","169","-0.3642578","-0.9511719","0.10058594","-9.125","-0.25","-4.53125"
"1573591861609","170","-0.37402344","-0.9472656","0.06542969","-5.21875","7.0625","-6.84375"
"1573591861609","171","-0.34765625","-0.9482422","0.07421875","-3.3125","8.28125","-8.4375"
"1573591861610","172","-0.34375","-0.93847656","0.057617188","-3.5625","6.40625","-7.28125"
"1573591861610","173","-0.35253906","-0.93066406","0.068359375","-8.0625","6.75","-3.8125"
"1573591861610","174","-0.33691406","-0.9375","0.06347656","-4.96875","3.53125","-1.71875"
"1573591861610","175","-0.33203125","-0.9472656","0.06738281","-8.6875","4.25","-2.8125"
"1573591861611","176","-0.35253906","-0.9423828","0.0546875","-3.5","1.09375","-2.6875"
"1573591861611","177","-0.34960938","-0.9423828","0.041992188","1.03125","-0.5625","-2.75"
"1573591861611","178","-0.3310547","-0.9482422","0.060546875","5.53125","-1.34375","-1.0"
"1573591861612","179","-0.3251953","-0.9560547","0.06640625","5.96875","-2.875","-2.28125"
"1573591862204","180","-0.3388672","-0.93652344","0.055664062","2.84375","-0.625","-1.96875"
"1573591862205","181","-0.32421875","-0.9394531","0.049804688","0.96875","-2.09375","-0.625"
"1573591862206","182","-0.31835938","-0.9589844","0.076171875","0.65625","2.1875","0.21875"
"1573591862206","183","-0.32128906","-0.92871094","0.053710938","-0.8125","1.8125","0.21875"
"1573591862206","184","-0.3046875","-0.96777344","0.06347656","8.28125","-6.96875","2.25"
"1573591862207","185","-0.35253906","-0.9326172","0.056640625","-1.78125","0.96875","-1.125"
"1573591862207","186","-0.2890625","-0.93652344","0.060546875","6.21875","4.875","-1.78125"
"1573591862207","187","-0.30273438","-0.9736328","0.057617188","14.625","3.53125","1.375"
"1573591862207","188","-0.296875","-0.94628906","0.06933594","3.59375","3.71875","0.0"
"1573591862208","189","-0.2998047","-0.9394531","0.10644531","-0.6875","5.1875","3.65625"
"1573591862402","190","-0.31835938","-0.90625","0.115234375","-6.0625","-6.71875","8.46875"
"1573591862402","191","-0.4013672","-0.9550781","0.099609375","-9.46875","-5.3125","1.8125"
"1573591862402","192","-0.33203125","-0.91796875","0.06933594","-1.53125","-0.1875","0.78125"
"1573591862403","193","-0.33789062","-0.9267578","0.06738281","-0.5625","1.5","-0.375"
"1573591862404","194","-0.32421875","-0.95410156","0.061523438","-0.9375","1.03125","-1.40625"
"1573591862404","195","-0.3125","-0.9482422","0.078125","-6.375","-1.84375","0.0"
"1573591862404","196","-0.3203125","-0.92285156","0.078125","-5.625","-5.875","-1.0625"
"1573591862404","197","-0.34570312","-0.9345703","0.1171875","-7.65625","-4.59375","-0.9375"
"1573591862405","198","-0.31933594","-0.93847656","0.07128906","-6.25","-6.90625","0.03125"
"1573591862405","199","-0.3486328","-0.9501953","0.11425781","0.90625","-10.875","0.90625"
"1573591862800","200","-0.3125","-0.9345703","0.10644531","1.9375","-9.96875","1.8125"
"1573591862800","201","-0.3359375","-0.9160156","0.11621094","-0.3125","-11.84375","4.25"
"1573591862801","202","-0.35058594","-0.9267578","0.119140625","-1.46875","-11.3125","6.03125"
"1573591862801","203","-0.34375","-0.9628906","0.12792969","4.3125","-12.28125","6.5625"
"1573591862801","204","-0.38671875","-0.9111328","0.1953125","2.0625","-14.71875","7.8125"
"1573591862802","205","-0.36523438","-0.9511719","0.12011719","8.09375","-7.09375","10.1875"
"1573591862803","206","-0.421875","-0.9199219","0.16992188","5.1875","-7.46875","7.125"
"1573591862803","207","-0.37109375","-0.9033203","0.16601562","5.71875","-2.625","6.6875"
"1573591862803","208","-0.36328125","-0.8955078","0.15625","4.875","-2.8125","4.0"
"1573591862804","209","-0.36328125","-0.93066406","0.18066406","3.34375","-4.34375","5.0625"
"1573591863196","210","-0.37402344","-0.90625","0.17285156","2.0","-7.9375","3.34375"
"1573591863197","211","-0.3857422","-0.91796875","0.18164062","2.78125","-6.3125","3.34375"
"1573591863197","212","-0.3779297","-0.8779297","0.21679688","-0.9375","-11.25","1.4375"
"1573591863197","213","-0.3876953","-0.95214844","0.18847656","3.03125","-10.75","-0.3125"
"1573591863197","214","-0.39648438","-0.9316406","0.18359375","4.5","-9.59375","0.78125"
"1573591863198","215","-0.40527344","-0.8564453","0.23535156","-1.59375","-5.25","2.4375"
"1573591863198","216","-0.43359375","-0.91308594","0.18457031","-4.65625","3.9375","3.65625"
"1573591863200","217","-0.42285156","-0.88671875","0.234375","-4.96875","6.875","0.0"
"1573591863200","218","-0.4326172","-0.90625","0.24609375","-8.5","5.0625","0.65625"
"1573591863200","219","-0.34179688","-0.92871094","0.1875","-6.96875","4.875","-1.53125"
"1573591863594","220","-0.44921875","-0.8876953","0.24414062","-7.03125","-2.6875","1.75"
"1573591863595","221","-0.37597656","-0.93066406","0.2265625","-0.5","-7.40625","2.1875"
"1573591863595","222","-0.42382812","-0.9316406","0.24609375","-0.9375","-14.0","2.4375"
"1573591863595","223","-0.42089844","-0.88671875","0.29101562","-2.53125","-19.1875","2.96875"
"1573591863596","224","-0.5078125","-0.8574219","0.27539062","-2.21875","-7.78125","-1.71875"
"1573591863596","225","-0.4375","-0.8886719","0.234375","-0.8125","-3.625","-1.84375"
"1573591863596","226","-0.41210938","-0.9042969","0.27148438","-2.625","-4.03125","-2.75"
"1573591863596","227","-0.4375","-0.8886719","0.25","-1.25","-4.34375","2.71875"
"1573591863597","228","-0.43066406","-0.91015625","0.25195312","-6.4375","1.5","1.3125"
"1573591863598","229","-0.42773438","-0.8984375","0.27539062","-4.28125","6.875","2.5"
"1573591863992","230","-0.43164062","-0.9033203","0.21875","-2.09375","4.6875","-0.1875"
"1573591863992","231","-0.40527344","-0.89746094","0.23632812","2.5","10.46875","0.65625"
"1573591863993","232","-0.41992188","-0.90234375","0.1953125","4.375","7.375","0.09375"
"1573591863993","233","-0.39160156","-0.87597656","0.22949219","5.125","10.1875","3.78125"
"1573591863993","234","-0.4375","-0.89160156","0.21875","4.5625","15.0","1.09375"
"1573591863994","235","-0.43554688","-0.8955078","0.20507812","0.65625","15.0625","6.34375"
"1573591863994","236","-0.39453125","-0.90722656","0.18847656","1.09375","12.75","6.15625"
"1573591863994","237","-0.3984375","-0.8876953","0.16308594","1.875","10.0625","2.71875"
"1573591863994","238","-0.4111328","-0.88378906","0.17773438","-0.3125","8.21875","3.40625"
"1573591863995","239","-0.37695312","-0.90527344","0.15332031","-1.125","11.53125","6.46875"
"1573591864389","240","-0.4169922","-0.8876953","0.18554688","-3.1875","5.40625","0.78125"
"1573591864391","241","-0.4111328","-0.9091797","0.18066406","-3.0625","5.0625","0.78125"
"1573591864395","242","-0.4111328","-0.90527344","0.15429688","-2.40625","6.40625","-4.03125"
"1573591864395","243","-0.3955078","-0.8798828","0.16113281","2.96875","9.03125","-8.3125"
"1573591864396","244","-0.38183594","-0.8798828","0.15332031","-1.46875","7.5","-10.09375"
"1573591864396","245","-0.3984375","-0.89453125","0.13574219","-3.625","8.09375","-11.25"
"1573591864396","246","-0.34277344","-0.9296875","0.15039062","-1.59375","8.28125","-10.6875"
"1573591864396","247","-0.3623047","-0.91308594","0.12207031","1.09375","3.90625","-14.0"
"1573591864397","248","-0.34765625","-0.92578125","0.12207031","-1.40625","8.65625","-12.71875"
"1573591864397","249","-0.33789062","-0.9277344","0.12890625","-0.25","5.84375","-12.71875"
"1573591864788","250","-0.35058594","-0.9121094","0.13964844","-0.0625","7.0625","-11.6875"
"1573591864788","251","-0.3203125","-0.9394531","0.12207031","-2.75","5.0625","-10.21875"
"1573591864788","252","-0.33398438","-0.9345703","0.11425781","-4.40625","7.96875","-12.59375"
"1573591864790","253","-0.3408203","-0.92089844","0.10839844","-7.40625","5.84375","-9.59375"
"1573591864790","254","-0.29785156","-0.9472656","0.115234375","-2.8125","5.96875","-8.125"
"1573591864790","255","-0.33496094","-0.9355469","0.10644531","-6.59375","3.84375","-11.0"
"1573591864791","256","-0.29296875","-0.93847656","0.11816406","1.8125","-2.03125","-5.4375"
"1573591864791","257","-0.3173828","-0.9560547","0.11328125","-5.15625","1.5","-6.1875"
"1573591864791","258","-0.29101562","-0.9472656","0.11816406","-2.59375","3.40625","-5.375"
"1573591864791","259","-0.33203125","-0.953125","0.1484375","-7.9375","4.625","-8.0625"
"1573591865186","260","-0.30566406","-0.93847656","0.119140625","-8.6875","6.09375","-10.9375"
"1573591865186","261","-0.30273438","-0.9248047","0.140625","-11.71875","12.1875","-10.40625"
"1573591865187","262","-0.31347656","-0.94921875","0.11621094","-9.34375","13.09375","-11.78125"
"1573591865187","263","-0.28515625","-0.953125","0.10253906","-5.875","11.53125","-11.1875"
"1573591865187","264","-0.265625","-0.9501953","0.08984375","-7.34375","3.28125","-7.34375"
"1573591865189","265","-0.2578125","-0.9453125","0.08886719","-2.75","-1.125","-2.9375"
"1573591865189","266","-0.28125","-0.9580078","0.09277344","-0.3125","-4.03125","-2.53125"
"1573591865190","267","-0.25683594","-0.96484375","0.107421875","0.28125","-1.90625","-1.84375"
"1573591865191","268","-0.296875","-0.95410156","0.11035156","-2.40625","-1.40625","-7.21875"
"1573591865191","269","-0.2998047","-0.9716797","0.10058594","-9.65625","3.71875","-5.875"
"1573591865779","270","-0.25097656","-0.9501953","0.08886719","-1.59375","5.40625","-6.5"
"1573591865779","271","-0.25097656","-0.9707031","0.08691406","-7.46875","-1.90625","-1.46875"
"1573591865779","272","-0.26660156","-0.9472656","0.09863281","-7.53125","0.46875","-0.1875"
"1573591865780","273","-0.27929688","-0.9550781","0.07519531","-4.03125","-1.96875","3.34375"
"1573591865780","274","-0.29101562","-0.9472656","0.06933594","-8.625","6.9375","-0.8125"
"1573591865780","275","-0.3095703","-0.98339844","0.05859375","-19.96875","24.09375","-4.65625"
"1573591865780","276","-0.26757812","-0.98535156","0.08203125","-21.3125","28.375","-9.59375"
"1573591865782","277","-0.28808594","-0.94921875","0.04296875","-16.5","19.625","-12.90625"
"1573591865782","278","-0.2529297","-0.9736328","0.044921875","-15.53125","23.59375","-10.21875"
"1573591865782","279","-0.24804688","-0.9794922","0.036132812","-18.15625","14.8125","-11.84375"
"1573591865982","280","-0.22949219","-0.9433594","-0.017578125","-13.875","9.1875","-7.34375"
"1573591865982","281","-0.20507812","-1.0039062","-0.005859375","-11.625","4.1875","-4.34375"
"1573591865982","282","-0.21679688","-0.98828125","-0.005859375","-4.40625","-6.84375","-4.78125"
"1573591865983","283","-0.22167969","-0.95214844","-0.030273438","7.3125","-16.3125","1.09375"
"1573591865983","284","-0.22070312","-0.94140625","-9.765625E-4","5.96875","-7.28125","1.875"
"1573591865983","285","-0.23632812","-0.99316406","0.046875","14.21875","-14.1875","2.65625"
"1573591865983","286","-0.24023438","-0.9628906","0.0087890625","4.6875","-5.9375","5.34375"
"1573591865984","287","-0.22070312","-0.9794922","0.037109375","-0.875","-6.1875","4.3125"
"1573591865984","288","-0.26953125","-0.9511719","0.046875","0.40625","-5.3125","6.5625"
"1573591865985","289","-0.2607422","-0.9404297","0.07421875","1.375","-13.5625","9.375"
"1573591866378","290","-0.28515625","-0.9716797","0.06347656","0.96875","-11.78125","7.8125"
"1573591866379","291","-0.27734375","-0.9433594","0.0859375","-4.59375","-21.875","8.90625"
"1573591866379","292","-0.2841797","-0.9550781","0.099609375","-2.59375","-24.75","9.25"
"1573591866379","293","-0.3017578","-0.9580078","0.061523438","-4.59375","-12.78125","8.71875"
"1573591866379","294","-0.3466797","-0.96875","0.1328125","-12.15625","-19.375","6.21875"
"1573591866380","295","-0.3125","-0.9550781","0.12011719","-9.40625","-15.15625","3.34375"
"1573591866380","296","-0.3701172","-0.9453125","0.07421875","-14.25","-18.9375","-0.3125"
"1573591866380","297","-0.2529297","-0.9716797","0.08203125","-6.25","-7.40625","1.6875"
"1573591866380","298","-0.3232422","-0.96972656","0.044921875","-10.6875","-15.9375","1.3125"
"1573591866381","299","-0.30859375","-0.9580078","0.07324219","-3.25","-13.8125","2.5625"
"1573591866972","300","-0.328125","-0.953125","0.0703125","-1.59375","-11.90625","2.1875"
"1573591866973","301","-0.34277344","-0.9316406","0.08300781","-3.75","-13.1875","2.5"
"1573591866973","302","-0.31347656","-0.95996094","0.078125","0.46875","-9.28125","-0.25"
"1573591866974","303","-0.29003906","-0.96484375","0.056640625","1.8125","-6.90625","2.71875"
"1573591866974","304","-0.33007812","-0.94140625","0.10058594","-0.0625","-9.53125","3.40625"
"1573591866974","305","-0.29589844","-0.96972656","0.061523438","3.28125","-0.5","4.0625"
"1573591866974","306","-0.32714844","-0.94921875","0.1015625","1.15625","-3.3125","3.34375"
"1573591866975","307","-0.31445312","-0.94433594","0.09765625","2.96875","-2.09375","3.90625"
"1573591866975","308","-0.31054688","-0.95703125","0.08496094","3.34375","-1.0","3.78125"
"1573591866976","309","-0.31933594","-0.9472656","0.10449219","-0.375","0.59375","2.96875"
"1573591867371","310","-0.28320312","-0.95410156","0.08496094","3.28125","-0.625","1.5625"
"1573591867371","311","-0.3173828","-0.9423828","0.1015625","4.5","-8.25","4.5625"
"1573591867372","312","-0.32226562","-0.9326172","0.08300781","-2.15625","-7.46875","1.375"
"1573591867373","313","-0.3076172","-0.9746094","0.10449219","3.46875","-10.15625","1.21875"
"1573591867373","314","-0.33007812","-0.94628906","0.13769531","1.4375","-4.96875","2.125"
"1573591867374","315","-0.29785156","-0.9433594","0.12207031","5.96875","-13.6875","3.53125"
"1573591867374","316","-0.32910156","-0.94433594","0.125","10.0","-9.21875","6.28125"
"1573591867374","317","-0.359375","-0.96484375","0.125","5.1875","-2.28125","3.90625"
"1573591867375","318","-0.39453125","-0.9394531","0.12988281","-5.4375","-2.28125","2.5"
"1573591867375","319","-0.30078125","-0.921875","0.17675781","-0.375","3.84375","2.0"
"1573591867568","320","-0.3466797","-0.92578125","0.15136719","2.5625","1.625","-0.8125"
"1573591867569","321","-0.29492188","-0.9355469","0.13378906","3.90625","3.90625","-0.375"
"1573591867569","322","-0.33984375","-0.9277344","0.16210938","-1.46875","-0.375","0.09375"
"1573591867569","323","-0.34570312","-0.9580078","0.15234375","-3.5625","1.75","1.75"
"1573591867569","324","-0.37402344","-0.9433594","0.16503906","-5.6875","0.78125","-0.125"
"1573591867571","325","-0.34179688","-0.96875","0.13476562","0.46875","9.5","-0.75"
"1573591867571","326","-0.33789062","-0.9296875","0.13085938","-0.3125","5.53125","-1.90625"
"1573591867571","327","-0.3564453","-0.98046875","0.14355469","4.875","-0.9375","-0.5625"
"1573591867571","328","-0.32714844","-0.92578125","0.18164062","-2.625","-0.75","-3.25"
"1573591867572","329","-0.36328125","-0.9140625","0.16015625","-2.875","-1.46875","-3.25"
"1573591867966","330","-0.35351562","-0.9355469","0.16796875","0.0","0.71875","-2.15625"
"1573591867966","331","-0.33984375","-0.91796875","0.15722656","-1.59375","8.53125","0.15625"
"1573591867966","332","-0.34375","-0.9580078","0.18359375","-4.65625","7.75","3.21875"
"1573591867967","333","-0.38378906","-0.93847656","0.16308594","-1.46875","13.0","2.5"
"1573591867967","334","-0.3671875","-0.93652344","0.18457031","-1.0625","11.21875","1.6875"
"1573591867967","335","-0.36035156","-0.9394531","0.17089844","-2.46875","11.34375","0.84375"
"1573591867967","336","-0.33984375","-0.9589844","0.1640625","-1.65625","10.53125","-2.40625"
"1573591867968","337","-0.37304688","-0.93359375","0.19824219","-5.4375","3.15625","-0.875"
"1573591867969","338","-0.40625","-0.93847656","0.18261719","-6.59375","0.03125","-0.875"
"1573591867969","339","-0.35839844","-0.94433594","0.16308594","-1.59375","12.9375","-1.40625"
"1573591868365","340","-0.36816406","-0.9033203","0.14453125","-3.8125","5.84375","-2.875"
"1573591868365","341","-0.3359375","-0.9296875","0.14160156","6.5625","9.5","-1.25"
"1573591868366","342","-0.37402344","-0.9160156","0.14160156","3.71875","9.25","-0.3125"
"1573591868366","343","-0.33496094","-0.92089844","0.14550781","7.0","6.9375","-1.34375"
"1573591868366","344","-0.35058594","-0.9169922","0.1640625","4.3125","9.5","-1.34375"
"1573591868366","345","-0.34375","-0.9267578","0.15527344","4.3125","14.3125","-1.0"
"1573591868367","346","-0.34472656","-0.9404297","0.13574219","3.71875","15.5","-1.71875"
"1573591868367","347","-0.35253906","-0.953125","0.13964844","-7.9375","17.25","-3.375"
"1573591868367","348","-0.3330078","-0.91503906","0.103515625","-0.4375","17.0","-4.84375"
"1573591868369","349","-0.36621094","-0.9394531","0.13085938","-3.90625","22.625","-4.15625"
"1573591868762","350","-0.30078125","-0.9238281","0.10839844","4.5625","17.625","-5.21875"
"1573591868763","351","-0.3173828","-0.9345703","0.091796875","5.53125","13.84375","-6.25"
"1573591868763","352","-0.3154297","-0.92578125","0.08886719","9.375","15.71875","-4.65625"
"1573591868763","353","-0.3408203","-0.9638672","0.10644531","1.3125","10.375","-7.59375"
"1573591868764","354","-0.3544922","-0.9628906","0.13769531","-4.78125","14.8125","-10.15625"
"1573591868764","355","-0.34765625","-0.92578125","0.08886719","-7.03125","17.3125","-14.53125"
"1573591868764","356","-0.28808594","-0.9638672","0.10058594","-6.3125","28.71875","-17.21875"
"1573591868764","357","-0.27441406","-0.9511719","0.08203125","-6.59375","24.09375","-19.65625"
"1573591868765","358","-0.25878906","-0.9482422","0.053710938","-8.5","24.03125","-15.875"
"1573591868765","359","-0.26757812","-0.9638672","0.056640625","-10.5","24.15625","-12.90625"
"1573591869159","360","-0.28710938","-0.9736328","0.05078125","-8.6875","25.6875","-11.90625"
"1573591869161","361","-0.24023438","-0.93847656","0.018554688","-0.3125","20.8125","-11.96875"
"1573591869161","362","-0.24609375","-0.96972656","0.02734375","-0.25","16.15625","-7.59375"
"1573591869161","363","-0.25097656","-0.9746094","0.037109375","-1.3125","15.0","-7.71875"
"1573591869162","364","-0.23242188","-0.95410156","0.0146484375","0.65625","11.9375","-1.40625"
"1573591869162","365","-0.19238281","-1.0048828","-0.0048828125","-3.1875","8.96875","2.1875"
"1573591869162","366","-0.22753906","-0.9423828","0.028320312","-5.03125","0.15625","1.625"
"1573591869163","367","-0.2578125","-0.9628906","0.0078125","0.21875","-1.25","1.375"
"1573591869163","368","-0.2578125","-0.96875","-0.0078125","2.0","0.34375","-4.34375"
"1573591869163","369","-0.26367188","-0.9951172","0.037109375","-1.40625","-5.25","-2.15625"
"1573591869557","370","-0.23339844","-0.9560547","0.029296875","1.5","-0.5","-3.875"
"1573591869558","371","-0.2265625","-0.99609375","0.0107421875","-3.125","-7.21875","-0.5"
"1573591869558","372","-0.24609375","-0.9765625","0.022460938","-3.5","-3.0625","-2.625"
"1573591869559","373","-0.2685547","-0.99609375","0.020507812","-11.5","1.625","-0.875"
"1573591869559","374","-0.265625","-0.98046875","0.018554688","-18.9375","3.46875","-4.09375"
"1573591869560","375","-0.26171875","-0.9746094","-0.0390625","-8.9375","3.46875","-3.375"
"1573591869560","376","-0.23144531","-1.0605469","0.025390625","-9.78125","4.3125","-0.625"
"1573591869560","377","-0.27148438","-0.9423828","0.04296875","1.28125","-19.125","-11.625"
"1573591869561","378","-0.24804688","-0.9042969","0.0546875","-3.90625","-14.96875","4.6875"
"1573591869561","379","-0.22363281","-0.9169922","0.051757812","-8.25","0.46875","0.53125"
"1573591869954","380","-0.27246094","-0.8955078","0.032226562","-4.15625","9.3125","3.53125"
"1573591869954","381","-0.23632812","-0.9892578","-0.0068359375","5.46875","11.03125","6.8125"
"1573591869955","382","-0.24316406","-1.0742188","-0.022460938","6.46875","2.3125","2.0625"
"1573591869955","383","-0.23828125","-0.9746094","0.0","-0.875","1.9375","-2.8125"
"1573591869955","384","-0.28222656","-0.9785156","0.025390625","-12.28125","-0.25","-3.875"
"1573591869956","385","-0.24121094","-0.9482422","0.018554688","-2.53125","11.09375","-3.96875"
"1573591869956","386","-0.25585938","-0.984375","0.0048828125","-7.9375","5.1875","-4.09375"
"1573591869956","387","-0.22167969","-0.94628906","0.032226562","-15.09375","5.96875","-3.96875"
"1573591869957","388","-0.22167969","-0.9746094","-0.02734375","-1.46875","0.21875","-1.65625"
"1573591869957","389","-0.23925781","-1.0029297","-0.030273438","-1.46875","-1.34375","-2.75"
"1573591870352","390","-0.23046875","-0.9667969","-0.0048828125","1.6875","0.21875","-3.5625"
"1573591870353","391","-0.20898438","-0.97753906","-0.0146484375","-7.34375","-1.53125","-0.4375"
"1573591870353","392","-0.21875","-0.9765625","0.0029296875","-7.09375","-0.5","-0.5625"
"1573591870353","393","-0.20800781","-0.96191406","-0.022460938","-11.84375","1.5","1.3125"
"1573591870354","394","-0.21679688","-0.9921875","0.033203125","-11.96875","-7.15625","2.25"
"1573591870354","395","-0.25683594","-0.96777344","-0.06542969","6.8125","-40.0","4.0"
"1573591870354","396","-0.24804688","-0.9609375","-0.055664062","4.0625","-14.84375","3.59375"
"1573591870356","397","-0.20117188","-0.9970703","-0.0107421875","1.3125","-11.6875","-3.90625"
"1573591870357","398","-0.22851562","-0.9511719","0.0048828125","4.0","-14.40625","0.84375"
"1573591870357","399","-0.24902344","-0.96777344","-0.001953125","-6.0","-16.75","0.03125"
"1573591870750","400","-0.27441406","-0.9765625","0.041015625","0.59375","-23.75","4.9375"
"1573591870750","401","-0.3466797","-0.93359375","0.037109375","-5.09375","-19.3125","2.65625"
"1573591870750","402","-0.29785156","-0.9716797","0.05859375","3.9375","-7.21875","2.84375"
"1573591870751","403","-0.28710938","-0.98046875","0.02734375","1.8125","-8.5625","1.625"
"1573591870751","404","-0.30371094","-0.95214844","0.060546875","-1.25","-5.5625","4.1875"
"1573591870751","405","-0.2763672","-0.96875","0.051757812","-7.8125","2.78125","3.78125"
"1573591870751","406","-0.26464844","-0.9375","0.038085938","-3.5625","2.84375","5.78125"
"1573591870752","407","-0.24902344","-1.0068359","0.045898438","1.28125","-3.0625","6.46875"
"1573591870752","408","-0.296875","-0.97753906","0.064453125","5.96875","-5.4375","7.6875"
"1573591870753","409","-0.26660156","-0.9658203","0.064453125","3.40625","-5.5625","4.1875"
"1573591871147","410","-0.29492188","-0.9355469","0.07714844","4.0","-6.59375","4.0"
"1573591871148","411","-0.26660156","-0.96484375","0.068359375","6.75","-4.90625","4.5625"
"1573591871148","412","-0.3017578","-0.9169922","0.049804688","2.90625","-9.0","4.5625"
"1573591871148","413","-0.2998047","-0.95996094","0.10546875","0.65625","-9.0625","4.25"
"1573591871149","414","-0.29492188","-0.9345703","0.09082031","6.625","-5.5625","5.90625"
"1573591871149","415","-0.3310547","-0.9609375","0.06640625","6.9375","-13.8125","5.34375"
"1573591871149","416","-0.3125","-0.9482422","0.11230469","7.4375","-5.25","6.46875"
"1573591871149","417","-0.31445312","-0.95996094","0.11328125","4.9375","-5.09375","4.5625"
"1573591871149","418","-0.33496094","-0.94921875","0.123046875","5.96875","-5.25","6.09375"
"1573591871150","419","-0.33496094","-0.93066406","0.11230469","4.625","-3.3125","4.25"
"1573591871545","420","-0.31640625","-0.94921875","0.123046875","0.96875","-7.21875","4.6875"
"1573591871545","421","-0.33789062","-0.9248047","0.11230469","7.4375","-8.375","3.59375"
"1573591871546","422","-0.32910156","-0.94628906","0.13769531","5.28125","-7.40625","1.15625"
"1573591871546","423","-0.3173828","-0.9394531","0.12597656","4.0","-7.8125","2.375"
"1573591871546","424","-0.33007812","-0.9453125","0.1484375","2.96875","-8.1875","1.03125"
"1573591871546","425","-0.33496094","-0.93359375","0.16699219","-1.25","-11.1875","3.65625"
"1573591871547","426","-0.3828125","-0.93359375","0.15332031","-0.5625","-6.71875","0.96875"
"1573591871547","427","-0.3251953","-0.9716797","0.18945312","-1.59375","-0.5","-0.3125"
"1573591871547","428","-0.30371094","-0.9296875","0.14453125","4.0625","-1.71875","-2.53125"
"1573591871547","429","-0.33984375","-0.92089844","0.13085938","12.1875","-0.6875","-4.78125"
"1573591871941","430","-0.30859375","-0.95214844","0.17578125","5.53125","-7.53125","-6.65625"
"1573591871941","431","-0.31347656","-0.92089844","0.22558594","3.46875","-5.15625","-11.375"
"1573591871942","432","-0.28027344","-0.9316406","0.20507812","2.375","-9.90625","-8.6875"
"1573591871942","433","-0.31152344","-0.9482422","0.21191406","-6.84375","-9.90625","-3.125"
"1573591871943","434","-0.32128906","-0.9628906","0.2265625","-7.65625","-3.90625","-0.6875"
"1573591871943","435","-0.35058594","-0.9453125","0.20410156","-6.71875","-0.0625","-0.875"
"1573591871943","436","-0.31347656","-0.9707031","0.20898438","-5.625","3.28125","1.3125"
"1573591871944","437","-0.34960938","-0.93652344","0.22851562","1.4375","0.78125","2.25"
"1573591871944","438","-0.3564453","-0.9267578","0.25","3.65625","5.0625","6.8125"
"1573591871944","439","-0.32226562","-0.9423828","0.26171875","20.75","12.5","5.0"
"1573591872340","440","-0.37695312","-0.9199219","0.24121094","11.40625","13.96875","5.34375"
"1573591872340","441","-0.28027344","-0.9580078","0.3125","6.15625","15.0","4.9375"
"1573591872341","442","-0.328125","-0.8876953","0.25097656","5.125","13.96875","7.25"
"1573591872341","443","-0.3701172","-0.9560547","0.26367188","4.5625","15.3125","2.96875"
"1573591872341","444","-0.3642578","-0.8671875","0.3154297","-5.4375","11.53125","1.03125"
"1573591872342","445","-0.3486328","-0.9550781","0.22167969","-1.34375","14.09375","-2.53125"
"1573591872343","446","-0.36132812","-0.95996094","0.3076172","-10.625","6.5","-1.25"
"1573591872343","447","-0.34570312","-0.90625","0.22460938","-9.71875","10.53125","-4.78125"
"1573591872343","448","-0.34472656","-0.9501953","0.2265625","-8.75","3.53125","-3.625"
"1573591872344","449","-0.38378906","-0.9091797","0.21972656","-6.0","-0.9375","-5.6875"
"1573591872739","450","-0.36132812","-0.9716797","0.24902344","-9.34375","5.96875","-6.0625"
"1573591872739","451","-0.3359375","-0.9375","0.18945312","-4.59375","3.84375","-11.25"
"1573591872739","452","-0.390625","-0.9169922","0.16210938","-12.03125","20.375","-8.125"
"1573591872740","453","-0.3154297","-0.9169922","0.16113281","-23.625","42.53125","-11.78125"
"1573591872740","454","-0.3251953","-0.8964844","0.083984375","-29.25","36.65625","-9.21875"
"1573591872740","455","-0.37597656","-0.9277344","0.12402344","-19.25","35.09375","-1.53125"
"1573591872740","456","-0.30664062","-0.9560547","0.072265625","-16.125","30.6875","-5.3125"
"1573591872742","457","-0.3017578","-1.0234375","0.08105469","-6.84375","22.03125","-2.03125"
"1573591872742","458","-0.30566406","-0.95996094","0.087890625","-14.34375","16.59375","-7.15625"
"1573591872742","459","-0.27734375","-0.91308594","0.07324219","-16.625","11.09375","-8.75"
"1573591873135","460","-0.2685547","-0.9326172","0.048828125","-13.5625","11.46875","-11.625"
"1573591873135","461","-0.26171875","-0.9326172","-0.0087890625","-12.03125","6.03125","-13.4375"
"1573591873136","462","-0.25585938","-0.9658203","0.001953125","-18.09375","11.21875","-13.3125"
"1573591873136","463","-0.2734375","-0.94921875","-0.032226562","-13.1875","6.28125","-12.28125"
"1573591873136","464","-0.29785156","-0.95996094","-0.041992188","-13.375","12.1875","-7.8125"
"1573591873137","465","-0.27246094","-0.9580078","-0.049804688","-9.84375","20.8125","-9.46875"
"1573591873137","466","-0.23046875","-0.9667969","-0.056640625","-1.1875","13.65625","-7.8125"
"1573591873137","467","-0.22460938","-0.9746094","-0.053710938","-1.71875","9.1875","-3.5"
"1573591873137","468","-0.22460938","-0.9667969","-0.052734375","-9.28125","10.40625","-1.96875"
"1573591873139","469","-0.21679688","-0.95996094","-0.072265625","-1.59375","10.125","-0.3125"
"1573591873534","470","-0.24511719","-0.9746094","-0.07324219","-8.4375","6.09375","-1.34375"
"1573591873534","471","-0.19238281","-0.9667969","-0.057617188","-3.625","7.1875","2.0"
"1573591873535","472","-0.22265625","-0.97265625","-0.11035156","-12.34375","-1.71875","1.625"
"1573591873535","473","-0.21875","-1.0126953","-0.08691406","-7.03125","-4.78125","1.15625"
"1573591873535","474","-0.23339844","-0.953125","-0.068359375","5.0625","-11.625","0.46875"
"1573591873536","475","-0.27734375","-0.9423828","-0.041992188","14.5625","-5.3125","-0.75"
"1573591873536","476","-0.27734375","-0.96972656","-0.059570312","11.21875","-9.84375","-1.96875"
"1573591873536","477","-0.28320312","-0.9941406","-0.048828125","1.9375","-0.3125","-4.40625"
"1573591873536","478","-0.24707031","-0.9863281","-0.029296875","-3.5625","-2.34375","-4.21875"
"1573591873537","479","-0.2578125","-0.99609375","-0.045898438","-8.6875","1.3125","-0.6875"
"1573591873929","480","-0.22167969","-0.9667969","-0.07714844","-9.65625","4.8125","2.0"
"1573591873931","481","-0.24414062","-0.97558594","-0.07421875","-14.0625","8.96875","6.03125"
"1573591873932","482","-0.24707031","-0.96875","-0.040039062","-8.4375","14.6875","0.09375"
"1573591873932","483","-0.2265625","-0.9873047","-0.046875","-3.875","8.78125","0.46875"
"1573591873932","484","-0.23730469","-0.9941406","-0.046875","3.34375","5.53125","-1.0625"
"1573591873933","485","-0.25097656","-0.9824219","-0.08203125","-5.25","3.28125","-1.53125"
"1573591873933","486","-0.21679688","-1.0185547","-0.0625","9.75","-2.15625","-3.0"
"1573591873933","487","-0.20507812","-0.99902344","-0.057617188","-3.125","1.3125","-7.78125"
"1573591873933","488","-0.22363281","-0.9199219","-0.0078125","-4.65625","1.28125","-5.625"
"1573591873934","489","-0.22851562","-0.9560547","-0.040039062","-0.6875","-3.375","3.34375"
"1573591874328","490","-0.23730469","-0.98046875","-0.041992188","-4.46875","-2.9375","4.6875"
"1573591874328","491","-0.24609375","-0.9736328","-0.06640625","-0.5","-0.8125","4.5625"
"1573591874328","492","-0.23242188","-0.9794922","-0.064453125","4.125","-3.0","3.34375"
"1573591874330","493","-0.22949219","-0.9746094","-0.072265625","4.3125","-5.5625","1.8125"
"1573591874330","494","-0.23144531","-0.9824219","-0.05859375","5.34375","-5.15625","1.6875"
"1573591874331","495","-0.22753906","-0.9794922","-0.03515625","3.15625","-9.0","1.3125"
"1573591874331","496","-0.23925781","-0.9550781","-0.032226562","2.3125","-8.5","2.0"
"1573591874331","497","-0.25097656","-0.9921875","-0.033203125","1.8125","-12.90625","2.96875"
"1573591874331","498","-0.2734375","-0.9736328","-0.0087890625","7.625","-13.625","3.09375"
"1573591874332","499","-0.2841797","-0.9814453","-0.0068359375","7.96875","-12.84375","10.375"
"1573591874724","500","-0.29003906","-0.9658203","0.038085938","8.84375","-6.65625","4.75"
"1573591874724","501","-0.2705078","-0.96777344","-0.0146484375","1.3125","-7.71875","2.0"
"1573591874724","502","-0.29296875","-0.9248047","0.026367188","2.84375","1.5625","-0.125"
"1573591874725","503","-0.3076172","-0.9355469","0.045898438","7.3125","-2.46875","2.1875"
"1573591874725","504","-0.3076172","-0.9550781","0.049804688","6.5625","4.875","6.03125"
"1573591874725","505","-0.2890625","-0.9375","0.10253906","2.1875","0.09375","5.59375"
"1573591874726","506","-0.2919922","-0.94628906","0.06738281","0.46875","-8.3125","9.25"
"1573591874727","507","-0.2685547","-0.99902344","0.04296875","14.4375","-22.96875","9.25"
"1573591874727","508","-0.33007812","-0.921875","0.0859375","11.75","-24.0","11.15625"
"1573591874727","509","-0.32128906","-0.97558594","0.08105469","11.875","-20.71875","9.03125"
"1573591875122","510","-0.30859375","-0.9394531","0.13183594","10.40625","-26.625","8.59375"
"1573591875123","511","-0.37695312","-0.91796875","0.10839844","2.65625","-14.65625","10.0625"
"1573591875123","512","-0.34570312","-0.9638672","0.13964844","-4.59375","-2.875","5.53125"
"1573591875123","513","-0.3564453","-0.9355469","0.13085938","3.71875","11.03125","12.25"
"1573591875124","514","-0.33984375","-0.9814453","0.08984375","15.90625","-0.6875","9.125"
"1573591875124","515","-0.40625","-0.90527344","0.17382812","-0.375","-8.9375","6.8125"
"1573591875124","516","-0.3515625","-0.8652344","0.14550781","7.6875","10.1875","9.125"
"1573591875126","517","-0.375","-0.9423828","0.15722656","4.5625","2.1875","8.90625"
"1573591875126","518","-0.43164062","-0.8857422","0.20117188","0.53125","7.375","10.71875"
"1573591875126","519","-0.41015625","-0.9423828","0.16308594","3.59375","14.5","6.03125"
"1573591875519","520","-0.46875","-0.8876953","0.22265625","-3.4375","24.9375","4.4375"
"1573591875519","521","-0.33691406","-0.9404297","0.17089844","2.0","30.0","4.75"
"1573591875520","522","-0.38964844","-0.9501953","0.12109375","-1.53125","14.4375","4.8125"
"1573591875520","523","-0.40820312","-0.9033203","0.12988281","-3.375","14.875","5.21875"
"1573591875520","524","-0.39453125","-0.9033203","0.16015625","0.71875","8.46875","3.90625"
"1573591875521","525","-0.39160156","-0.8847656","0.10644531","3.53125","9.9375","3.34375"
"1573591875521","526","-0.40039062","-0.91503906","0.18066406","-6.3125","3.03125","-1.25"
"1573591875521","527","-0.38867188","-0.9238281","0.18847656","-2.53125","-3.125","0.03125"
"1573591875521","528","-0.421875","-0.9189453","0.107421875","-0.5","-1.3125","2.0625"
"1573591875522","529","-0.4345703","-0.9140625","0.22167969","0.46875","-3.0625","1.03125"
"1573591875916","530","-0.4375","-0.89453125","0.06542969","3.90625","2.125","0.21875"
"1573591875917","531","-0.44921875","-0.9140625","0.171875","-3.75","3.15625","3.90625"
"1573591875917","532","-0.42773438","-0.9160156","0.123046875","2.65625","8.15625","-1.0"
"1573591875917","533","-0.4326172","-0.88671875","0.19140625","-3.5","1.5625","-0.25"
"1573591875918","534","-0.4140625","-0.87890625","0.14453125","1.03125","-0.125","0.09375"
"1573591875918","535","-0.45507812","-0.89160156","0.20800781","0.46875","1.4375","3.65625"
"1573591875918","536","-0.3779297","-1.0087891","0.22363281","-3.125","-12.53125","8.15625"
"1573591875919","537","-0.5966797","-0.86621094","0.24804688","-14.25","-8.875","0.28125"
"1573591875919","538","-0.47851562","-0.9345703","0.2548828","-13.5","3.9375","-0.4375"
"1573591875919","539","-0.43066406","-0.94433594","0.11816406","-7.15625","5.34375","-9.0"
"1573591876315","540","-0.4970703","-0.8388672","0.17578125","-13.625","0.15625","-9.53125"
"1573591876316","541","-0.41015625","-0.90527344","0.17773438","-7.28125","1.9375","-2.09375"
"1573591876316","542","-0.46972656","-0.86035156","0.1328125","-2.875","5.28125","-4.84375"
"1573591876316","543","-0.42089844","-0.88964844","0.16308594","-1.25","7.5","-3.8125"
"1573591876317","544","-0.41601562","-0.921875","0.13183594","2.96875","6.5625","-8.375"
"1573591876317","545","-0.4296875","-0.91015625","0.15527344","-3.875","8.96875","-7.71875"
"1573591876317","546","-0.40527344","-0.9277344","0.13085938","-4.71875","4.875","-8.125"
"1573591876318","547","-0.4375","-0.9082031","0.123046875","-4.09375","5.1875","-9.59375"
"1573591876318","548","-0.4326172","-0.9189453","0.09375","-3.5625","11.46875","-12.53125"
"1573591876318","549","-0.4189453","-0.8779297","0.12207031","-4.84375","19.09375","-17.09375"
"1573591876712","550","-0.32910156","-0.9091797","0.072265625","0.0","22.625","-15.53125"
"1573591876712","551","-0.35742188","-0.9482422","0.08691406","-1.96875","19.40625","-13.0625"
"1573591876713","552","-0.37890625","-0.94140625","0.08496094","-8.3125","15.5","-9.0625"
"1573591876714","553","-0.36914062","-0.9609375","0.064453125","-7.8125","20.0625","-9.28125"
"1573591876714","554","-0.3154297","-0.9560547","0.020507812","0.21875","20.3125","-9.53125"
"1573591876715","555","-0.32910156","-0.9238281","0.030273438","-8.125","16.71875","-14.84375"
"1573591876715","556","-0.29882812","-0.92089844","-0.0087890625","5.53125","19.9375","-9.90625"
"1573591876715","557","-0.23730469","-0.9609375","-9.765625E-4","5.125","15.5","-7.46875"
"1573591876715","558","-0.27441406","-1.0009766","0.0087890625","12.0","-4.53125","-3.6875"
"1573591876716","559","-0.28125","-0.9667969","0.026367188","7.4375","-6.65625","-2.34375"
"1573591877110","560","-0.32128906","-0.9404297","0.064453125","-1.0625","-2.21875","-1.40625"
"1573591877110","561","-0.3203125","-0.8984375","0.036132812","-6.90625","7.75","-2.15625"
"1573591877110","562","-0.31152344","-0.96484375","0.01953125","-5.6875","8.40625","-1.46875"
"1573591877111","563","-0.29296875","-0.94921875","0.024414062","-5.9375","14.8125","-5.3125"
"1573591877111","564","-0.28710938","-0.9580078","0.0234375","-6.5","12.6875","-4.09375"
"1573591877112","565","-0.31347656","-0.9609375","0.034179688","-6.1875","12.1875","-5.9375"
"1573591877112","566","-0.2998047","-0.93652344","0.0234375","-5.375","13.34375","-6.59375"
"1573591877113","567","-0.26660156","-0.9746094","-0.0146484375","4.5625","5.78125","-3.125"
"1573591877113","568","-0.28515625","-0.96875","0.0107421875","-2.09375","6.03125","-1.0"
"1573591877113","569","-0.26757812","-0.93847656","0.0234375","-1.96875","9.09375","1.21875"
"1573591877506","570","-0.32617188","-0.9716797","0.0146484375","-12.03125","10.125","-5.375"
"1573591877506","571","-0.24121094","-0.93652344","0.0068359375","-2.09375","3.71875","-2.40625"
"1573591877506","572","-0.26953125","-0.9873047","-0.016601562","1.3125","-8.125","-1.1875"
"1573591877507","573","-0.28710938","-0.9550781","0.015625","2.96875","2.65625","-3.1875"
"1573591877507","574","-0.2841797","-0.9472656","0.021484375","7.75","-0.8125","0.78125"
"1573591877507","575","-0.29003906","-0.9658203","0.020507812","2.5625","3.34375","3.53125"
"1573591877507","576","-0.29589844","-0.9824219","0.0234375","7.375","4.6875","3.03125"
"1573591877509","577","-0.30859375","-0.94628906","0.044921875","7.0","5.0625","2.1875"
"1573591877509","578","-0.31347656","-0.9628906","0.06738281","8.03125","7.5","3.71875"
"1573591877509","579","-0.32226562","-0.9707031","0.060546875","6.34375","8.59375","-0.6875"
"1573591878102","580","-0.30371094","-0.95703125","0.0625","0.03125","6.5625","1.4375"
"1573591878102","581","-0.2919922","-0.96191406","0.041992188","5.21875","5.40625","0.90625"
"1573591878103","582","-0.3095703","-0.9580078","0.0703125","5.34375","8.28125","1.75"
"1573591878103","583","-0.3095703","-0.9501953","0.072265625","4.8125","6.875","0.34375"
"1573591878103","584","-0.30273438","-0.93652344","0.059570312","5.125","0.15625","-2.15625"
"1573591878104","585","-0.3359375","-0.9892578","0.09765625","-2.28125","-2.34375","-0.4375"
"1573591878104","586","-0.328125","-0.9345703","0.10058594","-5.6875","5.59375","-6.90625"
"1573591878104","587","-0.2998047","-0.9707031","0.095703125","5.84375","-8.125","-1.3125"
"1573591878104","588","-0.33398438","-0.9501953","0.09082031","-6.1875","0.46875","-3.75"
"1573591878105","589","-0.3232422","-0.92871094","0.10449219","-8.0625","0.59375","-3.1875"
"1573591878302","590","-0.3125","-0.9628906","0.072265625","-5.09375","-2.875","-1.90625"
"1573591878303","591","-0.32421875","-0.94140625","0.064453125","-3.25","-0.5625","-2.8125"
"1573591878303","592","-0.3076172","-0.9511719","0.0859375","2.0625","-3.25","-1.125"
"1573591878303","593","-0.31152344","-0.94628906","0.08691406","2.65625","-2.625","-0.625"
"1573591878303","594","-0.28710938","-0.96777344","0.0859375","-2.40625","-1.84375","-0.5"
"1573591878304","595","-0.30566406","-0.96191406","0.095703125","-6.0625","-1.125","0.28125"
"1573591878304","596","-0.3125","-0.9511719","0.06347656","-3.3125","0.28125","-0.125"
"1573591878304","597","-0.28222656","-0.9746094","0.11621094","-12.65625","3.34375","0.65625"
"1573591878304","598","-0.3046875","-0.93652344","0.0390625","-9.84375","-2.46875","-1.90625"
"1573591878305","599","-0.28222656","-0.9716797","0.052734375","-0.6875","-7.46875","4.5625"
"1573591879094","600","-0.27734375","-0.94140625","0.053710938","4.0625","-7.40625","1.875"
"1573591879096","601","-0.33984375","-0.9765625","0.0703125","-3.90625","-4.53125","2.84375"
"1573591879097","602","-0.26367188","-0.95410156","0.05859375","1.9375","-4.84375","1.6875"
"1573591879097","603","-0.2939453","-0.96777344","0.04296875","-2.9375","-8.75","4.6875"
"1573591879097","604","-0.2998047","-0.97558594","0.06640625","-0.1875","-9.125","2.96875"
"1573591879098","605","-0.31152344","-0.9609375","0.078125","-6.53125","-9.46875","0.65625"
"1573591879098","606","-0.3095703","-0.9638672","0.060546875","-4.03125","-12.53125","-2.15625"
"1573591879098","607","-0.29492188","-0.9785156","0.061523438","-1.53125","-6.4375","0.46875"
"1573591879098","608","-0.2939453","-0.95703125","0.072265625","-17.03125","4.625","-5.875"
"1573591879099","609","-0.31445312","-0.9394531","0.048828125","-28.34375","1.15625","-4.78125"
"1573591879292","610","-0.29296875","-0.9707031","0.057617188","-21.125","-2.40625","-3.6875"
"1573591879293","611","-0.31347656","-0.921875","0.046875","-21.75","-26.875","3.59375"
"1573591879293","612","-0.3154297","-0.99902344","0.02734375","-2.46875","-9.34375","-0.75"
"1573591879295","613","-0.30273438","-0.9658203","0.03515625","-4.46875","-6.96875","-4.65625"
"1573591879295","614","-0.31347656","-0.93652344","0.045898438","-9.90625","-2.625","-3.0"
"1573591879296","615","-0.28027344","-0.9765625","0.028320312","-9.28125","-4.15625","-3.125"
"1573591879296","616","-0.31933594","-0.9814453","0.037109375","-10.09375","-2.59375","-5.375"
"1573591879296","617","-0.29589844","-0.94433594","0.0234375","-7.65625","4.75","-3.875"
"1573591879296","618","-0.30273438","-0.9736328","0.028320312","0.40625","-3.0","-1.71875"
"1573591879297","619","-0.2685547","-0.9589844","0.05859375","-1.3125","-3.25","-2.09375"
"1573591879495","620","-0.31152344","-0.9472656","0.041015625","-5.4375","-2.21875","-1.96875"
"1573591879495","621","-0.28027344","-0.9667969","0.013671875","-4.21875","4.75","-1.84375"
"1573591879495","622","-0.2841797","-0.95996094","0.03125","-5.09375","2.78125","0.46875"
"1573591879496","623","-0.2998047","-0.94921875","0.005859375","-2.15625","-0.0625","1.15625"
"1573591879496","624","-0.3154297","-0.9433594","0.022460938","-4.09375","7.4375","2.5625"
"1573591879497","625","-0.29003906","-0.96777344","0.0146484375","-0.4375","7.5625","2.5625"
"1573591879497","626","-0.31445312","-0.94628906","0.0390625","-2.875","3.59375","4.3125"
"1573591879498","627","-0.26953125","-0.9716797","0.0126953125","0.84375","5.78125","5.78125"
"1573591879498","628","-0.31835938","-0.9404297","0.016601562","-5.21875","1.4375","4.5625"
"1573591879498","629","-0.3095703","-0.9658203","0.022460938","-1.25","0.84375","7.125"
"1573591879891","630","-0.3359375","-0.8964844","0.043945312","-4.71875","-3.3125","3.78125"
"1573591879892","631","-0.30371094","-0.9707031","0.021484375","6.40625","-9.125","4.4375"
"1573591879892","632","-0.2939453","-0.96484375","0.013671875","7.5625","-16.125","6.03125"
"1573591879892","633","-0.3544922","-0.93847656","0.01953125","3.40625","-17.09375","6.46875"
"1573591879893","634","-0.3076172","-0.9658203","0.06933594","-1.3125","-6.71875","4.6875"
"1573591879893","635","-0.359375","-0.9472656","0.018554688","-1.90625","-7.46875","2.3125"
"1573591879893","636","-0.34375","-0.9511719","0.09472656","-6.3125","-4.78125","4.0"
"1573591879894","637","-0.3388672","-0.96777344","0.052734375","-4.34375","-1.78125","4.0"
"1573591879895","638","-0.33691406","-0.9609375","0.0546875","-5.8125","-8.0","6.34375"
"1573591879895","639","-0.3486328","-0.9375","0.060546875","-3.90625","-7.53125","7.6875"
"1573591880290","640","-0.3564453","-0.9345703","0.017578125","3.71875","-2.03125","7.0"
"1573591880290","641","-0.33789062","-0.93359375","0.055664062","4.625","-1.40625","6.34375"
"1573591880291","642","-0.3544922","-0.9277344","0.072265625","2.0","-1.0","4.8125"
"1573591880291","643","-0.3408203","-0.95410156","0.056640625","3.71875","-1.53125","3.65625"
"1573591880291","644","-0.375","-0.9423828","0.06933594","0.59375","-1.71875","4.5625"
"1573591880291","645","-0.37109375","-0.9189453","0.059570312","-1.59375","-4.96875","4.875"
"1573591880292","646","-0.3876953","-0.9472656","0.09863281","-8.5625","-0.875","0.90625"
"1573591880292","647","-0.3642578","-0.9433594","0.09667969","2.125","-1.59375","-1.96875"
"1573591880292","648","-0.3701172","-0.9121094","0.03515625","-1.25","-0.0625","-0.8125"
"1573591880294","649","-0.3720703","-0.9345703","0.08300781","-2.15625","-1.59375","-1.71875"
"1573591881478","650","-0.38476562","-0.9296875","0.05859375","-5.5","-1.46875","-2.59375"
"1573591881479","651","-0.37890625","-0.9375","0.0703125","-1.0","-1.0625","-3.1875"
"1573591881479","652","-0.36132812","-0.9296875","0.0703125","0.65625","0.21875","-1.125"
"1573591881479","653","-0.38183594","-0.93359375","0.083984375","-0.25","-2.46875","-1.3125"
"1573591881480","654","-0.38476562","-0.9248047","0.091796875","-0.1875","7.5625","-1.125"
"1573591881481","655","-0.36132812","-0.9638672","0.048828125","3.65625","7.125","-1.0625"
"1573591881481","656","-0.4404297","-0.9003906","0.14941406","1.875","12.25","0.40625"
"1573591881481","657","-0.35253906","-0.953125","0.11230469","2.125","10.84375","2.65625"
"1573591881481","658","-0.38964844","-0.9316406","0.1015625","0.0","7.8125","3.59375"
"1573591881482","659","-0.40820312","-0.92089844","0.107421875","-7.15625","5.1875","4.0625"
"1573591881678","660","-0.3671875","-0.9326172","0.13183594","-6.5","3.84375","3.53125"
"1573591881681","661","-0.3720703","-0.93652344","0.08691406","-4.59375","2.84375","5.21875"
"1573591881682","662","-0.4013672","-0.93359375","0.083984375","-2.75","0.78125","5.125"
"1573591881682","663","-0.40234375","-0.9121094","0.10449219","-3.5","0.71875","3.71875"
"1573591881682","664","-0.39746094","-0.9277344","0.08496094","-1.3125","5.46875","4.6875"
"1573591881682","665","-0.37402344","-0.93359375","0.057617188","7.375","7.125","0.71875"
"1573591881683","666","-0.38378906","-0.9082031","0.076171875","1.625","-1.59375","3.53125"
"1573591881683","667","-0.4013672","-0.92285156","0.1015625","3.28125","-0.125","2.84375"
"1573591881683","668","-0.4140625","-0.9375","0.111328125","1.75","3.34375","4.0"
"1573591881683","669","-0.37890625","-0.9511719","0.10058594","4.8125","2.375","2.5625"
"1573591881684","670","-0.48339844","-0.8828125","0.14550781","-4.59375","-1.53125","2.0"
"1573591881684","671","-0.41308594","-0.94140625","0.13671875","-1.90625","3.65625","1.3125"
"1573591881684","672","-0.47460938","-0.9082031","0.1640625","-2.625","1.09375","-0.5625"
"1573591881685","673","-0.5029297","-0.9238281","0.17773438","0.84375","15.1875","-1.34375"
"1573591881685","674","-0.37109375","-1.0068359","0.07421875","14.5","11.8125","-4.59375"
"1573591881685","675","-0.45703125","-0.9433594","0.18652344","8.84375","0.15625","-3.75"
"1573591881686","676","-0.40527344","-0.83203125","0.11328125","12.375","2.3125","2.1875"
"1573591881686","677","-0.4189453","-0.8720703","0.1328125","15.1875","2.5625","4.5625"
"1573591881686","678","-0.48242188","-0.83691406","0.16503906","9.875","-0.75","4.8125"
"1573591881686","679","-0.41992188","-0.8876953","0.16210938","7.25","7.8125","2.0"
"1573591881880","680","-0.47070312","-0.90527344","0.18066406","5.40625","2.71875","1.09375"
"1573591881880","681","-0.49609375","-0.8857422","0.19140625","3.78125","8.90625","1.5625"
"1573591881880","682","-0.44433594","-0.9199219","0.18261719","4.875","11.8125","2.125"
"1573591881881","683","-0.46972656","-0.8935547","0.17871094","4.5625","12.9375","1.4375"
"1573591881881","684","-0.45410156","-0.88671875","0.16210938","7.8125","14.28125","2.375"
"1573591881882","685","-0.4453125","-0.9042969","0.15722656","8.34375","17.0625","1.21875"
"1573591881883","686","-0.43359375","-0.8925781","0.1484375","8.90625","13.15625","-2.9375"
"1573591881883","687","-0.4091797","-0.8779297","0.13867188","10.0625","12.375","-3.75"
"1573591881883","688","-0.40625","-0.8808594","0.11816406","6.6875","10.84375","-4.71875"
"1573591881884","689","-0.37597656","-0.89453125","0.13085938","-1.0","10.84375","-3.96875"
"1573591882277","690","-0.37402344","-0.9267578","0.16308594","10.59375","6.09375","-4.96875"
"1573591882278","691","-0.45410156","-0.9169922","0.14941406","-3.4375","4.25","-12.46875"
"1573591882278","692","-0.3515625","-0.88378906","0.111328125","12.75","1.875","-11.5625"
"1573591882278","693","-0.34570312","-0.9511719","0.12011719","1.28125","-3.4375","-10.21875"
"1573591882279","694","-0.37109375","-0.89453125","0.15332031","-3.0625","1.75","-18.375"
"1573591882279","695","-0.33007812","-0.9355469","0.11035156","-6.96875","2.84375","-15.9375"
"1573591882279","696","-0.33691406","-0.9560547","0.09765625","-15.34375","4.1875","-18.8125"
"1573591882281","697","-0.3310547","-0.92089844","0.12695312","-4.53125","7.75","-15.03125"
"1573591882281","698","-0.33984375","-0.93359375","0.107421875","-1.71875","7.84375","-13.3125"
"1573591882282","699","-0.30371094","-0.9501953","0.10546875","-11.5","11.53125","-12.40625"
"1573591882873","700","-0.3232422","-0.93359375","0.109375","-12.59375","7.5","-14.25"
"1573591882874","701","-0.32128906","-0.9248047","0.10449219","-10.625","7.96875","-12.34375"
"1573591882874","702","-0.296875","-0.9550781","0.0859375","-5.5","5.84375","-10.875"
"1573591882875","703","-0.29296875","-0.9609375","0.08300781","-7.15625","5.53125","-11.5625"
"1573591882875","704","-0.28125","-0.9658203","0.083984375","-6.4375","3.46875","-9.84375"
"1573591882875","705","-0.2890625","-0.93652344","0.05859375","-7.53125","0.34375","-9.53125"
"1573591882875","706","-0.28710938","-0.9736328","0.08984375","-12.59375","0.09375","-7.40625"
"1573591882876","707","-0.265625","-0.9316406","0.051757812","-3.8125","1.28125","-7.40625"
"1573591882876","708","-0.2705078","-0.9658203","0.064453125","0.90625","-4.59375","-2.21875"
"1573591882878","709","-0.26757812","-0.96484375","0.057617188","-0.1875","-1.40625","-2.625"
"1573591883073","710","-0.24804688","-0.9433594","0.07519531","-1.25","-0.375","-2.15625"
"1573591883074","711","-0.2548828","-0.9746094","0.049804688","0.03125","-5.4375","2.0625"
"1573591883074","712","-0.2607422","-0.98339844","0.059570312","-0.375","-2.875","4.6875"
"1573591883074","713","-0.25195312","-0.9404297","0.08300781","-3.3125","0.34375","4.0"
"1573591883075","714","-0.2841797","-0.9716797","0.05859375","0.84375","-3.25","2.96875"
"1573591883075","715","-0.26660156","-0.9667969","0.060546875","2.96875","-0.3125","0.53125"
"1573591883075","716","-0.25097656","-0.9501953","0.076171875","-2.40625","1.15625","0.84375"
"1573591883075","717","-0.26464844","-0.9746094","0.064453125","-3.0625","-1.78125","3.34375"
"1573591883076","718","-0.25585938","-0.9560547","0.06933594","-4.34375","-0.375","1.8125"
"1573591883076","719","-0.2626953","-0.95703125","0.059570312","-6.96875","-2.875","1.6875"
"1573591883468","720","-0.28320312","-0.9794922","0.06347656","-9.78125","-0.5625","-0.375"
"1573591883469","721","-0.25390625","-0.9511719","0.057617188","-0.3125","-2.34375","-0.375"
"1573591883471","722","-0.29003906","-0.9609375","0.0703125","-9.84375","-6.71875","-1.3125"
"1573591883471","723","-0.25390625","-0.9433594","0.041015625","-1.0","-3.4375","1.15625"
"1573591883472","724","-0.27929688","-0.96777344","0.083984375","-2.15625","-11.84375","5.21875"
"1573591883472","725","-0.33398438","-0.9355469","0.09667969","-1.3125","-4.65625","2.0"
"1573591883472","726","-0.2939453","-0.9296875","0.09082031","0.96875","-4.96875","3.34375"
"1573591883473","727","-0.31152344","-0.93359375","0.10644531","-4.21875","-4.15625","2.5"
"1573591883473","728","-0.3017578","-0.9394531","0.12011719","-4.03125","-6.78125","3.90625"
"1573591883473","729","-0.35546875","-0.9375","0.13867188","-11.5625","-13.875","9.5"
"1573591883867","730","-0.3701172","-0.93359375","0.14550781","-5.5625","-4.90625","5.78125"
"1573591883868","731","-0.328125","-0.9394531","0.119140625","-3.90625","-9.46875","5.21875"
"1573591883868","732","-0.3701172","-0.93847656","0.13574219","-11.625","-6.71875","5.46875"
"1573591883870","733","-0.3671875","-0.96191406","0.12207031","-9.15625","1.375","3.65625"
"1573591883870","734","-0.36132812","-0.92285156","0.16015625","-15.625","-10.15625","2.84375"
"1573591883870","735","-0.3701172","-0.9082031","0.1015625","-7.78125","-1.25","4.6875"
"1573591883871","736","-0.3251953","-0.97558594","0.12109375","-11.6875","-0.3125","5.65625"
"1573591883871","737","-0.359375","-0.92285156","0.11230469","-5.4375","-0.0625","6.6875"
"1573591883871","738","-0.37304688","-0.9277344","0.07324219","-8.3125","0.03125","5.21875"
"1573591883872","739","-0.39160156","-0.95214844","0.1328125","-5.6875","-5.5","5.46875"
"1573591884264","740","-0.34570312","-0.9140625","0.078125","-3.4375","7.0625","3.03125"
"1573591884265","741","-0.40429688","-0.9394531","0.09375","-6.65625","3.34375","1.375"
"1573591884265","742","-0.36621094","-0.9121094","0.0859375","-2.625","8.84375","1.3125"
"1573591884265","743","-0.3623047","-0.9423828","0.072265625","-0.875","0.59375","-0.4375"
"1573591884266","744","-0.3857422","-0.9121094","0.11230469","-3.96875","-6.375","0.96875"
"1573591884267","745","-0.4013672","-0.9404297","0.09667969","0.0","-4.15625","0.03125"
"1573591884267","746","-0.3642578","-0.9296875","0.08203125","-3.90625","0.40625","-1.0"
"1573591884268","747","-0.3466797","-0.9658203","0.09082031","-3.1875","-2.28125","2.25"
"1573591884268","748","-0.40820312","-0.90625","0.08105469","-4.65625","-3.90625","-0.25"
"1573591884268","749","-0.3544922","-0.9169922","0.09277344","-1.59375","1.5","0.96875"
"1573591884664","750","-0.38671875","-0.9277344","0.08300781","-1.78125","-2.46875","1.375"
"1573591884664","751","-0.3701172","-0.9082031","0.056640625","1.09375","-1.3125","3.03125"
"1573591884665","752","-0.39160156","-0.96191406","0.10058594","-2.03125","1.28125","1.3125"
"1573591884665","753","-0.375","-0.9355469","0.12207031","-0.3125","1.625","3.09375"
"1573591884665","754","-0.38476562","-0.9267578","0.07421875","-0.125","-1.84375","3.78125"
"1573591884666","755","-0.39160156","-0.94140625","0.09277344","-1.40625","4.125","2.65625"
"1573591884666","756","-0.36523438","-0.94433594","0.072265625","-1.40625","1.03125","0.96875"
"1573591884667","757","-0.39648438","-0.9199219","0.12207031","-6.0","2.0625","0.96875"
"1573591884668","758","-0.39453125","-0.95703125","0.111328125","-5.8125","2.78125","1.3125"
"1573591884668","759","-0.4033203","-0.9316406","0.09863281","-2.9375","2.90625","-3.1875"
"1573591885059","760","-0.39453125","-0.93847656","0.09277344","-2.21875","10.84375","0.0"
"1573591885060","761","-0.40722656","-0.92285156","0.11035156","0.34375","3.21875","-0.375"
"1573591885060","762","-0.40820312","-0.9433594","0.12207031","4.5","-1.65625","0.90625"
"1573591885061","763","-0.40722656","-0.9238281","0.14453125","-0.9375","1.9375","2.5"
"1573591885061","764","-0.44628906","-0.91796875","0.11816406","-3.5625","3.65625","2.65625"
"1573591885061","765","-0.4375","-0.8769531","0.123046875","-0.5","10.65625","2.84375"
"1573591885061","766","-0.4345703","-0.9033203","0.12011719","-1.59375","7.0625","0.65625"
"1573591885062","767","-0.39257812","-0.9394531","0.119140625","4.375","6.875","0.53125"
"1573591885062","768","-0.38183594","-0.8828125","0.109375","5.0625","-3.125","0.78125"
"1573591885063","769","-0.3671875","-0.93066406","0.13574219","8.78125","-6.0","3.71875"
"1573591885457","770","-0.4091797","-0.9277344","0.123046875","9.5","-8.3125","0.96875"
"1573591885457","771","-0.38378906","-0.92089844","0.11230469","11.53125","-4.59375","0.28125"
"1573591885458","772","-0.42382812","-0.9433594","0.12890625","5.28125","-5.5625","-1.34375"
"1573591885458","773","-0.42871094","-0.9238281","0.123046875","5.0625","-0.8125","-2.40625"
"1573591885458","774","-0.41015625","-0.93359375","0.15136719","-2.625","-1.34375","-4.40625"
"1573591885459","775","-0.43164062","-0.85058594","0.13769531","-9.15625","11.75","-8.875"
"1573591885459","776","-0.3671875","-0.93847656","0.115234375","-7.78125","12.1875","-7.875"
"1573591885459","777","-0.40234375","-0.9433594","0.12207031","-5.21875","9.3125","-10.5625"
"1573591885459","778","-0.37109375","-0.9199219","0.0859375","-1.40625","8.53125","-9.53125"
"1573591885460","779","-0.39453125","-0.9404297","0.10449219","-7.46875","6.875","-9.90625"
"1573591885855","780","-0.34277344","-0.9375","0.12988281","-0.8125","11.09375","-10.21875"
"1573591885856","781","-0.35058594","-0.9111328","0.09765625","-5.625","8.65625","-9.28125"
"1573591885857","782","-0.33789062","-0.94921875","0.07910156","1.3125","7.5","-9.0625"
"1573591885857","783","-0.33789062","-0.9375","0.0859375","-5.5625","12.9375","-9.34375"
"1573591885857","784","-0.3173828","-0.9238281","0.091796875","-1.96875","10.96875","-10.40625"
"1573591885858","785","-0.3232422","-0.9355469","0.06347656","-0.3125","12.125","-8.8125"
"1573591885858","786","-0.31640625","-0.9501953","0.07910156","0.09375","10.59375","-7.8125"
"1573591885858","787","-0.30664062","-0.9423828","0.08300781","-4.78125","11.34375","-7.40625"
"1573591885859","788","-0.30078125","-0.9394531","0.08984375","-5.09375","13.90625","-7.46875"
"1573591885859","789","-0.27734375","-0.9453125","0.025390625","-5.3125","5.46875","-9.53125"
"1573591886252","790","-0.29296875","-0.96191406","0.026367188","-10.875","4.5","-8.625"
"1573591886253","791","-0.25878906","-0.95703125","0.056640625","-6.375","0.90625","-7.34375"
"1573591886253","792","-0.30078125","-0.9667969","0.041992188","2.84375","-4.96875","-13.1875"
"1573591886255","793","-0.27148438","-0.97265625","0.029296875","0.53125","1.03125","-10.625"
"1573591886255","794","-0.24902344","-0.9472656","0.024414062","5.78125","5.59375","-10.40625"
"1573591886255","795","-0.2919922","-0.9716797","0.060546875","-13.1875","9.3125","-8.5"
"1573591886256","796","-0.26464844","-0.9785156","0.045898438","-5.09375","5.53125","-7.40625"
"1573591886256","797","-0.2763672","-0.9785156","0.015625","-7.71875","2.59375","-9.21875"
"1573591886256","798","-0.25","-0.9638672","0.05078125","-3.6875","4.8125","-7.40625"
"1573591886257","799","-0.265625","-0.9609375","0.03515625","-6.0625","8.78125","-7.46875"
"1573591886650","800","-0.23730469","-0.9736328","0.01953125","-2.21875","9.1875","-6.125"
"1573591886650","801","-0.21484375","-0.99609375","0.020507812","-6.71875","8.09375","-3.125"
"1573591886650","802","-0.20800781","-0.9863281","0.0048828125","-9.0","6.875","-1.25"
"1573591886651","803","-0.20898438","-0.9716797","-0.013671875","-8.75","3.28125","-0.125"
"1573591886651","804","-0.22851562","-0.99121094","0.0","-9.65625","0.84375","0.78125"
"1573591886652","805","-0.24707031","-0.9873047","0.0078125","-5.25","2.59375","-2.28125"
"1573591886653","806","-0.23046875","-0.98046875","-9.765625E-4","-17.40625","7.3125","-2.09375"
"1573591886653","807","-0.2421875","-1.0107422","-0.030273438","-25.21875","7.625","-5.3125"
"1573591886653","808","-0.23828125","-0.9980469","-0.09765625","-19.65625","6.09375","-8.9375"
"1573591886654","809","-0.22949219","-1.0742188","0.017578125","-31.09375","21.03125","-9.0625"
"1573591887046","810","-0.23535156","-0.8769531","0.0087890625","-7.8125","5.34375","-12.96875"
"1573591887046","811","-0.20507812","-0.92285156","-0.009765625","-12.28125","10.78125","-1.34375"
"1573591887046","812","-0.25585938","-0.9824219","-0.0234375","-11.0625","3.9375","1.8125"
"1573591887047","813","-0.20605469","-0.93066406","-0.064453125","-5.375","6.40625","2.375"
"1573591887047","814","-0.1875","-1.0273438","-0.125","2.1875","-1.78125","8.28125"
"1573591887047","815","-0.21386719","-0.99316406","-0.10546875","-4.53125","-0.5625","0.46875"
"1573591887047","816","-0.22851562","-0.96972656","-0.09277344","-4.28125","-3.1875","3.34375"
"1573591887049","817","-0.20117188","-1.0351562","-0.17089844","3.9375","-5.75","4.0"
"1573591887049","818","-0.22558594","-1.0742188","-0.043945312","-1.65625","1.28125","-5.21875"
"1573591887049","819","-0.22753906","-0.8847656","-0.040039062","-4.21875","-0.0625","-8.875"
"1573591887445","820","-0.20800781","-0.9013672","-0.01171875","-8.875","-2.625","3.90625"
"1573591887445","821","-0.2548828","-0.8955078","-0.013671875","-3.1875","-10.5625","12.5"
"1573591887446","822","-0.2705078","-0.99902344","-0.11621094","21.59375","-14.53125","11.71875"
"1573591887446","823","-0.21191406","-1.0439453","-0.10839844","18.34375","-3.90625","8.15625"
"1573591887446","824","-0.20800781","-0.99609375","-0.032226562","-3.96875","0.40625","0.96875"
"1573591887446","825","-0.2578125","-0.96484375","-0.06640625","-8.5625","-3.875","1.21875"
"1573591887447","826","-0.26953125","-0.9472656","-0.068359375","-11.0625","-3.1875","0.40625"
"1573591887447","827","-0.23535156","-0.98339844","-0.040039062","2.90625","-10.5625","4.0"
"1573591887447","828","-0.27539062","-0.9873047","-0.055664062","3.40625","-12.53125","0.34375"
"1573591887449","829","-0.30273438","-0.9296875","-0.017578125","-1.65625","-5.5","3.53125"
"1573591887842","830","-0.265625","-0.97558594","-0.041015625","-0.5625","1.9375","1.4375"
"1573591887843","831","-0.296875","-0.9609375","-0.0234375","-5.9375","-1.0625","5.59375"
"1573591887843","832","-0.25097656","-0.96875","-0.013671875","2.65625","-0.25","3.34375"
"1573591887843","833","-0.25195312","-0.9980469","-0.025390625","-1.65625","-12.15625","7.5625"
"1573591887844","834","-0.3232422","-0.9248047","0.015625","3.03125","-8.4375","8.21875"
"1573591887844","835","-0.2783203","-0.9824219","0.001953125","4.0","-10.5","9.125"
"1573591887844","836","-0.33203125","-0.94921875","-0.001953125","2.0625","-7.03125","6.8125"
"1573591887844","837","-0.3076172","-0.96484375","0.0146484375","2.5","-4.34375","6.15625"
"1573591887845","838","-0.35351562","-0.93652344","0.060546875","-0.5","-8.3125","4.375"
"1573591887845","839","-0.33007812","-0.98535156","0.026367188","5.53125","-5.3125","5.0625"
"1573591888241","840","-0.34375","-0.9316406","0.021484375","10.65625","-4.96875","4.5625"
"1573591888243","841","-0.36132812","-0.9580078","0.059570312","-1.78125","-3.0","3.53125"
"1573591888243","842","-0.32226562","-0.95703125","0.052734375","4.3125","-1.71875","3.90625"
"1573591888244","843","-0.3388672","-0.9667969","0.03515625","1.4375","5.78125","2.65625"
"1573591888244","844","-0.3232422","-0.9345703","0.045898438","-0.0625","2.59375","1.15625"
"1573591888244","845","-0.30664062","-0.95214844","0.022460938","5.53125","3.40625","2.65625"
"1573591888245","846","-0.34765625","-0.94140625","0.034179688","5.96875","-9.78125","4.25"
"1573591888245","847","-0.3779297","-0.94628906","0.08203125","3.03125","-1.125","6.03125"
"1573591888246","848","-0.37890625","-0.94921875","0.06640625","-0.25","-1.59375","3.03125"
"1573591888246","849","-0.3486328","-0.96777344","0.06738281","-1.84375","2.59375","3.90625"
"1573591889030","850","-0.35839844","-0.95214844","0.0703125","-4.53125","-0.9375","3.03125"
"1573591889031","851","-0.3564453","-0.9296875","0.05859375","-3.96875","-3.3125","4.6875"
"1573591889031","852","-0.359375","-0.9189453","0.060546875","-4.03125","-3.875","2.90625"
"1573591889033","853","-0.34375","-0.9199219","0.080078125","0.84375","-3.875","1.875"
"1573591889033","854","-0.36914062","-0.921875","0.07910156","5.0625","-10.75","0.09375"
"1573591889033","855","-0.35839844","-0.9501953","0.033203125","14.4375","-8.0625","0.65625"
"1573591889034","856","-0.3984375","-0.9824219","0.09667969","3.28125","-7.28125","-1.0625"
"1573591889034","857","-0.37695312","-0.9394531","0.10546875","0.0","0.46875","-3.875"
"1573591889034","858","-0.3720703","-0.9511719","0.087890625","-6.65625","6.09375","-3.8125"
"1573591889035","859","-0.34277344","-0.9394531","0.10546875","0.0","6.34375","-2.46875"
"1573591889035","860","-0.3330078","-0.9667969","0.061523438","-0.8125","6.40625","0.46875"
"1573591889035","861","-0.37304688","-0.93847656","0.10644531","-5.21875","5.84375","2.1875"
"1573591889035","862","-0.33984375","-0.9433594","0.107421875","-0.875","5.96875","0.90625"
"1573591889036","863","-0.390625","-0.9189453","0.083984375","-1.125","3.46875","-0.375"
"1573591889036","864","-0.3310547","-0.93652344","0.07714844","2.90625","9.8125","-0.8125"
"1573591889036","865","-0.3466797","-0.9326172","0.08105469","1.6875","2.5625","-2.03125"
"1573591889037","866","-0.39160156","-0.9277344","0.119140625","2.25","1.625","2.125"
"1573591889037","867","-0.3671875","-0.96484375","0.10253906","5.125","2.84375","-2.75"
"1573591889037","868","-0.4091797","-0.9326172","0.13574219","4.125","3.34375","-4.71875"
"1573591889037","869","-0.48046875","-0.98828125","0.27148438","-4.15625","29.65625","-6.65625"
"1573591889432","870","-0.36621094","-0.9765625","0.09277344","3.21875","16.40625","-14.65625"
"1573591889433","871","-0.3984375","-0.9863281","0.19433594","-5.21875","-4.78125","-10.5625"
"1573591889433","872","-0.34765625","-0.99902344","0.13964844","-6.4375","-1.40625","-8.625"
"1573591889433","873","-0.3671875","-0.9501953","0.111328125","-10.03125","-1.3125","-6.59375"
"1573591889434","874","-0.3935547","-0.88671875","0.14550781","-11.3125","1.5","-2.6875"
"1573591889434","875","-0.3388672","-0.9140625","0.11621094","-3.1875","5.53125","-1.71875"
"1573591889434","876","-0.33984375","-0.9511719","0.06640625","1.4375","4.3125","-1.65625"
"1573591889435","877","-0.30371094","-0.9707031","0.064453125","1.5625","4.9375","2.5"
"1573591889435","878","-0.34375","-0.98046875","0.12402344","-9.46875","6.625","1.3125"
"1573591889436","879","-0.3408203","-0.9472656","0.091796875","-5.6875","5.28125","-4.71875"
"1573591889830","880","-0.3466797","-0.9628906","0.080078125","-9.0","7.1875","-8.625"
"1573591889830","881","-0.33007812","-0.9589844","0.041015625","-7.875","8.28125","-11.84375"
"1573591889831","882","-0.3076172","-0.9326172","0.02734375","-8.1875","9.5","-13.375"
"1573591889831","883","-0.29882812","-0.9355469","0.024414062","-10.8125","7.0625","-12.84375"
"1573591889831","884","-0.28027344","-0.93066406","-0.018554688","-11.0625","6.625","-13.3125"
"1573591889831","885","-0.3017578","-0.9472656","-0.0068359375","-5.3125","6.875","-12.03125"
"1573591889832","886","-0.29785156","-1.0","0.016601562","-15.34375","10.96875","-14.125"
"1573591889832","887","-0.2421875","-0.9980469","-0.030273438","0.90625","8.15625","-12.65625"
"1573591889832","888","-0.24121094","-0.94921875","-0.0234375","-12.21875","5.84375","-10.5"
"1573591889834","889","-0.23242188","-0.9375","-0.03125","-7.28125","10.3125","-7.8125"
"1573591890228","890","-0.21679688","-0.9667969","-0.057617188","-9.71875","14.3125","-7.78125"
"1573591890229","891","-0.22949219","-0.9746094","-0.07714844","-3.96875","18.21875","-7.875"
"1573591890229","892","-0.18554688","-0.9941406","-0.08300781","-5.5","16.28125","-7.8125"
"1573591890229","893","-0.17675781","-0.984375","-0.076171875","-1.96875","10.65625","-6.1875"
"1573591890230","894","-0.171875","-0.9736328","-0.05859375","-6.0","7.4375","-2.03125"
"1573591890230","895","-0.20996094","-0.97265625","-0.07714844","-3.6875","4.375","-1.25"
"1573591890230","896","-0.18457031","-0.984375","-0.076171875","-8.3125","5.59375","-0.5625"
"1573591890230","897","-0.16699219","-0.9785156","-0.07910156","-7.34375","-2.15625","2.125"
"1573591890231","898","-0.20703125","-0.99902344","-0.016601562","-12.71875","-10.03125","2.3125"
"1573591890231","899","-0.23535156","-0.97558594","-0.083984375","-2.9375","-1.46875","-0.25"
"1573591890625","900","-0.21386719","-0.98339844","-0.08496094","-8.4375","2.25","-2.8125"
"1573591890625","901","-0.21386719","-0.97753906","-0.055664062","-9.96875","-0.25","-4.34375"
"1573591890626","902","-0.18164062","-0.9658203","-0.040039062","-7.09375","13.65625","-4.84375"
"1573591890626","903","-0.19140625","-0.9921875","-0.11035156","-3.875","-5.21875","-3.875"
"1573591890626","904","-0.21191406","-1.0146484","-0.06738281","-0.0625","-2.09375","-3.375"
"1573591890627","905","-0.19140625","-0.98339844","-0.07910156","-1.1875","-1.3125","-4.15625"
"1573591890627","906","-0.18554688","-0.9736328","-0.061523438","-6.25","-1.46875","-2.59375"
"1573591890627","907","-0.20117188","-0.9638672","-0.076171875","-4.90625","-4.28125","-4.03125"
"1573591890628","908","-0.22167969","-1.0019531","-0.09765625","-2.75","-4.71875","-1.71875"
"1573591890628","909","-0.21679688","-0.9746094","-0.09375","1.8125","-2.6875","-3.5"
"1573591891022","910","-0.20117188","-0.9980469","-0.0703125","1.28125","-1.84375","-1.0"
"1573591891022","911","-0.19433594","-0.9707031","-0.053710938","-2.625","-2.53125","-0.875"
"1573591891022","912","-0.20117188","-0.9863281","-0.09667969","-2.09375","-2.75","1.21875"
"1573591891023","913","-0.21484375","-0.99316406","-0.07421875","-5.875","4.6875","1.75"
"1573591891024","914","-0.19433594","-0.9970703","-0.07910156","-3.96875","-1.46875","0.0"
"1573591891024","915","-0.20507812","-1.0039062","-0.07324219","-3.5","-0.6875","-0.375"
"1573591891024","916","-0.20214844","-0.95410156","-0.091796875","1.09375","3.53125","-4.15625"
"1573591891025","917","-0.2109375","-0.98828125","-0.08300781","-10.21875","4.75","-5.03125"
"1573591891025","918","-0.14941406","-1.0048828","-0.09277344","0.65625","-2.6875","-1.46875"
"1573591891025","919","-0.17675781","-1.0068359","-0.11621094","-5.3125","-1.0625","1.15625"
"1573591891420","920","-0.1796875","-0.9785156","-0.11816406","-6.65625","6.21875","-0.625"
"1573591891420","921","-0.19921875","-0.9560547","-0.119140625","-7.46875","10.3125","-1.40625"
"1573591891421","922","-0.17773438","-1.0009766","-0.119140625","-5.8125","5.28125","-1.25"
"1573591891421","923","-0.17675781","-0.984375","-0.099609375","-3.1875","2.4375","-2.59375"
"1573591891421","924","-0.20800781","-0.9970703","-0.09765625","-3.8125","0.15625","-2.59375"
"1573591891422","925","-0.203125","-0.99609375","-0.111328125","0.90625","-1.25","-2.9375"
"1573591891423","926","-0.14941406","-0.96972656","-0.09765625","-2.34375","-2.59375","-2.53125"
"1573591891423","927","-0.15039062","-1.0087891","-0.09765625","-0.6875","-13.0625","3.59375"
"1573591891423","928","-0.20703125","-0.9824219","-0.10839844","-5.4375","-7.53125","2.25"
"1573591891424","929","-0.24316406","-0.97753906","-0.099609375","0.90625","-2.21875","3.46875"
"1573591891819","930","-0.1953125","-0.96972656","-0.09472656","6.875","-6.96875","5.125"
"1573591891819","931","-0.2265625","-0.98339844","-0.059570312","10.125","-2.875","6.46875"
"1573591891819","932","-0.24023438","-1.0087891","-0.04296875","11.09375","-1.90625","8.71875"
"1573591891820","933","-0.20703125","-0.953125","-0.0546875","-1.78125","1.6875","9.03125"
"1573591891820","934","-0.25390625","-0.9824219","-0.052734375","8.96875","-2.625","12.0625"
"1573591891820","935","-0.23144531","-0.9638672","-0.041992188","4.9375","3.34375","10.46875"
"1573591891820","936","-0.2529297","-0.96484375","-0.03515625","9.6875","1.75","10.375"
"1573591891822","937","-0.24804688","-0.9667969","-0.024414062","12.625","0.84375","10.84375"
"1573591891822","938","-0.26757812","-0.9560547","-0.009765625","9.03125","1.15625","9.25"
"1573591891822","939","-0.26660156","-0.97558594","-0.032226562","6.28125","-1.78125","9.6875"
"1573591892215","940","-0.30566406","-0.96972656","0.0029296875","8.84375","2.375","9.8125"
"1573591892216","941","-0.2763672","-0.94921875","0.0146484375","-0.375","6.875","7.125"
"1573591892216","942","-0.2919922","-0.9580078","-0.001953125","4.75","1.625","8.71875"
"1573591892216","943","-0.32617188","-0.93066406","0.08496094","-1.96875","-25.46875","16.78125"
"1573591892216","944","-0.3544922","-0.9433594","0.036132812","2.4375","-10.5","9.6875"
"1573591892217","945","-0.32226562","-0.95996094","0.028320312","5.28125","-20.21875","11.53125"
"1573591892217","946","-0.3642578","-0.9628906","0.057617188","11.09375","-21.75","13.40625"
"1573591892217","947","-0.36132812","-0.94628906","0.049804688","5.1875","-8.1875","7.0"
"1573591892218","948","-0.359375","-0.9667969","0.107421875","-1.0","-21.4375","12.75"
"1573591892220","949","-0.47265625","-0.89941406","0.12109375","6.15625","-6.84375","11.03125"
"1573591892615","950","-0.3251953","-1.0048828","0.056640625","19.15625","6.15625","7.90625"
"1573591892615","951","-0.3876953","-0.89746094","0.11230469","7.375","3.46875","6.46875"
"1573591892616","952","-0.328125","-0.9121094","0.10449219","3.53125","3.40625","8.84375"
"1573591892616","953","-0.3623047","-0.9375","0.10449219","0.46875","-8.1875","10.46875"
"1573591892616","954","-0.4658203","-0.92285156","0.123046875","1.9375","-5.03125","5.65625"
"1573591892616","955","-0.3642578","-0.9277344","0.12988281","0.71875","-4.46875","-0.75"
"1573591892617","956","-0.421875","-0.9482422","0.1484375","0.71875","-2.59375","-1.84375"
"1573591892617","957","-0.3798828","-0.94433594","0.15234375","0.40625","-0.6875","-0.5"
"1573591892617","958","-0.3828125","-0.91796875","0.140625","-1.59375","-2.40625","2.65625"
"1573591892617","959","-0.3876953","-0.9238281","0.1640625","-4.46875","-1.34375","4.0"
"1573591893208","960","-0.43359375","-0.9501953","0.12890625","-0.9375","-5.875","1.09375"
"1573591893210","961","-0.3876953","-0.95410156","0.1640625","5.0625","2.375","-0.1875"
"1573591893210","962","-0.41308594","-0.9033203","0.13183594","3.71875","2.0","-3.1875"
"1573591893210","963","-0.36816406","-0.9316406","0.15429688","5.21875","0.40625","-0.3125"
"1573591893211","964","-0.4013672","-0.9326172","0.15625","1.6875","1.375","1.8125"
"1573591893211","965","-0.4033203","-0.92871094","0.15332031","-3.625","4.9375","2.90625"
"1573591893211","966","-0.41601562","-0.9404297","0.12695312","-3.375","3.9375","0.65625"
"1573591893212","967","-0.39746094","-0.93066406","0.14453125","-3.25","5.1875","-1.0625"
"1573591893212","968","-0.39160156","-0.9111328","0.12207031","1.5","5.78125","-2.59375"
"1573591893212","969","-0.38476562","-0.91015625","0.09082031","1.5625","4.0","-3.5"
"1573591893605","970","-0.36132812","-0.90527344","0.10058594","2.4375","3.65625","-4.03125"
"1573591893605","971","-0.35742188","-0.91308594","0.099609375","2.4375","-0.875","-4.40625"
"1573591893606","972","-0.375","-0.9169922","0.11425781","-0.3125","2.71875","-4.03125"
"1573591893607","973","-0.38867188","-0.92089844","0.14257812","-5.6875","4.0625","-5.375"
"1573591893607","974","-0.3515625","-0.96191406","0.111328125","-5.5","4.8125","-4.53125"
"1573591893607","975","-0.36328125","-0.90527344","0.068359375","-0.5625","-3.1875","-6.59375"
"1573591893608","976","-0.37597656","-0.9404297","0.140625","-14.25","0.71875","-5.03125"
"1573591893611","977","-0.32617188","-0.90625","0.103515625","-6.125","-3.4375","-4.96875"
"1573591893615","978","-0.35742188","-0.9375","0.0546875","-1.0","-4.59375","-4.28125"
"1573591893616","979","-0.3173828","-0.9033203","0.13671875","-7.34375","0.21875","-3.6875"
"1573591894003","980","-0.3544922","-0.93066406","0.087890625","-18.625","-9.34375","-3.6875"
"1573591894004","981","-0.359375","-0.98535156","0.09082031","-7.21875","-5.8125","-11.625"
"1573591894004","982","-0.36035156","-0.9199219","0.08984375","-8.625","-3.375","-12.90625"
"1573591894004","983","-0.3251953","-0.95214844","0.06738281","-3.875","-6.375","-8.6875"
"1573591894004","984","-0.32421875","-0.96777344","0.0703125","-7.15625","-4.59375","-8.9375"
"1573591894005","985","-0.36132812","-0.94628906","0.08886719","-5.21875","-1.65625","-5.09375"
"1573591894005","986","-0.34179688","-0.9326172","0.08691406","-7.875","-0.5","-6.0"
"1573591894006","987","-0.3486328","-0.9580078","0.08984375","-9.90625","1.3125","-4.28125"
"1573591894006","988","-0.3232422","-0.97265625","0.08691406","-12.21875","4.0","-6.25"
"1573591894006","989","-0.29589844","-0.93847656","0.03515625","-4.34375","-1.0","-8.8125"
"1573591894402","990","-0.34570312","-0.9941406","0.08203125","-18.03125","-0.6875","-6.1875"
"1573591894402","991","-0.28027344","-0.94628906","0.064453125","-13.375","-2.46875","-6.0"
"1573591894403","992","-0.26171875","-0.99316406","0.047851562","-34.125","-12.03125","-2.15625"
"1573591894403","993","-0.3251953","-0.95410156","0.047851562","-22.59375","-8.0","-9.40625"
"1573591894403","994","-0.26171875","-0.96191406","-0.005859375","-18.03125","-7.9375","-15.40625"
"1573591894403","995","-0.29296875","-0.9589844","-0.0087890625","-11.78125","-7.9375","-15.6875"
"1573591894404","996","-0.28125","-0.9550781","0.0107421875","-19.59375","-3.0625","-12.71875"
"1573591894405","997","-0.30859375","-0.9638672","0.0","-11.0","-3.25","-8.875"
"1573591894406","998","-0.2861328","-0.9814453","-0.0087890625","-11.90625","5.0","-6.1875"
"1573591894406","999","-0.24023438","-0.98535156","0.0","-14.53125","7.1875","-3.0"
"1573591894995","1000","-0.23046875","-0.9589844","-0.048828125","-3.0","-0.25","0.09375"
"1573591894996","1001","-0.29296875","-0.96972656","-0.040039062","-9.40625","9.5","-1.1875"
"1573591894996","1002","-0.24804688","-0.97753906","-0.001953125","-9.53125","15.90625","-5.5625"
"1573591894996","1003","-0.25976562","-0.95214844","-0.07910156","0.90625","14.625","-5.5625"
"1573591894997","1004","-0.2734375","-0.9892578","-0.041992188","-5.15625","15.25","-4.28125"
"1573591894997","1005","-0.23242188","-0.9746094","-0.041992188","11.03125","15.71875","-1.125"
"1573591894997","1006","-0.24707031","-0.9892578","-0.03125","16.40625","12.0625","3.34375"
"1573591894997","1007","-0.23242188","-0.9941406","0.017578125","2.5","26.65625","8.15625"
"1573591894998","1008","-0.32421875","-0.93359375","-0.0087890625","-29.4375","32.6875","-1.53125"
"1573591894999","1009","-0.2685547","-0.9404297","-0.10839844","-7.8125","32.9375","-4.84375"
"1573591895195","1010","-0.24316406","-1.0048828","-0.09375","0.96875","30.75","-7.28125"
"1573591895196","1011","-0.19140625","-0.9736328","-0.09667969","7.6875","22.9375","-6.59375"
"1573591895196","1012","-0.21875","-0.99609375","-0.055664062","-2.59375","26.40625","0.71875"
"1573591895196","1013","-0.22558594","-0.9501953","-0.11816406","-0.875","22.875","-3.375"
"1573591895196","1014","-0.17480469","-0.94628906","-0.076171875","-7.59375","11.34375","1.875"
"1573591895196","1015","-0.20117188","-1.0185547","-0.11425781","6.34375","0.34375","1.4375"
"1573591895197","1016","-0.2607422","-1.0273438","-0.06933594","2.5","2.5","-2.34375"
"1573591895197","1017","-0.18945312","-0.9873047","-0.10546875","0.65625","1.875","-4.28125"
"1573591895197","1018","-0.19238281","-0.93066406","-0.13476562","-12.15625","4.5","-5.25"
"1573591895197","1019","-0.15039062","-0.9511719","-0.15429688","4.9375","8.84375","9.03125"
"1573591895593","1020","-0.19921875","-0.97558594","-0.17578125","2.4375","5.59375","4.0625"
"1573591895593","1021","-0.21289062","-0.99902344","-0.1015625","8.84375","9.25","4.1875"
"1573591895594","1022","-0.19921875","-1.0029297","-0.10253906","2.0625","12.1875","-2.21875"
"1573591895594","1023","-0.14746094","-0.9970703","-0.11230469","4.1875","-0.625","-1.59375"
"1573591895594","1024","-0.16308594","-0.9863281","-0.123046875","6.5","-7.21875","-1.40625"
"1573591895594","1025","-0.18945312","-0.99316406","-0.09375","6.9375","-4.40625","0.65625"
"1573591895594","1026","-0.16796875","-0.9892578","-0.10253906","3.15625","-8.375","-1.59375"
"1573591895595","1027","-0.19921875","-1.0019531","-0.08984375","-2.28125","-7.9375","-0.75"
"1573591895595","1028","-0.20507812","-0.9824219","-0.1015625","-3.5","-3.875","-2.46875"
"1573591895596","1029","-0.19433594","-0.9892578","-0.08496094","-16.96875","-0.5","-5.9375"
"1573591895991","1030","-0.25585938","-0.9736328","-0.10546875","-18.25","-3.125","-13.03125"
"1573591895992","1031","-0.24023438","-0.97265625","-0.08496094","-3.3125","-1.0","-10.40625"
"1573591895992","1032","-0.17578125","-0.96191406","-0.10449219","-5.375","-2.6875","-12.40625"
"1573591895993","1033","-0.18261719","-1.0087891","-0.0546875","-1.46875","-3.125","-3.25"
"1573591895994","1034","-0.16210938","-0.99316406","-0.10839844","-6.59375","-3.875","-6.0625"
"1573591895994","1035","-0.18457031","-0.9736328","-0.095703125","-9.21875","2.71875","-4.71875"
"1573591895994","1036","-0.18847656","-0.9658203","-0.12402344","-8.25","7.75","-5.5625"
"1573591895995","1037","-0.1640625","-0.9892578","-0.107421875","2.90625","4.5625","-4.65625"
"1573591895995","1038","-0.17578125","-0.9716797","-0.091796875","1.6875","-2.59375","-5.21875"
"1573591895995","1039","-0.17285156","-0.9980469","-0.08105469","3.28125","-9.90625","-3.90625"
"1573591896783","1040","-0.18066406","-0.98535156","-0.055664062","2.96875","-11.0","0.46875"
"1573591896784","1041","-0.19921875","-0.9921875","-0.051757812","-0.25","-11.0625","2.125"
"1573591896785","1042","-0.18847656","-1.0039062","-0.046875","-1.65625","-9.71875","2.375"
"1573591896785","1043","-0.20410156","-0.9921875","-0.049804688","-2.875","-10.21875","2.5"
"1573591896786","1044","-0.19042969","-0.99121094","-0.076171875","-5.9375","1.5625","2.4375"
"1573591896786","1045","-0.20898438","-0.97558594","-0.021484375","-17.46875","9.09375","2.90625"
"1573591896787","1046","-0.19042969","-0.96777344","-0.087890625","-7.28125","2.375","6.28125"
"1573591896787","1047","-0.21679688","-0.9824219","-0.0703125","-0.5625","-2.875","10.71875"
"1573591896787","1048","-0.2548828","-0.9716797","-0.08886719","5.40625","-1.1875","12.0625"
"1573591896788","1049","-0.2607422","-1.0078125","-0.049804688","8.78125","-3.25","12.875"
"1573591896980","1050","-0.26953125","-0.95410156","-0.025390625","1.9375","-8.9375","12.375"
"1573591896981","1051","-0.2578125","-0.9794922","-0.028320312","2.25","2.71875","10.71875"
"1573591896981","1052","-0.25585938","-0.9736328","-0.076171875","0.84375","3.21875","8.59375"
"1573591896981","1053","-0.2421875","-0.94433594","-0.053710938","3.28125","-5.5","8.59375"
"1573591896981","1054","-0.24609375","-0.9746094","-0.07714844","10.125","-7.46875","8.15625"
"1573591896982","1055","-0.26757812","-0.96875","-0.02734375","8.96875","-11.1875","7.375"
"1573591896982","1056","-0.28808594","-0.9970703","-0.0107421875","9.09375","-17.65625","8.28125"
"1573591896983","1057","-0.29785156","-0.9736328","0.015625","2.65625","-11.71875","6.03125"
"1573591896983","1058","-0.328125","-0.9921875","9.765625E-4","-2.59375","-14.96875","7.25"
"1573591896984","1059","-0.27441406","-0.98535156","-0.029296875","-1.1875","-5.375","3.34375"
"1573591897183","1060","-0.32226562","-0.93652344","0.015625","-6.375","-16.875","3.34375"
"1573591897183","1061","-0.31640625","-0.9404297","0.06738281","-4.78125","-20.28125","4.0"
"1573591897184","1062","-0.29101562","-0.9667969","-0.03515625","6.03125","-20.15625","4.125"
"1573591897184","1063","-0.3251953","-0.95996094","0.03125","4.9375","-4.96875","5.34375"
"1573591897184","1064","-0.29785156","-0.97265625","0.00390625","1.6875","-1.46875","4.1875"
"1573591897184","1065","-0.3076172","-0.9560547","-0.015625","0.84375","-4.21875","1.21875"
"1573591897185","1066","-0.296875","-0.9667969","0.01171875","4.1875","-4.90625","1.21875"
"1573591897185","1067","-0.29589844","-0.9394531","0.06738281","-3.375","-4.59375","2.65625"
"1573591897185","1068","-0.35742188","-0.97753906","0.034179688","0.84375","-5.25","2.5625"
"1573591897186","1069","-0.3251953","-0.984375","0.045898438","1.75","1.5625","0.34375"
"1573591897581","1070","-0.2919922","-0.9667969","0.030273438","2.4375","-0.125","-0.6875"
"1573591897581","1071","-0.34765625","-0.9658203","0.064453125","-2.9375","-7.53125","1.6875"
"1573591897582","1072","-0.33398438","-0.9667969","0.08300781","2.25","1.15625","2.96875"
"1573591897582","1073","-0.328125","-0.9716797","0.051757812","5.28125","-0.625","2.0625"
"1573591897582","1074","-0.33789062","-0.94628906","0.056640625","2.90625","2.3125","-0.875"
"1573591897582","1075","-0.3203125","-0.9560547","0.076171875","3.90625","1.3125","-1.125"
"1573591897583","1076","-0.32617188","-0.97265625","0.07519531","1.625","-1.3125","0.46875"
"1573591897583","1077","-0.36621094","-0.94433594","0.07128906","-1.1875","1.15625","0.28125"
"1573591897583","1078","-0.31054688","-1.0","0.038085938","0.28125","2.96875","-2.40625"
"1573591897584","1079","-0.35058594","-0.9433594","0.18066406","-3.5625","-5.75","-1.0625"
"1573591897979","1080","-0.2919922","-0.95703125","0.025390625","4.8125","-1.96875","-2.53125"
"1573591897980","1081","-0.38378906","-0.9746094","0.17089844","1.5625","-19.0625","0.34375"
"1573591897981","1082","-0.24902344","-0.9628906","0.046875","13.09375","-14.125","-3.25"
"1573591897981","1083","-0.38867188","-0.9707031","0.1015625","0.28125","-14.53125","-5.25"
"1573591897982","1084","-0.3046875","-0.9326172","0.107421875","11.15625","0.03125","-8.1875"
"1573591897982","1085","-0.28027344","-0.9873047","0.107421875","1.4375","-2.8125","-5.75"
"1573591897982","1086","-0.33007812","-0.88964844","0.16015625","4.75","4.3125","1.4375"
"1573591897983","1087","-0.30664062","-1.0253906","0.091796875","1.6875","6.46875","4.125"
"1573591897983","1088","-0.36035156","-0.9121094","0.18261719","-2.53125","13.53125","7.375"
"1573591897983","1089","-0.2841797","-1.0175781","0.047851562","10.0625","5.21875","3.90625"
"1573591898376","1090","-0.3876953","-0.97558594","0.16992188","-0.5","0.03125","0.96875"
"1573591898377","1091","-0.31933594","-0.9736328","0.10644531","-3.8125","8.78125","-3.875"
"1573591898377","1092","-0.37890625","-0.96777344","0.16308594","-12.96875","8.65625","-2.6875"
"1573591898378","1093","-0.2919922","-0.9824219","0.08886719","-10.15625","11.75","-7.9375"
"1573591898379","1094","-0.3203125","-0.9736328","0.08203125","-16.125","7.75","-6.96875"
"1573591898379","1095","-0.33496094","-0.9560547","0.08203125","-14.25","8.28125","-6.375"
"1573591898379","1096","-0.29785156","-0.9375","0.09863281","-15.53125","13.90625","-2.8125"
"1573591898379","1097","-0.30566406","-0.94628906","0.041015625","-8.9375","7.3125","-3.8125"
"1573591898380","1098","-0.34765625","-0.9511719","0.109375","-19.375","10.65625","-5.875"
"1573591898380","1099","-0.3017578","-0.9433594","0.045898438","-10.34375","13.34375","-4.78125"
"1573591898773","1100","-0.3544922","-0.9511719","0.06933594","-8.0","10.96875","-5.4375"
"1573591898774","1101","-0.32714844","-0.9121094","0.056640625","5.21875","15.96875","-8.625"
"1573591898774","1102","-0.31152344","-0.9472656","0.017578125","6.875","26.03125","-1.96875"
"1573591898774","1103","-0.25976562","-0.9902344","0.013671875","1.3125","34.21875","-1.53125"
"1573591898774","1104","-0.30371094","-0.97265625","0.029296875","0.40625","25.875","-2.53125"
"1573591898775","1105","-0.29589844","-0.95703125","0.016601562","1.75","29.9375","-2.15625"
"1573591898776","1106","-0.27734375","-0.9638672","-0.005859375","9.5","24.71875","-1.53125"
"1573591898776","1107","-0.29101562","-0.95410156","0.021484375","24.71875","24.34375","-1.71875"
"1573591898777","1108","-0.29785156","-0.9707031","0.041992188","16.65625","26.71875","0.21875"
"1573591898777","1109","-0.27148438","-0.9560547","0.036132812","12.625","28.0","-2.09375"
"1573591899368","1110","-0.2734375","-0.95703125","0.055664062","0.71875","24.09375","2.0"
"1573591899369","1111","-0.2841797","-0.9189453","0.00390625","1.875","17.5","-1.71875"
"1573591899369","1112","-0.2841797","-0.97265625","0.049804688","-15.15625","10.84375","-5.15625"
"1573591899369","1113","-0.25683594","-0.921875","0.0029296875","0.59375","-2.40625","-11.78125"
"1573591899370","1114","-0.19921875","-0.9511719","0.0234375","-6.0","-4.59375","-4.21875"
"1573591899370","1115","-0.20019531","-0.9560547","0.005859375","-9.34375","-11.5625","-2.53125"
"1573591899370","1116","-0.21289062","-1.0058594","-0.0859375","-12.65625","-19.0","-6.0625"
"1573591899372","1117","-0.21875","-0.9736328","-0.020507812","-3.4375","-19.1875","-6.59375"
"1573591899372","1118","-0.26757812","-0.95996094","-0.0146484375","-5.8125","-19.125","-6.0625"
"1573591899372","1119","-0.2529297","-0.95214844","-0.016601562","-2.40625","-19.71875","-8.6875"
"1573591899569","1120","-0.20996094","-1.0","-0.0234375","-8.8125","-18.875","-2.9375"
"1573591899569","1121","-0.21582031","-0.98828125","-0.041015625","-11.5625","-20.875","-5.21875"
"1573591899569","1122","-0.22851562","-0.9316406","-0.06542969","-9.46875","-22.28125","-0.25"
"1573591899570","1123","-0.203125","-1.0019531","-0.033203125","-8.25","-14.59375","2.0625"
"1573591899570","1124","-0.19433594","-0.99121094","-0.034179688","3.84375","-17.09375","-6.78125"
"1573591899570","1125","-0.20214844","-0.96875","-0.01953125","-7.53125","-19.4375","-7.9375"
"1573591899570","1126","-0.22753906","-1.0117188","-0.0087890625","-8.125","-18.625","-3.6875"
"1573591899570","1127","-0.24121094","-0.9316406","-0.0146484375","-3.6875","-16.6875","-9.59375"
"1573591899571","1128","-0.24707031","-0.91308594","0.001953125","11.53125","-2.9375","-8.9375"
"1573591899572","1129","-0.28125","-1.0019531","0.029296875","16.53125","6.8125","-20.40625"
