"# PR data"
"# Start time: 20191112T205610"
"# Subject: Adela"
"# Activity type: Walking"
"# Correctness: Incorrect"
"# Notes: "
""
"timestamp","seq","accel_x","accel_y","accel_z","gyro_x","gyro_y","gyro_z"
"1573592170265","0","-0.119140625","-0.93359375","-0.024414062","6.625","-74.71875","-0.375"
"1573592170266","1","-0.09082031","-0.9921875","0.044921875","12.3125","-67.34375","-9.65625"
"1573592170266","2","-0.12890625","-0.9902344","0.11035156","2.0","-70.625","-8.125"
"1573592170267","3","-0.25878906","-1.0615234","-0.005859375","-10.03125","-57.28125","-8.0"
"1573592170267","4","-0.30664062","-1.0751953","-0.078125","-4.84375","-41.15625","-10.75"
"1573592170267","5","-0.16308594","-0.9423828","0.0068359375","-5.5625","-44.3125","1.5625"
"1573592170267","6","-0.1640625","-1.0107422","-0.01171875","-8.125","-15.46875","-5.8125"
"1573592170268","7","-0.068359375","-0.96875","0.016601562","9.09375","-27.40625","-4.03125"
"1573592170268","8","-0.07324219","-0.99902344","0.021484375","-3.75","-27.34375","-3.125"
"1573592170272","9","-0.12402344","-1.0117188","0.041992188","-10.625","-22.65625","-7.875"
"1573592170465","10","-0.16210938","-0.98535156","-0.001953125","-11.78125","-19.84375","-2.875"
"1573592170465","11","-0.16210938","-1.0166016","-0.049804688","-13.03125","-10.8125","-1.0625"
"1573592170465","12","-0.13574219","-1.0058594","-0.057617188","-7.46875","-6.0","-0.5"
"1573592170467","13","-0.107421875","-0.99902344","-0.044921875","-0.75","-14.84375","3.34375"
"1573592170467","14","-0.12597656","-0.9863281","-0.043945312","0.15625","-16.125","4.6875"
"1573592170468","15","-0.11035156","-0.9970703","-0.025390625","0.40625","-12.96875","5.34375"
"1573592170468","16","-0.1171875","-1.0126953","-0.029296875","-4.28125","-11.625","3.46875"
"1573592170468","17","-0.12695312","-1.0205078","-0.03515625","-4.34375","-9.21875","3.03125"
"1573592170468","18","-0.14550781","-1.0244141","-0.048828125","-9.0","-8.6875","2.96875"
"1573592170469","19","-0.13476562","-1.0097656","-0.045898438","-7.03125","-9.15625","0.96875"
"1573592171062","20","-0.1015625","-0.95996094","-0.041992188","1.03125","-10.75","-0.1875"
"1573592171063","21","-0.13964844","-1.0039062","-0.040039062","-8.0","-17.71875","-3.375"
"1573592171063","22","-0.12402344","-1.0009766","-0.013671875","-4.71875","-18.15625","-4.71875"
"1573592171063","23","-0.15820312","-1.0166016","-0.064453125","-9.84375","-24.5625","-2.59375"
"1573592171064","24","-0.13183594","-1.0107422","-0.038085938","-10.21875","-24.0","-3.0"
"1573592171065","25","-0.171875","-0.98535156","-0.02734375","-11.125","-19.90625","-2.625"
"1573592171065","26","-0.18066406","-1.0019531","-0.044921875","-7.875","-16.0","-1.0"
"1573592171065","27","-0.16601562","-0.9970703","-0.056640625","-13.3125","-14.34375","-1.40625"
"1573592171066","28","-0.17675781","-0.9667969","-0.01953125","-11.6875","-13.4375","-0.375"
"1573592171066","29","-0.23730469","-0.9433594","-0.0078125","-12.59375","-15.46875","1.3125"
"1573592171259","30","-0.24511719","-0.9765625","-0.057617188","-8.125","-20.28125","-0.4375"
"1573592171260","31","-0.20410156","-0.9902344","-0.08691406","-10.40625","-27.25","1.75"
"1573592171260","32","-0.18847656","-1.0908203","-0.12207031","-18.3125","-32.90625","0.40625"
"1573592171260","33","-0.20507812","-1.1347656","-0.08691406","-22.15625","-35.53125","-2.6875"
"1573592171260","34","-0.2109375","-0.9589844","-0.07421875","-27.1875","-52.1875","-0.3125"
"1573592171261","35","-0.20117188","-0.9140625","-0.1484375","-30.78125","-64.15625","3.78125"
"1573592171261","36","-0.19628906","-0.9375","-0.19042969","-22.46875","-62.75","4.5625"
"1573592171262","37","-0.20117188","-0.9121094","-0.16113281","-18.375","-54.65625","3.03125"
"1573592171263","38","-0.22265625","-0.97265625","-0.16015625","-14.96875","-64.59375","8.15625"
"1573592171263","39","-0.17285156","-0.9814453","-0.1796875","-5.21875","-63.625","3.71875"
"1573592171854","40","-0.1328125","-0.98828125","-0.125","-3.625","-70.9375","1.6875"
"1573592171855","41","-0.18945312","-0.98339844","-0.12695312","-6.90625","-70.6875","-0.25"
"1573592171855","42","-0.17089844","-0.9970703","-0.1015625","-9.53125","-74.71875","-2.09375"
"1573592171856","43","-0.1953125","-0.9951172","-0.09277344","-14.1875","-81.0","-0.875"
"1573592171856","44","-0.24023438","-0.9550781","-0.12109375","-15.6875","-79.3125","-0.5625"
"1573592171856","45","-0.20019531","-0.9589844","-0.11230469","-12.46875","-78.75","-1.84375"
"1573592171856","46","-0.25878906","-0.98339844","-0.10839844","-12.15625","-69.03125","-3.96875"
"1573592171857","47","-0.23730469","-0.9824219","-0.08496094","-6.5","-61.78125","-8.1875"
"1573592171857","48","-0.18359375","-0.9941406","-0.08984375","-2.875","-63.0","-10.15625"
"1573592171858","49","-0.17578125","-1.0185547","-0.13867188","-9.15625","-61.65625","-8.25"
"1573592172251","50","-0.18457031","-1.0654297","-0.12011719","-34.25","-51.78125","-7.875"
"1573592172251","51","-0.22363281","-1.0029297","-0.12597656","-28.40625","-48.125","-17.71875"
"1573592172252","52","-0.15429688","-0.8671875","-0.10839844","-12.46875","-63.625","-13.375"
"1573592172252","53","-0.18164062","-1.0234375","-0.10449219","-14.96875","-66.125","-5.6875"
"1573592172252","54","-0.3330078","-1.0917969","-0.14160156","-22.96875","-48.53125","-6.5"
"1573592172252","55","-0.265625","-0.9033203","-0.08691406","-18.03125","-33.65625","-7.46875"
"1573592172253","56","-0.21679688","-1.015625","-0.12597656","-17.40625","-36.21875","-0.5625"
"1573592172253","57","-0.2578125","-1.0644531","-0.16015625","-14.0","-19.59375","-9.96875"
"1573592172253","58","-0.19433594","-0.9658203","-0.08105469","-16.0","-14.34375","-16.125"
"1573592172253","59","-0.22558594","-0.97265625","-0.16210938","-25.46875","-23.4375","-14.78125"
"1573592172452","60","-0.17089844","-0.99902344","-0.18945312","-3.25","-17.59375","-17.53125"
"1573592172453","61","-0.15820312","-0.9433594","-0.13574219","-2.40625","-20.40625","-11.78125"
"1573592172453","62","-0.15820312","-0.97558594","-0.11621094","-2.875","-18.5625","-8.6875"
"1573592172454","63","-0.1015625","-0.9707031","-0.10253906","-3.3125","-20.875","-8.375"
"1573592172454","64","-0.12402344","-0.984375","-0.07324219","-4.15625","-26.6875","-6.71875"
"1573592172454","65","-0.19628906","-1.0097656","-0.07324219","-15.59375","-20.09375","-7.09375"
"1573592172454","66","-0.21582031","-0.9765625","-0.10253906","-12.65625","-10.09375","-6.25"
"1573592172455","67","-0.1171875","-1.0126953","-0.06933594","2.84375","-13.8125","-3.90625"
"1573592172455","68","-0.1171875","-1.0058594","-0.087890625","-0.0625","-19.375","-7.875"
"1573592172456","69","-0.14648438","-1.0185547","-0.11816406","7.625","-19.0","-7.15625"
"1573592172850","70","-0.12792969","-0.9794922","-0.123046875","2.59375","-13.1875","-7.46875"
"1573592172851","71","-0.115234375","-0.96484375","-0.083984375","5.0625","-14.40625","-3.375"
"1573592172851","72","-0.12011719","-0.9785156","-0.07519531","8.40625","-12.96875","0.71875"
"1573592172852","73","-0.16992188","-1.0214844","-0.09375","-0.375","-6.53125","2.5625"
"1573592172853","74","-0.15917969","-0.99316406","-0.07714844","5.46875","3.21875","1.3125"
"1573592172853","75","-0.13964844","-1.0029297","-0.087890625","5.28125","-1.71875","4.5625"
"1573592172853","76","-0.16015625","-1.0087891","-0.12695312","2.65625","3.65625","3.46875"
"1573592172853","77","-0.15039062","-0.9921875","-0.13378906","4.0625","13.15625","1.6875"
"1573592172854","78","-0.13671875","-1.0078125","-0.12988281","2.1875","15.96875","-0.125"
"1573592172854","79","-0.10546875","-0.98535156","-0.13476562","2.65625","20.75","-1.0"
"1573592173247","80","-0.087890625","-0.9970703","-0.13769531","0.53125","22.3125","1.6875"
"1573592173247","81","-0.06738281","-1.015625","-0.13867188","2.125","23.0625","1.15625"
"1573592173248","82","-0.07519531","-0.99316406","-0.14746094","2.65625","23.59375","-0.5"
"1573592173248","83","-0.12792969","-1.0361328","-0.11816406","-9.0625","27.625","-2.59375"
"1573592173248","84","-0.07714844","-1.0117188","-0.12109375","-5.375","33.0","-1.78125"
"1573592173250","85","-0.109375","-1.0439453","-0.171875","-14.46875","31.1875","-2.59375"
"1573592173251","86","-0.09277344","-1.0351562","-0.111328125","-9.40625","38.4375","-9.53125"
"1573592173251","87","-0.115234375","-1.0126953","-0.12207031","-14.59375","29.9375","-6.90625"
"1573592173251","88","-0.1796875","-1.0546875","-0.16113281","-9.59375","36.65625","-4.96875"
"1573592173252","89","-0.12109375","-0.9921875","-0.13574219","-3.8125","34.46875","-1.53125"
"1573592173644","90","-0.10058594","-0.9638672","-0.13574219","-3.125","23.96875","1.5"
"1573592173645","91","-0.07519531","-1.0058594","-0.123046875","-1.1875","21.90625","0.96875"
"1573592173645","92","-0.09375","-0.9794922","-0.13085938","-4.90625","13.78125","2.65625"
"1573592173645","93","-0.14355469","-0.98046875","-0.15917969","-8.4375","14.03125","5.78125"
"1573592173645","94","-0.19140625","-0.9628906","-0.13378906","-7.09375","11.34375","9.9375"
"1573592173646","95","-0.24511719","-0.9267578","-0.14257812","2.3125","10.25","17.75"
"1573592173646","96","-0.24414062","-0.93652344","-0.125","10.0625","13.03125","20.6875"
"1573592173648","97","-0.25976562","-0.95214844","-0.18066406","4.1875","12.5","24.21875"
"1573592173649","98","-0.21289062","-1.0097656","-0.17871094","17.375","21.03125","21.71875"
"1573592173649","99","-0.17578125","-1.0732422","-0.16796875","7.625","14.3125","12.9375"
"1573592174041","100","-0.20703125","-1.0107422","-0.1171875","9.03125","9.25","8.03125"
"1573592174042","101","-0.2265625","-0.95996094","-0.1796875","1.875","4.375","13.28125"
"1573592174042","102","-0.21582031","-0.99316406","-0.17871094","-1.3125","10.3125","13.28125"
"1573592174042","103","-0.19433594","-0.97753906","-0.16113281","-5.375","11.09375","8.71875"
"1573592174042","104","-0.1875","-0.99316406","-0.14941406","-4.84375","1.625","3.53125"
"1573592174043","105","-0.19042969","-0.99902344","-0.19335938","-6.125","-4.21875","-2.46875"
"1573592174043","106","-0.16894531","-0.9716797","-0.19140625","-10.09375","-7.09375","-4.53125"
"1573592174043","107","-0.17871094","-0.9736328","-0.19335938","-13.8125","-13.375","-5.4375"
"1573592174043","108","-0.19238281","-0.9667969","-0.19921875","-16.9375","-21.9375","-7.53125"
"1573592174045","109","-0.20117188","-0.9658203","-0.21191406","-15.03125","-21.25","-8.9375"
"1573592174637","110","-0.18164062","-0.9794922","-0.23535156","-19.3125","-32.90625","-6.375"
"1573592174638","111","-0.20703125","-1.0136719","-0.20703125","-15.46875","-35.0","-6.96875"
"1573592174638","112","-0.21679688","-0.9638672","-0.23046875","-14.34375","-41.53125","-7.59375"
"1573592174638","113","-0.20996094","-0.97558594","-0.21289062","-13.6875","-44.09375","-5.15625"
"1573592174639","114","-0.23242188","-0.9746094","-0.1953125","-6.53125","-40.46875","-4.28125"
"1573592174639","115","-0.25195312","-0.9628906","-0.21679688","-13.8125","-39.03125","-4.65625"
"1573592174639","116","-0.21777344","-0.98046875","-0.12988281","-3.1875","-46.28125","1.03125"
"1573592174639","117","-0.29296875","-1.0136719","-0.16601562","-6.96875","-41.09375","1.375"
"1573592174640","118","-0.2890625","-0.9013672","-0.12695312","-2.53125","-28.09375","-2.15625"
"1573592174640","119","-0.20117188","-0.9189453","-0.12597656","2.375","-31.75","-2.8125"
"1573592174837","120","-0.20019531","-0.9160156","-0.1328125","9.1875","-30.46875","-3.875"
"1573592174839","121","-0.22167969","-0.984375","-0.12207031","9.1875","-29.96875","1.375"
"1573592174839","122","-0.22851562","-1.0507812","-0.125","8.53125","-19.3125","1.15625"
"1573592174840","123","-0.22851562","-1.0234375","-0.12597656","8.03125","0.03125","-2.21875"
"1573592174840","124","-0.20703125","-1.0244141","-0.15136719","3.09375","5.34375","-1.90625"
"1573592174840","125","-0.15917969","-0.95410156","-0.15625","11.40625","4.0","5.0"
"1573592174841","126","-0.21386719","-0.9482422","-0.11621094","2.65625","8.90625","7.375"
"1573592174841","127","-0.2529297","-0.9589844","-0.087890625","25.5","12.0625","4.75"
"1573592174841","128","-0.20214844","-0.9746094","-0.111328125","25.5625","12.0625","-0.4375"
"1573592174841","129","-0.17089844","-1.0097656","-0.10546875","27.21875","12.9375","-4.78125"
"1573592175234","130","-0.17773438","-0.98339844","-0.12792969","28.71875","13.28125","-5.6875"
"1573592175235","131","-0.17285156","-1.0048828","-0.095703125","10.71875","18.28125","-2.875"
"1573592175235","132","-0.13085938","-0.99121094","-0.09277344","5.21875","24.9375","-4.90625"
"1573592175236","133","-0.14257812","-1.0478516","-0.111328125","10.25","23.3125","-3.90625"
"1573592175237","134","-0.13183594","-1.0224609","-0.11035156","-4.46875","30.0","-9.21875"
"1573592175237","135","-0.15625","-1.0400391","-0.1015625","-11.125","41.25","-11.4375"
"1573592175237","136","-0.17480469","-1.046875","-0.07421875","-3.96875","42.40625","-12.46875"
"1573592175237","137","-0.18164062","-1.0029297","-0.053710938","-0.5625","33.0625","-11.375"
"1573592175238","138","-0.20996094","-1.0234375","-0.015625","0.21875","30.6875","-11.3125"
"1573592175238","139","-0.28027344","-1.0332031","-0.0146484375","-1.96875","35.1875","-5.15625"
"1573592175828","140","-0.24023438","-0.9902344","0.005859375","-3.90625","35.75","0.84375"
"1573592175829","141","-0.24902344","-0.9248047","0.0107421875","1.8125","31.71875","4.3125"
"1573592175829","142","-0.31152344","-0.9082031","-0.0146484375","1.15625","30.0625","8.59375"
"1573592175830","143","-0.30078125","-0.92285156","-0.057617188","16.34375","32.03125","10.375"
"1573592175830","144","-0.25195312","-0.9511719","-0.07128906","14.75","25.5","10.375"
"1573592175831","145","-0.25390625","-1.0039062","-0.095703125","2.375","21.28125","8.71875"
"1573592175832","146","-0.27441406","-1.0517578","-0.08300781","9.5","22.5","4.6875"
"1573592175832","147","-0.23535156","-1.0107422","-0.03125","-2.75","8.78125","0.28125"
"1573592175832","148","-0.19921875","-0.9609375","-0.055664062","-10.8125","7.3125","4.0625"
"1573592175833","149","-0.23535156","-1.0029297","-0.099609375","-14.78125","-0.75","4.0625"
"1573592176229","150","-0.19921875","-0.9609375","-0.07128906","-12.21875","-4.46875","-1.90625"
"1573592176229","151","-0.20605469","-0.9794922","-0.087890625","-10.40625","-13.375","-3.90625"
"1573592176230","152","-0.21484375","-1.0117188","-0.09765625","-12.90625","-21.125","-6.375"
"1573592176230","153","-0.21679688","-0.9824219","-0.15136719","-16.875","-32.125","-11.71875"
"1573592176230","154","-0.16699219","-0.9609375","-0.140625","-26.25","-41.6875","-14.0625"
"1573592176230","155","-0.16992188","-0.9667969","-0.18066406","-39.0625","-45.90625","-14.71875"
"1573592176231","156","-0.21386719","-0.97753906","-0.17871094","-31.5625","-36.9375","-12.59375"
"1573592176232","157","-0.24707031","-1.0185547","-0.16308594","-28.75","-33.78125","-10.28125"
"1573592176232","158","-0.2548828","-0.9326172","-0.14746094","-15.8125","-33.15625","-6.1875"
"1573592176233","159","-0.23632812","-0.95703125","-0.1640625","-3.75","-30.53125","-0.9375"
"1573592176428","160","-0.23242188","-0.9814453","-0.15429688","-3.8125","-30.53125","-0.75"
"1573592176428","161","-0.23242188","-0.9707031","-0.15722656","-3.375","-29.375","0.53125"
"1573592176429","162","-0.24023438","-0.95996094","-0.15917969","-0.6875","-28.59375","2.125"
"1573592176429","163","-0.265625","-0.98046875","-0.08691406","3.84375","-29.3125","4.875"
"1573592176429","164","-0.24511719","-0.9589844","-0.09277344","7.5","-20.15625","4.5625"
"1573592176429","165","-0.20410156","-0.9658203","-0.07128906","17.125","-31.15625","7.25"
"1573592176430","166","-0.17773438","-0.9667969","-0.0703125","20.1875","-39.03125","5.34375"
"1573592176430","167","-0.16699219","-0.9863281","-0.0087890625","14.8125","-41.03125","5.40625"
"1573592176430","168","-0.18457031","-0.9433594","-0.0078125","12.6875","-46.46875","3.90625"
"1573592176431","169","-0.203125","-0.9941406","-0.03515625","4.125","-42.9375","4.6875"
"1573592176825","170","-0.21679688","-1.0253906","-0.03125","2.59375","-32.0","-2.40625"
"1573592176826","171","-0.16308594","-1.0517578","-0.057617188","1.8125","-23.4375","-9.46875"
"1573592176826","172","-0.13085938","-1.0283203","-0.026367188","5.28125","-35.40625","-8.75"
"1573592176826","173","-0.13867188","-0.9951172","-0.053710938","5.0625","-47.3125","-4.34375"
"1573592176826","174","-0.1484375","-1.0009766","-0.056640625","5.34375","-38.65625","-1.34375"
"1573592176827","175","-0.15039062","-1.0087891","-0.0087890625","-5.375","-37.6875","-0.8125"
"1573592176827","176","-0.18164062","-0.9970703","-0.029296875","-16.3125","-28.21875","-0.4375"
"1573592176827","177","-0.19042969","-0.96875","-0.0078125","-14.46875","-24.5625","-0.375"
"1573592176828","178","-0.18652344","-1.0039062","-0.016601562","-8.375","-23.4375","0.21875"
"1573592176828","179","-0.15234375","-1.0273438","-0.033203125","-5.875","-11.90625","1.15625"
"1573592177421","180","-0.19824219","-1.015625","-0.08105469","-23.28125","-0.8125","2.3125"
"1573592177422","181","-0.12695312","-1.0244141","-0.1015625","-12.15625","1.9375","1.6875"
"1573592177423","182","-0.076171875","-1.03125","-0.11425781","-7.28125","-6.71875","-7.65625"
"1573592177423","183","0.0029296875","-0.98828125","-0.07519531","-12.40625","-17.28125","-11.6875"
"1573592177423","184","-0.111328125","-1.0742188","-0.0703125","-21.3125","-17.09375","-20.03125"
"1573592177424","185","-0.19042969","-1.0224609","-0.022460938","-24.25","-24.4375","-16.1875"
"1573592177424","186","-0.13671875","-0.94433594","0.032226562","-17.53125","-30.90625","-7.28125"
"1573592177424","187","-0.032226562","-1.0683594","0.015625","-14.71875","-51.09375","-6.5"
"1573592177424","188","-0.16113281","-1.0830078","0.025390625","-33.03125","-71.3125","3.09375"
"1573592177425","189","-0.26757812","-0.97753906","0.08691406","-16.96875","-67.21875","12.5"
"1573592177619","190","-0.26953125","-0.9550781","0.09472656","-9.21875","-54.8125","14.15625"
"1573592177619","191","-0.29882812","-0.9091797","0.08105469","-3.8125","-42.6875","9.25"
"1573592177620","192","-0.37402344","-0.921875","-0.0107421875","1.28125","-31.6875","6.5625"
"1573592177621","193","-0.31445312","-0.9501953","-0.076171875","3.84375","-32.96875","14.875"
"1573592177621","194","-0.22070312","-1.0361328","-0.09667969","5.84375","-48.21875","21.15625"
"1573592177621","195","-0.21484375","-1.0419922","-0.0390625","1.5","-63.1875","26.15625"
"1573592177621","196","-0.28808594","-0.92578125","-0.02734375","-13.875","-67.8125","16.21875"
"1573592177622","197","-0.23535156","-0.94921875","-0.013671875","-1.40625","-63.8125","10.71875"
"1573592177622","198","-0.25390625","-0.9892578","-0.051757812","-16.3125","-76.1875","12.5"
"1573592177622","199","-0.19335938","-0.94628906","0.005859375","-32.65625","-76.75","18.40625"
"1573592178016","200","-0.36523438","-0.9628906","0.041015625","-52.4375","-85.65625","35.25"
"1573592178017","201","-0.52734375","-0.9736328","-0.10253906","-60.0","-84.0","58.75"
"1573592178017","202","-0.3779297","-1.0019531","-0.10449219","-73.0","-84.90625","49.375"
"1573592178017","203","-0.40722656","-0.8808594","-0.06347656","-51.78125","-64.65625","28.71875"
"1573592178017","204","-0.40429688","-0.8466797","-0.16894531","-49.625","-69.65625","27.09375"
"1573592178018","205","-0.40039062","-0.88378906","-0.06933594","-33.46875","-58.96875","17.0625"
"1573592178019","206","-0.46679688","-0.8017578","-0.111328125","-31.75","-68.1875","19.15625"
"1573592178019","207","-0.42578125","-0.8828125","-0.111328125","-34.8125","-61.0","22.75"
"1573592178019","208","-0.4580078","-0.9003906","-0.099609375","-19.25","-70.6875","21.15625"
"1573592178019","209","-0.50390625","-0.8388672","-0.06933594","-23.34375","-69.65625","18.90625"
"1573592178414","210","-0.5263672","-0.8671875","-0.049804688","-22.71875","-73.125","24.34375"
"1573592178415","211","-0.55371094","-0.85839844","-0.06738281","-13.6875","-68.625","16.65625"
"1573592178415","212","-0.5732422","-0.86328125","-0.016601562","-8.3125","-70.6875","6.8125"
"1573592178415","213","-0.6035156","-0.8046875","0.032226562","-7.59375","-57.375","-0.875"
"1573592178416","214","-0.59765625","-0.83984375","0.0048828125","-6.90625","-60.0","0.0"
"1573592178416","215","-0.5341797","-0.84472656","0.0146484375","-10.5","-48.71875","-8.8125"
"1573592178416","216","-0.49609375","-0.8515625","0.051757812","-3.6875","-50.84375","-15.15625"
"1573592178417","217","-0.5449219","-0.8964844","0.12792969","-1.34375","-39.5","-15.34375"
"1573592178417","218","-0.6113281","-0.9003906","0.06933594","1.8125","-32.65625","-14.0625"
"1573592178417","219","-0.43359375","-0.8720703","0.11035156","12.125","-34.5625","-17.28125"
"1573592178813","220","-0.2705078","-0.92871094","0.24121094","19.9375","-53.84375","-18.9375"
"1573592178813","221","-0.43359375","-0.9746094","0.13671875","-3.375","-63.8125","-23.5"
"1573592178813","222","-0.4091797","-0.96972656","0.13085938","-19.59375","-43.09375","-28.34375"
"1573592178814","223","-0.3642578","-0.9453125","0.13671875","-51.59375","-34.8125","-22.90625"
"1573592178814","224","-0.453125","-0.9375","0.051757812","-53.59375","-29.25","-22.78125"
"1573592178814","225","-0.4033203","-0.9433594","0.061523438","-37.625","-27.3125","-32.0"
"1573592178815","226","-0.3408203","-0.89453125","0.051757812","-19.0","-31.3125","-35.78125"
"1573592178815","227","-0.31054688","-0.95996094","0.051757812","-16.125","-27.25","-32.125"
"1573592178815","228","-0.25585938","-0.95410156","0.06542969","-10.4375","-26.0625","-28.40625"
"1573592178816","229","-0.25390625","-0.9404297","0.041992188","-19.59375","-12.09375","-23.5"
"1573592179211","230","-0.12109375","-1.0234375","0.0390625","-18.15625","-9.34375","-19.0625"
"1573592179212","231","-0.115234375","-1.0068359","9.765625E-4","-31.75","-11.5","-20.21875"
"1573592179212","232","-0.055664062","-0.9970703","-0.0625","-34.0","-14.71875","-22.0"
"1573592179212","233","-0.10546875","-0.96777344","-0.1171875","-32.59375","-21.3125","-16.125"
"1573592179213","234","-0.15625","-1.0292969","-0.091796875","-22.15625","-8.3125","-3.75"
"1573592179213","235","-0.25585938","-0.97265625","-0.03515625","-19.78125","8.09375","-10.28125"
"1573592179213","236","-0.22363281","-0.9238281","-0.0625","4.125","11.28125","-10.09375"
"1573592179213","237","-0.1875","-1.0410156","0.024414062","13.59375","20.84375","-7.78125"
"1573592179214","238","-0.203125","-1.046875","0.068359375","15.3125","24.9375","-3.8125"
"1573592179214","239","-0.15722656","-1.125","0.0234375","-4.53125","20.0625","1.4375"
"1573592179606","240","-0.14941406","-1.0625","0.046875","-13.1875","9.625","3.21875"
"1573592179607","241","-0.2265625","-0.91796875","0.022460938","-19.4375","-3.0625","15.65625"
"1573592179608","242","-0.30078125","-0.85058594","-0.026367188","-13.0625","2.4375","18.21875"
"1573592179608","243","-0.3330078","-0.83691406","-0.057617188","-1.84375","-10.9375","20.3125"
"1573592179608","244","-0.39257812","-1.0","-0.072265625","8.78125","-18.21875","18.96875"
"1573592179609","245","-0.37695312","-1.0703125","-0.064453125","0.71875","-14.46875","1.3125"
"1573592179609","246","-0.25","-0.97558594","0.028320312","3.9375","-25.59375","-4.21875"
"1573592179609","247","-0.29003906","-0.9404297","-0.041992188","-13.125","-29.8125","5.21875"
"1573592179609","248","-0.30273438","-1.0078125","-0.030273438","-15.34375","-20.59375","8.59375"
"1573592179610","249","-0.2919922","-0.9628906","-0.032226562","-16.8125","-19.125","9.5"
"1573592180004","250","-0.3232422","-0.9404297","-0.032226562","-18.03125","-16.25","10.59375"
"1573592180004","251","-0.28222656","-0.9482422","-0.087890625","-15.8125","-21.6875","7.25"
"1573592180004","252","-0.24414062","-0.9765625","-0.087890625","-14.1875","-24.96875","0.34375"
"1573592180005","253","-0.31152344","-0.9638672","-0.14746094","-25.65625","-20.9375","-1.34375"
"1573592180005","254","-0.28808594","-0.9423828","-0.1640625","-29.875","-22.28125","-8.875"
"1573592180006","255","-0.27539062","-0.93652344","-0.16699219","-14.65625","-21.75","-9.90625"
"1573592180006","256","-0.2626953","-0.94628906","-0.1796875","-10.28125","-19.25","-12.21875"
"1573592180006","257","-0.25683594","-0.9824219","-0.14550781","-9.0","-11.5","-9.28125"
"1573592180006","258","-0.29296875","-1.0478516","-0.123046875","-13.8125","-7.34375","-6.4375"
"1573592180007","259","-0.3544922","-1.0283203","-0.11425781","-18.875","0.0","-3.96875"
"1573592180402","260","-0.27148438","-0.8417969","-0.12402344","-1.0","-2.34375","-3.1875"
"1573592180403","261","-0.16210938","-1.03125","-0.095703125","-0.875","-9.53125","-7.71875"
"1573592180404","262","-0.2109375","-1.0214844","-0.03515625","1.75","-6.53125","-16.6875"
"1573592180404","263","-0.21582031","-0.95410156","-0.0078125","4.75","-45.125","-12.46875"
"1573592180404","264","-0.1640625","-0.8769531","0.018554688","9.75","-60.4375","-6.78125"
"1573592180405","265","-0.24121094","-0.95214844","0.052734375","-4.28125","-54.8125","4.875"
"1573592180406","266","-0.32226562","-0.9433594","0.01953125","-5.21875","-33.84375","7.25"
"1573592180406","267","-0.30664062","-1.0146484","-0.032226562","0.84375","-25.40625","7.375"
"1573592180406","268","-0.24316406","-1.0898438","0.0068359375","4.3125","-23.03125","4.125"
"1573592180406","269","-0.26171875","-0.96972656","-0.044921875","8.09375","-27.71875","-5.4375"
"1573592180801","270","-0.20898438","-0.9658203","-0.02734375","2.375","-22.0625","-5.21875"
"1573592180802","271","-0.17480469","-0.9970703","0.0146484375","10.3125","-25.65625","-6.125"
"1573592180802","272","-0.26660156","-1.0332031","-0.00390625","-7.8125","-19.90625","-6.96875"
"1573592180802","273","-0.1953125","-1.0410156","-0.028320312","-12.15625","-12.78125","-9.53125"
"1573592180802","274","-0.19433594","-0.99316406","-0.0703125","-18.75","-11.6875","-11.96875"
"1573592180803","275","-0.18457031","-0.9404297","-0.078125","-13.5625","-4.59375","-9.65625"
"1573592180803","276","-0.125","-0.9863281","-0.11816406","-5.4375","-0.75","-11.84375"
"1573592180804","277","-0.14160156","-0.99609375","-0.049804688","-12.90625","4.6875","-17.59375"
"1573592180805","278","-0.05078125","-0.9589844","-0.09375","-13.25","3.40625","-16.25"
"1573592180805","279","-0.08496094","-1.0136719","-0.14160156","-13.625","-3.1875","-12.34375"
"1573592181199","280","-0.072265625","-0.99609375","-0.11328125","-16.0","6.9375","-10.75"
"1573592181200","281","-0.13085938","-1.0185547","-0.13476562","-9.84375","10.96875","-8.25"
"1573592181200","282","-0.08496094","-1.0068359","-0.099609375","-6.53125","12.1875","-1.53125"
"1573592181200","283","-0.12988281","-1.0820312","-0.0546875","4.6875","10.90625","-2.625"
"1573592181200","284","-0.16796875","-1.0605469","-0.12011719","9.5","4.5625","-3.96875"
"1573592181200","285","-0.17382812","-0.9824219","-0.05859375","1.21875","20.4375","0.21875"
"1573592181201","286","-0.16210938","-0.9951172","-0.001953125","7.90625","25.875","6.34375"
"1573592181201","287","-0.22265625","-1.0214844","-0.0390625","4.0625","23.96875","5.21875"
"1573592181201","288","-0.265625","-0.9375","-0.0107421875","6.34375","27.8125","6.46875"
"1573592181205","289","-0.27246094","-0.90625","0.03125","9.8125","30.375","10.84375"
"1573592181595","290","-0.30078125","-0.9355469","-0.045898438","16.65625","29.40625","14.625"
"1573592181595","291","-0.27734375","-1.0009766","-0.09277344","15.3125","30.8125","16.34375"
"1573592181596","292","-0.23925781","-1.0117188","-0.11035156","9.6875","22.6875","11.71875"
"1573592181596","293","-0.21484375","-1.0527344","-0.064453125","5.90625","13.84375","7.8125"
"1573592181596","294","-0.16699219","-0.98339844","-0.043945312","-1.1875","7.75","5.59375"
"1573592181597","295","-0.23632812","-0.9707031","-0.057617188","-2.28125","-1.53125","11.28125"
"1573592181597","296","-0.27441406","-0.9667969","-0.028320312","-1.96875","6.75","10.0625"
"1573592181597","297","-0.2939453","-0.9589844","-0.046875","-7.46875","-0.875","12.875"
"1573592181597","298","-0.31054688","-0.95996094","-0.052734375","-5.875","-0.9375","9.375"
"1573592181598","299","-0.3095703","-0.953125","-0.08691406","-3.0625","-6.0625","8.15625"
"1573592181993","300","-0.29492188","-0.9404297","-0.08886719","-0.0625","-4.65625","-1.0"
"1573592181993","301","-0.27539062","-0.9736328","-0.12402344","0.59375","-0.875","-3.96875"
"1573592181993","302","-0.19433594","-0.9091797","-0.10839844","-6.0","-0.375","-13.25"
"1573592181994","303","-0.18164062","-1.0","-0.12792969","-10.875","1.625","-6.84375"
"1573592181994","304","-0.2783203","-1.2568359","-0.0703125","-19.59375","10.53125","-1.0"
"1573592181994","305","-0.2998047","-0.9765625","0.013671875","-11.6875","2.0625","-8.5625"
"1573592181994","306","-0.22363281","-0.7871094","-0.07324219","-10.5","-10.09375","-7.59375"
"1573592181995","307","-0.21386719","-1.0214844","-0.08496094","-4.90625","0.40625","-0.625"
"1573592181995","308","-0.2841797","-0.9765625","-0.07421875","-8.25","-3.6875","-1.53125"
"1573592181995","309","-0.26757812","-0.97753906","-0.03515625","-8.625","-8.5","0.28125"
"1573592182587","310","-0.29492188","-1.03125","-0.09472656","-5.21875","-9.53125","-4.28125"
"1573592182588","311","-0.16113281","-0.88671875","-0.038085938","12.6875","-20.21875","-4.78125"
"1573592182588","312","-0.1328125","-0.9082031","0.0068359375","14.28125","-20.09375","-7.65625"
"1573592182589","313","-0.18164062","-1.0810547","0.0078125","7.0625","-16.4375","-8.5"
"1573592182590","314","-0.22460938","-1.0546875","-0.05078125","5.96875","-8.5","-12.46875"
"1573592182590","315","-0.12890625","-1.0273438","-0.115234375","-11.5","-11.375","-6.0"
"1573592182590","316","-0.18945312","-0.94140625","-0.09765625","-14.1875","-3.5","-0.8125"
"1573592182591","317","-0.21777344","-0.9042969","-0.030273438","0.15625","2.84375","4.8125"
"1573592182591","318","-0.25683594","-0.9892578","-0.053710938","-0.6875","10.84375","5.40625"
"1573592182591","319","-0.27441406","-1.0175781","-0.041015625","4.6875","30.875","0.0"
"1573592182787","320","-0.18261719","-0.99902344","-0.043945312","5.34375","29.78125","0.34375"
"1573592182788","321","-0.15332031","-1.0166016","-0.05859375","4.25","30.0625","-0.125"
"1573592182788","322","-0.15429688","-0.953125","-0.041992188","4.8125","33.96875","1.15625"
"1573592182788","323","-0.14355469","-0.99121094","-0.078125","1.3125","34.34375","7.25"
"1573592182788","324","-0.14160156","-1.0566406","-0.0107421875","2.125","36.3125","6.46875"
"1573592182790","325","-0.26757812","-1.0058594","0.0126953125","9.5","28.125","12.375"
"1573592182790","326","-0.20507812","-0.9863281","-0.028320312","15.84375","17.6875","9.375"
"1573592182790","327","-0.11230469","-0.9560547","0.053710938","21.15625","20.3125","1.15625"
"1573592182790","328","-0.24316406","-0.96875","-0.04296875","12.625","5.90625","-7.34375"
"1573592182791","329","-0.2548828","-1.0625","-0.032226562","11.59375","17.5","-7.8125"
"1573592183184","330","-0.17382812","-0.9716797","0.020507812","4.9375","16.40625","-13.3125"
"1573592183184","331","-0.125","-0.99609375","-0.0068359375","0.09375","9.9375","-5.75"
"1573592183184","332","-0.18359375","-1.0273438","0.016601562","-3.0","6.75","-7.09375"
"1573592183185","333","-0.1953125","-0.9794922","0.0","-2.875","2.25","-6.25"
"1573592183185","334","-0.29589844","-1.0126953","-0.026367188","-5.875","-4.53125","-1.65625"
"1573592183185","335","-0.23925781","-0.9404297","-0.017578125","1.4375","-9.65625","-7.21875"
"1573592183185","336","-0.265625","-0.9042969","0.028320312","14.03125","-6.0625","-8.0"
"1573592183186","337","-0.31445312","-0.9501953","-0.01171875","13.21875","-1.25","-4.90625"
"1573592183186","338","-0.20703125","-1.0615234","0.02734375","1.625","2.78125","-8.6875"
"1573592183186","339","-0.17382812","-1.1035156","0.046875","-4.03125","-3.375","-13.0625"
"1573592184178","340","-0.18066406","-1.0273438","-0.0146484375","-21.375","-10.09375","-9.28125"
"1573592184179","341","-0.13769531","-0.9355469","-0.036132812","-17.90625","-7.34375","-1.25"
"1573592184179","342","-0.15722656","-0.9863281","-0.028320312","-25.71875","-10.09375","7.0"
"1573592184179","343","-0.15136719","-0.9638672","-0.044921875","-13.125","-27.53125","5.53125"
"1573592184180","344","-0.18457031","-0.9785156","-0.07324219","-14.96875","-31.5","4.3125"
"1573592184180","345","-0.21777344","-1.0029297","-0.07324219","-8.25","-30.46875","2.84375"
"1573592184180","346","-0.15917969","-0.9550781","-0.048828125","-2.15625","-33.59375","1.6875"
"1573592184180","347","-0.17089844","-0.9970703","-0.0703125","-7.40625","-36.5","5.34375"
"1573592184180","348","-0.16601562","-0.99316406","-0.07421875","-9.71875","-37.96875","1.3125"
"1573592184182","349","-0.14257812","-0.9501953","-0.06640625","-7.28125","-44.625","1.875"
"1573592184375","350","-0.13183594","-1.0136719","-0.07910156","-13.0625","-44.5625","2.0"
"1573592184375","351","-0.15136719","-1.0068359","-0.1015625","-17.65625","-41.6875","-2.53125"
"1573592184376","352","-0.14550781","-0.9863281","-0.08496094","-15.625","-45.0625","-3.5"
"1573592184376","353","-0.099609375","-0.9892578","-0.08984375","-14.3125","-49.03125","-6.59375"
"1573592184377","354","-0.12597656","-1.0673828","-0.068359375","-19.25","-48.34375","-8.3125"
"1573592184377","355","-0.16699219","-0.9902344","-0.055664062","-16.8125","-47.5625","-8.625"
"1573592184377","356","-0.1953125","-1.0234375","-0.1171875","-17.84375","-50.3125","-3.96875"
"1573592184377","357","-0.22167969","-1.1074219","-0.029296875","-18.09375","-39.0625","1.375"
"1573592184378","358","-0.2421875","-1.0283203","-0.009765625","-8.125","-37.25","-2.59375"
"1573592184378","359","-0.21875","-0.8886719","-0.02734375","7.0625","-52.5","-0.3125"
"1573592184572","360","-0.15429688","-0.93847656","-0.037109375","10.125","-45.90625","-4.46875"
"1573592184573","361","-0.13867188","-1.0107422","0.024414062","8.21875","-44.3125","-8.5625"
"1573592184573","362","-0.14746094","-0.9716797","0.08203125","5.28125","-55.375","-6.5"
"1573592184573","363","-0.23730469","-0.91503906","-0.0146484375","-11.90625","-57.375","4.5625"
"1573592184574","364","-0.23828125","-0.93652344","-0.018554688","-19.375","-38.71875","11.15625"
"1573592184574","365","-0.24707031","-0.94140625","0.052734375","-9.125","-26.9375","10.0625"
"1573592184574","366","-0.24121094","-1.0244141","0.078125","4.75","-27.90625","8.84375"
"1573592184574","367","-0.21875","-1.0498047","0.08203125","5.84375","-28.6875","5.0"
"1573592184575","368","-0.1796875","-1.0322266","0.08496094","-2.34375","-35.90625","5.21875"
"1573592184575","369","-0.19140625","-1.0234375","0.047851562","-4.46875","-40.71875","5.21875"
"1573592184774","370","-0.18359375","-0.9667969","0.043945312","-4.21875","-39.6875","1.15625"
"1573592184775","371","-0.20800781","-1.0107422","0.021484375","-1.59375","-45.1875","-1.65625"
"1573592184775","372","-0.14941406","-1.015625","0.07128906","3.65625","-47.0625","-6.84375"
"1573592184775","373","-0.15429688","-0.96777344","0.059570312","-16.4375","-51.34375","-7.34375"
"1573592184776","374","-0.16796875","-0.9980469","0.029296875","-10.21875","-45.125","-3.75"
"1573592184776","375","-0.16699219","-0.9628906","0.026367188","-8.5","-39.875","-2.59375"
"1573592184776","376","-0.14550781","-0.9189453","0.0546875","-8.9375","-41.21875","-1.71875"
"1573592184777","377","-0.18847656","-0.9658203","0.05078125","-7.78125","-35.59375","1.5"
"1573592184777","378","-0.23242188","-1.0322266","0.08691406","-1.84375","-22.28125","2.0"
"1573592184777","379","-0.24121094","-1.0351562","0.07519531","-2.34375","-20.21875","0.03125"
"1573592185172","380","-0.12597656","-1.0097656","9.765625E-4","-4.34375","-19.375","-0.5625"
"1573592185172","381","-0.12988281","-0.9980469","9.765625E-4","-4.96875","-13.875","-1.96875"
"1573592185173","382","-0.15234375","-0.9716797","0.033203125","-0.8125","-14.40625","-1.40625"
"1573592185173","383","-0.16210938","-0.9892578","0.033203125","-1.59375","-9.59375","0.28125"
"1573592185173","384","-0.12109375","-1.0087891","0.022460938","-0.5","-4.28125","0.15625"
"1573592185174","385","-0.12011719","-1.0273438","0.022460938","-4.90625","-0.75","0.28125"
"1573592185174","386","-0.10058594","-0.9921875","0.016601562","-6.78125","1.09375","1.03125"
"1573592185175","387","-0.09082031","-0.9785156","-0.024414062","-6.65625","1.625","0.53125"
"1573592185175","388","-0.087890625","-1.0195312","-0.0048828125","-10.5625","0.96875","3.03125"
"1573592185175","389","-0.0625","-0.9951172","-0.0078125","-14.96875","2.375","2.5"
"1573592185569","390","-0.07910156","-1.0390625","-0.052734375","-10.4375","-4.15625","4.125"
"1573592185569","391","-0.0390625","-1.0605469","-0.013671875","-6.5","-11.71875","-2.53125"
"1573592185569","392","-0.140625","-1.0019531","-0.0390625","-28.34375","-15.625","-5.9375"
"1573592185570","393","-0.111328125","-0.97558594","-0.091796875","-22.84375","2.59375","-2.21875"
"1573592185570","394","-0.17773438","-1.0615234","-0.060546875","-21.0625","-5.875","-4.71875"
"1573592185570","395","-0.14257812","-0.97265625","0.009765625","-13.1875","-14.1875","-7.53125"
"1573592185570","396","-0.171875","-0.9707031","9.765625E-4","-16.0625","-24.625","-7.15625"
"1573592185571","397","-0.15136719","-1.0576172","-0.01171875","-15.09375","-29.25","-3.875"
"1573592185572","398","-0.18554688","-1.0566406","-0.025390625","-27.90625","-47.125","-0.375"
"1573592185572","399","-0.26953125","-0.9345703","-0.05078125","-29.5","-40.40625","4.6875"
"1573592185968","400","-0.2763672","-0.86621094","-0.0546875","-18.6875","-32.90625","13.84375"
"1573592185968","401","-0.3310547","-0.8876953","-0.1328125","-12.21875","-26.375","20.25"
"1573592185968","402","-0.29589844","-0.9716797","-0.16601562","-2.46875","-17.96875","17.1875"
"1573592185969","403","-0.23046875","-1.0898438","-0.18847656","2.4375","-15.53125","8.84375"
"1573592185969","404","-0.20898438","-1.0332031","-0.109375","4.625","-19.84375","1.8125"
"1573592185969","405","-0.18945312","-0.90234375","-0.083984375","-0.0625","-22.0625","2.71875"
"1573592185969","406","-0.18945312","-1.0136719","-0.13183594","2.65625","-29.125","4.375"
"1573592185969","407","-0.16699219","-0.9824219","-0.09082031","-2.53125","-32.96875","-1.84375"
"1573592185970","408","-0.18261719","-0.9511719","-0.06933594","-8.875","-42.5","-2.59375"
"1573592185971","409","-0.17773438","-1.0029297","-0.08984375","-10.5625","-50.6875","-0.6875"
"1573592186365","410","-0.21875","-1.0126953","-0.09082031","-16.8125","-50.96875","-0.6875"
"1573592186366","411","-0.23046875","-0.9707031","-0.095703125","-20.84375","-50.1875","-0.3125"
"1573592186366","412","-0.23730469","-0.96777344","-0.11328125","-13.8125","-46.65625","1.8125"
"1573592186366","413","-0.22167969","-0.94921875","-0.12890625","-7.34375","-43.78125","0.65625"
"1573592186367","414","-0.18261719","-0.9482422","-0.13183594","-3.75","-42.5","1.75"
"1573592186367","415","-0.14453125","-1.0126953","-0.12988281","-7.9375","-46.21875","2.125"
"1573592186367","416","-0.13085938","-1.0322266","-0.11230469","-9.34375","-50.84375","-4.96875"
"1573592186367","417","-0.115234375","-1.0","-0.109375","-16.0","-57.03125","-7.71875"
"1573592186368","418","-0.11230469","-0.9980469","-0.14257812","-29.5625","-59.46875","-11.84375"
"1573592186368","419","-0.13867188","-1.0605469","-0.1484375","-34.5","-59.09375","-18.875"
"1573592186763","420","-0.19628906","-1.0478516","-0.13867188","-42.0625","-56.59375","-26.03125"
"1573592186764","421","-0.24121094","-0.9267578","-0.16992188","-44.4375","-54.15625","-22.15625"
"1573592186765","422","-0.26464844","-1.0761719","-0.15917969","-27.34375","-46.40625","-19.3125"
"1573592186765","423","-0.25878906","-0.96875","-0.12597656","-28.8125","-27.25","-18.875"
"1573592186765","424","-0.19433594","-1.0449219","-0.13378906","-26.75","-23.5","-21.375"
"1573592186766","425","-0.13476562","-1.0292969","-0.12792969","-23.5625","-25.15625","-17.90625"
"1573592186766","426","-0.15039062","-0.94140625","-0.15625","-16.375","-31.9375","-21.375"
"1573592186766","427","-0.15917969","-1.0214844","-0.16601562","-4.59375","-36.40625","-12.90625"
"1573592186767","428","-0.20117188","-0.9160156","-0.16015625","-8.5625","-37.0625","-7.71875"
"1573592186767","429","-0.18164062","-0.93066406","-0.16210938","-4.65625","-26.03125","-6.125"
"1573592187160","430","-0.1328125","-0.9736328","-0.16503906","-0.6875","-25.78125","-8.9375"
"1573592187160","431","-0.1015625","-0.99121094","-0.16308594","2.65625","-28.28125","-10.875"
"1573592187160","432","-0.072265625","-0.96972656","-0.16601562","1.375","-32.59375","-11.125"
"1573592187162","433","-0.095703125","-0.9970703","-0.16894531","-7.34375","-34.8125","-7.34375"
"1573592187162","434","-0.11816406","-1.0175781","-0.14453125","-3.1875","-35.0","-5.4375"
"1573592187162","435","-0.14257812","-0.9814453","-0.15136719","1.375","-31.9375","0.09375"
"1573592187162","436","-0.16503906","-0.9980469","-0.107421875","-8.9375","-31.3125","-2.28125"
"1573592187163","437","-0.13378906","-0.9628906","-0.103515625","0.46875","-31.625","-3.96875"
"1573592187163","438","-0.125","-1.0292969","-0.14941406","2.375","-39.25","-2.875"
"1573592187163","439","-0.13476562","-1.0107422","-0.10449219","1.9375","-35.96875","-5.4375"
"1573592188151","440","-0.17773438","-0.9716797","-0.14257812","-1.25","-33.53125","-3.3125"
"1573592188152","441","-0.15039062","-1.0029297","-0.17578125","4.6875","-32.90625","0.34375"
"1573592188152","442","-0.12988281","-1.0253906","-0.15234375","0.59375","-34.6875","0.09375"
"1573592188152","443","-0.12695312","-0.9658203","-0.15429688","5.96875","-33.15625","0.96875"
"1573592188153","444","-0.1484375","-1.0214844","-0.13085938","6.21875","-33.21875","5.125"
"1573592188154","445","-0.15722656","-0.9941406","-0.08496094","11.21875","-32.84375","1.375"
"1573592188154","446","-0.1328125","-0.9785156","-0.09277344","4.125","-39.25","2.5"
"1573592188155","447","-0.14746094","-1.0175781","-0.09863281","6.28125","-36.46875","-0.6875"
"1573592188155","448","-0.12695312","-1.0146484","-0.08691406","11.75","-36.75","-1.65625"
"1573592188155","449","-0.14160156","-1.0556641","-0.080078125","-0.0625","-35.40625","2.71875"
