"# PR data"
"# Start time: 20191119T194321"
"# Subject: joao"
"# Activity type: Sit to stand"
"# Correctness: Correct"
"# Notes: "
""
"timestamp","seq","accel_x","accel_y","accel_z","gyro_x","gyro_y","gyro_z"
"1574192601608","0","-0.01953125","-0.98339844","-0.28515625","1.625","2.5625","0.0"
"1574192601608","1","-0.017578125","-0.9765625","-0.2919922","1.8125","1.3125","-1.59375"
"1574192601609","2","0.001953125","-0.97558594","-0.27148438","0.96875","0.65625","-0.9375"
"1574192601609","3","-0.009765625","-0.9824219","-0.28222656","2.5","1.09375","0.90625"
"1574192601609","4","-0.0146484375","-0.9746094","-0.2841797","2.1875","2.0","1.09375"
"1574192601609","5","-0.01953125","-0.97753906","-0.2841797","0.0","1.875","0.21875"
"1574192601609","6","-0.021484375","-0.9785156","-0.27246094","-1.0625","2.1875","0.03125"
"1574192601610","7","-0.015625","-0.97753906","-0.2685547","-0.5","1.9375","0.21875"
"1574192601610","8","-0.01953125","-0.98339844","-0.26367188","-2.625","2.5","0.96875"
"1574192601610","9","-0.0234375","-0.97753906","-0.26660156","-1.0","1.5","1.3125"
"1574192602204","10","-0.020507812","-0.9873047","-0.2734375","-1.125","-0.0625","0.96875"
"1574192602205","11","-0.022460938","-0.9716797","-0.28125","-1.3125","0.65625","0.78125"
"1574192602205","12","-0.026367188","-0.9824219","-0.28027344","-0.5625","1.09375","0.46875"
"1574192602206","13","-0.0146484375","-0.9892578","-0.27148438","-3.625","1.75","0.71875"
"1574192602206","14","-0.036132812","-0.99121094","-0.26464844","-5.8125","2.71875","0.65625"
"1574192602207","15","-0.047851562","-0.9746094","-0.28027344","-4.40625","4.6875","1.5625"
"1574192602207","16","-0.049804688","-1.0058594","-0.30273438","-12.59375","4.375","-3.625"
"1574192602207","17","-0.029296875","-1.0117188","-0.26757812","-9.84375","3.9375","-6.375"
"1574192602208","18","-0.04296875","-0.9501953","-0.30078125","-6.0","3.65625","-6.1875"
"1574192602209","19","-0.02734375","-0.93652344","-0.29492188","-4.96875","2.84375","-5.9375"
"1574192602403","20","-0.009765625","-0.9873047","-0.2841797","-6.53125","1.375","-5.03125"
"1574192602404","21","-0.017578125","-0.9951172","-0.3017578","-4.15625","2.3125","-4.46875"
"1574192602404","22","0.0078125","-0.96875","-0.31835938","-1.84375","0.28125","-6.0625"
"1574192602404","23","0.017578125","-0.9609375","-0.3095703","-6.3125","1.28125","-5.375"
"1574192602404","24","0.009765625","-0.95703125","-0.3359375","-6.3125","2.4375","-4.40625"
"1574192602405","25","0.0068359375","-0.9609375","-0.32226562","-6.5","4.0","-3.8125"
"1574192602406","26","-0.001953125","-0.9736328","-0.3125","-4.78125","4.6875","-2.9375"
"1574192602406","27","-0.001953125","-0.9628906","-0.31445312","-5.6875","1.9375","-3.6875"
"1574192602406","28","-0.0068359375","-0.9658203","-0.32226562","-8.8125","1.5","-3.375"
"1574192602407","29","0.0107421875","-0.97265625","-0.3359375","-4.46875","2.125","-1.84375"
"1574192602801","30","0.0087890625","-0.9472656","-0.3330078","-2.46875","2.71875","-2.875"
"1574192602802","31","0.01171875","-0.95703125","-0.3466797","-2.59375","2.71875","-2.625"
"1574192602802","32","0.016601562","-0.9638672","-0.33203125","-4.84375","1.75","-2.75"
"1574192602802","33","0.01953125","-0.9638672","-0.3466797","-3.8125","3.03125","-1.71875"
"1574192602802","34","0.009765625","-0.9628906","-0.33691406","-3.0625","3.28125","-2.28125"
"1574192602803","35","0.0087890625","-0.9609375","-0.33398438","-5.375","2.84375","-2.59375"
"1574192602803","36","0.009765625","-0.9580078","-0.3408203","-3.3125","2.1875","-2.75"
"1574192602805","37","0.0078125","-0.96777344","-0.33398438","-1.125","3.28125","-1.71875"
"1574192602806","38","0.0068359375","-0.96191406","-0.33203125","-2.625","2.96875","-1.71875"
"1574192602806","39","0.01953125","-0.9580078","-0.3515625","-1.78125","1.9375","-2.75"
"1574192603595","40","0.0234375","-0.9560547","-0.34375","-1.34375","3.28125","-2.15625"
"1574192603595","41","0.0234375","-0.9580078","-0.34375","-1.53125","3.84375","-1.34375"
"1574192603596","42","0.028320312","-0.9580078","-0.35058594","-0.625","3.71875","-1.46875"
"1574192603596","43","0.0146484375","-0.9589844","-0.34179688","0.65625","2.78125","-1.25"
"1574192603596","44","0.022460938","-0.953125","-0.3564453","2.96875","4.125","0.71875"
"1574192603596","45","0.046875","-0.94921875","-0.36523438","17.1875","3.90625","2.71875"
"1574192603597","46","0.0546875","-0.9267578","-0.3154297","25.0625","5.0","11.9375"
"1574192603597","47","0.0087890625","-0.91308594","-0.3076172","17.1875","8.28125","20.25"
"1574192603597","48","-0.0087890625","-0.94628906","-0.31054688","17.0","-0.875","19.5625"
"1574192603598","49","-0.0048828125","-0.9628906","-0.30371094","34.21875","-4.84375","23.90625"
"1574192603795","50","-0.032226562","-0.93359375","-0.2861328","27.875","4.3125","34.09375"
"1574192603795","51","-0.032226562","-0.93066406","-0.2919922","28.65625","4.1875","33.4375"
"1574192603795","52","-0.0390625","-0.9873047","-0.2705078","41.625","4.6875","40.34375"
"1574192603796","53","-0.055664062","-0.98339844","-0.21679688","43.6875","-1.40625","44.1875"
"1574192603796","54","-0.08300781","-0.9921875","-0.14941406","50.53125","-6.96875","52.15625"
"1574192603796","55","-0.15234375","-1.0039062","-0.12402344","52.0","-13.25","57.125"
"1574192603796","56","-0.17871094","-0.9921875","-0.07421875","47.90625","-9.53125","56.25"
"1574192603797","57","-0.17871094","-1.0175781","-0.05078125","35.09375","-8.1875","49.25"
"1574192603797","58","-0.21484375","-1.1201172","-0.15625","8.96875","-13.03125","46.0"
"1574192603797","59","-0.34179688","-1.2685547","-0.049804688","56.9375","-8.875","70.46875"
"1574192603994","60","-0.5136719","-1.2021484","0.064453125","51.0","-11.0","61.5625"
"1574192603997","61","-0.68066406","-1.0966797","0.1484375","15.78125","-9.53125","38.375"
"1574192603997","62","-0.8125","-1.0263672","0.23632812","31.53125","-1.40625","33.3125"
"1574192603997","63","-0.58691406","-1.0039062","0.22558594","0.90625","-2.03125","-9.125"
"1574192603997","64","-0.3623047","-1.0566406","0.13378906","-16.5","-2.6875","-7.03125"
"1574192603998","65","-0.4296875","-1.0039062","0.15625","-8.875","1.6875","10.59375"
"1574192603998","66","-0.6152344","-1.0683594","0.14257812","6.40625","-11.6875","-11.375"
"1574192603998","67","-0.5673828","-1.0556641","0.171875","1.9375","-11.5625","-25.28125"
"1574192603998","68","-0.47558594","-1.0244141","0.107421875","-1.96875","-13.1875","-31.75"
"1574192603999","69","-0.38378906","-1.0195312","0.09277344","-3.96875","-14.78125","-50.84375"
"1574192604589","70","-0.3232422","-1.0205078","0.09472656","-10.875","-8.4375","-55.4375"
"1574192604589","71","-0.2939453","-0.9892578","0.08886719","-8.9375","-5.375","-47.875"
"1574192604590","72","-0.2529297","-0.9873047","0.056640625","-16.0625","3.9375","-45.84375"
"1574192604591","73","-0.234375","-0.85546875","0.064453125","-19.53125","8.65625","-50.84375"
"1574192604591","74","-0.17675781","-0.8222656","0.057617188","-21.625","8.15625","-56.09375"
"1574192604591","75","-0.11816406","-0.76464844","0.034179688","-34.0625","10.3125","-52.25"
"1574192604592","76","-0.060546875","-0.75","0.041015625","-51.34375","4.8125","-50.78125"
"1574192604592","77","-0.08300781","-0.796875","0.001953125","-42.5","8.65625","-49.34375"
"1574192604592","78","-0.11230469","-0.7324219","-0.0234375","-43.15625","2.1875","-46.78125"
"1574192604596","79","-0.10546875","-0.6777344","0.022460938","-37.0625","-1.34375","-37.0625"
"1574192604788","80","-0.125","-0.6660156","0.024414062","-40.125","-0.25","-29.4375"
"1574192604788","81","-0.11230469","-0.79785156","-0.0234375","-41.15625","-1.0625","-19.3125"
"1574192604788","82","-0.12597656","-1.0458984","-0.091796875","-42.0","2.25","-9.59375"
"1574192604789","83","-0.0625","-1.0722656","-0.18261719","-26.3125","-1.1875","-10.15625"
"1574192604789","84","-0.00390625","-1.0097656","-0.16796875","-12.71875","7.75","-8.9375"
"1574192604791","85","-0.016601562","-0.9580078","-0.15722656","-14.0","16.78125","-6.3125"
"1574192604791","86","-0.044921875","-0.953125","-0.18261719","-18.8125","14.4375","-2.9375"
"1574192604791","87","0.0","-0.9550781","-0.18164062","-12.28125","18.1875","-3.875"
"1574192604792","88","0.045898438","-0.9765625","-0.17089844","-7.40625","13.78125","-8.0"
"1574192604792","89","0.022460938","-1.0195312","-0.16015625","-0.375","14.5625","-1.90625"
"1574192605187","90","-0.030273438","-1.0419922","-0.1953125","-6.84375","10.0","1.875"
"1574192605187","91","0.01171875","-0.9794922","-0.20605469","-4.34375","5.96875","-4.65625"
"1574192605188","92","0.06347656","-0.9609375","-0.18652344","-4.59375","7.1875","-3.0625"
"1574192605188","93","0.061523438","-1.0048828","-0.20605469","-8.3125","7.4375","-1.90625"
"1574192605188","94","0.043945312","-1.0087891","-0.22460938","-2.53125","4.5","-3.375"
"1574192605188","95","0.02734375","-0.98046875","-0.18554688","-1.25","1.9375","-1.59375"
"1574192605189","96","0.028320312","-0.9746094","-0.1953125","1.6875","-1.3125","1.03125"
"1574192605190","97","0.016601562","-0.9707031","-0.19042969","3.9375","-2.8125","2.1875"
"1574192605190","98","-9.765625E-4","-0.9794922","-0.19042969","5.40625","-3.8125","5.78125"
"1574192605191","99","-0.026367188","-0.9794922","-0.17382812","13.34375","-1.46875","11.15625"
"1574192605783","100","-0.043945312","-0.9667969","-0.1171875","22.5625","-1.65625","19.75"
"1574192605784","101","-0.072265625","-0.9277344","-0.076171875","27.28125","2.0625","29.71875"
"1574192605784","102","-0.140625","-0.8769531","-0.0703125","36.3125","7.0","35.9375"
"1574192605784","103","-0.18164062","-0.7939453","-0.052734375","50.8125","12.5","42.03125"
"1574192605784","104","-0.1953125","-0.68359375","0.0048828125","55.34375","11.53125","49.0625"
"1574192605785","105","-0.09375","-0.59277344","0.01171875","53.28125","-3.75","47.65625"
"1574192605785","106","-0.045898438","-0.5625","0.01171875","89.09375","-24.4375","54.1875"
"1574192605785","107","-0.17871094","-0.7128906","0.08105469","67.5625","-3.1875","57.59375"
"1574192605785","108","-0.19042969","-0.7324219","0.09765625","59.0625","-11.1875","48.03125"
"1574192605787","109","-0.16308594","-0.74902344","0.07519531","49.96875","-33.53125","41.5"
"1574192605981","110","-0.24609375","-0.90527344","0.13085938","11.09375","-12.96875","34.03125"
"1574192605981","111","-0.42773438","-1.1611328","0.0390625","-17.15625","15.65625","45.46875"
"1574192605982","112","-0.3486328","-0.90722656","-0.0068359375","-14.3125","-7.78125","39.34375"
"1574192605982","113","-0.21191406","-0.8984375","0.2783203","75.53125","4.3125","-12.40625"
"1574192605982","114","-0.22167969","-1.1474609","0.28320312","-40.90625","28.5","29.28125"
"1574192605983","115","-0.66308594","-1.0478516","0.26953125","-25.96875","21.59375","44.34375"
"1574192605983","116","-0.57714844","-1.1630859","0.17480469","19.40625","2.78125","-9.15625"
"1574192605983","117","-0.40429688","-1.1621094","0.23242188","-21.5","10.53125","-27.3125"
"1574192605983","118","-0.49023438","-1.2285156","0.27148438","-32.1875","17.0","-20.53125"
"1574192605984","119","-0.56933594","-1.4404297","0.234375","-78.875","25.6875","-33.28125"
"1574192606379","120","-0.5175781","-1.5488281","0.13574219","-63.625","4.6875","-48.125"
"1574192606381","121","-0.29296875","-1.2587891","0.061523438","-49.46875","-2.40625","-73.5"
"1574192606381","122","-0.059570312","-1.0380859","-0.078125","-66.53125","8.53125","-73.8125"
"1574192606382","123","-0.14746094","-0.9140625","-0.15722656","-59.78125","29.40625","-44.5625"
"1574192606382","124","-0.23730469","-0.8457031","-0.11230469","-5.5","25.9375","-45.90625"
"1574192606382","125","-0.07128906","-0.8251953","-0.18261719","-42.8125","3.40625","-66.53125"
"1574192606382","126","0.020507812","-0.8847656","-0.20410156","-66.0","8.96875","-45.4375"
"1574192606383","127","-0.060546875","-1.0498047","-0.20898438","-37.375","14.09375","-16.5625"
"1574192606383","128","-0.09082031","-1.0869141","-0.25683594","-28.75","4.625","-15.53125"
"1574192606383","129","0.001953125","-1.0449219","-0.25878906","-18.375","-4.65625","-23.15625"
"1574192606974","130","0.036132812","-0.98046875","-0.2783203","-13.4375","-0.625","-19.1875"
"1574192606975","131","0.046875","-0.9013672","-0.31835938","-12.84375","5.1875","-16.375"
"1574192606975","132","0.053710938","-0.921875","-0.3154297","-19.5","10.96875","-16.375"
"1574192606977","133","0.07910156","-0.9423828","-0.3203125","-11.6875","7.1875","-15.34375"
"1574192606977","134","0.083984375","-0.96484375","-0.31152344","-2.8125","5.40625","-8.625"
"1574192606977","135","0.041992188","-0.9814453","-0.29296875","2.84375","10.25","-1.59375"
"1574192606978","136","0.0546875","-0.94921875","-0.30273438","5.21875","1.3125","-1.25"
"1574192606978","137","0.09082031","-0.9238281","-0.3076172","10.46875","1.09375","4.875"
"1574192606978","138","0.06542969","-0.9472656","-0.29589844","21.28125","2.96875","15.0625"
"1574192606978","139","0.013671875","-0.9345703","-0.26464844","33.1875","4.8125","21.34375"
"1574192607173","140","0.005859375","-0.92871094","-0.24511719","39.15625","3.53125","26.0"
"1574192607173","141","0.0078125","-0.9316406","-0.20507812","51.5625","-1.34375","32.21875"
"1574192607173","142","-0.0087890625","-0.95214844","-0.18066406","65.71875","0.0","41.625"
"1574192607173","143","-0.0703125","-0.9511719","-0.11621094","78.0","0.28125","49.3125"
"1574192607174","144","-0.06738281","-0.96777344","-0.0546875","87.625","-6.78125","55.21875"
"1574192607175","145","-0.08984375","-0.9667969","-0.0107421875","94.84375","-6.96875","62.0625"
"1574192607175","146","-0.15234375","-1.0283203","0.034179688","82.125","-11.5","61.15625"
"1574192607176","147","-0.16015625","-1.1152344","0.123046875","51.1875","-9.84375","53.5"
"1574192607176","148","-0.22460938","-1.3212891","0.14160156","4.0625","0.71875","50.40625"
"1574192607176","149","-0.44628906","-1.4394531","0.4404297","73.84375","-1.34375","67.5"
"1574192607571","150","-0.6582031","-1.3457031","0.4580078","33.375","11.8125","47.15625"
"1574192607571","151","-0.6513672","-1.0927734","0.37402344","-71.625","-4.71875","-34.4375"
"1574192607571","152","-0.35058594","-1.0478516","0.32421875","-30.28125","-0.0625","-38.78125"
"1574192607572","153","-0.3173828","-1.0576172","0.25","-52.3125","23.84375","8.46875"
"1574192607572","154","-0.4716797","-1.0517578","0.18066406","-37.5625","23.46875","-11.5625"
"1574192607572","155","-0.39746094","-1.0166016","0.17578125","6.15625","15.0625","-37.3125"
"1574192607572","156","-0.35839844","-1.0458984","0.16894531","-17.15625","0.96875","-11.0"
"1574192607574","157","-0.41015625","-1.1171875","0.12207031","-13.25","8.09375","0.53125"
"1574192607574","158","-0.37304688","-1.0634766","0.072265625","11.03125","8.46875","-26.5625"
"1574192607574","159","-0.1953125","-0.9589844","0.076171875","-2.46875","1.09375","-40.46875"
"1574192607968","160","-0.15039062","-0.87890625","0.11328125","-19.125","-4.90625","-28.6875"
"1574192607969","161","-0.15722656","-0.7324219","0.11816406","-20.28125","-9.0","-41.34375"
"1574192607971","162","-0.16503906","-0.74121094","0.07519531","-41.46875","-2.09375","-52.8125"
"1574192607972","163","-0.10253906","-0.7470703","0.048828125","-55.25","-8.375","-51.46875"
"1574192607972","164","-0.08984375","-0.7832031","0.048828125","-46.59375","-10.8125","-46.71875"
"1574192607972","165","-0.12597656","-0.6464844","0.03125","-44.875","-5.75","-58.90625"
"1574192607973","166","-0.1171875","-0.57714844","0.055664062","-32.5625","-3.5","-56.09375"
"1574192607973","167","-0.12011719","-0.60058594","0.046875","-42.75","-5.375","-36.21875"
"1574192607973","168","-0.10253906","-0.80859375","0.001953125","-45.3125","-5.09375","-17.84375"
"1574192607974","169","-0.045898438","-1.0927734","-0.10546875","-35.28125","0.65625","-9.96875"
"1574192608367","170","-0.056640625","-1.0419922","-0.13964844","-19.0625","4.125","-17.65625"
"1574192608367","171","-0.041015625","-0.95214844","-0.068359375","-14.65625","1.9375","-19.59375"
"1574192608367","172","0.038085938","-0.94921875","-0.091796875","-18.3125","-1.3125","-11.3125"
"1574192608368","173","0.033203125","-1.0166016","-0.17382812","-20.875","1.5","-5.8125"
"1574192608368","174","-0.025390625","-1.0039062","-0.23046875","-10.5625","6.09375","-8.375"
"1574192608368","175","-0.0048828125","-0.98828125","-0.16503906","-12.03125","6.15625","-5.03125"
"1574192608368","176","0.046875","-0.9863281","-0.14453125","-11.4375","8.09375","0.09375"
"1574192608369","177","0.037109375","-0.9765625","-0.18945312","-9.40625","7.5","-4.15625"
"1574192608369","178","0.046875","-0.9980469","-0.19335938","-4.40625","9.3125","-0.125"
"1574192608369","179","0.01953125","-0.9873047","-0.18457031","-3.125","2.65625","1.5625"
"1574192608764","180","0.01953125","-0.9892578","-0.17480469","-4.53125","2.375","-1.25"
"1574192608766","181","0.032226562","-1.0029297","-0.17480469","-0.1875","8.78125","3.90625"
"1574192608767","182","0.02734375","-1.0146484","-0.13085938","13.53125","5.40625","9.5"
"1574192608767","183","-0.032226562","-0.9580078","-0.083984375","22.03125","6.03125","16.53125"
"1574192608767","184","-0.08886719","-0.88378906","-0.049804688","25.25","0.65625","28.4375"
"1574192608767","185","-0.13378906","-0.79589844","-0.0107421875","40.28125","-5.15625","35.625"
"1574192608768","186","-0.16210938","-0.8359375","0.018554688","49.59375","-0.5","48.8125"
"1574192608768","187","-0.13476562","-0.7421875","0.06347656","65.78125","0.28125","58.6875"
"1574192608768","188","-0.12011719","-0.53222656","0.095703125","98.0","-20.03125","63.46875"
"1574192608768","189","-0.1640625","-0.49609375","0.07714844","91.34375","-24.0625","70.71875"
"1574192609160","190","-0.29003906","-0.5185547","0.06640625","72.75","-1.84375","75.1875"
"1574192609161","191","-0.32714844","-0.6269531","0.123046875","48.5625","32.53125","67.625"
"1574192609161","192","-0.21679688","-0.8125","0.12890625","15.96875","4.6875","52.40625"
"1574192609162","193","-0.20605469","-1.0458984","0.05078125","-7.34375","-3.125","40.15625"
"1574192609162","194","-0.10253906","-1.1884766","0.068359375","-12.53125","0.59375","28.0625"
"1574192609163","195","-0.36328125","-1.0058594","0.21777344","60.84375","0.40625","40.9375"
"1574192609163","196","-0.61816406","-0.8935547","0.20214844","60.40625","-3.3125","78.90625"
"1574192609163","197","-0.6875","-0.99316406","0.25","-36.5","22.75","30.125"
"1574192609163","198","-0.5683594","-1.1855469","0.40820312","23.125","-5.75","-5.3125"
"1574192609164","199","-0.4736328","-1.2666016","0.35253906","23.96875","-16.8125","-23.28125"
"1574192609559","200","-0.50390625","-1.0244141","0.22070312","-12.78125","11.53125","-19.1875"
"1574192609560","201","-0.59765625","-1.0683594","0.3466797","-35.71875","11.34375","-35.84375"
"1574192609560","202","-0.51953125","-1.296875","0.37695312","-64.53125","3.9375","-68.1875"
"1574192609560","203","-0.4873047","-1.3339844","0.2548828","-55.5625","21.78125","-52.6875"
"1574192609560","204","-0.33007812","-1.2119141","0.23632812","-67.28125","17.6875","-71.65625"
"1574192609561","205","-0.24707031","-0.9902344","0.046875","-47.4375","10.65625","-66.71875"
"1574192609562","206","-0.19433594","-0.93847656","0.00390625","-19.375","4.5","-57.5"
"1574192609562","207","-0.09277344","-0.9423828","-0.10644531","-45.4375","3.9375","-44.9375"
"1574192609562","208","-0.08984375","-1.0068359","-0.076171875","-34.5","6.875","-33.28125"
"1574192609562","209","-0.07910156","-1.0253906","-0.08203125","-45.3125","-2.40625","-28.09375"
"1574192610352","210","-0.07128906","-1.0351562","-0.13085938","-57.875","-4.03125","-29.8125"
"1574192610352","211","-0.052734375","-1.0429688","-0.18164062","-59.46875","-5.9375","-32.375"
"1574192610352","212","-0.001953125","-1.0126953","-0.20605469","-47.75","0.21875","-31.4375"
"1574192610353","213","0.028320312","-0.9746094","-0.22460938","-38.03125","-1.25","-26.6875"
"1574192610353","214","0.03125","-0.953125","-0.26660156","-32.3125","-0.9375","-22.125"
"1574192610353","215","-0.022460938","-0.9345703","-0.26660156","-7.53125","4.25","-12.03125"
"1574192610353","216","-0.038085938","-0.9238281","-0.24316406","4.5625","2.71875","-4.34375"
"1574192610356","217","-0.018554688","-0.92871094","-0.20703125","2.25","2.0625","5.34375"
"1574192610357","218","-0.03515625","-0.94433594","-0.21875","19.9375","-0.6875","13.96875"
"1574192610357","219","-0.018554688","-0.9501953","-0.20898438","32.21875","-2.75","20.375"
"1574192610357","220","-0.022460938","-0.9501953","-0.17773438","49.125","-3.75","26.40625"
"1574192610358","221","-0.06640625","-0.94921875","-0.13769531","63.8125","-1.0","35.75"
"1574192610358","222","-0.11035156","-0.93066406","-0.12011719","70.34375","-1.3125","40.28125"
"1574192610358","223","-0.115234375","-0.9140625","-0.057617188","86.71875","1.6875","44.59375"
"1574192610358","224","-0.13378906","-0.9472656","-0.0048828125","101.59375","3.03125","54.0625"
"1574192610359","225","-0.13671875","-0.8886719","0.095703125","113.15625","-0.8125","57.28125"
"1574192610359","226","-0.18261719","-0.95214844","0.1640625","111.5","-2.75","65.78125"
"1574192610359","227","-0.2861328","-0.9785156","0.2783203","117.125","-1.65625","69.9375"
"1574192610359","228","-0.36914062","-1.1289062","0.3720703","92.09375","3.78125","62.125"
"1574192610360","229","-0.4580078","-1.3271484","0.74609375","155.625","-15.46875","60.40625"
"1574192610751","230","-0.46875","-0.9345703","0.6972656","130.125","-19.71875","54.6875"
"1574192610752","231","-0.6230469","-0.8876953","0.7841797","23.71875","-4.21875","36.1875"
"1574192610752","232","-0.71777344","-0.94433594","0.8339844","-106.875","44.46875","-16.5"
"1574192610752","233","-0.5234375","-0.9423828","0.7421875","-115.3125","36.375","-27.3125"
"1574192610752","234","-0.5136719","-0.96972656","0.5498047","-86.8125","39.28125","-4.59375"
"1574192610753","235","-0.5859375","-0.9716797","0.47753906","-89.625","42.03125","-9.125"
"1574192610753","236","-0.49902344","-0.953125","0.359375","-73.3125","22.625","-39.5"
"1574192610753","237","-0.37597656","-0.90722656","0.29296875","-21.125","8.78125","-29.75"
"1574192610753","238","-0.4482422","-1.0507812","0.2998047","-18.4375","21.53125","-10.5625"
"1574192610754","239","-0.5097656","-1.0009766","0.21484375","-40.65625","7.84375","-38.15625"
"1574192611148","240","-0.3544922","-0.91308594","0.1171875","-1.78125","-9.65625","-49.5625"
"1574192611149","241","-0.17773438","-0.8613281","0.13574219","-13.1875","-6.84375","-42.8125"
"1574192611149","242","-0.14550781","-0.7324219","0.14746094","-41.03125","5.28125","-51.15625"
"1574192611149","243","-0.13867188","-0.6425781","0.12597656","-56.34375","4.0625","-69.65625"
"1574192611150","244","-0.15332031","-0.6640625","0.09277344","-68.9375","-2.6875","-72.53125"
"1574192611150","245","-0.16601562","-0.63964844","0.078125","-79.46875","-2.9375","-68.875"
"1574192611150","246","-0.17382812","-0.6328125","0.14648438","-64.03125","-9.34375","-59.90625"
"1574192611151","247","-0.15136719","-0.6484375","0.09277344","-73.1875","-4.53125","-64.28125"
"1574192611151","248","-0.19628906","-0.7597656","0.0390625","-59.21875","-6.125","-49.75"
"1574192611151","249","-0.19433594","-0.93652344","-0.017578125","-58.125","-4.21875","-25.90625"
"1574192611942","250","-0.16210938","-1.0429688","-0.109375","-42.6875","-0.9375","-20.15625"
"1574192611942","251","-0.05078125","-0.9814453","-0.08203125","-14.1875","1.15625","-25.59375"
"1574192611942","252","0.032226562","-0.9746094","-0.046875","-15.40625","3.65625","-19.84375"
"1574192611943","253","-0.052734375","-0.91503906","-0.06640625","-9.53125","-3.0","-8.125"
"1574192611943","254","-0.13671875","-0.9316406","-0.119140625","-2.625","-5.4375","0.46875"
"1574192611943","255","-0.09082031","-1.0166016","-0.13964844","-10.21875","1.8125","6.34375"
"1574192611944","256","-0.06347656","-0.9902344","-0.08300781","6.46875","8.34375","8.59375"
"1574192611944","257","-0.078125","-0.93066406","-0.059570312","16.34375","-0.8125","10.71875"
"1574192611944","258","-0.07910156","-0.8642578","-0.032226562","31.125","-6.125","24.65625"
"1574192611944","259","-0.14746094","-0.79003906","0.0546875","48.5625","-6.84375","43.4375"
"1574192612138","260","-0.1953125","-0.7138672","0.072265625","54.0","1.09375","53.21875"
"1574192612139","261","-0.17675781","-0.48046875","0.07324219","90.8125","-16.4375","58.40625"
"1574192612139","262","-0.14160156","-0.4404297","0.08496094","101.4375","-18.21875","72.90625"
"1574192612139","263","-0.25585938","-0.52734375","0.111328125","63.53125","-2.03125","85.4375"
"1574192612139","264","-0.34472656","-0.72265625","0.14453125","41.96875","2.375","75.3125"
"1574192612141","265","-0.25","-0.79589844","0.01953125","70.96875","1.75","60.28125"
"1574192612141","266","-0.07519531","-0.79296875","0.060546875","38.125","-13.3125","46.6875"
"1574192612141","267","-0.31347656","-1.0185547","0.16601562","-36.75","20.0625","27.75"
"1574192612142","268","-0.5439453","-1.0224609","0.21582031","8.84375","17.1875","49.71875"
"1574192612142","269","-0.59375","-0.9921875","0.12695312","24.59375","14.375","38.875"
"1574192612340","270","-0.4013672","-0.9638672","0.4404297","53.4375","2.65625","10.375"
"1574192612341","271","-0.5517578","-1.2021484","0.42089844","9.8125","7.125","8.71875"
"1574192612341","272","-0.59472656","-1.140625","0.2607422","24.75","-1.71875","-5.6875"
"1574192612341","273","-0.60253906","-1.2431641","0.38378906","-12.21875","1.625","-40.78125"
"1574192612341","274","-0.6201172","-1.4150391","0.48632812","-43.09375","3.15625","-66.84375"
"1574192612342","275","-0.48828125","-1.4326172","0.4765625","-63.25","-5.21875","-80.8125"
"1574192612342","276","-0.3876953","-1.3056641","0.26171875","-91.875","8.40625","-72.15625"
"1574192612344","277","-0.26660156","-1.0283203","0.06933594","-63.75","-2.46875","-72.03125"
"1574192612344","278","0.0107421875","-0.9921875","-0.068359375","-81.375","-6.78125","-79.0"
"1574192612344","279","-0.14941406","-0.96875","-0.061523438","-43.84375","20.90625","-60.25"
"1574192612739","280","-0.111328125","-0.85253906","-0.15039062","-54.65625","-1.59375","-69.21875"
"1574192612740","281","0.12597656","-0.97265625","-0.2548828","-93.59375","-7.65625","-65.1875"
"1574192612740","282","0.02734375","-1.0537109","-0.12890625","-64.84375","16.84375","-33.65625"
"1574192612740","283","0.0234375","-1.0683594","-0.14746094","-47.25","-1.40625","-26.375"
"1574192612740","284","0.125","-1.0146484","-0.2734375","-54.28125","-11.0","-36.09375"
"1574192612741","285","0.1484375","-0.9716797","-0.34179688","-25.84375","-3.125","-25.65625"
"1574192612741","286","0.11230469","-0.9248047","-0.29101562","-11.5625","9.4375","-14.34375"
"1574192612741","287","0.09375","-0.9277344","-0.33007812","-7.46875","8.40625","-7.09375"
"1574192612741","288","0.055664062","-0.9033203","-0.3154297","-0.8125","13.65625","4.0"
"1574192612743","289","0.033203125","-0.88183594","-0.2783203","22.3125","13.15625","15.3125"
"1574192613136","290","0.060546875","-0.8876953","-0.25390625","29.09375","8.46875","25.0625"
"1574192613136","291","0.07910156","-0.92578125","-0.23339844","42.96875","9.5","32.9375"
"1574192613137","292","0.04296875","-0.93359375","-0.15527344","69.4375","6.46875","42.40625"
"1574192613137","293","0.0","-0.90625","-0.14746094","81.09375","1.3125","51.3125"
"1574192613137","294","-0.036132812","-0.9355469","-0.07324219","103.1875","0.40625","66.40625"
"1574192613137","295","-0.10644531","-0.9189453","0.015625","125.84375","9.375","80.375"
"1574192613138","296","-0.1328125","-0.9589844","0.09863281","135.71875","8.15625","90.9375"
"1574192613138","297","-0.22070312","-0.9873047","0.20996094","131.5","14.875","92.75"
"1574192613138","298","-0.2890625","-0.9892578","0.33496094","131.09375","7.25","87.03125"
"1574192613138","299","-0.3935547","-1.0068359","0.43164062","119.5","-3.5","80.90625"
"1574192613929","300","-0.4814453","-1.1357422","0.5654297","96.46875","-15.875","64.625"
"1574192613931","301","-0.44921875","-1.0878906","0.9736328","247.84375","-67.46875","66.9375"
"1574192613932","302","-0.6933594","-0.78222656","0.8330078","39.65625","4.1875","72.375"
"1574192613932","303","-0.9267578","-1.0126953","0.9511719","-103.53125","35.15625","-0.125"
"1574192613932","304","-0.6015625","-1.0244141","0.8955078","-210.84375","72.0625","-78.3125"
"1574192613932","305","-0.47851562","-0.9189453","0.63183594","-145.65625","48.09375","-20.59375"
"1574192613933","306","-0.5986328","-0.8857422","0.47558594","-121.46875","69.0625","-20.9375"
"1574192613933","307","-0.6035156","-0.828125","0.32421875","-89.8125","53.34375","-75.46875"
"1574192613933","308","-0.39746094","-0.9658203","0.1640625","-39.03125","7.0625","-67.9375"
"1574192613934","309","-0.3486328","-1.0751953","0.14550781","-42.125","10.1875","-31.8125"
"1574192614326","310","-0.4091797","-1.0048828","0.12695312","-31.15625","24.21875","-43.09375"
"1574192614327","311","-0.33007812","-0.88378906","0.025390625","6.21875","6.15625","-56.96875"
"1574192614327","312","-0.2265625","-0.7871094","0.040039062","-22.28125","-4.96875","-58.84375"
"1574192614328","313","-0.15332031","-0.64941406","0.087890625","-47.3125","1.15625","-62.625"
"1574192614329","314","-0.08984375","-0.59375","0.11230469","-50.375","-9.28125","-69.21875"
"1574192614330","315","-0.12597656","-0.609375","0.0390625","-75.75","-4.96875","-71.4375"
"1574192614330","316","-0.15527344","-0.6279297","0.068359375","-77.84375","-16.4375","-66.0625"
"1574192614330","317","-0.16503906","-0.6689453","0.057617188","-52.125","-9.34375","-55.4375"
"1574192614331","318","-0.12792969","-0.68652344","0.03515625","-47.625","-2.40625","-45.1875"
"1574192614331","319","-0.12011719","-0.84765625","0.001953125","-50.78125","-6.0625","-35.84375"
"1574192614332","320","-0.07910156","-0.9707031","-0.064453125","-40.65625","-4.28125","-18.03125"
"1574192614332","321","-0.099609375","-1.0146484","-0.095703125","-15.46875","-5.875","-22.59375"
"1574192614332","322","-0.06347656","-0.9785156","-0.09277344","-7.59375","3.28125","-19.5"
"1574192614332","323","-0.0146484375","-0.95703125","-0.11425781","-13.8125","-4.53125","-13.0625"
"1574192614333","324","-0.033203125","-0.9501953","-0.119140625","-0.4375","0.21875","-4.84375"
"1574192614333","325","-0.02734375","-0.99609375","-0.10253906","-2.09375","5.0","-0.9375"
"1574192614333","326","-0.041992188","-0.9902344","-0.087890625","10.0625","5.34375","6.5625"
"1574192614334","327","-0.06640625","-0.9121094","-0.046875","23.375","1.375","11.03125"
"1574192614334","328","-0.0703125","-0.88183594","-0.00390625","26.78125","4.0","21.90625"
"1574192614334","329","-0.13378906","-0.8701172","0.024414062","33.25","5.40625","34.46875"
"1574192614727","330","-0.15332031","-0.8125","0.056640625","46.125","2.25","44.34375"
"1574192614727","331","-0.15625","-0.6044922","0.059570312","77.125","-8.25","55.34375"
"1574192614727","332","-0.19921875","-0.4892578","0.06933594","78.71875","4.6875","74.15625"
"1574192614728","333","-0.24511719","-0.48339844","0.095703125","61.375","24.09375","81.34375"
"1574192614728","334","-0.16308594","-0.5439453","0.056640625","61.5","17.1875","78.59375"
"1574192614728","335","-0.08105469","-0.6533203","0.080078125","68.90625","13.84375","70.65625"
"1574192614728","336","-0.17480469","-0.8466797","0.11328125","37.28125","16.9375","67.78125"
"1574192614730","337","-0.4033203","-0.85058594","0.1875","20.5","-3.8125","52.34375"
"1574192614730","338","-0.35742188","-0.9238281","0.20703125","30.375","7.125","41.4375"
"1574192614730","339","-0.4267578","-0.9873047","0.22265625","27.03125","-7.65625","46.4375"
"1574192615124","340","-0.5761719","-1.125","0.3388672","99.34375","-13.75","40.6875"
"1574192615124","341","-0.6191406","-1.1210938","0.6855469","106.6875","-13.625","35.8125"
"1574192615124","342","-0.6738281","-1.2197266","0.4873047","45.53125","-9.40625","-6.375"
"1574192615124","343","-0.51464844","-1.1103516","0.56152344","39.84375","-21.75","-46.84375"
"1574192615125","344","-0.60058594","-1.140625","0.5361328","-39.625","-1.0625","-55.5"
"1574192615125","345","-0.52734375","-1.1298828","0.57421875","-57.75","-6.25","-76.3125"
"1574192615125","346","-0.37109375","-1.1640625","0.4189453","-99.5","3.53125","-73.3125"
"1574192615125","347","-0.38183594","-1.203125","0.35351562","-99.75","14.9375","-75.40625"
"1574192615126","348","-0.2861328","-1.0400391","0.17578125","-99.6875","3.40625","-84.125"
"1574192615127","349","-0.13769531","-1.0078125","0.087890625","-71.4375","13.65625","-68.625"
"1574192615720","350","-0.048828125","-0.94628906","-0.03125","-76.5","10.0","-69.53125"
"1574192615721","351","0.043945312","-0.91308594","-0.09667969","-81.6875","1.15625","-66.3125"
"1574192615721","352","0.10253906","-0.95410156","-0.059570312","-56.71875","1.4375","-48.96875"
"1574192615722","353","0.07910156","-1.0507812","-0.052734375","-49.8125","-0.0625","-28.875"
"1574192615722","354","0.0703125","-1.03125","-0.109375","-45.5625","-2.09375","-22.15625"
"1574192615722","355","0.08105469","-1.0195312","-0.15527344","-41.65625","0.0","-21.875"
"1574192615722","356","0.095703125","-0.9589844","-0.20117188","-28.46875","3.84375","-20.21875"
"1574192615723","357","0.10644531","-0.9277344","-0.20898438","-13.03125","3.53125","-11.3125"
"1574192615723","358","0.087890625","-0.94140625","-0.22558594","-2.59375","5.34375","6.8125"
"1574192615723","359","0.040039062","-0.9160156","-0.22363281","13.96875","12.1875","26.09375"
"1574192615918","360","0.045898438","-0.9189453","-0.19433594","30.5","9.25","34.96875"
"1574192615920","361","0.015625","-0.93359375","-0.16210938","51.4375","7.8125","49.0"
"1574192615920","362","-0.0126953125","-0.9277344","-0.109375","75.375","5.0625","64.625"
"1574192615921","363","-0.0546875","-0.8769531","-0.047851562","104.15625","4.6875","80.96875"
"1574192615921","364","-0.10839844","-0.9482422","0.029296875","125.28125","1.625","93.96875"
"1574192615921","365","-0.13085938","-1.0068359","0.14648438","118.46875","2.96875","88.96875"
"1574192615922","366","-0.20898438","-1.1513672","0.17675781","88.78125","4.4375","85.4375"
"1574192615922","367","-0.328125","-1.3134766","0.27148438","46.5625","-0.5625","71.6875"
"1574192615922","368","-0.5878906","-1.484375","0.6699219","188.875","-7.9375","92.09375"
"1574192615922","369","-0.5888672","-1.2431641","0.609375","-20.28125","30.25","52.71875"
"1574192616317","370","-0.97753906","-1.2050781","0.67578125","-125.0","4.875","-47.75"
"1574192616318","371","-0.36523438","-1.0429688","0.6123047","-148.03125","12.3125","-96.8125"
"1574192616318","372","-0.3330078","-1.0253906","0.33007812","-89.0","-10.5625","4.4375"
"1574192616319","373","-0.5703125","-1.0107422","0.171875","-65.5","3.9375","23.53125"
"1574192616320","374","-0.57910156","-0.98535156","0.15625","-70.4375","23.53125","-73.875"
"1574192616320","375","-0.21289062","-1.1191406","0.125","-17.78125","-3.125","-72.34375"
"1574192616320","376","-0.21875","-1.0976562","0.041015625","-8.8125","-11.78125","-21.5625"
"1574192616321","377","-0.29589844","-0.8964844","0.05859375","10.96875","-1.25","-42.25"
"1574192616321","378","-0.22460938","-0.71875","0.033203125","-21.9375","12.6875","-69.90625"
"1574192616321","379","-0.11328125","-0.6513672","0.015625","-72.34375","-6.125","-62.5625"
"1574192616716","380","-0.12695312","-0.7207031","0.078125","-77.78125","5.28125","-49.9375"
"1574192616716","381","-0.0859375","-0.76464844","-0.015625","-61.34375","2.78125","-50.96875"
"1574192616717","382","-0.107421875","-0.74121094","-0.12011719","-61.0625","-5.5","-59.46875"
"1574192616717","383","-0.091796875","-0.6542969","-0.05078125","-57.5625","1.4375","-60.5"
"1574192616717","384","-0.0546875","-0.6123047","0.041992188","-48.90625","-16.875","-55.625"
"1574192616719","385","-0.083984375","-0.66796875","0.0234375","-58.78125","-21.375","-46.9375"
"1574192616719","386","-0.099609375","-0.89941406","-0.14550781","-45.3125","-13.375","-25.40625"
"1574192616719","387","-0.11230469","-1.0917969","-0.22070312","-34.0625","-1.90625","-8.6875"
"1574192616720","388","-0.017578125","-0.98828125","-0.23144531","-1.59375","3.15625","-15.9375"
"1574192616720","389","0.103515625","-0.89453125","-0.15625","1.09375","-4.53125","-22.125"
"1574192617310","390","0.087890625","-0.93066406","-0.13769531","3.15625","-6.78125","-5.625"
"1574192617311","391","-0.02734375","-0.96875","-0.2109375","10.53125","-2.8125","7.90625"
"1574192617311","392","-0.087890625","-1.0087891","-0.20898438","7.90625","2.25","12.0625"
"1574192617312","393","-0.064453125","-0.96484375","-0.13769531","18.53125","6.5625","15.71875"
"1574192617312","394","-0.0068359375","-0.8857422","-0.046875","33.25","3.46875","24.34375"
"1574192617312","395","-0.06738281","-0.8203125","-0.022460938","45.5625","0.03125","36.375"
"1574192617312","396","-0.16992188","-0.77441406","0.009765625","59.875","6.09375","49.90625"
"1574192617314","397","-0.20214844","-0.6621094","0.047851562","74.03125","5.78125","61.25"
"1574192617315","398","-0.14257812","-0.45898438","0.049804688","102.53125","-11.25","72.375"
"1574192617315","399","-0.09667969","-0.4326172","0.076171875","108.25","-9.34375","84.875"
"1574192617511","400","-0.203125","-0.56640625","0.09082031","70.3125","13.96875","96.34375"
"1574192617511","401","-0.33984375","-0.71484375","0.0859375","39.0625","10.90625","86.53125"
"1574192617512","402","-0.30859375","-0.9238281","0.053710938","-9.59375","14.5625","61.5625"
"1574192617512","403","-0.16113281","-0.94140625","-0.07519531","-7.21875","-1.0","37.28125"
"1574192617512","404","-0.2685547","-0.9785156","0.21679688","48.3125","15.0625","44.59375"
"1574192617512","405","-0.46875","-1.1044922","0.25097656","52.46875","7.8125","50.15625"
"1574192617513","406","-0.53125","-1.0380859","0.37597656","114.0","-26.9375","29.90625"
"1574192617513","407","-0.61035156","-1.2392578","0.39746094","91.53125","2.5625","49.0"
"1574192617513","408","-0.61621094","-1.109375","0.5292969","102.71875","-13.5","13.59375"
"1574192617514","409","-0.47753906","-1.0634766","0.56640625","45.625","-27.40625","-38.90625"
"1574192618102","410","-0.56152344","-0.98828125","0.56640625","-12.78125","-7.65625","-38.40625"
"1574192618103","411","-0.59277344","-1.0820312","0.5498047","-74.34375","-4.96875","-56.21875"
"1574192618103","412","-0.50878906","-1.2832031","0.5595703","-110.125","0.40625","-85.34375"
"1574192618103","413","-0.42871094","-1.2841797","0.40429688","-147.28125","12.5625","-90.53125"
"1574192618103","414","-0.3125","-1.0517578","0.20703125","-115.125","-1.78125","-80.71875"
"1574192618104","415","-0.20800781","-0.91308594","0.036132812","-90.28125","1.09375","-58.78125"
"1574192618104","416","-0.08105469","-0.91308594","-0.08886719","-74.0","2.71875","-48.28125"
"1574192618104","417","-0.052734375","-0.92089844","-0.123046875","-58.25","-0.9375","-48.65625"
"1574192618104","418","0.029296875","-0.9589844","-0.13183594","-58.3125","-7.59375","-46.40625"
"1574192618105","419","-0.0029296875","-1.0527344","-0.10546875","-57.6875","-8.375","-39.4375"
"1574192618304","420","0.02734375","-1.0078125","-0.08886719","-44.8125","-1.0625","-37.25"
"1574192618306","421","0.07128906","-1.0195312","-0.23632812","-43.46875","-2.53125","-35.71875"
"1574192618306","422","0.099609375","-0.96484375","-0.25","-24.75","0.84375","-31.5"
"1574192618306","423","0.08203125","-0.9501953","-0.23339844","-14.125","6.625","-19.53125"
"1574192618307","424","0.05859375","-0.9326172","-0.26171875","-3.5","6.5","-0.625"
"1574192618307","425","0.02734375","-0.91015625","-0.23632812","18.84375","8.28125","16.34375"
"1574192618307","426","0.055664062","-0.8466797","-0.171875","48.625","-1.46875","21.96875"
"1574192618307","427","0.013671875","-0.9638672","-0.15820312","70.53125","-15.6875","40.34375"
"1574192618308","428","0.025390625","-0.92285156","-0.08984375","79.6875","-6.0","57.53125"
"1574192618308","429","-0.037109375","-0.88964844","-0.111328125","104.15625","1.375","68.03125"
"1574192618700","430","-0.14550781","-0.8876953","-0.01171875","138.21875","14.9375","84.28125"
"1574192618701","431","-0.19726562","-0.9199219","0.09667969","144.625","23.1875","90.0625"
"1574192618701","432","-0.2626953","-1.1142578","0.2939453","142.3125","16.15625","79.15625"
"1574192618702","433","-0.24511719","-1.1904297","0.36035156","130.71875","2.78125","86.21875"
"1574192618702","434","-0.4140625","-1.3183594","0.52246094","124.4375","-10.9375","84.15625"
"1574192618703","435","-0.23339844","-0.9892578","0.8076172","278.65625","-56.59375","73.46875"
"1574192618703","436","-0.5097656","-0.6972656","0.8798828","-25.46875","50.34375","60.40625"
"1574192618703","437","-1.0117188","-0.8964844","0.8935547","-113.46875","32.46875","-10.75"
"1574192618704","438","-0.5576172","-0.94433594","0.8720703","-160.28125","15.4375","-75.28125"
"1574192618704","439","-0.43847656","-1.0263672","0.47265625","-145.71875","43.6875","-18.6875"
"1574192619098","440","-0.6201172","-0.94921875","0.46777344","-118.84375","59.125","-24.375"
"1574192619098","441","-0.53125","-1.0283203","0.31054688","-42.875","53.5","-75.03125"
"1574192619099","442","-0.28710938","-1.0957031","0.2763672","-3.90625","6.09375","-40.375"
"1574192619099","443","-0.38476562","-1.015625","0.2734375","-28.03125","-3.90625","-24.625"
"1574192619099","444","-0.4111328","-0.9042969","0.20703125","-3.8125","8.84375","-47.625"
"1574192619100","445","-0.19824219","-0.875","0.12402344","-19.5","5.84375","-46.40625"
"1574192619101","446","-0.1875","-0.7792969","0.12890625","-63.75","-19.0625","-47.6875"
"1574192619101","447","-0.21679688","-0.6621094","0.15234375","-66.96875","-13.1875","-57.8125"
"1574192619101","448","-0.16601562","-0.5576172","0.11816406","-59.03125","0.15625","-67.65625"
"1574192619102","449","-0.14257812","-0.5390625","0.12695312","-98.46875","0.65625","-70.09375"
"1574192619695","450","-0.18164062","-0.578125","0.10546875","-69.09375","-6.25","-59.84375"
"1574192619696","451","-0.19140625","-0.61621094","0.06640625","-55.375","3.15625","-51.90625"
"1574192619696","452","-0.19628906","-0.6953125","0.017578125","-68.375","2.90625","-42.125"
"1574192619696","453","-0.1640625","-0.8623047","-0.015625","-45.78125","4.5","-32.59375"
"1574192619696","454","-0.01953125","-1.015625","-0.048828125","-32.96875","15.125","-18.6875"
"1574192619697","455","-0.01953125","-1.0488281","-0.08496094","-21.625","-0.625","-11.125"
"1574192619697","456","-0.047851562","-0.9902344","-0.06640625","-7.875","-2.40625","-13.1875"
"1574192619698","457","-0.049804688","-0.953125","-0.076171875","-6.78125","-6.5","-6.0"
"1574192619698","458","-0.078125","-0.95996094","-0.10058594","2.96875","-6.1875","9.8125"
"1574192619699","459","-0.09765625","-0.9326172","-0.07324219","0.71875","5.78125","9.5625"
"1574192620091","460","-0.083984375","-0.9277344","-0.009765625","19.5625","5.0","16.84375"
"1574192620092","461","-0.08691406","-0.94921875","-0.047851562","17.8125","-3.5625","24.65625"
"1574192620092","462","-0.083984375","-0.92285156","-0.025390625","26.0","-6.53125","25.75"
"1574192620092","463","-0.08300781","-0.8144531","0.03125","47.84375","-8.6875","36.0"
"1574192620093","464","-0.16503906","-0.7246094","0.11621094","64.8125","-14.125","50.59375"
"1574192620093","465","-0.22070312","-0.7324219","0.123046875","66.21875","-12.84375","61.375"
"1574192620093","466","-0.23046875","-0.6904297","0.0126953125","72.25","-24.125","67.5"
"1574192620093","467","-0.22949219","-0.63964844","0.048828125","79.875","-9.84375","68.78125"
"1574192620094","468","-0.2734375","-0.6464844","0.12597656","59.1875","19.21875","69.8125"
"1574192620095","469","-0.29296875","-0.6425781","0.11816406","44.125","12.25","62.71875"
"1574192620292","470","-0.10546875","-0.6845703","0.21484375","28.125","12.25","51.5625"
"1574192620293","471","-0.05078125","-0.7421875","0.23339844","55.96875","-21.375","46.5"
"1574192620293","472","-0.36035156","-0.7597656","0.25683594","38.25","-33.46875","36.53125"
"1574192620293","473","-0.6689453","-0.96777344","0.15722656","-57.6875","-7.875","39.90625"
"1574192620293","474","-0.7109375","-1.0166016","0.46777344","80.1875","6.09375","39.34375"
"1574192620294","475","-0.54589844","-1.1083984","0.3388672","33.375","-9.71875","0.34375"
"1574192620294","476","-0.4033203","-0.9785156","0.50097656","76.09375","20.1875","36.125"
"1574192620294","477","-0.6113281","-0.9902344","0.50390625","50.03125","14.625","31.90625"
"1574192620294","478","-0.71484375","-1.140625","0.5126953","30.3125","1.6875","-20.9375"
"1574192620295","479","-0.59472656","-1.0429688","0.53222656","-48.96875","-11.0625","-79.46875"
"1574192620689","480","-0.5683594","-1.0976562","0.4892578","-110.90625","7.1875","-93.40625"
"1574192620690","481","-0.46679688","-1.3876953","0.46777344","-131.0625","-2.8125","-117.9375"
"1574192620691","482","-0.33984375","-1.3916016","0.3720703","-148.28125","15.78125","-88.15625"
"1574192620691","483","-0.36914062","-1.0214844","0.140625","-99.9375","9.3125","-76.8125"
"1574192620691","484","-0.08691406","-0.88671875","-0.13378906","-69.84375","-7.9375","-78.8125"
"1574192620692","485","0.06542969","-0.8359375","-0.15332031","-53.1875","-2.53125","-64.34375"
"1574192620692","486","0.0","-0.8486328","-0.2265625","-73.5","-7.9375","-51.46875"
"1574192620692","487","0.017578125","-0.99121094","-0.18945312","-72.09375","-7.15625","-46.40625"
"1574192620693","488","-0.00390625","-1.0302734","-0.17675781","-53.96875","5.53125","-38.96875"
"1574192620693","489","0.091796875","-0.9902344","-0.234375","-49.5625","0.0","-47.4375"
"1574192621286","490","0.25585938","-0.9951172","-0.3095703","-40.125","-2.9375","-41.40625"
"1574192621286","491","0.17089844","-0.92578125","-0.30859375","-6.375","2.71875","-22.0625"
"1574192621286","492","0.09667969","-0.91796875","-0.33789062","2.65625","-0.75","-0.6875"
"1574192621288","493","0.068359375","-0.890625","-0.31152344","24.53125","3.78125","8.90625"
"1574192621288","494","0.0625","-0.8466797","-0.28222656","43.0","12.5","19.9375"
"1574192621289","495","0.040039062","-0.82128906","-0.23828125","58.75","19.34375","40.5"
"1574192621289","496","0.005859375","-0.8828125","-0.1875","81.53125","19.6875","52.21875"
"1574192621289","497","0.037109375","-0.93066406","-0.038085938","121.75","15.65625","70.59375"
"1574192621289","498","-0.07128906","-0.94921875","0.041992188","159.09375","10.84375","93.5625"
"1574192621290","499","-0.12695312","-0.9628906","0.15429688","177.96875","10.0625","99.65625"
"1574192621484","500","-0.20410156","-1.1660156","0.36816406","203.59375","8.28125","101.0"
"1574192621485","501","-0.20214844","-1.1503906","0.5019531","163.0","10.59375","103.1875"
"1574192621485","502","-0.4169922","-1.28125","0.72265625","179.84375","-12.28125","96.25"
"1574192621485","503","-0.3076172","-0.9033203","0.8183594","224.84375","-37.3125","90.3125"
"1574192621486","504","-0.5419922","-0.8701172","0.9111328","-3.0625","6.5","62.90625"
"1574192621487","505","-0.84375","-0.7763672","1.0214844","-150.59375","33.4375","-22.53125"
"1574192621488","506","-0.5107422","-0.78027344","0.86328125","-185.3125","38.875","-49.5625"
"1574192621488","507","-0.46484375","-0.98339844","0.62597656","-152.40625","56.6875","9.5"
"1574192621488","508","-0.67089844","-1.1269531","0.5126953","-139.90625","32.9375","-0.875"
"1574192621488","509","-0.6142578","-1.0800781","0.46191406","-112.375","19.09375","-73.4375"
"1574192621881","510","-0.41503906","-1.1318359","0.24707031","-81.0","-11.5625","-63.0"
"1574192621882","511","-0.3955078","-1.1933594","0.05078125","-46.40625","16.9375","-26.4375"
"1574192621882","512","-0.30664062","-0.9453125","0.00390625","6.34375","29.71875","-61.53125"
"1574192621882","513","-0.1640625","-0.7216797","0.061523438","1.03125","10.1875","-83.625"
"1574192621883","514","-0.11035156","-0.50390625","0.19335938","-28.03125","14.875","-71.5"
"1574192621883","515","-0.1171875","-0.37402344","0.18457031","-72.78125","4.9375","-73.25"
"1574192621883","516","-0.1328125","-0.41210938","0.087890625","-110.3125","1.5625","-80.875"
"1574192621885","517","-0.14941406","-0.57128906","0.06640625","-105.53125","2.125","-73.0"
"1574192621885","518","-0.20117188","-0.6953125","0.06640625","-61.84375","1.09375","-50.4375"
"1574192621885","519","-0.1796875","-0.6748047","0.0703125","-50.75","0.46875","-45.84375"
"1574192622279","520","-0.11621094","-0.7607422","0.02734375","-42.8125","5.40625","-43.71875"
"1574192622280","521","-0.032226562","-1.0800781","-0.06640625","-52.25","7.75","-24.6875"
"1574192622280","522","0.0068359375","-1.1318359","-0.22949219","-24.5","-5.625","-8.8125"
"1574192622280","523","-0.018554688","-0.93847656","-0.11230469","-7.8125","0.90625","-21.0"
"1574192622280","524","0.009765625","-0.8730469","-0.0703125","-10.03125","1.15625","-12.40625"
"1574192622281","525","0.0146484375","-0.9345703","-0.14453125","-9.125","-2.15625","1.5625"
"1574192622281","526","-0.009765625","-1.0302734","-0.16796875","-0.5","5.1875","5.90625"
"1574192622281","527","-0.0703125","-1.0361328","-0.11035156","13.71875","7.25","13.15625"
"1574192622282","528","-0.095703125","-0.95703125","-0.06347656","22.6875","7.6875","12.875"
"1574192622283","529","-0.053710938","-0.85253906","0.028320312","37.28125","7.25","32.40625"
"1574192623073","530","-0.11621094","-0.75097656","0.053710938","55.09375","-14.0","50.40625"
"1574192623074","531","-0.24316406","-0.6904297","0.06738281","67.5","-5.5625","62.4375"
"1574192623074","532","-0.26171875","-0.5966797","0.08984375","74.5625","3.78125","74.4375"
"1574192623074","533","-0.14648438","-0.49121094","0.0546875","100.375","-20.21875","85.125"
"1574192623075","534","-0.16015625","-0.5878906","0.10546875","83.125","-9.21875","92.09375"
"1574192623075","535","-0.2890625","-0.6113281","0.1328125","60.59375","15.5","78.78125"
"1574192623075","536","-0.36523438","-0.7753906","0.0546875","58.625","25.625","75.84375"
"1574192623075","537","-0.15527344","-0.6015625","0.06738281","38.1875","-25.09375","64.4375"
"1574192623076","538","-0.04296875","-0.61621094","0.25195312","61.09375","-11.4375","29.46875"
"1574192623076","539","-0.27539062","-0.9453125","0.16601562","-22.59375","25.6875","41.0625"
"1574192623273","540","-0.6767578","-1.1220703","0.22851562","-26.25","2.3125","84.34375"
"1574192623275","541","-1.1035156","-1.2890625","0.6123047","133.34375","-19.0625","54.375"
"1574192623275","542","-0.6064453","-1.1777344","0.62109375","96.46875","-21.75","-12.53125"
"1574192623275","543","-0.48535156","-1.0625","0.45214844","69.4375","-13.9375","-35.34375"
"1574192623276","544","-0.703125","-1.15625","0.5527344","0.59375","-1.90625","-47.875"
"1574192623276","545","-0.6386719","-1.1933594","0.7236328","-45.375","-6.78125","-84.5"
"1574192623276","546","-0.4404297","-1.2041016","0.51171875","-127.59375","6.5","-100.46875"
"1574192623277","547","-0.43652344","-1.2158203","0.3720703","-161.40625","7.96875","-102.625"
"1574192623277","548","-0.2548828","-1.0810547","0.12011719","-122.03125","-9.15625","-97.96875"
"1574192623277","549","-0.10058594","-1.0976562","0.0126953125","-86.25","-3.5625","-69.15625"
"1574192623471","550","-0.095703125","-0.9785156","-0.09472656","-99.0625","2.71875","-71.96875"
"1574192623472","551","0.06542969","-0.9580078","-0.2578125","-108.0","-10.03125","-83.5"
"1574192623472","552","0.14355469","-0.96191406","-0.16699219","-82.28125","-4.34375","-66.40625"
"1574192623473","553","0.13769531","-0.9814453","-0.18945312","-65.3125","-4.09375","-42.96875"
"1574192623474","554","0.17675781","-0.9111328","-0.2763672","-44.5625","-11.96875","-41.875"
"1574192623474","555","0.15722656","-0.94628906","-0.3203125","-38.53125","-6.96875","-25.90625"
"1574192623474","556","0.12988281","-0.89453125","-0.28710938","-4.59375","-8.75","-7.9375"
"1574192623474","557","0.072265625","-0.8300781","-0.31445312","13.65625","-2.46875","9.6875"
"1574192623475","558","0.013671875","-0.88183594","-0.30859375","32.75","7.90625","28.3125"
"1574192623475","559","0.0029296875","-0.8808594","-0.24902344","49.46875","8.28125","40.5625"
"1574192624264","560","0.033203125","-0.9189453","-0.18554688","66.34375","3.34375","46.3125"
"1574192624265","561","0.017578125","-0.9423828","-0.14355469","92.34375","5.0625","62.125"
"1574192624265","562","-0.044921875","-0.89746094","-0.064453125","122.25","-0.625","76.53125"
"1574192624265","563","-0.099609375","-0.9140625","0.015625","146.65625","-1.65625","86.40625"
"1574192624265","564","-0.15722656","-0.9433594","0.15429688","181.375","0.65625","89.03125"
"1574192624267","565","-0.21875","-1.1523438","0.33007812","168.6875","0.34375","79.75"
"1574192624268","566","-0.20703125","-1.1552734","0.43359375","139.5","4.0","70.84375"
"1574192624268","567","-0.3623047","-1.3261719","0.8076172","228.875","-23.28125","94.65625"
"1574192624268","568","-0.37109375","-0.86621094","0.6503906","223.5","-23.5","125.78125"
"1574192624268","569","-0.5517578","-0.546875","0.953125","50.03125","-21.875","81.34375"
"1574192624462","570","-0.8300781","-0.7949219","1.0146484","-124.03125","28.3125","-4.59375"
"1574192624463","571","-0.6542969","-0.8183594","0.93066406","-177.375","56.125","-51.46875"
"1574192624463","572","-0.45703125","-0.9785156","0.7109375","-161.28125","35.6875","-44.5625"
"1574192624463","573","-0.52441406","-1.0947266","0.6347656","-142.46875","39.71875","-31.375"
"1574192624464","574","-0.6503906","-0.9316406","0.5126953","-130.03125","26.09375","-63.25"
"1574192624464","575","-0.42871094","-1.0136719","0.3076172","-50.1875","14.5625","-54.875"
"1574192624464","576","-0.39257812","-1.0117188","0.20410156","-46.40625","10.78125","-24.90625"
"1574192624466","577","-0.31835938","-0.9013672","0.17285156","-13.25","31.0","-30.90625"
"1574192624466","578","-0.24511719","-0.77734375","0.12792969","-25.96875","21.46875","-49.28125"
"1574192624466","579","-0.20117188","-0.6845703","0.20214844","-44.625","10.3125","-54.53125"
"1574192624663","580","-0.17089844","-0.57714844","0.20800781","-64.40625","-5.09375","-69.59375"
"1574192624663","581","-0.14453125","-0.5878906","0.091796875","-71.5625","-8.0625","-76.0"
"1574192624663","582","-0.16308594","-0.64453125","0.05859375","-80.65625","-2.34375","-71.90625"
"1574192624663","583","-0.19921875","-0.60253906","0.10253906","-73.4375","-7.03125","-70.5625"
"1574192624664","584","-0.18066406","-0.5546875","0.14550781","-67.9375","-1.125","-66.96875"
"1574192624664","585","-0.12695312","-0.7138672","0.1328125","-67.28125","-5.875","-48.0"
"1574192624664","586","-0.08203125","-0.92871094","0.048828125","-51.96875","-17.03125","-29.5625"
"1574192624664","587","-0.061523438","-1.0029297","-0.140625","-31.03125","-14.59375","-18.9375"
"1574192624665","588","-0.10644531","-1.0351562","-0.11621094","-15.28125","-6.84375","-13.5"
"1574192624665","589","-0.10546875","-1.0546875","-0.14160156","-13.5625","4.3125","-5.03125"
"1574192625061","590","-0.06640625","-0.9238281","-0.115234375","-8.0","2.5","-2.03125"
"1574192625062","591","-0.016601562","-0.875","-0.068359375","6.09375","9.125","1.4375"
"1574192625062","592","-0.033203125","-0.9472656","-0.059570312","6.875","15.71875","13.71875"
"1574192625062","593","-0.11035156","-0.8457031","0.0078125","26.84375","15.71875","24.15625"
"1574192625062","594","-0.16308594","-0.8095703","0.0859375","46.1875","5.46875","34.90625"
"1574192625062","595","-0.18164062","-0.8173828","0.083984375","50.9375","-9.21875","55.90625"
"1574192625063","596","-0.19335938","-0.67578125","0.07128906","65.59375","-12.84375","68.21875"
"1574192625063","597","-0.16210938","-0.46972656","0.09863281","105.34375","-15.21875","75.71875"
"1574192625063","598","-0.040039062","-0.3564453","0.078125","130.34375","-27.78125","75.65625"
"1574192625063","599","-0.21582031","-0.49121094","0.07910156","79.09375","8.34375","83.25"
"1574192625459","600","-0.40039062","-0.7285156","0.12207031","0.65625","18.53125","91.71875"
"1574192625460","601","-0.49121094","-0.9736328","0.04296875","-17.21875","-13.5625","80.5"
"1574192625460","602","-0.22460938","-1.0585938","0.0078125","105.03125","-14.53125","49.1875"
"1574192625460","603","-0.052734375","-1.0078125","0.30371094","64.1875","42.71875","56.125"
"1574192625461","604","-0.47753906","-0.9716797","0.23242188","37.09375","7.5625","63.53125"
"1574192625461","605","-0.90234375","-1.0507812","0.5810547","97.53125","-1.71875","67.84375"
"1574192625462","606","-0.71972656","-1.2851562","0.67285156","81.34375","-10.15625","-3.0625"
"1574192625462","607","-0.45703125","-0.99316406","0.5908203","75.375","-31.15625","-28.28125"
"1574192625463","608","-0.5234375","-0.8310547","0.5410156","31.59375","3.90625","-5.09375"
"1574192625463","609","-0.66308594","-1.0068359","0.6591797","-32.71875","-9.46875","-47.0"
"1574192625857","610","-0.6826172","-0.9863281","0.60546875","-60.3125","6.15625","-60.125"
"1574192625857","611","-0.5048828","-1.1230469","0.53027344","-72.9375","5.71875","-88.09375"
"1574192625857","612","-0.34472656","-1.1103516","0.46777344","-90.78125","3.65625","-89.4375"
"1574192625859","613","-0.26953125","-1.1503906","0.3623047","-108.53125","-7.28125","-78.03125"
"1574192625859","614","-0.35253906","-1.125","0.25878906","-115.5","-13.25","-82.78125"
"1574192625859","615","-0.18457031","-1.0322266","0.0234375","-137.59375","-5.875","-81.1875"
"1574192625860","616","-0.041992188","-1.0068359","-0.032226562","-108.96875","3.9375","-73.5625"
"1574192625860","617","0.009765625","-0.9511719","-0.12011719","-102.90625","-5.875","-73.75"
"1574192625861","618","0.06933594","-0.89941406","-0.13085938","-82.03125","-16.75","-49.5625"
"1574192625861","619","-0.033203125","-0.91308594","-0.16015625","-56.59375","-3.375","-22.28125"
"1574192626253","620","-0.072265625","-0.9736328","-0.24023438","-36.21875","3.28125","-17.59375"
"1574192626254","621","0.06640625","-1.0","-0.25585938","-7.8125","7.84375","-20.78125"
"1574192626254","622","0.14746094","-0.94628906","-0.28320312","6.75","-1.96875","-20.34375"
"1574192626254","623","0.10546875","-0.8535156","-0.30273438","20.25","0.34375","-2.59375"
"1574192626255","624","0.055664062","-0.8701172","-0.23730469","39.40625","11.8125","18.21875"
"1574192626256","625","0.0068359375","-0.8730469","-0.2109375","50.28125","19.15625","35.875"
"1574192626257","626","-0.076171875","-0.9667969","-0.16699219","76.59375","26.0","58.8125"
"1574192626257","627","-0.07714844","-0.9375","-0.017578125","115.71875","19.53125","63.03125"
"1574192626257","628","-0.005859375","-0.8642578","0.0625","145.6875","10.375","63.65625"
"1574192626257","629","-0.09472656","-0.83496094","0.15234375","193.90625","4.125","76.875"
"1574192626651","630","-0.26953125","-1.0839844","0.4423828","248.40625","9.6875","105.03125"
"1574192626651","631","-0.34472656","-1.0292969","0.4951172","204.09375","22.375","110.15625"
"1574192626652","632","-0.5214844","-1.3017578","1.0625","260.96875","-23.03125","108.125"
"1574192626652","633","-0.038085938","-0.8125","1.1044922","246.5625","-68.9375","101.71875"
"1574192626652","634","-0.3876953","-0.6748047","0.8574219","56.3125","-55.3125","50.34375"
"1574192626653","635","-0.75878906","-0.5078125","1.1826172","-40.59375","36.71875","-5.8125"
"1574192626653","636","-0.66015625","-0.6328125","1.2783203","-273.15625","103.0625","-5.21875"
"1574192626653","637","-0.61816406","-0.86035156","0.9248047","-287.25","88.25","-21.6875"
"1574192626653","638","-0.5449219","-0.9267578","0.6503906","-217.59375","70.40625","-55.75"
"1574192626654","639","-0.4248047","-0.97753906","0.41796875","-144.125","17.625","-72.71875"
"1574192627048","640","-0.3095703","-1.0019531","0.34277344","-88.28125","-5.21875","-23.4375"
"1574192627049","641","-0.54296875","-1.0634766","0.23046875","-42.3125","-4.21875","-23.5625"
"1574192627049","642","-0.47070312","-0.9638672","0.10449219","-30.28125","11.34375","-74.28125"
"1574192627049","643","-0.23144531","-0.78515625","0.020507812","-11.84375","15.65625","-76.5625"
"1574192627050","644","-0.1484375","-0.5498047","0.14160156","-9.21875","29.53125","-55.9375"
"1574192627050","645","-0.08496094","-0.37695312","0.20117188","-47.75","2.0","-77.78125"
"1574192627050","646","-0.06347656","-0.3388672","0.13574219","-74.90625","-11.625","-83.5"
"1574192627051","647","-0.21582031","-0.5986328","0.09375","-89.4375","-4.15625","-60.375"
"1574192627051","648","-0.29882812","-0.8300781","0.07324219","-81.75","-6.78125","-44.375"
"1574192627051","649","-0.3408203","-0.7207031","0.07519531","-47.0","0.84375","-47.5"
"1574192627447","650","-0.08105469","-0.7734375","0.13476562","-47.5625","3.46875","-41.59375"
"1574192627448","651","-0.0078125","-0.95214844","0.01953125","-39.5","-3.375","-20.875"
"1574192627448","652","-0.103515625","-1.0898438","-0.1328125","-23.40625","-2.28125","-16.625"
"1574192627448","653","-0.078125","-0.9921875","-0.087890625","-25.15625","-1.78125","-19.90625"
"1574192627448","654","-0.0390625","-0.87402344","-9.765625E-4","-13.03125","-3.90625","-15.03125"
"1574192627449","655","-0.0068359375","-0.8847656","-0.0546875","-9.21875","-1.0","-7.59375"
"1574192627449","656","-0.015625","-0.9863281","-0.11328125","-4.21875","5.1875","1.15625"
"1574192627449","657","-0.11035156","-0.97265625","-0.11621094","4.0","5.0","9.8125"
"1574192627449","658","-0.08691406","-0.9238281","0.009765625","14.5","10.0625","10.25"
"1574192627450","659","-0.016601562","-0.76660156","0.0859375","29.71875","5.65625","20.5"
"1574192628237","660","-0.115234375","-0.6933594","0.10644531","53.375","10.0625","46.0625"
"1574192628239","661","-0.3330078","-0.6484375","0.12988281","73.28125","4.375","63.71875"
"1574192628239","662","-0.28222656","-0.5","0.08496094","89.59375","4.0","76.09375"
"1574192628240","663","-0.16503906","-0.47753906","0.0625","95.75","6.8125","73.96875"
"1574192628240","664","-0.09375","-0.59765625","0.11621094","52.46875","36.0625","72.75"
"1574192628240","665","-0.061523438","-0.6435547","0.095703125","35.8125","17.625","52.15625"
"1574192628241","666","-0.072265625","-0.8544922","0.052734375","13.21875","-21.125","56.1875"
"1574192628241","667","-0.10839844","-0.6191406","0.26953125","70.40625","-21.5625","52.09375"
"1574192628242","668","-0.23242188","-1.0292969","0.21191406","-8.5","6.5","31.78125"
"1574192628242","669","-0.7246094","-1.15625","0.25683594","26.40625","4.5625","105.9375"
"1574192628439","670","-0.9765625","-1.3837891","0.74316406","164.53125","17.875","78.46875"
"1574192628440","671","-0.4501953","-1.125","0.4892578","135.65625","-25.96875","-20.71875"
"1574192628440","672","-0.33984375","-0.99121094","0.6357422","154.9375","-28.34375","-18.25"
"1574192628441","673","-0.5888672","-1.171875","0.75878906","40.09375","-27.0","-32.78125"
"1574192628441","674","-0.5371094","-1.0507812","0.71875","-92.59375","-0.0625","-71.84375"
"1574192628441","675","-0.47753906","-1.25","0.7294922","-147.0","-0.1875","-83.75"
"1574192628442","676","-0.5292969","-1.1835938","0.6425781","-200.03125","14.9375","-78.5"
"1574192628442","677","-0.41015625","-1.0576172","0.2705078","-177.125","19.15625","-101.53125"
"1574192628442","678","-0.11328125","-1.0195312","0.001953125","-138.4375","8.78125","-104.8125"
"1574192628443","679","0.109375","-0.9267578","-0.057617188","-98.96875","-5.875","-92.59375"
"1574192628835","680","0.08300781","-0.890625","-0.2109375","-92.25","-10.4375","-74.78125"
"1574192628835","681","0.06738281","-0.9326172","-0.22460938","-75.09375","-1.90625","-48.96875"
"1574192628836","682","0.06640625","-0.98339844","-0.27929688","-61.28125","13.90625","-24.84375"
"1574192628836","683","0.21484375","-0.9951172","-0.28027344","-50.625","14.03125","-32.125"
"1574192628836","684","0.24609375","-0.953125","-0.27246094","-24.90625","4.0","-27.0"
"1574192628838","685","0.18945312","-0.859375","-0.2939453","0.96875","-7.03125","-8.4375"
"1574192628838","686","0.06738281","-0.8564453","-0.30273438","18.65625","-1.25","10.46875"
"1574192628839","687","0.040039062","-0.9140625","-0.2734375","36.125","6.8125","24.40625"
"1574192628839","688","0.052734375","-0.86035156","-0.22265625","60.28125","10.59375","32.28125"
"1574192628839","689","0.043945312","-0.83496094","-0.18359375","80.96875","12.5","50.28125"
"1574192629036","690","0.0087890625","-0.8544922","-0.109375","118.8125","6.6875","65.90625"
"1574192629036","691","-0.037109375","-0.9199219","0.026367188","157.9375","2.71875","90.1875"
"1574192629036","692","-0.08496094","-1.0205078","0.16015625","182.1875","8.15625","112.21875"
"1574192629037","693","-0.19921875","-1.1855469","0.29003906","170.21875","17.0625","115.53125"
"1574192629037","694","-0.19433594","-1.3730469","0.4326172","100.6875","3.34375","86.46875"
"1574192629037","695","-0.31152344","-1.1611328","0.8623047","322.75","-13.03125","134.625"
"1574192629037","696","-0.38378906","-1.1259766","0.84375","20.6875","21.21875","98.1875"
"1574192629039","697","-1.0585938","-0.9082031","0.92871094","-94.75","14.8125","23.25"
"1574192629039","698","-0.72753906","-0.9189453","0.8496094","-212.46875","24.75","-110.125"
"1574192629040","699","-0.23925781","-0.9550781","0.5839844","-151.5","44.125","-46.875"
"1574192629434","700","-0.43652344","-0.9794922","0.3359375","-64.28125","20.96875","24.875"
"1574192629435","701","-0.60839844","-1.0898438","0.3779297","-94.5","37.875","-37.625"
"1574192629435","702","-0.44140625","-1.0498047","0.2529297","-77.03125","9.09375","-83.5625"
"1574192629435","703","-0.37109375","-1.1435547","0.064453125","-64.53125","-1.59375","-48.21875"
"1574192629435","704","-0.234375","-0.99316406","-0.041992188","-21.5","28.0","-37.5625"
"1574192629436","705","-0.14550781","-0.8642578","0.0087890625","-25.90625","20.0625","-65.8125"
"1574192629436","706","-0.10253906","-0.6533203","0.059570312","-39.75","11.75","-67.15625"
"1574192629436","707","-0.11035156","-0.43652344","0.091796875","-31.25","-6.65625","-77.53125"
"1574192629437","708","-0.072265625","-0.3408203","0.13964844","-40.84375","-11.0","-90.59375"
"1574192629438","709","-0.11425781","-0.43847656","0.09765625","-85.59375","-20.09375","-77.46875"
"1574192629832","710","-0.19335938","-0.64160156","0.10839844","-84.96875","-29.0625","-64.15625"
"1574192629832","711","-0.15332031","-0.92578125","0.06347656","-53.59375","-20.875","-51.90625"
"1574192629832","712","-0.020507812","-1.0566406","-0.030273438","-27.59375","-8.875","-19.375"
"1574192629833","713","-0.08105469","-0.9589844","-0.0625","-29.375","-6.25","-14.53125"
"1574192629833","714","-0.0703125","-0.9658203","-0.07714844","-12.59375","-10.03125","-23.5625"
"1574192629833","715","0.036132812","-0.87402344","-0.053710938","-3.6875","-19.0625","-13.8125"
"1574192629833","716","0.026367188","-0.8652344","-0.025390625","-9.125","-21.25","2.3125"
"1574192629834","717","-0.09765625","-1.0371094","-0.0859375","-2.03125","0.15625","13.15625"
"1574192629834","718","-0.11035156","-1.0419922","-0.18066406","-0.8125","8.78125","7.125"
"1574192629834","719","-0.0126953125","-0.9267578","-0.07324219","13.90625","-1.84375","9.6875"
"1574192630229","720","-0.01953125","-0.8496094","0.025390625","20.84375","14.375","27.5"
"1574192630231","721","-0.15039062","-0.75878906","0.0859375","46.125","33.5625","45.75"
"1574192630231","722","-0.26757812","-0.6044922","0.12109375","67.125","14.15625","61.25"
"1574192630231","723","-0.265625","-0.41015625","0.06640625","99.46875","-8.375","79.40625"
"1574192630232","724","-0.10253906","-0.24316406","-0.0234375","120.46875","-15.6875","86.28125"
"1574192630232","725","0.06933594","-0.3017578","-0.045898438","107.78125","6.5625","82.625"
"1574192630232","726","-0.052734375","-0.49023438","0.14453125","23.25","26.65625","75.4375"
"1574192630232","727","-0.3466797","-0.6748047","0.14746094","-10.75","33.5625","58.46875"
"1574192630233","728","-0.5683594","-1.1904297","0.11230469","-41.40625","11.53125","95.625"
"1574192630233","729","-0.4921875","-1.4345703","0.13867188","-2.28125","-3.1875","49.84375"
"1574192630826","730","-0.49414062","-1.15625","0.22949219","126.75","-16.0","27.28125"
"1574192630826","731","-0.45214844","-1.2070312","0.4794922","144.9375","-10.09375","28.78125"
"1574192630827","732","-0.5888672","-1.2851562","0.64453125","140.625","-8.1875","43.0"
"1574192630828","733","-0.5078125","-1.0498047","0.5136719","98.125","-26.3125","-6.96875"
"1574192630828","734","-0.56347656","-1.1298828","0.61328125","-15.09375","4.25","-27.0625"
"1574192630829","735","-0.64746094","-1.1132812","0.578125","-129.53125","13.09375","-67.53125"
"1574192630829","736","-0.5410156","-1.2402344","0.51464844","-159.3125","10.125","-115.875"
"1574192630829","737","-0.40625","-1.3408203","0.43847656","-153.15625","9.4375","-110.90625"
"1574192630829","738","-0.3076172","-0.953125","0.16699219","-118.78125","12.3125","-91.5625"
"1574192630830","739","-0.23144531","-0.98046875","-0.080078125","-96.875","11.75","-75.46875"
"1574192631221","740","-0.00390625","-0.88671875","-0.140625","-79.375","0.40625","-80.53125"
"1574192631222","741","0.16699219","-0.9033203","-0.27148438","-69.59375","-6.84375","-71.84375"
"1574192631222","742","0.13085938","-0.9042969","-0.19042969","-66.53125","1.625","-43.53125"
"1574192631222","743","0.01171875","-0.97558594","-0.18457031","-37.5","18.71875","-23.75"
"1574192631223","744","0.12597656","-1.0107422","-0.2548828","-69.53125","10.84375","-50.0"
"1574192631224","745","0.1953125","-0.99609375","-0.22851562","-24.3125","11.75","-40.90625"
"1574192631224","746","0.15136719","-0.9453125","-0.28027344","-4.78125","-0.8125","-10.75"
"1574192631225","747","0.0859375","-0.9013672","-0.30566406","-0.125","3.34375","2.96875"
"1574192631225","748","0.06347656","-0.88964844","-0.3125","7.375","12.25","12.5"
"1574192631225","749","0.107421875","-0.8935547","-0.24707031","23.65625","12.0625","17.6875"
