"# PR data"
"# Start time: 20191119T195109"
"# Subject: joao"
"# Activity type: Wall push offs"
"# Correctness: Correct"
"# Notes: "
""
"timestamp","seq","accel_x","accel_y","accel_z","gyro_x","gyro_y","gyro_z"
"1574193070260","0","-0.01171875","-1.0351562","0.041015625","6.15625","10.375","-10.5"
"1574193070261","1","-0.0146484375","-0.99902344","0.028320312","-10.625","13.34375","-6.71875"
"1574193070262","2","-0.041015625","-0.97265625","0.041015625","-1.25","0.09375","-3.90625"
"1574193070263","3","-0.0146484375","-0.99121094","0.033203125","-8.5625","-10.4375","-7.34375"
"1574193070263","4","-0.03515625","-0.97753906","0.051757812","-6.59375","-8.4375","-4.34375"
"1574193070264","5","-0.08496094","-1.0039062","0.041015625","-2.40625","-8.5625","-3.96875"
"1574193070264","6","-0.11035156","-1.0029297","0.016601562","-1.125","-6.78125","-5.625"
"1574193070264","7","-0.099609375","-0.99316406","-9.765625E-4","-0.0625","-3.875","-4.28125"
"1574193070265","8","-0.064453125","-1.0058594","0.036132812","-0.5","1.28125","-0.25"
"1574193070265","9","-0.037109375","-1.0166016","0.01953125","2.25","2.5625","-0.9375"
"1574193070462","10","-0.022460938","-1.0087891","-0.00390625","-1.3125","4.3125","-1.90625"
"1574193070463","11","-0.043945312","-0.99902344","0.017578125","-5.15625","6.625","0.96875"
"1574193070463","12","-0.044921875","-0.99121094","0.015625","-2.09375","4.125","1.5625"
"1574193070465","13","-0.034179688","-1.0097656","-9.765625E-4","-1.96875","3.15625","1.375"
"1574193070465","14","-0.037109375","-1.0","0.015625","-0.4375","3.84375","1.875"
"1574193070466","15","-0.048828125","-0.99609375","0.013671875","-0.375","6.875","3.21875"
"1574193070466","16","-0.034179688","-0.98828125","0.0126953125","-0.5","6.75","4.5625"
"1574193070466","17","-0.047851562","-1.0175781","0.01171875","1.375","5.90625","2.84375"
"1574193070466","18","-0.045898438","-1.0039062","0.034179688","2.5625","1.5625","0.09375"
"1574193070467","19","-0.053710938","-1.0029297","0.049804688","1.15625","2.4375","0.28125"
"1574193071056","20","-0.06347656","-0.9863281","0.01953125","5.34375","0.28125","3.21875"
"1574193071057","21","-0.07421875","-0.99609375","0.005859375","0.46875","2.71875","2.90625"
"1574193071057","22","-0.05859375","-1.0126953","0.034179688","-1.65625","3.84375","2.25"
"1574193071057","23","-0.05859375","-1.0126953","0.034179688","0.0","0.21875","0.40625"
"1574193071057","24","-0.072265625","-1.0097656","0.022460938","-1.46875","0.0","-1.34375"
"1574193071059","25","-0.07519531","-0.9951172","0.0078125","-0.625","6.5","-2.6875"
"1574193071059","26","-0.061523438","-0.9941406","0.041015625","-3.1875","4.8125","-0.5625"
"1574193071059","27","-0.041015625","-1.0097656","0.034179688","-5.9375","1.75","0.84375"
"1574193071059","28","-0.060546875","-1.0107422","0.0146484375","-5.6875","2.59375","-1.34375"
"1574193071060","29","-0.06542969","-1.0058594","0.022460938","-3.1875","1.28125","-4.15625"
"1574193071255","30","-0.06347656","-0.9951172","0.017578125","-2.28125","0.84375","-1.71875"
"1574193071256","31","-0.06933594","-0.98339844","0.013671875","-1.65625","4.1875","0.65625"
"1574193071256","32","-0.0546875","-1.0009766","0.028320312","0.78125","2.5","1.375"
"1574193071256","33","-0.0703125","-1.0117188","0.0126953125","-3.25","4.0","0.78125"
"1574193071256","34","-0.072265625","-1.0019531","0.017578125","-1.78125","2.0","-0.75"
"1574193071257","35","-0.07128906","-1.0107422","0.015625","-1.90625","6.5","-1.0625"
"1574193071257","36","-0.060546875","-0.9921875","0.03515625","-3.1875","1.09375","-1.46875"
"1574193071259","37","-0.052734375","-1.0009766","0.015625","-0.1875","0.78125","0.09375"
"1574193071259","38","-0.06347656","-1.0097656","0.013671875","-1.3125","1.03125","-1.40625"
"1574193071259","39","-0.07519531","-1.0019531","0.017578125","-1.125","3.40625","-1.53125"
"1574193071652","40","-0.078125","-0.9951172","0.022460938","0.03125","0.96875","-2.15625"
"1574193071652","41","-0.0703125","-1.0","0.013671875","1.5","1.375","-1.3125"
"1574193071653","42","-0.056640625","-1.0019531","0.020507812","-1.1875","4.0","-1.65625"
"1574193071653","43","-0.06738281","-1.0107422","0.024414062","0.53125","3.09375","-1.125"
"1574193071653","44","-0.07714844","-1.0","0.02734375","0.90625","1.09375","-1.1875"
"1574193071653","45","-0.061523438","-1.0","0.0146484375","2.4375","2.5625","-0.3125"
"1574193071654","46","-0.056640625","-0.99902344","0.029296875","-1.53125","0.78125","-1.25"
"1574193071654","47","-0.064453125","-1.0068359","0.01171875","-1.0625","2.5","-0.3125"
"1574193071654","48","-0.06738281","-1.0068359","0.01171875","-7.03125","1.9375","-2.03125"
"1574193071656","49","-0.033203125","-1.015625","0.02734375","-9.125","-1.46875","-1.78125"
"1574193072250","50","-0.028320312","-0.9902344","-0.0126953125","-1.25","1.4375","-5.5"
"1574193072251","51","-0.06542969","-0.9951172","0.01953125","-9.34375","0.40625","-1.34375"
"1574193072251","52","-0.07714844","-0.9970703","0.0078125","-4.78125","-2.03125","-1.1875"
"1574193072252","53","-0.0546875","-1.0087891","-0.017578125","-6.375","-4.90625","-2.625"
"1574193072252","54","-0.041992188","-1.0097656","-0.0146484375","-1.25","0.78125","-6.125"
"1574193072252","55","-0.0546875","-0.9951172","0.0107421875","-1.40625","-2.75","-6.53125"
"1574193072252","56","-0.07421875","-1.0019531","-0.0068359375","6.03125","-5.3125","-4.40625"
"1574193072253","57","-0.049804688","-1.0175781","0.0126953125","3.84375","-4.46875","-0.9375"
"1574193072253","58","-0.055664062","-1.0","0.009765625","2.375","1.875","-0.625"
"1574193072253","59","-0.0703125","-0.9902344","0.026367188","-3.25","4.5","0.15625"
"1574193072448","60","-0.060546875","-1.0039062","0.0068359375","1.21875","0.03125","1.3125"
"1574193072450","61","-0.044921875","-1.0136719","0.005859375","-1.84375","1.15625","2.71875"
"1574193072451","62","-0.05078125","-1.0078125","0.01171875","-3.5","10.53125","3.90625"
"1574193072451","63","-0.06542969","-0.99121094","-0.0078125","1.4375","8.71875","2.78125"
"1574193072451","64","-0.041015625","-0.9824219","-0.0048828125","-0.1875","6.28125","3.21875"
"1574193072452","65","-0.034179688","-1.0097656","0.021484375","0.15625","7.375","4.5625"
"1574193072452","66","-0.061523438","-1.0097656","0.033203125","4.5625","2.84375","2.90625"
"1574193072452","67","-0.0546875","-1.0244141","0.005859375","0.03125","5.46875","0.46875"
"1574193072452","68","-0.09277344","-0.9873047","0.030273438","-3.4375","-1.78125","-2.59375"
"1574193072453","69","-0.06933594","-1.0136719","0.0","-11.25","1.28125","-5.8125"
"1574193072846","70","-0.001953125","-0.95410156","0.001953125","-21.75","3.15625","0.21875"
"1574193072846","71","-0.06933594","-1.0292969","-0.0126953125","2.0625","-0.3125","-3.6875"
"1574193072847","72","-0.08105469","-1.0019531","-0.005859375","-10.625","-3.8125","-6.78125"
"1574193072848","73","-0.07519531","-0.97753906","-0.022460938","-9.15625","11.46875","-2.46875"
"1574193072848","74","-0.049804688","-0.9892578","-0.029296875","-3.0625","5.1875","-2.09375"
"1574193072849","75","-0.038085938","-1.0253906","-0.037109375","-11.78125","10.84375","-1.25"
"1574193072849","76","-0.049804688","-1.0205078","0.01171875","-5.15625","4.3125","-3.0"
"1574193072849","77","-0.05078125","-1.0","-0.026367188","-6.1875","1.75","-7.34375"
"1574193072850","78","-0.036132812","-0.9902344","-0.057617188","-8.1875","7.1875","-10.03125"
"1574193072850","79","-0.017578125","-0.9921875","-0.049804688","-5.3125","-0.8125","-1.0625"
"1574193073243","80","-0.020507812","-0.9785156","-0.047851562","-3.96875","8.09375","-3.1875"
"1574193073243","81","-0.00390625","-0.9980469","-0.09082031","5.0","1.6875","-1.3125"
"1574193073243","82","-0.037109375","-0.9667969","-0.0859375","-2.28125","2.5","0.0"
"1574193073244","83","-0.046875","-0.9355469","-0.11328125","18.0","5.125","6.5625"
"1574193073244","84","-0.005859375","-0.91503906","-0.10546875","20.8125","16.78125","20.0"
"1574193073245","85","0.045898438","-0.9580078","-0.08691406","9.6875","16.90625","25.5"
"1574193073246","86","-0.020507812","-0.96484375","-0.076171875","28.0","0.46875","11.71875"
"1574193073246","87","-0.083984375","-1.0351562","-0.01953125","29.59375","1.5625","5.90625"
"1574193073246","88","-0.03125","-1.0244141","0.052734375","17.375","11.40625","23.375"
"1574193073247","89","-0.0703125","-0.9628906","0.040039062","23.25","-9.125","27.6875"
"1574193073639","90","-0.15429688","-1.0029297","0.041992188","21.15625","3.34375","16.34375"
"1574193073640","91","-0.15625","-0.9667969","0.15039062","1.375","3.34375","18.53125"
"1574193073640","92","-0.17773438","-0.9472656","0.15429688","18.21875","-1.59375","24.03125"
"1574193073640","93","-0.21289062","-1.0498047","0.13964844","23.125","-7.46875","14.375"
"1574193073641","94","-0.2763672","-1.0556641","0.18847656","13.96875","3.34375","4.8125"
"1574193073641","95","-0.28320312","-0.9716797","0.23632812","7.5","4.0625","9.6875"
"1574193073641","96","-0.28027344","-0.9785156","0.24414062","4.9375","1.5","5.125"
"1574193073642","97","-0.2685547","-0.9638672","0.22949219","3.34375","9.25","0.03125"
"1574193073642","98","-0.25195312","-1.03125","0.20800781","2.3125","13.28125","0.09375"
"1574193073643","99","-0.31054688","-1.0361328","0.24316406","2.3125","1.3125","1.875"
"1574193074237","100","-0.2919922","-1.0253906","0.25683594","-8.8125","9.4375","-12.53125"
"1574193074238","101","-0.25195312","-0.9824219","0.24121094","-7.09375","8.65625","-15.8125"
"1574193074238","102","-0.23535156","-0.94140625","0.2109375","-6.4375","-3.125","-7.21875"
"1574193074238","103","-0.23535156","-0.9941406","0.19335938","-11.5625","-4.40625","-9.28125"
"1574193074239","104","-0.20605469","-1.0175781","0.14746094","-15.875","3.53125","-12.46875"
"1574193074239","105","-0.19238281","-1.0","0.16210938","-12.15625","-8.4375","-12.09375"
"1574193074239","106","-0.20117188","-0.9892578","0.16503906","-13.25","-4.90625","-14.65625"
"1574193074240","107","-0.18652344","-0.99902344","0.11230469","-19.71875","-2.34375","-19.5"
"1574193074240","108","-0.15625","-0.99902344","0.09375","-18.5","-5.5625","-17.96875"
"1574193074241","109","-0.15039062","-0.9707031","0.09472656","-15.875","-7.9375","-20.09375"
"1574193074435","110","-0.103515625","-0.984375","0.047851562","-26.6875","1.5625","-23.4375"
"1574193074436","111","-0.0703125","-0.9902344","0.0234375","-23.28125","0.03125","-23.625"
"1574193074436","112","-0.059570312","-1.0166016","0.022460938","-22.71875","-6.59375","-25.40625"
"1574193074436","113","-0.033203125","-1.0019531","-0.0146484375","-28.09375","-3.375","-27.0"
"1574193074436","114","-0.00390625","-0.9345703","-0.055664062","-20.9375","-9.90625","-25.90625"
"1574193074437","115","0.07324219","-0.93652344","-0.12890625","-24.1875","-5.75","-21.4375"
"1574193074437","116","0.10644531","-0.92578125","-0.115234375","-17.90625","-10.28125","-12.21875"
"1574193074437","117","0.061523438","-0.9316406","-0.12597656","-11.0625","-4.90625","-7.21875"
"1574193074437","118","0.043945312","-0.9560547","-0.19140625","-12.46875","3.71875","-6.4375"
"1574193074438","119","0.06542969","-0.94921875","-0.20019531","-0.625","-1.84375","-9.78125"
"1574193074834","120","0.16699219","-0.96875","-0.12207031","-0.9375","-9.40625","8.21875"
"1574193074835","121","0.14453125","-0.9560547","-0.15136719","-0.5625","-2.46875","0.53125"
"1574193074835","122","0.10644531","-0.9248047","-0.17871094","6.5","-1.0","-4.09375"
"1574193074836","123","0.030273438","-0.9160156","-0.23046875","1.5","2.0625","0.15625"
"1574193074836","124","-0.041992188","-0.9638672","-0.10253906","11.59375","0.21875","10.375"
"1574193074836","125","0.08203125","-0.9316406","-0.171875","11.15625","15.1875","5.40625"
"1574193074836","126","0.23046875","-0.9238281","-0.15527344","12.375","14.21875","17.625"
"1574193074837","127","0.0703125","-0.94433594","-0.12988281","19.46875","4.25","14.625"
"1574193074837","128","-0.03515625","-0.9511719","-0.05078125","13.53125","1.875","15.65625"
"1574193074837","129","-0.06640625","-1.0263672","-0.021484375","9.75","-4.46875","6.6875"
"1574193075232","130","0.0146484375","-1.0322266","-0.018554688","6.46875","9.375","10.71875"
"1574193075233","131","-0.17285156","-0.95214844","0.045898438","24.53125","7.375","3.46875"
"1574193075233","132","-0.13671875","-0.8886719","0.09375","14.5","10.59375","21.40625"
"1574193075235","133","-0.11816406","-0.9970703","0.10546875","6.34375","18.34375","12.25"
"1574193075235","134","-0.12597656","-1.0195312","0.125","14.75","37.03125","24.46875"
"1574193075235","135","-0.11230469","-1.0693359","0.11425781","27.34375","9.8125","26.28125"
"1574193075236","136","-0.20507812","-1.0234375","0.16308594","12.25","8.46875","22.09375"
"1574193075236","137","-0.22949219","-1.015625","0.1640625","20.375","25.375","16.78125"
"1574193075236","138","-0.18554688","-1.0146484","0.22949219","12.9375","4.3125","23.53125"
"1574193075237","139","-0.19042969","-1.0175781","0.20019531","14.8125","14.5","10.71875"
"1574193075627","140","-0.3330078","-1.1679688","0.2626953","-0.125","-5.5","9.375"
"1574193075628","141","-0.39746094","-1.1005859","0.3330078","1.28125","-20.65625","-13.5"
"1574193075628","142","-0.35058594","-1.03125","0.3017578","-5.9375","3.53125","-9.65625"
"1574193075628","143","-0.3125","-1.0986328","0.25683594","-27.71875","14.09375","-19.78125"
"1574193075629","144","-0.26953125","-1.0878906","0.23242188","-11.5","7.4375","-16.5"
"1574193075630","145","-0.27441406","-1.0683594","0.20117188","-28.09375","10.3125","-11.25"
"1574193075630","146","-0.2626953","-0.953125","0.23730469","-19.71875","8.40625","-4.65625"
"1574193075631","147","-0.22949219","-1.0205078","0.14160156","-27.34375","27.875","-17.21875"
"1574193075631","148","-0.14355469","-1.0029297","0.13671875","-34.4375","10.84375","-3.875"
"1574193075631","149","-0.16699219","-0.9902344","0.040039062","-30.53125","10.3125","-13.03125"
"1574193076025","150","-0.16699219","-1.0019531","0.030273438","-25.28125","4.0","-26.5625"
"1574193076026","151","-0.08203125","-1.0302734","0.001953125","-35.40625","2.59375","-22.0625"
"1574193076028","152","-0.026367188","-0.96484375","-0.043945312","-33.53125","-7.28125","-24.25"
"1574193076028","153","-0.0625","-0.9501953","-0.10839844","-17.96875","-7.53125","-35.71875"
"1574193076029","154","-0.025390625","-0.98535156","-0.13378906","-33.78125","-13.3125","-31.75"
"1574193076029","155","0.025390625","-0.94628906","-0.16699219","-27.78125","-24.25","-25.65625"
"1574193076029","156","0.12011719","-0.88378906","-0.24023438","-13.5625","-8.5625","-36.40625"
"1574193076030","157","0.14941406","-0.859375","-0.29589844","-11.6875","-12.03125","-22.46875"
"1574193076030","158","0.13964844","-0.9345703","-0.24414062","-7.65625","-16.96875","-3.6875"
"1574193076031","159","0.16699219","-0.9160156","-0.23339844","-7.09375","-11.90625","-14.34375"
"1574193076423","160","0.12597656","-0.88378906","-0.3017578","8.28125","-7.59375","-18.5625"
"1574193076424","161","0.16992188","-0.8857422","-0.28710938","1.875","0.09375","0.96875"
"1574193076424","162","0.13574219","-0.9082031","-0.28515625","-6.1875","-1.90625","0.28125"
"1574193076424","163","0.18945312","-0.93359375","-0.25","12.4375","-6.59375","0.0"
"1574193076425","164","0.19726562","-0.8828125","-0.296875","9.75","-0.3125","2.0"
"1574193076425","165","0.15820312","-0.8769531","-0.24902344","17.8125","-1.25","5.125"
"1574193076425","166","0.07421875","-0.94433594","-0.2109375","12.375","3.34375","9.5625"
"1574193076425","167","0.03125","-0.9433594","-0.20117188","15.3125","2.65625","15.0625"
"1574193076426","168","0.08105469","-0.93359375","-0.15722656","21.09375","11.03125","18.65625"
"1574193076427","169","0.055664062","-0.93359375","-0.13085938","14.375","17.0625","14.15625"
"1574193076821","170","-0.0048828125","-0.92089844","-0.07421875","28.1875","7.6875","19.15625"
"1574193076822","171","-0.0107421875","-0.9609375","-0.052734375","40.28125","19.5625","25.375"
"1574193076822","172","-0.06542969","-0.98339844","-0.020507812","39.0625","16.65625","31.53125"
"1574193076822","173","-0.09472656","-0.9951172","0.057617188","44.25","23.71875","33.625"
"1574193076822","174","-0.1484375","-1.0253906","0.115234375","44.40625","9.125","33.84375"
"1574193076823","175","-0.23535156","-0.9902344","0.1640625","33.4375","14.09375","22.1875"
"1574193076823","176","-0.18847656","-1.0478516","0.18164062","22.75","23.3125","28.4375"
"1574193076823","177","-0.2109375","-1.0761719","0.22265625","27.75","2.25","33.25"
"1574193076824","178","-0.3203125","-1.0605469","0.31347656","30.375","15.3125","33.125"
"1574193076824","179","-0.4375","-1.0634766","0.29003906","0.65625","22.625","-2.15625"
"1574193077218","180","-0.39648438","-1.0332031","0.2998047","-0.0625","-11.3125","11.59375"
"1574193077220","181","-0.24511719","-1.1152344","0.39746094","-17.84375","3.59375","12.25"
"1574193077221","182","-0.32226562","-1.0859375","0.3486328","-2.59375","-11.5625","-26.25"
"1574193077221","183","-0.40039062","-1.0292969","0.2998047","11.21875","-3.4375","-28.09375"
"1574193077221","184","-0.3203125","-0.9814453","0.3154297","-16.625","-3.3125","-2.8125"
"1574193077222","185","-0.22265625","-0.9980469","0.29296875","-17.71875","1.28125","-15.34375"
"1574193077222","186","-0.1796875","-1.0449219","0.2265625","-7.21875","8.09375","-27.1875"
"1574193077222","187","-0.203125","-1.0058594","0.1796875","-18.4375","2.84375","-16.5625"
"1574193077222","188","-0.19140625","-0.93652344","0.18554688","-24.3125","-3.8125","-12.84375"
"1574193077223","189","-0.15527344","-0.9902344","0.16308594","-27.1875","-4.34375","-26.25"
"1574193077615","190","-0.08984375","-1.0253906","0.09667969","-37.1875","-0.4375","-32.5"
"1574193077615","191","-0.07910156","-0.96484375","0.0107421875","-28.21875","-8.0","-28.75"
"1574193077616","192","-0.018554688","-0.9169922","-0.025390625","-19.3125","-9.46875","-28.53125"
"1574193077617","193","0.047851562","-0.9140625","-0.07519531","-20.09375","-2.09375","-29.5625"
"1574193077617","194","0.13183594","-0.9501953","-0.12988281","-23.75","-2.6875","-15.09375"
"1574193077617","195","0.09375","-0.92285156","-0.11230469","-30.53125","-14.34375","-6.25"
"1574193077618","196","0.08105469","-0.89941406","-0.15820312","-2.28125","-12.65625","-14.78125"
"1574193077618","197","0.09277344","-0.9404297","-0.18066406","-0.625","-9.0","-19.125"
"1574193077618","198","0.13085938","-0.96875","-0.16601562","-14.90625","-18.3125","-9.59375"
"1574193077618","199","0.12695312","-0.90234375","-0.18261719","-3.625","-13.625","-1.96875"
"1574193078013","200","0.10546875","-0.9140625","-0.20117188","-2.6875","2.3125","4.5625"
"1574193078014","201","0.06640625","-0.953125","-0.203125","-6.0625","9.75","8.21875"
"1574193078014","202","0.05078125","-0.94140625","-0.18164062","0.65625","9.03125","8.28125"
"1574193078014","203","0.12402344","-0.9589844","-0.18847656","3.34375","14.375","18.34375"
"1574193078015","204","0.14453125","-0.91503906","-0.16210938","5.90625","5.0625","25.375"
"1574193078016","205","0.06933594","-0.87597656","-0.13574219","10.375","15.1875","13.71875"
"1574193078017","206","0.033203125","-0.9248047","-0.12792969","14.375","15.71875","23.25"
"1574193078017","207","0.025390625","-0.9902344","-0.11328125","9.6875","11.15625","24.40625"
"1574193078017","208","-0.041992188","-0.94628906","-0.061523438","17.6875","13.40625","19.9375"
"1574193078017","209","-0.08984375","-0.89453125","-0.028320312","24.40625","14.09375","24.75"
"1574193078807","210","-0.08203125","-0.953125","-0.0029296875","27.75","27.75","36.25"
"1574193078807","211","-0.123046875","-1.0019531","0.017578125","22.625","27.28125","36.53125"
"1574193078808","212","-0.2685547","-1.0341797","0.052734375","30.375","31.125","26.40625"
"1574193078808","213","-0.3359375","-0.99609375","0.16796875","27.34375","29.9375","22.25"
"1574193078808","214","-0.2783203","-1.0146484","0.20703125","13.71875","24.71875","18.40625"
"1574193078809","215","-0.25097656","-1.0322266","0.20605469","15.0625","26.71875","12.25"
"1574193078809","216","-0.34277344","-1.0195312","0.2109375","7.375","16.40625","11.8125"
"1574193078811","217","-0.4638672","-0.97558594","0.23535156","15.25","-0.8125","4.8125"
"1574193078811","218","-0.4189453","-1.0439453","0.35253906","8.84375","-14.34375","-9.59375"
"1574193078812","219","-0.3984375","-1.1132812","0.3330078","-12.71875","5.84375","-5.8125"
"1574193079004","220","-0.42578125","-1.0888672","0.2919922","-9.59375","-3.1875","-14.46875"
"1574193079005","221","-0.3984375","-1.0175781","0.31054688","-10.5","-10.21875","-12.90625"
"1574193079005","222","-0.34179688","-1.0195312","0.23242188","-12.09375","8.15625","-10.34375"
"1574193079005","223","-0.33789062","-1.0488281","0.24414062","-12.15625","3.46875","-7.53125"
"1574193079006","224","-0.30371094","-1.0146484","0.21191406","-11.125","3.9375","-12.78125"
"1574193079006","225","-0.24511719","-0.9902344","0.19042969","-10.875","5.71875","-9.21875"
"1574193079006","226","-0.24316406","-0.9580078","0.15234375","-11.125","0.15625","-7.34375"
"1574193079006","227","-0.22753906","-1.0","0.111328125","-19.96875","4.0625","-14.78125"
"1574193079007","228","-0.18652344","-0.953125","0.08496094","-28.09375","-2.625","-18.9375"
"1574193079008","229","-0.1640625","-0.93847656","0.05078125","-18.25","-15.6875","-26.125"
"1574193079205","230","-0.10839844","-0.94628906","0.013671875","-20.46875","-15.09375","-27.25"
"1574193079205","231","-0.015625","-1.0332031","-0.05859375","-39.3125","2.59375","-23.21875"
"1574193079205","232","0.01953125","-1.0673828","-0.1484375","-26.3125","-3.3125","-14.71875"
"1574193079205","233","-0.022460938","-0.9238281","-0.08496094","-6.3125","-25.96875","-25.03125"
"1574193079206","234","0.021484375","-0.8222656","-0.107421875","-7.65625","-16.625","-27.53125"
"1574193079206","235","0.07910156","-0.8847656","-0.13085938","-12.96875","-29.0","-11.96875"
"1574193079206","236","0.046875","-0.9716797","-0.17578125","-5.8125","-19.78125","-12.28125"
"1574193079207","237","0.018554688","-0.9863281","-0.17675781","2.71875","-14.1875","-12.28125"
"1574193079207","238","0.01953125","-0.9326172","-0.17675781","0.96875","-6.71875","-4.46875"
"1574193079207","239","0.041015625","-0.92285156","-0.171875","0.34375","-5.875","11.03125"
"1574193079603","240","0.061523438","-0.9501953","-0.18945312","2.71875","1.15625","13.40625"
"1574193079603","241","0.0390625","-0.9375","-0.19335938","0.90625","13.28125","9.8125"
"1574193079603","242","0.0234375","-0.9638672","-0.18164062","8.71875","13.40625","8.15625"
"1574193079604","243","0.038085938","-0.9609375","-0.140625","5.90625","10.0625","14.625"
"1574193079604","244","0.0703125","-0.9482422","-0.15332031","7.90625","13.96875","14.875"
"1574193079604","245","0.0126953125","-0.96777344","-0.1171875","7.125","4.6875","12.0625"
"1574193079604","246","-0.029296875","-0.93066406","-0.1015625","17.5625","18.96875","13.96875"
"1574193079605","247","-0.06738281","-0.9316406","-0.09472656","20.90625","6.5625","15.65625"
"1574193079605","248","-0.1015625","-0.92285156","-0.009765625","16.9375","-0.875","19.15625"
"1574193079605","249","-0.055664062","-0.9394531","0.036132812","17.6875","8.28125","19.34375"
"1574193080013","250","-0.0625","-1.0146484","0.0126953125","19.75","-0.375","17.3125"
"1574193080014","251","-0.21191406","-0.96875","0.049804688","31.96875","-2.21875","10.90625"
"1574193080014","252","-0.21679688","-0.9814453","0.14746094","19.09375","-6.59375","29.46875"
"1574193080014","253","-0.25097656","-1.0087891","0.19921875","6.625","-13.75","14.5"
"1574193080014","254","-0.2890625","-1.0283203","0.20214844","8.65625","-10.34375","-8.625"
"1574193080014","255","-0.33203125","-1.0419922","0.16699219","24.34375","-11.25","-8.125"
"1574193080015","256","-0.30273438","-0.9765625","0.3173828","17.25","-15.625","25.3125"
"1574193080015","257","-0.42773438","-1.1816406","0.32128906","-7.875","9.3125","1.09375"
"1574193080016","258","-0.3876953","-1.0615234","0.34570312","5.59375","-1.40625","-9.0"
"1574193080016","259","-0.2861328","-1.0537109","0.27539062","-19.375","0.34375","-13.5625"
"1574193080399","260","-0.2939453","-1.0166016","0.36132812","-29.75","0.15625","-13.3125"
"1574193080399","261","-0.32714844","-0.9736328","0.28125","-5.5625","3.28125","-23.40625"
"1574193080400","262","-0.23828125","-0.96484375","0.20703125","-9.71875","8.15625","-17.78125"
"1574193080400","263","-0.21972656","-0.9746094","0.23339844","-15.875","9.875","-6.0625"
"1574193080400","264","-0.1875","-0.94628906","0.21484375","0.03125","9.8125","-5.4375"
"1574193080401","265","-0.18164062","-0.96484375","0.13085938","-2.09375","1.6875","-2.875"
"1574193080402","266","-0.18164062","-0.9921875","0.14550781","-12.34375","9.75","2.5"
"1574193080402","267","-0.16992188","-1.0283203","0.119140625","-6.4375","6.21875","0.0"
"1574193080403","268","-0.22753906","-1.140625","0.13476562","-3.875","1.375","-17.71875"
"1574193080403","269","-0.21777344","-1.0654297","0.16894531","-38.46875","11.21875","-29.4375"
"1574193080994","270","-0.15527344","-0.97753906","0.14941406","-37.4375","-6.25","-26.9375"
"1574193080995","271","-0.0703125","-0.9746094","0.06640625","-32.5","-2.59375","-27.46875"
"1574193080995","272","-0.05078125","-1.0058594","0.005859375","-16.4375","9.875","-26.25"
"1574193080996","273","0.04296875","-0.9423828","-0.14550781","-31.4375","16.59375","-27.125"
"1574193080996","274","0.09667969","-0.86328125","-0.16210938","-19.96875","-10.625","-10.40625"
"1574193080996","275","0.13574219","-0.8876953","-0.13574219","-24.84375","6.09375","-14.78125"
"1574193080996","276","0.056640625","-0.9189453","-0.18554688","-6.71875","-8.0625","-12.71875"
"1574193080998","277","0.03125","-0.9423828","-0.17773438","-18.625","-9.65625","-13.03125"
"1574193080998","278","0.16308594","-0.9511719","-0.20800781","-10.21875","-0.5625","-12.59375"
"1574193080998","279","0.14550781","-0.92285156","-0.15917969","12.9375","-17.90625","1.3125"
"1574193081193","280","0.06347656","-0.93066406","-0.203125","-3.375","-9.71875","4.875"
"1574193081193","281","0.016601562","-0.95214844","-0.25195312","6.21875","6.34375","0.90625"
"1574193081194","282","0.0107421875","-0.93652344","-0.22070312","14.15625","4.5625","4.1875"
"1574193081194","283","0.10449219","-0.9160156","-0.17773438","4.75","15.1875","14.09375"
"1574193081194","284","0.10058594","-0.94921875","-0.19726562","10.46875","14.625","15.4375"
"1574193081194","285","0.001953125","-0.9609375","-0.18847656","16.9375","15.0625","18.53125"
"1574193081195","286","0.0087890625","-0.93359375","-0.21777344","16.09375","26.15625","25.3125"
"1574193081195","287","0.056640625","-0.9277344","-0.15527344","17.375","16.9375","33.625"
"1574193081195","288","0.046875","-0.91503906","-0.09765625","20.5","16.65625","38.75"
"1574193081196","289","-0.02734375","-0.9433594","-0.10839844","24.53125","10.46875","26.84375"
"1574193081790","290","-0.059570312","-0.9121094","-0.036132812","39.15625","-4.28125","32.9375"
"1574193081791","291","-0.0546875","-0.89453125","-0.0146484375","29.40625","1.3125","40.5"
"1574193081791","292","-0.17578125","-0.9560547","0.047851562","44.1875","-5.6875","16.65625"
"1574193081791","293","-0.23339844","-0.96875","0.18359375","26.84375","-7.46875","29.34375"
"1574193081792","294","-0.3359375","-1.0136719","0.19628906","28.96875","-14.125","23.96875"
"1574193081792","295","-0.44628906","-0.99316406","0.3330078","33.3125","-11.3125","18.1875"
"1574193081792","296","-0.3779297","-1.2050781","0.28125","14.03125","-8.6875","-9.65625"
"1574193081792","297","-0.36621094","-0.9042969","0.35546875","-20.34375","-19.53125","2.0"
"1574193081793","298","-0.4765625","-1.0273438","0.38867188","-8.5","1.28125","-3.125"
"1574193081793","299","-0.47265625","-1.1240234","0.46289062","-37.84375","-19.53125","-28.40625"
"1574193082187","300","-0.390625","-0.9628906","0.42382812","-11.0","-13.5","-24.78125"
"1574193082188","301","-0.34765625","-0.984375","0.3779297","-33.65625","-2.59375","-31.09375"
"1574193082188","302","-0.36523438","-1.0654297","0.33789062","-16.625","-2.03125","-18.875"
"1574193082189","303","-0.35058594","-1.0517578","0.2919922","-25.03125","19.625","-13.4375"
"1574193082189","304","-0.234375","-0.9667969","0.30664062","-16.5625","-1.1875","-4.65625"
"1574193082189","305","-0.28125","-1.0185547","0.3017578","-8.25","7.75","-8.8125"
"1574193082189","306","-0.28515625","-1.0585938","0.21484375","-12.21875","16.71875","-14.0"
"1574193082190","307","-0.24316406","-1.0107422","0.18164062","-16.5625","12.4375","-15.46875"
"1574193082190","308","-0.16992188","-0.9736328","0.12207031","-17.03125","14.5625","-16.375"
"1574193082190","309","-0.103515625","-0.9794922","0.08203125","-19.84375","8.40625","-22.84375"
"1574193082386","310","-0.0390625","-0.95996094","0.0390625","-25.03125","6.5","-21.75"
"1574193082386","311","-0.041015625","-0.9169922","-0.009765625","-8.8125","-19.125","-20.03125"
"1574193082386","312","0.032226562","-0.9472656","-0.080078125","-30.46875","-5.09375","-19.5"
"1574193082391","313","0.061523438","-0.96484375","-0.15136719","-28.65625","-1.0625","-23.09375"
"1574193082391","314","-0.04296875","-0.95996094","-0.1328125","2.0625","-15.46875","-20.40625"
"1574193082392","315","0.020507812","-0.9453125","-0.14160156","-9.15625","-6.65625","-20.40625"
"1574193082392","316","0.16113281","-0.91503906","-0.17480469","-9.34375","-6.84375","-17.78125"
"1574193082392","317","0.12792969","-0.9042969","-0.17675781","10.0","-7.34375","-6.0625"
"1574193082393","318","0.087890625","-0.9433594","-0.19335938","0.0","-2.53125","-5.375"
"1574193082393","319","0.111328125","-0.98339844","-0.21484375","-6.375","-2.875","-5.15625"
"1574193082783","320","0.12207031","-0.9638672","-0.18945312","-1.3125","-0.3125","-1.78125"
"1574193082783","321","0.087890625","-0.90722656","-0.15722656","4.75","1.09375","-6.5"
"1574193082784","322","0.09765625","-0.93652344","-0.16894531","4.5625","8.46875","0.0"
"1574193082784","323","0.12988281","-0.96484375","-0.18261719","-3.6875","8.40625","7.90625"
"1574193082784","324","0.10058594","-0.9394531","-0.1484375","3.28125","-2.46875","11.9375"
"1574193082785","325","0.056640625","-0.9453125","-0.17578125","10.59375","15.3125","16.40625"
"1574193082786","326","0.021484375","-0.97265625","-0.125","8.15625","15.5625","18.53125"
"1574193082786","327","0.0068359375","-0.9785156","-0.09082031","8.84375","13.84375","20.0"
"1574193082786","328","-0.0048828125","-0.93066406","-0.0703125","12.875","13.71875","11.03125"
"1574193082787","329","0.08300781","-0.89453125","-0.06738281","21.71875","18.96875","18.1875"
"1574193083180","330","0.049804688","-0.94921875","-0.051757812","16.40625","18.40625","27.5625"
"1574193083181","331","-0.01171875","-0.8955078","0.041015625","25.375","4.25","37.75"
"1574193083181","332","-0.17089844","-0.9736328","0.037109375","30.0625","16.40625","23.59375"
"1574193083181","333","-0.22363281","-0.9482422","0.1640625","19.34375","-6.375","28.3125"
"1574193083181","334","-0.22265625","-1.0234375","0.15429688","32.15625","-2.75","28.78125"
"1574193083182","335","-0.17773438","-0.9667969","0.19238281","10.78125","-5.25","29.46875"
"1574193083182","336","-0.32421875","-1.0732422","0.27148438","14.21875","-11.375","8.59375"
"1574193083183","337","-0.3857422","-1.0947266","0.27929688","22.3125","-8.5625","14.875"
"1574193083183","338","-0.3955078","-0.93847656","0.25683594","-1.25","0.40625","4.0625"
"1574193083184","339","-0.40234375","-1.0068359","0.35546875","-10.8125","8.53125","10.84375"
"1574193083577","340","-0.35253906","-1.0419922","0.32910156","-3.625","-15.6875","11.15625"
"1574193083578","341","-0.34765625","-1.0507812","0.3330078","2.4375","1.3125","-9.28125"
"1574193083578","342","-0.40625","-1.0419922","0.4453125","-15.09375","6.15625","-9.65625"
"1574193083579","343","-0.44433594","-1.0136719","0.3173828","-12.71875","10.1875","-8.5"
"1574193083579","344","-0.40039062","-1.0410156","0.30273438","-3.125","-3.3125","-18.4375"
"1574193083579","345","-0.2685547","-1.0371094","0.3203125","-13.875","2.0625","-22.46875"
"1574193083579","346","-0.24121094","-1.0166016","0.2529297","-13.9375","12.1875","-23.34375"
"1574193083580","347","-0.3046875","-0.9785156","0.22460938","-16.5625","18.1875","-20.84375"
"1574193083580","348","-0.28515625","-0.96972656","0.17578125","-21.75","11.21875","-22.125"
"1574193083581","349","-0.17578125","-1.0078125","0.14746094","-23.6875","10.125","-21.125"
"1574193083976","350","-0.07714844","-0.95410156","0.09375","-35.96875","7.1875","-26.4375"
"1574193083976","351","-0.08105469","-0.9277344","0.02734375","-29.5","-6.59375","-35.28125"
"1574193083976","352","-0.060546875","-0.9638672","-0.103515625","-14.53125","-11.4375","-32.84375"
"1574193083977","353","0.08496094","-0.98828125","-0.14746094","-37.78125","3.84375","-28.8125"
"1574193083977","354","0.009765625","-0.96972656","-0.10546875","-29.0625","-10.5","-25.90625"
"1574193083977","355","0.01171875","-0.96484375","-0.14355469","-17.46875","5.71875","-29.96875"
"1574193083978","356","0.028320312","-0.92285156","-0.21484375","-27.71875","14.8125","-18.15625"
"1574193083978","357","0.07910156","-0.8613281","-0.20214844","-2.28125","-8.125","-13.8125"
"1574193083978","358","0.16503906","-0.9238281","-0.18457031","-5.15625","3.46875","3.34375"
"1574193083978","359","0.17871094","-0.9453125","-0.22460938","-19.1875","7.0625","-0.5625"
"1574193084373","360","0.09277344","-0.94921875","-0.24609375","-0.375","2.84375","4.75"
"1574193084375","361","0.046875","-0.89941406","-0.25","1.15625","4.5625","2.375"
"1574193084375","362","0.10449219","-0.94140625","-0.24609375","5.125","14.875","4.375"
"1574193084376","363","0.14257812","-0.9355469","-0.19824219","2.78125","7.125","11.15625"
"1574193084376","364","0.125","-0.93359375","-0.1953125","2.71875","6.46875","11.03125"
"1574193084376","365","0.09277344","-0.9404297","-0.21289062","8.71875","6.03125","7.375"
"1574193084376","366","0.06640625","-0.9111328","-0.22167969","6.6875","7.0","8.34375"
"1574193084376","367","0.064453125","-0.9248047","-0.17089844","7.90625","11.40625","24.875"
"1574193084377","368","0.041015625","-0.9589844","-0.12890625","7.90625","7.125","23.78125"
"1574193084377","369","0.016601562","-0.9140625","-0.140625","21.21875","7.5625","19.9375"
"1574193084770","370","-0.026367188","-0.93847656","-0.1015625","16.78125","11.03125","15.65625"
"1574193084771","371","-0.056640625","-0.9482422","-0.037109375","21.90625","7.375","23.4375"
"1574193084771","372","-0.15917969","-1.0185547","9.765625E-4","18.1875","14.8125","20.1875"
"1574193084773","373","-0.18847656","-1.0263672","0.056640625","24.15625","13.0","37.40625"
"1574193084773","374","-0.2890625","-1.0615234","0.051757812","15.3125","31.25","23.84375"
"1574193084773","375","-0.27148438","-0.8720703","0.2421875","5.90625","19.75","39.78125"
"1574193084773","376","-0.35546875","-1.1103516","0.14453125","-11.0","37.75","29.90625"
"1574193084774","377","-0.32421875","-1.1992188","0.08691406","-7.71875","12.8125","14.15625"
"1574193084774","378","-0.3720703","-0.9580078","0.21777344","-5.375","8.53125","-5.15625"
"1574193084774","379","-0.4404297","-0.95703125","0.25585938","-2.875","-3.96875","0.34375"
"1574193085168","380","-0.38378906","-1.0253906","0.1484375","4.6875","-27.65625","-20.71875"
"1574193085168","381","-0.26660156","-1.1367188","0.27539062","-5.9375","-18.625","-14.0625"
"1574193085169","382","-0.37890625","-1.0927734","0.29101562","5.59375","-27.84375","-28.03125"
"1574193085169","383","-0.4716797","-1.0273438","0.22265625","-0.25","-10.5","-22.96875"
"1574193085169","384","-0.36914062","-1.0507812","0.16992188","-19.53125","-0.375","-6.78125"
"1574193085171","385","-0.29101562","-1.0605469","0.21386719","-8.6875","-8.1875","-6.96875"
"1574193085171","386","-0.26464844","-1.0683594","0.15917969","-5.09375","14.03125","-16.96875"
"1574193085172","387","-0.30566406","-1.0527344","0.12207031","-18.25","23.0","-16.1875"
"1574193085173","388","-0.2890625","-1.0214844","0.12890625","-12.71875","5.96875","-14.125"
"1574193085173","389","-0.14550781","-1.0234375","0.053710938","-18.03125","1.4375","-19.0"
"1574193085565","390","-0.07128906","-1.0009766","0.0068359375","-22.15625","-2.21875","-27.65625"
"1574193085565","391","-0.087890625","-0.97558594","-0.06738281","-12.71875","-1.0625","-34.5"
"1574193085566","392","-0.043945312","-0.91796875","-0.091796875","-20.03125","0.46875","-27.65625"
"1574193085566","393","0.028320312","-0.9169922","-0.13964844","-30.03125","0.34375","-22.90625"
"1574193085566","394","0.0546875","-0.9082031","-0.20214844","-17.28125","-9.15625","-23.15625"
"1574193085566","395","0.0625","-0.9375","-0.20605469","-5.375","0.34375","-25.40625"
"1574193085566","396","0.1015625","-0.92871094","-0.22460938","-4.46875","-4.28125","-14.0625"
"1574193085568","397","0.12011719","-0.93359375","-0.22363281","2.0","-9.15625","-3.8125"
"1574193085568","398","0.1484375","-0.9121094","-0.24121094","-11.125","-2.53125","-2.75"
"1574193085568","399","0.13671875","-0.91015625","-0.23828125","-13.125","-5.15625","-4.09375"
"1574193085963","400","0.076171875","-0.9580078","-0.24804688","2.375","-1.0","0.78125"
"1574193085964","401","0.09472656","-0.9560547","-0.25390625","-3.5625","4.5","1.3125"
"1574193085964","402","0.123046875","-0.93359375","-0.2529297","-4.34375","0.46875","4.75"
"1574193085964","403","0.12402344","-0.9404297","-0.21679688","2.90625","3.53125","5.34375"
"1574193085965","404","0.119140625","-0.9199219","-0.22949219","2.0625","5.0","5.40625"
"1574193085965","405","0.11425781","-0.9277344","-0.24121094","5.46875","6.46875","12.75"
"1574193085965","406","0.10839844","-0.9277344","-0.22558594","7.6875","5.21875","18.90625"
"1574193085965","407","0.052734375","-0.90527344","-0.18261719","7.8125","5.78125","14.625"
"1574193085965","408","0.0234375","-0.94628906","-0.19433594","15.5625","8.84375","16.90625"
"1574193085967","409","0.005859375","-0.93847656","-0.16992188","9.03125","12.25","16.65625"
"1574193086559","410","0.009765625","-0.9345703","-0.13378906","15.1875","12.1875","18.84375"
"1574193086560","411","-0.013671875","-0.9189453","-0.08984375","22.125","13.71875","25.875"
"1574193086560","412","-0.055664062","-0.96875","-0.08496094","22.5","15.0","28.78125"
"1574193086561","413","-0.06640625","-1.0185547","-0.041015625","9.6875","14.21875","30.8125"
"1574193086561","414","-0.18847656","-0.9921875","-0.020507812","18.0625","13.59375","19.8125"
"1574193086562","415","-0.25976562","-0.98046875","0.08300781","22.03125","7.6875","16.53125"
"1574193086562","416","-0.27148438","-1.0400391","0.10449219","5.65625","12.625","18.96875"
"1574193086562","417","-0.36132812","-0.98046875","0.14160156","-0.75","-0.5625","24.65625"
"1574193086562","418","-0.26660156","-1.1503906","0.10253906","1.6875","4.5625","20.96875"
"1574193086563","419","-0.43164062","-1.0371094","0.18261719","7.0","6.09375","-6.25"
"1574193086758","420","-0.3779297","-0.96484375","0.25585938","10.78125","-8.0625","10.90625"
"1574193086760","421","-0.37304688","-1.1308594","0.16992188","-8.625","-9.46875","-20.09375"
"1574193086760","422","-0.37597656","-1.0966797","0.21875","0.03125","-6.71875","-19.25"
"1574193086761","423","-0.4404297","-1.0507812","0.296875","9.75","-16.75","-22.53125"
"1574193086761","424","-0.38671875","-1.0449219","0.26464844","-6.3125","-0.0625","-15.875"
"1574193086761","425","-0.3515625","-1.1269531","0.17675781","-10.9375","4.0625","-11.5"
"1574193086761","426","-0.30859375","-1.0585938","0.18066406","-12.40625","10.0","-12.78125"
"1574193086762","427","-0.2705078","-1.0361328","0.14648438","-8.0","10.0","-14.71875"
"1574193086762","428","-0.27246094","-1.0185547","0.1015625","-11.5","9.625","-10.625"
"1574193086762","429","-0.23535156","-0.9824219","0.107421875","-12.34375","7.1875","-6.0625"
"1574193087154","430","-0.16699219","-0.97753906","0.0126953125","-1.0625","6.75","-15.40625"
"1574193087155","431","-0.12890625","-0.9794922","-0.06738281","-9.34375","6.75","-22.71875"
"1574193087155","432","-0.051757812","-0.9736328","-0.020507812","-21.3125","-2.03125","-15.59375"
"1574193087156","433","9.765625E-4","-0.9589844","-0.06738281","-26.25","-7.53125","-17.03125"
"1574193087157","434","-0.01953125","-0.96484375","-0.11425781","-34.875","-4.21875","-26.5625"
"1574193087157","435","0.001953125","-0.94628906","-0.1484375","-21.0","-15.34375","-26.8125"
"1574193087157","436","0.046875","-0.9794922","-0.21972656","-17.71875","-12.21875","-24.375"
"1574193087157","437","0.00390625","-0.9433594","-0.19824219","-15.6875","-4.90625","-26.1875"
"1574193087157","438","0.0234375","-0.9033203","-0.21679688","-6.125","-7.21875","-20.46875"
"1574193087158","439","0.11230469","-0.8730469","-0.2607422","-27.40625","-2.15625","-15.28125"
"1574193087555","440","0.119140625","-0.93359375","-0.20996094","-8.0625","-4.34375","-6.3125"
"1574193087555","441","0.10058594","-0.9501953","-0.26757812","-14.78125","8.78125","-4.34375"
"1574193087556","442","0.10644531","-0.9277344","-0.2919922","-6.1875","8.09375","2.5"
"1574193087556","443","0.111328125","-0.8886719","-0.25683594","0.34375","5.59375","5.0"
"1574193087556","444","0.12695312","-0.91015625","-0.2548828","-2.59375","8.09375","9.8125"
"1574193087558","445","0.12597656","-0.9404297","-0.24609375","5.34375","1.375","9.03125"
"1574193087558","446","0.13183594","-0.921875","-0.26367188","10.71875","5.65625","7.625"
"1574193087558","447","0.12988281","-0.9013672","-0.22753906","8.71875","4.125","13.28125"
"1574193087559","448","0.08496094","-0.90722656","-0.21582031","11.40625","2.4375","17.0625"
"1574193087559","449","0.08886719","-0.93652344","-0.23339844","17.75","4.0625","24.15625"
"1574193088147","450","0.0546875","-0.9316406","-0.19238281","20.0625","3.53125","25.5"
"1574193088147","451","-0.0048828125","-0.9277344","-0.1484375","14.3125","6.28125","20.0"
"1574193088148","452","-0.021484375","-0.9042969","-0.14257812","25.75","0.84375","24.34375"
"1574193088148","453","-0.052734375","-0.98339844","-0.123046875","25.3125","4.5625","27.21875"
"1574193088148","454","-0.064453125","-1.0175781","-0.060546875","18.40625","6.6875","27.625"
"1574193088148","455","-0.18945312","-0.98046875","0.06542969","23.0625","12.625","18.90625"
"1574193088149","456","-0.2685547","-1.0771484","0.15429688","53.75","19.34375","39.28125"
"1574193088150","457","-0.2607422","-1.125","-9.765625E-4","22.75","52.96875","55.21875"
"1574193088150","458","-0.43554688","-0.8330078","0.1796875","-24.4375","18.28125","36.59375"
"1574193088150","459","-0.45117188","-1.0058594","0.13964844","-0.125","-0.625","19.40625"
"1574193088348","460","-0.29882812","-1.1123047","0.1640625","-9.53125","-16.96875","6.5625"
"1574193088348","461","-0.40527344","-1.0205078","0.2607422","6.75","-1.65625","-10.40625"
"1574193088348","462","-0.5859375","-0.9941406","0.17871094","1.09375","-11.5625","-24.90625"
"1574193088349","463","-0.46191406","-1.0927734","0.21582031","-1.40625","-50.5","-23.21875"
"1574193088349","464","-0.30566406","-1.0839844","0.22949219","-1.65625","-27.84375","-17.96875"
"1574193088349","465","-0.36621094","-1.0771484","0.25","-10.8125","-4.71875","-26.125"
"1574193088349","466","-0.47070312","-1.0195312","0.20703125","0.09375","4.5625","-13.625"
"1574193088350","467","-0.35253906","-0.99609375","0.18945312","-15.75","1.4375","1.4375"
"1574193088350","468","-0.33203125","-1.0117188","0.14941406","-4.59375","10.96875","-10.15625"
"1574193088351","469","-0.2998047","-0.9970703","0.14550781","-1.65625","22.4375","-13.9375"
"1574193088745","470","-0.2578125","-0.9921875","0.04296875","-19.5","30.0625","-4.53125"
"1574193088746","471","-0.19238281","-1.0292969","0.04296875","-17.53125","19.5625","-9.28125"
"1574193088746","472","-0.20507812","-1.0273438","0.053710938","-12.78125","20.4375","-21.1875"
"1574193088746","473","-0.21875","-1.0029297","-0.0078125","-12.28125","7.3125","-29.875"
"1574193088746","474","-0.13085938","-0.984375","0.0107421875","-18.15625","-19.125","-26.03125"
"1574193088747","475","-0.09082031","-0.99316406","-0.0068359375","-24.90625","-21.8125","-32.4375"
"1574193088747","476","-0.078125","-1.015625","-0.083984375","-32.71875","-16.125","-31.25"
"1574193088747","477","-0.045898438","-0.9560547","-0.21289062","-28.40625","-10.5","-28.09375"
"1574193088747","478","0.022460938","-0.96777344","-0.20117188","-15.03125","-22.0625","-21.375"
"1574193088748","479","0.08496094","-0.91308594","-0.20898438","-13.8125","-1.78125","-27.0625"
