"# PR data"
"# Start time: 20191119T195501"
"# Subject: joao"
"# Activity type: Walking"
"# Correctness: Correct"
"# Notes: "
""
"timestamp","seq","accel_x","accel_y","accel_z","gyro_x","gyro_y","gyro_z"
"1574193301210","0","-0.09082031","-0.7636719","-0.36621094","-12.96875","96.46875","13.84375"
"1574193301210","1","-0.017578125","-0.8798828","-0.19433594","-31.375","107.46875","5.65625"
"1574193301211","2","0.2548828","-1.0908203","-0.140625","-11.0","120.46875","13.84375"
"1574193301211","3","0.30273438","-1.0761719","-0.26953125","13.40625","111.625","20.0625"
"1574193301211","4","0.4482422","-1.2578125","-0.056640625","5.90625","59.25","18.40625"
"1574193301211","5","0.4189453","-0.8486328","-0.046875","59.8125","9.03125","7.5"
"1574193301212","6","0.4189453","-0.7080078","-0.19726562","44.0","-1.125","-6.59375"
"1574193301212","7","0.33984375","-0.9140625","-0.20410156","-34.8125","5.28125","-6.0"
"1574193301212","8","0.203125","-1.2763672","-0.2109375","-19.375","11.09375","1.21875"
"1574193301215","9","0.107421875","-1.1318359","-0.18164062","7.5","13.84375","-7.78125"
"1574193301408","10","0.23632812","-0.83203125","-0.06347656","18.125","-7.40625","-24.375"
"1574193301409","11","0.37597656","-0.8105469","-0.07910156","-12.71875","-16.4375","-5.6875"
"1574193301410","12","0.19433594","-1.0537109","-0.17578125","-37.0625","15.125","2.71875"
"1574193301410","13","0.038085938","-1.1230469","-0.2705078","-21.25","-10.9375","-10.34375"
"1574193301410","14","0.140625","-0.88964844","-0.2548828","-1.34375","-39.8125","-18.21875"
"1574193301411","15","0.2998047","-0.8486328","-0.09375","-13.125","-9.96875","-4.21875"
"1574193301411","16","0.17773438","-0.95214844","-0.125","-14.71875","6.40625","6.5625"
"1574193301411","17","-0.001953125","-1.0224609","-0.2421875","-6.125","-8.5625","6.8125"
"1574193301411","18","0.08105469","-0.9902344","-0.2626953","3.53125","-22.28125","0.0"
"1574193301412","19","0.18261719","-0.9970703","-0.15429688","4.875","-7.875","-0.75"
"1574193301807","20","0.13769531","-1.0283203","-0.20996094","0.46875","1.03125","4.25"
"1574193301808","21","0.13183594","-1.0214844","-0.24316406","-3.4375","-7.09375","1.625"
"1574193301808","22","0.13476562","-1.046875","-0.21191406","-16.125","-16.4375","-7.59375"
"1574193301808","23","0.09667969","-1.0107422","-0.24804688","-27.84375","-0.9375","-16.875"
"1574193301809","24","0.109375","-0.8769531","-0.22167969","-3.5625","-5.09375","-13.875"
"1574193301809","25","0.20800781","-0.82128906","-0.13671875","2.125","-21.0625","-9.59375"
"1574193301810","26","0.14941406","-0.9277344","-0.28125","-15.6875","9.4375","2.96875"
"1574193301810","27","0.017578125","-1.1708984","-0.34570312","-28.53125","10.78125","-1.46875"
"1574193301810","28","0.14257812","-0.9970703","-0.26660156","6.09375","-15.6875","-7.03125"
"1574193301810","29","0.18847656","-0.91015625","-0.20703125","13.65625","-16.6875","14.28125"
"1574193302204","30","0.03125","-0.89453125","-0.23632812","-8.125","5.96875","13.0"
"1574193302204","31","0.047851562","-0.94140625","-0.32128906","8.15625","7.5625","9.25"
"1574193302205","32","0.14746094","-0.9941406","-0.27539062","0.0","-2.6875","6.03125"
"1574193302205","33","0.13085938","-1.0009766","-0.23339844","-1.46875","14.21875","1.03125"
"1574193302205","34","0.078125","-0.9511719","-0.29492188","5.59375","19.09375","-1.3125"
"1574193302205","35","0.061523438","-0.9609375","-0.28027344","8.46875","10.71875","1.4375"
"1574193302206","36","0.083984375","-0.9863281","-0.23730469","10.71875","18.34375","3.53125"
"1574193302207","37","0.14550781","-0.9921875","-0.20117188","9.25","13.59375","4.125"
"1574193302208","38","0.14453125","-0.984375","-0.22167969","2.0625","13.65625","6.9375"
"1574193302208","39","0.12695312","-0.9814453","-0.21777344","0.0","15.84375","4.0625"
"1574193302798","40","0.13574219","-0.95410156","-0.2265625","7.125","5.40625","3.09375"
"1574193302798","41","0.10253906","-0.9580078","-0.21777344","8.46875","2.65625","2.5"
"1574193302798","42","0.08984375","-0.9970703","-0.16308594","0.65625","2.4375","1.375"
"1574193302799","43","0.11816406","-1.0361328","-0.20019531","7.8125","4.25","3.40625"
"1574193302799","44","0.080078125","-1.0136719","-0.203125","9.5625","0.40625","4.25"
"1574193302799","45","0.06738281","-0.9394531","-0.2109375","8.71875","0.15625","2.3125"
"1574193302799","46","0.08691406","-0.89941406","-0.23925781","9.75","-0.3125","0.71875"
"1574193302800","47","0.11816406","-0.9716797","-0.2919922","3.46875","0.40625","0.84375"
"1574193302800","48","0.13183594","-1.0507812","-0.2861328","-5.8125","9.1875","-2.15625"
"1574193302801","49","0.08984375","-1.0107422","-0.20019531","1.75","9.25","-2.09375"
"1574193303197","50","0.060546875","-0.9326172","-0.22070312","1.8125","0.96875","-3.375"
"1574193303198","51","0.06933594","-0.9394531","-0.2763672","-1.65625","3.65625","-2.8125"
"1574193303198","52","0.072265625","-0.9736328","-0.2685547","-4.84375","14.3125","-2.875"
"1574193303198","53","0.07910156","-0.9736328","-0.21875","3.78125","14.625","-2.625"
"1574193303199","54","0.11035156","-0.93359375","-0.15722656","11.9375","13.84375","-6.25"
"1574193303199","55","0.14355469","-0.8769531","-0.10058594","21.09375","7.8125","-9.53125"
"1574193303199","56","0.19238281","-0.86621094","-0.045898438","33.5625","-7.71875","-4.15625"
"1574193303199","57","0.32617188","-1.2294922","-0.043945312","-11.96875","-3.5","11.71875"
"1574193303200","58","0.31835938","-1.0732422","-0.26464844","-11.0","-6.4375","16.9375"
"1574193303204","59","0.1640625","-0.9501953","-0.3076172","14.4375","-34.625","-15.15625"
"1574193303595","60","0.21875","-1.0009766","-0.15722656","-5.15625","-18.5625","-11.375"
"1574193303596","61","0.28027344","-0.91503906","-0.24023438","6.8125","1.03125","13.71875"
"1574193303596","62","0.072265625","-0.8330078","-0.23632812","-4.71875","-10.34375","4.9375"
"1574193303596","63","0.07910156","-0.8261719","-0.15234375","5.78125","6.875","5.21875"
"1574193303597","64","0.07421875","-0.7783203","-0.26464844","23.71875","25.25","5.53125"
"1574193303597","65","0.1640625","-0.93847656","-0.22949219","4.0","49.53125","7.375"
"1574193303597","66","0.46679688","-1.0117188","-0.19042969","7.5","34.46875","38.8125"
"1574193303597","67","0.40234375","-0.9609375","-0.16308594","16.34375","32.40625","36.25"
"1574193303598","68","0.26367188","-1.0878906","-0.09277344","3.21875","5.34375","16.53125"
"1574193303598","69","0.34179688","-1.3798828","-0.15039062","-24.96875","3.9375","10.1875"
"1574193303793","70","0.43945312","-1.4091797","-0.19335938","-24.3125","-3.3125","1.15625"
"1574193303794","71","0.19042969","-1.2958984","-0.18066406","-14.84375","-0.3125","-3.96875"
"1574193303794","72","-0.24023438","-1.2695312","-0.1796875","-37.625","8.96875","-0.6875"
"1574193303795","73","-0.41210938","-1.078125","0.026367188","0.15625","13.84375","-12.15625"
"1574193303796","74","-0.37402344","-0.8125","-0.025390625","31.0625","-9.0","-6.53125"
"1574193303796","75","-0.19335938","-0.7480469","-0.27246094","-18.375","-15.46875","-2.46875"
"1574193303797","76","0.20410156","-0.94140625","-0.1953125","-19.4375","3.84375","-1.40625"
"1574193303797","77","0.22851562","-1.109375","-0.068359375","17.1875","3.34375","-11.375"
"1574193303797","78","-0.09472656","-0.8359375","-0.034179688","7.5","-4.09375","-22.46875"
"1574193303797","79","-0.068359375","-0.7578125","-0.21582031","4.375","-24.4375","-18.6875"
"1574193304192","80","0.09472656","-0.7597656","-0.18847656","-7.875","-23.5","-0.5625"
"1574193304193","81","0.15429688","-0.6542969","-0.15039062","-1.84375","-17.40625","-7.09375"
"1574193304193","82","0.12207031","-0.7060547","-0.29785156","4.5","-26.03125","-15.625"
"1574193304193","83","0.041992188","-0.9082031","-0.30371094","-1.78125","-22.84375","-11.96875"
"1574193304193","84","0.0546875","-1.0498047","-0.25390625","15.4375","-33.9375","-10.625"
"1574193304195","85","0.19726562","-1.2050781","-0.25","11.875","-8.3125","-17.15625"
"1574193304195","86","0.07519531","-1.4462891","-0.41503906","17.5625","4.4375","-0.6875"
"1574193304195","87","0.12109375","-1.5253906","-0.48046875","4.8125","-5.625","-0.8125"
"1574193304196","88","0.26171875","-1.5","-0.28808594","-10.875","31.71875","-12.34375"
"1574193304196","89","0.18066406","-1.2119141","0.16601562","-5.3125","31.65625","-5.09375"
"1574193304589","90","-0.024414062","-0.69921875","0.22851562","41.3125","22.5625","-16.3125"
"1574193304590","91","-0.265625","-0.71484375","-0.10253906","-2.6875","-23.9375","-2.34375"
"1574193304590","92","0.022460938","-0.90625","-0.009765625","-71.0625","-20.34375","17.4375"
"1574193304590","93","0.21777344","-0.99609375","-0.022460938","-20.21875","7.1875","7.8125"
"1574193304590","94","-9.765625E-4","-0.7216797","-0.12402344","28.65625","30.375","7.125"
"1574193304591","95","-0.055664062","-0.6328125","-0.14355469","-12.03125","29.46875","19.21875"
"1574193304591","96","0.18066406","-0.76171875","-0.036132812","-8.375","-4.59375","31.71875"
"1574193304591","97","0.22167969","-0.8808594","-0.083984375","12.75","9.25","21.40625"
"1574193304592","98","0.19140625","-0.90234375","-0.2109375","-0.25","-7.34375","6.34375"
"1574193304593","99","0.16796875","-0.88378906","-0.35058594","10.25","16.15625","5.34375"
"1574193304985","100","0.14160156","-1.0253906","-0.20800781","-6.71875","38.3125","24.59375"
"1574193304985","101","0.20605469","-1.7285156","-0.20703125","-59.71875","-4.09375","52.53125"
"1574193304985","102","0.48242188","-1.5693359","-0.55566406","14.09375","-10.03125","8.03125"
"1574193304986","103","0.26660156","-1.3808594","-0.061523438","-41.9375","41.625","-14.3125"
"1574193304986","104","-0.3173828","-1.0917969","0.051757812","-60.5625","36.53125","-3.0625"
"1574193304986","105","-0.9042969","-0.8378906","-0.068359375","42.59375","6.9375","-16.5"
"1574193304986","106","-0.45410156","-0.8886719","-0.18359375","20.125","-80.9375","-41.65625"
"1574193304987","107","0.6816406","-1.0546875","-0.23730469","-26.6875","-16.375","-38.96875"
"1574193304987","108","0.2841797","-0.8095703","0.03515625","-9.0","33.3125","5.59375"
"1574193304988","109","-0.22851562","-0.5761719","0.072265625","39.21875","8.59375","-15.8125"
"1574193305582","110","-0.24023438","-0.5527344","-0.24511719","30.375","-16.96875","-34.3125"
"1574193305583","111","0.00390625","-0.6455078","-0.3076172","-18.5625","-75.875","-8.8125"
"1574193305583","112","0.24023438","-0.87109375","-0.30371094","-7.09375","-48.84375","4.5625"
"1574193305583","113","0.28125","-0.8574219","-0.30859375","4.75","14.8125","-25.71875"
"1574193305584","114","0.17382812","-0.79296875","-0.2421875","-0.25","-15.75","-29.1875"
"1574193305584","115","0.10253906","-1.3935547","-0.31640625","-47.25","-28.53125","-30.78125"
"1574193305584","116","0.16992188","-1.5859375","-0.6816406","8.96875","-14.125","-29.75"
"1574193305584","117","0.2685547","-1.3095703","-0.390625","5.59375","-3.4375","-25.34375"
"1574193305585","118","0.14355469","-1.5488281","0.09277344","-46.65625","50.71875","9.03125"
"1574193305585","119","-0.14355469","-0.8173828","0.37890625","16.59375","-13.03125","19.46875"
"1574193306178","120","-0.09765625","-1.0029297","0.06542969","39.65625","-6.59375","5.78125"
"1574193306180","121","0.20996094","-1.2617188","-0.3251953","-111.84375","6.28125","-21.9375"
"1574193306180","122","0.12695312","-0.9169922","-0.4111328","28.25","41.125","5.21875"
"1574193306181","123","-0.11230469","-0.32226562","-0.0078125","31.90625","41.0625","26.65625"
"1574193306181","124","0.026367188","-0.3173828","0.053710938","-7.28125","37.09375","19.625"
"1574193306181","125","0.24804688","-0.4951172","-0.048828125","-9.40625","-0.9375","33.75"
"1574193306182","126","0.22851562","-0.92871094","-0.2626953","-5.75","29.28125","19.09375"
"1574193306182","127","0.24023438","-0.9863281","-0.2705078","2.90625","32.40625","4.875"
"1574193306182","128","0.25585938","-1.0302734","-0.38085938","-1.46875","45.875","17.875"
"1574193306183","129","0.46289062","-1.46875","-0.32226562","-26.9375","24.15625","30.875"
"1574193306376","130","0.5595703","-1.5322266","-0.36328125","-12.78125","-17.90625","6.28125"
"1574193306376","131","0.37109375","-1.5615234","-0.15917969","-24.25","35.375","-16.3125"
"1574193306376","132","-0.3486328","-1.2910156","-0.08105469","-49.40625","19.625","-4.34375"
"1574193306377","133","-0.7763672","-0.88964844","-0.25683594","38.375","-41.875","-16.1875"
"1574193306377","134","-0.20898438","-0.8779297","-0.08496094","38.5625","-82.40625","-35.78125"
"1574193306377","135","1.0029297","-1.4306641","-0.28027344","-30.03125","-3.375","-31.09375"
"1574193306378","136","0.21679688","-0.5957031","-0.03125","-20.46875","-9.96875","6.34375"
"1574193306378","137","-0.2783203","-0.5498047","-0.045898438","33.5","-44.3125","-28.21875"
"1574193306378","138","-0.22363281","-0.55078125","-0.22070312","14.3125","-49.75","-47.4375"
"1574193306378","139","0.18945312","-0.5917969","-0.3798828","-18.375","-66.78125","-18.875"
"1574193306575","140","0.39453125","-0.69628906","-0.40527344","-28.6875","-32.78125","-16.0625"
"1574193306575","141","0.32421875","-0.71484375","-0.24511719","1.5","-32.5625","-30.65625"
"1574193306576","142","0.18066406","-0.90234375","-0.3046875","8.09375","-30.53125","-19.59375"
"1574193306576","143","0.12402344","-1.5810547","-0.56152344","-19.5","-31.4375","-7.21875"
"1574193306576","144","0.4091797","-1.5429688","-0.8378906","9.09375","-11.125","-25.71875"
"1574193306577","145","0.37695312","-1.2871094","-0.41992188","-3.0","17.0","-48.71875"
"1574193306577","146","0.24121094","-1.5146484","0.24707031","-33.9375","68.46875","28.0625"
"1574193306577","147","-0.016601562","-0.73535156","-0.024414062","44.90625","-80.15625","9.375"
"1574193306578","148","-0.21875","-0.828125","-0.3173828","43.125","5.0625","-15.34375"
"1574193306578","149","0.18359375","-1.2382812","-0.3642578","-116.15625","-6.59375","9.5"
"1574193307173","150","0.15332031","-0.99121094","0.032226562","64.125","83.53125","38.625"
"1574193307174","151","-0.057617188","-0.4326172","0.08886719","70.71875","53.8125","6.21875"
"1574193307174","152","0.13867188","-0.28222656","-0.22265625","26.78125","-8.0","32.6875"
"1574193307175","153","0.33398438","-0.61035156","-0.30566406","-27.53125","-0.1875","55.59375"
"1574193307175","154","0.23046875","-0.8886719","-0.171875","7.375","66.40625","32.5625"
"1574193307175","155","0.017578125","-0.89746094","-0.109375","23.25","43.0625","22.125"
"1574193307175","156","0.16308594","-1.078125","-0.30273438","-36.875","39.15625","29.59375"
"1574193307177","157","0.47753906","-1.6611328","-0.515625","-37.75","38.3125","32.15625"
"1574193307177","158","0.5703125","-1.3388672","-0.61816406","14.09375","7.375","7.5625"
"1574193307177","159","0.37402344","-1.3085938","-0.0029296875","-45.4375","59.1875","2.71875"
"1574193307371","160","-0.29492188","-1.4658203","0.03515625","-48.96875","61.15625","17.1875"
"1574193307371","161","-0.9375","-1.0263672","-0.2626953","47.34375","18.96875","5.78125"
"1574193307371","162","-0.46972656","-0.8623047","-0.24511719","67.96875","-77.34375","-28.21875"
"1574193307372","163","0.74121094","-1.3134766","-0.171875","-44.375","10.96875","-36.8125"
"1574193307372","164","0.42871094","-0.66796875","0.056640625","-28.8125","44.28125","2.1875"
"1574193307372","165","-0.10644531","-0.58496094","-0.0048828125","9.4375","-18.375","-33.84375"
"1574193307372","166","-0.09765625","-0.49609375","-0.22558594","30.8125","-35.65625","-40.1875"
"1574193307373","167","0.13867188","-0.5810547","-0.35351562","-5.09375","-80.71875","-5.75"
"1574193307373","168","0.2548828","-0.7373047","-0.36328125","-18.875","-67.34375","6.6875"
"1574193307373","169","0.24902344","-0.7529297","-0.24414062","4.625","-35.90625","-22.53125"
"1574193307770","170","0.080078125","-0.88183594","-0.2421875","10.125","-34.125","-26.125"
"1574193307770","171","0.0107421875","-1.4912109","-0.52734375","-22.71875","-46.875","-3.6875"
"1574193307770","172","0.15039062","-1.5283203","-0.6845703","-1.78125","9.1875","-25.96875"
"1574193307770","173","0.22167969","-1.3417969","-0.3388672","13.59375","5.125","-29.125"
"1574193307771","174","0.23535156","-1.5986328","0.0146484375","-42.5","63.53125","15.0625"
"1574193307771","175","-0.10644531","-0.7597656","0.16894531","39.78125","-25.78125","14.5"
"1574193307771","176","-0.140625","-0.7871094","-0.0078125","50.78125","8.15625","-15.15625"
"1574193307772","177","0.17675781","-1.0986328","-0.34277344","-126.25","-34.125","-14.25"
"1574193307772","178","0.15136719","-1.2158203","-0.30078125","30.25","57.46875","30.9375"
"1574193307772","179","-0.22753906","-0.5722656","0.059570312","60.03125","65.09375","-14.53125"
"1574193308364","180","-0.018554688","-0.39160156","-0.12890625","-20.34375","48.1875","2.0625"
"1574193308365","181","0.26953125","-0.44628906","-0.11621094","-20.59375","-9.0","38.125"
"1574193308365","182","0.35742188","-0.8173828","-0.18164062","30.5","33.1875","24.34375"
"1574193308365","183","0.21289062","-0.76953125","-0.16503906","21.40625","78.21875","15.1875"
"1574193308365","184","0.10449219","-1.0947266","-0.26660156","-7.03125","59.96875","39.46875"
"1574193308366","185","0.3642578","-1.5585938","-0.31152344","-53.46875","13.21875","32.21875"
"1574193308366","186","0.72265625","-1.4121094","-0.4169922","9.75","-1.96875","-2.28125"
"1574193308366","187","0.5917969","-1.2695312","-0.31054688","-27.25","19.875","3.90625"
"1574193308366","188","-0.095703125","-1.4267578","-0.12890625","-71.3125","62.65625","2.125"
"1574193308367","189","-0.49902344","-1.03125","-0.09082031","14.5","9.8125","0.0"
"1574193308563","190","-0.453125","-0.8066406","-0.08203125","48.25","-43.71875","-20.46875"
"1574193308564","191","0.08300781","-0.9111328","-0.26757812","1.5625","-40.25","-34.25"
"1574193308564","192","0.5625","-1.0986328","-0.30371094","1.09375","27.6875","7.5625"
"1574193308565","193","0.087890625","-0.6640625","-0.029296875","13.59375","-11.375","7.0"
"1574193308566","194","-0.20019531","-0.51171875","-0.080078125","31.46875","-48.125","-26.5"
"1574193308566","195","-0.0546875","-0.60058594","-0.31054688","9.3125","-62.6875","-22.125"
"1574193308566","196","0.09765625","-0.8408203","-0.4326172","-7.15625","-52.1875","4.0"
"1574193308567","197","0.23242188","-0.8876953","-0.3701172","-9.34375","-13.8125","-0.625"
"1574193308567","198","0.18164062","-0.8720703","-0.28027344","-2.21875","-4.78125","-10.625"
"1574193308567","199","0.10644531","-0.8515625","-0.32910156","-2.21875","-19.84375","-18.03125"
"1574193309555","200","0.16113281","-1.3857422","-0.42578125","-14.71875","-5.5","-10.21875"
"1574193309556","201","0.33496094","-1.4716797","-0.7128906","-23.09375","-4.59375","-30.28125"
"1574193309556","202","0.32128906","-1.4599609","-0.31054688","10.375","14.9375","-32.4375"
"1574193309557","203","0.12792969","-1.3623047","0.095703125","-9.15625","36.65625","13.96875"
"1574193309557","204","-0.14160156","-0.6591797","0.17382812","56.0625","-34.0625","15.0"
"1574193309558","205","-0.17285156","-0.8046875","-0.17675781","38.4375","9.25","16.65625"
"1574193309559","206","0.11035156","-1.0205078","-0.24902344","-98.46875","10.125","3.21875"
"1574193309559","207","0.15527344","-1.0644531","-0.13867188","41.65625","52.84375","22.3125"
"1574193309559","208","-0.046875","-0.5488281","0.04296875","46.375","53.8125","15.0625"
"1574193309560","209","0.13574219","-0.48828125","-0.0859375","-16.375","24.71875","24.34375"
"1574193309754","210","0.3408203","-0.6074219","-0.21875","-2.53125","-18.5","32.6875"
"1574193309755","211","0.36816406","-0.92285156","-0.20117188","22.125","14.28125","19.875"
"1574193309755","212","0.24804688","-1.0195312","-0.14257812","6.875","19.875","10.59375"
"1574193309756","213","0.12011719","-1.0771484","-0.27734375","-2.34375","33.625","15.84375"
"1574193309756","214","0.1953125","-1.3564453","-0.3984375","-42.625","35.5625","34.03125"
"1574193309756","215","0.47265625","-1.5244141","-0.3125","-28.59375","-13.5625","17.3125"
"1574193309756","216","0.4140625","-1.4560547","-0.09082031","-32.125","25.25","-19.5"
"1574193309757","217","-0.12890625","-1.3242188","-0.11328125","-44.28125","41.125","-11.71875"
"1574193309758","218","-0.57910156","-0.8251953","-0.15917969","13.90625","-8.8125","-9.0625"
"1574193309758","219","-0.5566406","-0.8183594","-0.24414062","55.15625","-26.8125","-23.6875"
"1574193309951","220","0.15234375","-1.1259766","-0.26464844","-24.5625","-28.34375","-25.90625"
"1574193309952","221","0.5703125","-1.109375","-0.19042969","11.59375","24.65625","6.46875"
"1574193309952","222","0.08203125","-0.62890625","-0.033203125","22.25","2.90625","-8.25"
"1574193309952","223","-0.19628906","-0.53222656","-0.08984375","40.6875","-25.90625","-44.21875"
"1574193309952","224","0.022460938","-0.6035156","-0.3046875","2.0625","-64.71875","-21.9375"
"1574193309953","225","0.1796875","-0.7636719","-0.36328125","-15.34375","-56.03125","6.5625"
"1574193309953","226","0.27441406","-0.8095703","-0.34277344","-23.28125","-31.3125","-17.28125"
"1574193309953","227","0.21972656","-0.859375","-0.32421875","-5.5","-14.34375","-19.53125"
"1574193309954","228","0.12890625","-1.0888672","-0.3095703","-6.0625","-19.4375","-6.5"
"1574193309954","229","0.076171875","-1.6171875","-0.5800781","-27.125","-9.53125","-0.5625"
"1574193310352","230","0.48632812","-1.3916016","-0.63183594","22.6875","-15.59375","-46.21875"
"1574193310353","231","0.28320312","-1.5097656","-0.10058594","-14.78125","39.71875","-15.28125"
"1574193310353","232","-0.07519531","-1.0322266","-0.0146484375","29.03125","-5.25","9.5625"
"1574193310353","233","-0.25683594","-0.5996094","0.11035156","88.3125","4.0","20.4375"
"1574193310353","234","-0.10449219","-0.85058594","-0.091796875","-47.0625","-5.25","13.71875"
"1574193310354","235","0.24609375","-1.2802734","-0.15917969","-76.5625","9.3125","18.34375"
"1574193310354","236","0.1015625","-0.96777344","-0.0703125","94.65625","33.75","22.125"
"1574193310354","237","-0.0146484375","-0.46679688","0.0087890625","47.46875","36.25","-6.65625"
"1574193310354","238","0.099609375","-0.4501953","-0.13476562","-26.6875","28.78125","21.46875"
"1574193310355","239","0.20410156","-0.7158203","-0.18164062","-22.53125","-8.8125","38.0625"
"1574193310550","240","0.21191406","-1.0078125","-0.26660156","11.40625","30.0625","18.65625"
"1574193310552","241","0.17382812","-0.94921875","-0.22753906","5.78125","31.71875","13.84375"
"1574193310553","242","0.14648438","-1.0390625","-0.29589844","-17.46875","42.53125","21.53125"
"1574193310553","243","0.3544922","-1.5292969","-0.33984375","-47.0625","25.8125","23.25"
"1574193310553","244","0.5185547","-1.4941406","-0.47070312","-9.28125","-3.5625","19.9375"
"1574193310554","245","0.37109375","-1.40625","-0.06640625","-44.5","38.5","-6.0625"
"1574193310554","246","-0.36621094","-1.1630859","0.053710938","-57.9375","50.21875","0.84375"
"1574193310554","247","-0.84472656","-0.8847656","-0.23925781","27.15625","15.0","-3.75"
"1574193310555","248","-0.4296875","-0.8535156","-0.2734375","52.40625","-57.625","-32.125"
"1574193310555","249","0.6796875","-1.2451172","-0.13183594","-22.28125","1.5","-41.9375"
"1574193310948","250","0.3486328","-0.72265625","0.022460938","-3.75","43.4375","4.125"
"1574193310948","251","-0.21484375","-0.5830078","-0.026367188","19.15625","-15.21875","-32.65625"
"1574193310949","252","-0.15917969","-0.53515625","-0.22851562","32.40625","-47.125","-48.34375"
"1574193310950","253","0.12207031","-0.7060547","-0.35546875","-1.0625","-74.1875","-6.53125"
"1574193310950","254","0.2548828","-0.84375","-0.3779297","-27.84375","-54.65625","0.71875"
"1574193310951","255","0.28710938","-0.86328125","-0.3232422","3.28125","-21.25","-22.15625"
"1574193310951","256","0.18164062","-0.7910156","-0.29492188","5.96875","-19.71875","-24.0625"
"1574193310951","257","0.09667969","-1.2353516","-0.3642578","-36.15625","-23.875","-5.21875"
"1574193310951","258","0.29003906","-1.5810547","-0.6933594","-20.875","-14.90625","-9.125"
"1574193310952","259","0.41015625","-1.2041016","-0.5439453","23.0625","-25.96875","-46.9375"
"1574193311543","260","0.10058594","-1.4335938","-0.059570312","-46.21875","69.125","-4.21875"
"1574193311544","261","-0.0048828125","-0.9238281","0.037109375","30.3125","-9.53125","17.1875"
"1574193311544","262","-0.17773438","-0.7529297","0.034179688","78.0625","-17.53125","20.5625"
"1574193311544","263","0.034179688","-0.9765625","-0.19140625","-61.59375","8.78125","3.09375"
"1574193311544","264","0.12695312","-1.2578125","-0.29785156","-56.09375","46.96875","11.9375"
"1574193311547","265","-0.06640625","-0.8173828","-0.044921875","63.34375","60.34375","-6.96875"
"1574193311547","266","0.036132812","-0.43652344","-0.080078125","15.96875","53.5","10.59375"
"1574193311548","267","0.25976562","-0.4375","-0.18066406","-27.59375","12.5625","38.125"
"1574193311548","268","0.36035156","-0.8359375","-0.16992188","26.15625","18.40625","44.40625"
"1574193311548","269","0.18457031","-1.0234375","-0.19140625","28.375","46.125","19.5625"
"1574193311743","270","0.13671875","-0.9121094","-0.27441406","5.0","45.6875","22.03125"
"1574193311744","271","0.2734375","-1.1152344","-0.2998047","-21.1875","34.84375","25.3125"
"1574193311744","272","0.54785156","-1.4707031","-0.34277344","-28.75","10.3125","25.875"
"1574193311744","273","0.4814453","-1.3349609","-0.42578125","-1.125","6.75","6.8125"
"1574193311744","274","0.07128906","-1.3789062","-0.052734375","-46.34375","43.375","-0.75"
"1574193311744","275","-0.5097656","-1.1796875","-0.140625","-39.75","22.375","9.125"
"1574193311745","276","-0.7167969","-0.83691406","-0.21679688","30.875","6.6875","-11.4375"
"1574193311747","277","-0.18359375","-0.8857422","-0.23242188","42.40625","-59.71875","-13.875"
"1574193311747","278","0.73535156","-1.34375","-0.18554688","-8.875","21.28125","-15.40625"
"1574193311747","279","0.11035156","-0.7919922","-0.01953125","-10.5625","0.59375","-12.09375"
"1574193312536","280","-0.15917969","-0.6796875","-0.06738281","41.375","-41.65625","-34.5"
"1574193312536","281","-0.00390625","-0.60058594","-0.21484375","17.125","-46.71875","-30.28125"
"1574193312537","282","0.13085938","-0.7060547","-0.27441406","-0.8125","-59.15625","-3.4375"
"1574193312537","283","0.17675781","-0.8125","-0.3330078","-7.78125","-44.5625","-4.65625"
"1574193312537","284","0.14453125","-0.6777344","-0.2685547","4.5","-27.34375","-19.1875"
"1574193312538","285","0.18359375","-0.703125","-0.26171875","4.125","-35.125","-15.09375"
"1574193312538","286","0.12207031","-1.0253906","-0.2607422","-19.0625","-16.1875","4.0"
"1574193312538","287","0.076171875","-1.6113281","-0.59472656","3.78125","5.34375","-13.3125"
"1574193312539","288","0.3642578","-1.1650391","-0.5576172","22.09375","-37.84375","-52.3125"
"1574193312540","289","0.40039062","-1.3554688","-0.28515625","-20.15625","-4.90625","-26.5625"
"1574193312734","290","-0.11230469","-1.7236328","-0.07519531","-15.03125","64.8125","13.71875"
"1574193312734","291","-0.22949219","-0.8613281","0.21679688","35.9375","-54.59375","3.09375"
"1574193312735","292","-0.18652344","-0.6142578","0.24511719","60.15625","39.90625","2.3125"
"1574193312735","293","-0.07714844","-1.1240234","-0.18652344","-119.03125","15.78125","12.9375"
"1574193312735","294","0.0146484375","-1.4824219","-0.30078125","-41.03125","92.21875","31.78125"
"1574193312735","295","-0.26367188","-0.8076172","0.061523438","7.125","107.34375","7.375"
"1574193312736","296","0.15820312","-0.5800781","0.0146484375","-18.5","69.75","8.84375"
"1574193312736","297","0.1640625","-0.6767578","-0.15136719","-58.78125","81.71875","44.46875"
"1574193312736","298","0.059570312","-1.0244141","-0.16210938","-29.4375","115.84375","44.28125"
"1574193312736","299","0.001953125","-1.0478516","-0.16894531","-0.5","106.78125","18.40625"
"1574193312935","300","0.08203125","-0.7832031","-0.22167969","-19.78125","117.78125","25.5"
"1574193312936","301","0.095703125","-0.7548828","-0.07128906","-30.09375","152.34375","41.25"
"1574193312936","302","0.0234375","-1.1142578","-0.029296875","-41.03125","151.71875","27.5625"
"1574193312936","303","-0.11230469","-1.2285156","-0.07324219","-5.25","177.71875","18.53125"
"1574193312937","304","-0.53808594","-1.5517578","-0.7216797","-51.40625","200.53125","34.59375"
"1574193312937","305","-0.1484375","-0.90722656","-0.09472656","-1.71875","158.6875","28.96875"
"1574193312937","306","-0.07714844","-1.1767578","0.07910156","22.5","180.15625","29.65625"
"1574193312937","307","-0.076171875","-1.1152344","-0.32910156","-41.28125","189.9375","30.75"
"1574193312938","308","-0.3515625","-1.1337891","-0.3515625","-23.9375","204.4375","55.84375"
"1574193312938","309","-0.36035156","-0.99316406","-0.053710938","-8.8125","184.875","60.03125"
"1574193313333","310","-0.08984375","-0.87890625","-0.22167969","-20.28125","183.46875","56.0625"
"1574193313334","311","-0.036132812","-0.7792969","-0.21875","13.53125","208.40625","60.28125"
"1574193313334","312","-0.001953125","-0.81152344","-0.08105469","31.25","201.8125","40.28125"
"1574193313336","313","0.0859375","-0.8105469","-0.20703125","15.84375","178.09375","12.75"
"1574193313336","314","0.15332031","-0.7919922","-0.29003906","26.34375","169.59375","13.71875"
"1574193313337","315","0.10644531","-0.8652344","-0.34277344","17.0625","132.96875","19.875"
"1574193313337","316","0.11035156","-0.9638672","-0.47851562","-2.6875","95.8125","5.90625"
"1574193313337","317","0.32128906","-1.0097656","-0.4921875","-22.34375","94.90625","-5.9375"
"1574193313337","318","0.33203125","-1.25","-0.47460938","-38.59375","90.5625","-11.125"
"1574193313337","319","0.11621094","-1.5429688","-0.19824219","-32.5","79.15625","-23.03125"
"1574193313730","320","-0.026367188","-1.0585938","-0.049804688","8.71875","72.1875","-1.84375"
"1574193313731","321","-0.23730469","-0.921875","-0.017578125","-5.6875","86.40625","19.40625"
"1574193313731","322","-0.11425781","-1.1416016","0.03125","-60.9375","61.5","34.34375"
"1574193313731","323","0.31347656","-1.2558594","0.12011719","29.84375","95.5","8.03125"
"1574193313732","324","0.2705078","-0.7705078","-0.055664062","48.15625","71.34375","-22.65625"
"1574193313732","325","0.18554688","-0.6923828","-0.15234375","6.46875","59.375","7.625"
"1574193313732","326","0.10839844","-0.71484375","-0.033203125","14.5","42.28125","19.21875"
"1574193313733","327","0.14160156","-0.79589844","-0.10644531","11.59375","58.53125","23.3125"
"1574193313733","328","0.103515625","-0.8701172","-0.16601562","-9.71875","56.5","33.8125"
"1574193313734","329","0.12402344","-0.9511719","-0.21679688","-15.15625","52.96875","29.46875"
"1574193314326","330","0.2783203","-1.0292969","-0.21191406","8.71875","28.5","20.6875"
"1574193314327","331","0.34960938","-1.2099609","-0.2783203","9.125","33.3125","25.375"
"1574193314327","332","0.18359375","-1.3681641","-0.3017578","-25.21875","45.5625","20.25"
"1574193314327","333","0.21484375","-1.3984375","-0.045898438","-39.4375","40.9375","9.125"
"1574193314327","334","-0.057617188","-1.4365234","-0.07421875","-25.15625","18.65625","13.59375"
"1574193314328","335","-0.6435547","-1.3662109","-0.34472656","-63.375","55.96875","-15.28125"
"1574193314329","336","-0.39648438","-0.66308594","-0.21386719","40.4375","-16.375","-27.0"
"1574193314329","337","-0.018554688","-0.80566406","0.024414062","21.96875","-27.96875","-5.8125"
"1574193314330","338","0.29492188","-0.9814453","-0.095703125","-50.625","52.71875","-6.0625"
"1574193314330","339","0.048828125","-1.0058594","-0.15429688","28.3125","-9.65625","-8.25"
"1574193314526","340","-0.22851562","-0.69628906","-0.038085938","37.875","-12.15625","-40.59375"
"1574193314527","341","-0.099609375","-0.49121094","-0.19238281","14.3125","-29.75","-39.875"
"1574193314527","342","0.068359375","-0.5654297","-0.25","10.53125","-25.96875","-7.15625"
"1574193314527","343","0.21582031","-0.72265625","-0.20019531","-5.375","-10.875","1.5625"
"1574193314527","344","0.20898438","-0.8886719","-0.2548828","-11.6875","-14.59375","-15.34375"
"1574193314528","345","0.0703125","-1.109375","-0.3154297","-1.0625","-22.125","-19.1875"
"1574193314528","346","0.076171875","-1.3271484","-0.3466797","6.5","-31.625","-27.40625"
"1574193314528","347","0.26367188","-1.4453125","-0.5029297","-11.90625","-7.40625","-50.125"
"1574193314528","348","0.20996094","-1.4423828","-0.22558594","6.8125","27.21875","-43.46875"
"1574193314530","349","-0.06738281","-1.5859375","0.28125","-23.21875","78.34375","36.125"
"1574193314923","350","-0.3359375","-0.8466797","0.2548828","30.4375","-23.34375","22.6875"
"1574193314923","351","-0.19921875","-0.73339844","0.0126953125","69.125","-19.78125","-13.25"
"1574193314924","352","0.22265625","-1.0078125","-0.26660156","-135.875","-9.53125","-11.90625"
"1574193314924","353","0.06738281","-0.91015625","-0.16699219","-24.5625","68.46875","26.15625"
"1574193314924","354","-0.28710938","-0.5996094","0.103515625","68.28125","59.90625","13.84375"
"1574193314925","355","0.030273438","-0.5996094","-0.02734375","-8.8125","0.28125","1.5625"
"1574193314925","356","0.34277344","-0.75683594","-0.18457031","-42.5","-15.28125","15.1875"
"1574193314925","357","0.3564453","-0.97753906","-0.18847656","11.59375","59.3125","24.65625"
"1574193314925","358","0.12109375","-0.8730469","-0.19628906","20.5","35.6875","11.40625"
"1574193314925","359","0.08203125","-1.0009766","-0.28222656","-6.78125","39.46875","14.8125"
"1574193315519","360","0.3544922","-1.3710938","-0.16503906","-61.90625","5.84375","18.1875"
"1574193315519","361","0.41601562","-1.4755859","-0.23925781","-7.875","4.0625","4.375"
"1574193315519","362","0.14453125","-1.4179688","-0.16601562","-40.96875","39.84375","-6.53125"
"1574193315520","363","-0.5058594","-1.2822266","-0.17480469","-61.96875","30.0625","0.15625"
"1574193315520","364","-0.56152344","-0.71484375","-0.14453125","28.0","-19.4375","-18.875"
"1574193315520","365","-0.25585938","-0.80566406","-0.038085938","47.34375","-50.5","-27.0625"
"1574193315520","366","0.6591797","-1.2451172","-0.26171875","-45.5","36.1875","-24.90625"
"1574193315521","367","0.22949219","-0.7949219","-0.12402344","31.125","9.25","8.46875"
"1574193315522","368","-0.19433594","-0.63964844","0.03515625","35.625","-32.5625","-22.59375"
"1574193315522","369","-0.16503906","-0.59375","-0.19042969","17.0","-38.21875","-42.5625"
"1574193316116","370","0.08886719","-0.7607422","-0.36328125","-11.78125","-48.28125","-9.40625"
"1574193316117","371","0.2548828","-0.8232422","-0.30566406","-13.03125","-41.46875","-1.59375"
"1574193316117","372","0.23339844","-0.8300781","-0.25","11.53125","-19.5","-14.96875"
"1574193316118","373","0.10449219","-0.86328125","-0.28515625","3.15625","-11.4375","-15.6875"
"1574193316119","374","0.07714844","-1.1982422","-0.2998047","-4.34375","-27.71875","-5.625"
"1574193316119","375","0.17773438","-1.6074219","-0.6533203","-33.875","4.1875","-10.34375"
"1574193316119","376","0.44335938","-1.3642578","-0.40527344","31.84375","-13.875","-47.625"
"1574193316120","377","0.16210938","-1.5097656","0.115234375","-9.34375","71.8125","-12.34375"
"1574193316120","378","-0.1015625","-0.9628906","0.033203125","14.8125","-40.25","16.53125"
"1574193316120","379","-0.24511719","-0.66796875","0.13085938","68.90625","1.3125","11.71875"
"1574193316312","380","0.08886719","-0.96972656","-0.19238281","-96.21875","-24.0","1.3125"
"1574193316313","381","0.24804688","-1.0302734","-0.29003906","-7.40625","39.96875","15.0625"
"1574193316313","382","-0.16015625","-0.7685547","-0.009765625","61.4375","50.9375","17.0625"
"1574193316313","383","-0.055664062","-0.5878906","0.049804688","-2.03125","46.25","12.5"
"1574193316313","384","0.22851562","-0.58691406","-0.09082031","-21.5625","11.65625","35.25"
"1574193316314","385","0.29882812","-0.82910156","-0.19238281","3.53125","34.03125","28.71875"
"1574193316315","386","0.19921875","-0.9394531","-0.17089844","4.5625","41.0625","15.96875"
"1574193316315","387","0.15625","-0.9814453","-0.21484375","5.90625","36.71875","23.375"
"1574193316315","388","0.20703125","-1.2001953","-0.24316406","-29.0625","31.125","25.9375"
"1574193316316","389","0.4814453","-1.4814453","-0.2861328","-34.375","-3.1875","21.65625"
"1574193316512","390","0.38476562","-1.3505859","-0.3388672","-10.15625","4.1875","-2.28125"
"1574193316513","391","0.0048828125","-1.3847656","-0.013671875","-35.0","40.5","-6.59375"
"1574193316513","392","-0.5625","-1.1533203","-0.00390625","-48.59375","48.5625","10.46875"
"1574193316513","393","-0.6923828","-0.8154297","-0.28222656","43.8125","-23.40625","-12.78125"
"1574193316513","394","-0.16210938","-0.9394531","-0.25585938","21.21875","-62.28125","-34.375"
"1574193316514","395","0.75390625","-1.2626953","-0.19433594","9.8125","20.84375","-5.75"
"1574193316514","396","0.0703125","-0.65234375","0.021484375","-15.09375","-3.125","-14.90625"
"1574193316515","397","-0.16894531","-0.5830078","-0.013671875","36.78125","-41.65625","-42.625"
"1574193316515","398","-0.01171875","-0.5810547","-0.27929688","16.28125","-56.0","-24.96875"
"1574193316516","399","0.07714844","-0.76464844","-0.31445312","-13.625","-56.65625","0.28125"
"1574193316910","400","0.15527344","-0.9580078","-0.33203125","-9.53125","-28.28125","-9.46875"
"1574193316911","401","0.13671875","-0.8457031","-0.2890625","13.78125","-11.25","-22.53125"
"1574193316911","402","0.10839844","-0.7607422","-0.26367188","2.1875","-28.34375","-18.8125"
"1574193316911","403","0.09765625","-1.1054688","-0.34765625","-30.15625","-16.3125","-11.25"
"1574193316911","404","0.22949219","-1.6484375","-0.60058594","-16.4375","6.15625","-10.8125"
"1574193316912","405","0.2998047","-1.421875","-0.3701172","21.21875","-10.21875","-36.5"
"1574193316912","406","0.20703125","-1.5683594","0.02734375","-14.0","53.34375","-3.8125"
"1574193316912","407","0.018554688","-0.96972656","0.11425781","-14.84375","-53.96875","19.34375"
"1574193316912","408","-0.16699219","-0.6269531","0.07324219","68.78125","-2.875","-11.125"
"1574193316913","409","0.16308594","-0.9453125","-0.22363281","-81.1875","-13.8125","4.8125"
"1574193317308","410","0.24804688","-1.1425781","-0.1484375","-21.0625","23.59375","25.875"
"1574193317308","411","-0.234375","-0.78222656","-0.015625","58.21875","21.34375","-2.75"
"1574193317309","412","-0.06738281","-0.4921875","-0.16894531","13.59375","21.96875","-4.34375"
"1574193317309","413","0.24804688","-0.5722656","-0.16894531","-41.03125","18.65625","32.5625"
"1574193317309","414","0.3623047","-0.8984375","-0.06738281","-9.46875","30.3125","36.1875"
"1574193317309","415","0.17675781","-1.0263672","-0.25390625","28.96875","35.4375","15.71875"
"1574193317310","416","0.19042969","-0.9785156","-0.3232422","7.90625","16.09375","16.78125"
"1574193317310","417","0.22851562","-1.03125","-0.3154297","-2.40625","20.84375","19.21875"
"1574193317310","418","0.40820312","-1.2480469","-0.23632812","-30.28125","19.28125","26.15625"
"1574193317310","419","0.3046875","-1.3984375","-0.3623047","-21.9375","-1.40625","16.90625"
"1574193317904","420","0.21679688","-1.4003906","-0.2421875","-38.09375","31.34375","4.25"
"1574193317904","421","-0.23144531","-1.2773438","-0.03515625","-72.90625","30.5","9.5"
"1574193317905","422","-0.5263672","-0.86328125","-0.13378906","30.1875","5.90625","-2.03125"
"1574193317905","423","-0.4873047","-0.8544922","-0.24511719","76.65625","-6.90625","-22.15625"
"1574193317905","424","0.26367188","-1.2207031","-0.19726562","-18.75","-0.5625","-25.21875"
"1574193317906","425","0.3671875","-0.9785156","-0.1640625","-8.5625","7.1875","-11.78125"
"1574193317906","426","-0.064453125","-0.66308594","-0.0234375","30.3125","-9.40625","-13.375"
"1574193317906","427","-0.095703125","-0.5722656","-0.11621094","38.1875","-15.6875","-21.125"
"1574193317906","428","0.072265625","-0.66503906","-0.33984375","-8.25","-29.3125","-18.15625"
"1574193317907","429","0.19433594","-0.7763672","-0.35351562","-8.75","-35.53125","-3.8125"
"1574193318300","430","0.22558594","-0.7558594","-0.2783203","21.40625","-22.59375","-10.9375"
"1574193318300","431","0.12988281","-0.7988281","-0.2890625","7.4375","-12.90625","-18.5"
"1574193318300","432","0.048828125","-1.0654297","-0.31640625","-26.1875","-24.3125","-10.09375"
"1574193318302","433","0.0107421875","-1.6005859","-0.5078125","-9.28125","6.75","-5.15625"
"1574193318302","434","0.38378906","-1.3349609","-0.5917969","16.46875","-47.5","-47.875"
"1574193318303","435","0.453125","-1.1835938","-0.23925781","-7.03125","7.3125","-40.71875"
"1574193318303","436","0.07910156","-1.375","0.17285156","-24.3125","47.09375","28.625"
"1574193318303","437","-0.19042969","-0.9941406","0.103515625","53.6875","-36.5","3.03125"
"1574193318304","438","-0.07128906","-0.71191406","-0.033203125","31.90625","-23.9375","-3.0625"
"1574193318304","439","0.20605469","-0.99902344","-0.07128906","-71.78125","-8.75","9.125"
"1574193318500","440","0.09863281","-1.1835938","-0.18554688","-4.21875","39.71875","23.46875"
"1574193318500","441","-0.20410156","-0.7548828","-0.072265625","41.78125","68.03125","6.09375"
"1574193318501","442","0.15136719","-0.5966797","-0.024414062","4.375","19.8125","14.625"
"1574193318501","443","0.3232422","-0.671875","0.0029296875","-20.53125","9.875","30.75"
"1574193318501","444","0.17480469","-0.9794922","-0.21484375","0.15625","49.1875","20.3125"
"1574193318502","445","0.12695312","-0.9345703","-0.21679688","8.15625","31.1875","13.96875"
"1574193318502","446","0.21875","-0.80566406","-0.2265625","2.0625","16.65625","16.28125"
"1574193318503","447","0.234375","-0.83203125","-0.23828125","-9.21875","22.3125","24.53125"
"1574193318503","448","0.24804688","-1.0615234","-0.16015625","-22.0625","30.0","35.4375"
"1574193318503","449","0.25390625","-1.3632812","-0.34375","-23.34375","10.78125","33.0625"
"1574193318898","450","0.2763672","-1.5488281","-0.29882812","-5.25","20.625","12.5"
"1574193318898","451","0.005859375","-1.5957031","-0.24414062","-44.625","6.40625","21.96875"
"1574193318898","452","-0.1953125","-0.890625","0.060546875","0.96875","-7.8125","-0.9375"
"1574193318899","453","-0.33496094","-0.71875","0.09765625","52.90625","-14.71875","-29.0"
"1574193318899","454","-0.24414062","-1.0449219","-0.08203125","2.0","-16.125","-23.5"
"1574193318899","455","0.3251953","-1.1064453","-0.34375","-40.0","-7.03125","-7.53125"
"1574193318900","456","0.2841797","-0.83691406","-0.09667969","14.4375","-43.46875","-17.03125"
"1574193318901","457","-0.03515625","-0.8144531","0.0078125","34.03125","-27.46875","-34.8125"
"1574193318902","458","-0.18554688","-0.765625","-0.20898438","-22.0","-12.46875","-32.125"
"1574193318902","459","-0.038085938","-0.8154297","-0.2841797","2.375","-65.625","1.625"
"1574193319296","460","0.19335938","-0.73339844","-0.20996094","-20.65625","-21.6875","-4.78125"
"1574193319297","461","0.24804688","-0.8105469","-0.22753906","1.4375","8.15625","-23.5"
"1574193319297","462","0.057617188","-0.8027344","-0.24804688","-0.1875","-27.84375","-11.0"
"1574193319297","463","0.107421875","-0.81152344","-0.36621094","-8.3125","-28.28125","-21.1875"
"1574193319297","464","0.29101562","-1.0751953","-0.3232422","-8.4375","-37.78125","-39.875"
"1574193319298","465","0.33203125","-1.53125","-0.57128906","-35.59375","6.5","-31.15625"
"1574193319298","466","0.16113281","-1.5810547","-0.4140625","12.875","13.59375","-20.875"
"1574193319298","467","0.0078125","-1.7177734","-0.005859375","33.125","56.25","8.15625"
"1574193319298","468","0.06347656","-0.7753906","0.015625","51.9375","0.0","-19.0"
"1574193319300","469","0.10546875","-0.4951172","0.045898438","52.28125","38.6875","-23.625"
"1574193319891","470","0.20898438","-0.90527344","-0.076171875","-107.4375","-11.5625","-6.3125"
"1574193319891","471","0.13183594","-0.9423828","-0.12988281","-4.34375","16.71875","8.28125"
"1574193319892","472","0.024414062","-0.7841797","-0.25390625","93.5","36.84375","-8.25"
"1574193319892","473","0.3251953","-0.60546875","-0.09472656","35.1875","4.6875","2.71875"
"1574193319892","474","0.4296875","-0.7919922","0.025390625","-35.15625","-7.09375","16.90625"
"1574193319893","475","0.32617188","-0.9355469","-0.06738281","-15.75","1.28125","6.15625"
"1574193319893","476","0.22753906","-0.89453125","-0.25","30.8125","-1.1875","14.28125"
"1574193319893","477","0.2841797","-0.74316406","-0.2265625","-6.71875","-9.15625","19.6875"
"1574193319893","478","0.3515625","-0.8203125","-0.19921875","-27.96875","22.03125","26.65625"
"1574193319894","479","0.37402344","-1.1552734","-0.046875","-24.625","22.625","31.1875"
"1574193320091","480","0.390625","-1.4990234","-0.16992188","-14.59375","-8.4375","18.65625"
"1574193320093","481","0.5283203","-1.6806641","-0.12988281","-6.53125","29.78125","10.71875"
"1574193320094","482","-0.20214844","-1.515625","-0.12011719","-18.3125","-2.21875","19.21875"
"1574193320094","483","-0.625","-0.9121094","-0.1953125","41.0625","-28.875","-5.5625"
"1574193320094","484","-0.53515625","-0.8408203","-0.14550781","30.25","-1.0625","-12.53125"
"1574193320094","485","0.1640625","-0.98535156","-0.08300781","-35.0","-32.125","-4.96875"
"1574193320095","486","0.50683594","-0.91015625","-0.21289062","-2.34375","22.3125","5.59375"
"1574193320095","487","-0.026367188","-0.7050781","-0.09863281","23.65625","26.96875","5.78125"
"1574193320095","488","-0.17382812","-0.56640625","-0.078125","15.625","-10.625","-22.28125"
"1574193320096","489","0.072265625","-0.60058594","-0.15136719","-17.40625","-41.40625","-7.15625"
"1574193320487","490","0.25","-0.7832031","-0.2734375","-10.03125","-12.40625","-1.0"
"1574193320488","491","0.30273438","-0.8701172","-0.34765625","-2.40625","-15.40625","-27.71875"
"1574193320488","492","0.2265625","-0.85253906","-0.29492188","2.78125","-39.25","-27.59375"
"1574193320489","493","0.12109375","-1.0664062","-0.2783203","-14.0","-32.375","-23.15625"
"1574193320489","494","0.0146484375","-1.6162109","-0.59375","-29.1875","3.9375","-19.375"
"1574193320489","495","0.21386719","-1.3066406","-0.5683594","-1.0","-38.28125","-38.03125"
"1574193320490","496","0.16894531","-1.5644531","-0.044921875","-10.03125","53.28125","-7.09375"
"1574193320490","497","0.076171875","-1.1933594","0.16210938","-9.53125","10.65625","36.96875"
"1574193320490","498","-0.16601562","-0.625","0.24804688","74.5625","-23.03125","11.71875"
"1574193320490","499","-0.0703125","-1.0107422","-0.111328125","-10.8125","-23.15625","-5.625"
"1574193320885","500","0.18554688","-1.2216797","-0.31347656","-71.1875","42.09375","4.0625"
"1574193320886","501","-0.19042969","-0.81933594","-0.1015625","22.5","68.84375","15.625"
"1574193320886","502","-0.046875","-0.4404297","0.059570312","26.03125","48.5","-1.78125"
"1574193320886","503","0.24804688","-0.4736328","-0.08984375","-28.9375","23.0","22.25"
"1574193320887","504","0.3564453","-0.7216797","-0.22167969","-27.96875","20.1875","34.21875"
"1574193320887","505","0.24316406","-1.0205078","-0.24804688","13.65625","52.71875","8.59375"
"1574193320887","506","0.12890625","-0.9189453","-0.18652344","13.84375","39.34375","12.25"
"1574193320888","507","0.20507812","-0.8984375","-0.32714844","-9.78125","47.84375","30.1875"
"1574193320888","508","0.39160156","-1.2539062","-0.24121094","-28.46875","55.96875","49.125"
"1574193320888","509","0.3857422","-1.5839844","-0.38085938","-23.03125","14.21875","28.1875"
"1574193321479","510","0.34472656","-1.4609375","-0.24707031","-20.03125","13.90625","-3.125"
"1574193321480","511","-0.11328125","-1.3945312","0.018554688","-53.375","38.0","2.96875"
"1574193321480","512","-0.6308594","-0.9169922","-0.09667969","-6.1875","29.03125","-1.90625"
"1574193321480","513","-0.4736328","-0.8417969","-0.22070312","51.625","-22.125","-35.125"
"1574193321480","514","0.21289062","-1.1181641","-0.12597656","-27.1875","-49.21875","-29.1875"
"1574193321481","515","0.5683594","-0.9873047","-0.24414062","-2.40625","60.65625","4.1875"
"1574193321481","516","-0.037109375","-0.6660156","-0.08691406","9.6875","7.6875","-4.46875"
"1574193321482","517","-0.21777344","-0.53222656","-0.109375","32.46875","-19.78125","-32.96875"
"1574193321482","518","0.045898438","-0.57910156","-0.24707031","3.84375","-50.375","-24.1875"
"1574193321483","519","0.2265625","-0.7861328","-0.3154297","-14.46875","-41.28125","-6.0"
"1574193321880","520","0.26171875","-0.8847656","-0.36523438","-12.59375","-27.90625","-17.71875"
"1574193321880","521","0.13769531","-0.82128906","-0.34472656","18.65625","-29.875","-19.53125"
"1574193321881","522","0.18554688","-0.8769531","-0.34570312","-8.5","-35.21875","-13.125"
"1574193321881","523","0.16992188","-1.5273438","-0.39160156","-28.75","-4.28125","-2.8125"
"1574193321881","524","0.33007812","-1.4267578","-0.6875","3.03125","-19.84375","-40.53125"
"1574193321882","525","0.34960938","-1.2929688","-0.35058594","21.71875","-3.875","-38.53125"
"1574193321882","526","0.17480469","-1.4277344","0.109375","-3.6875","48.375","25.625"
"1574193321882","527","-0.1796875","-0.7753906","0.09863281","52.53125","-38.15625","9.8125"
"1574193321882","528","-0.19433594","-0.7792969","-0.048828125","46.6875","-13.3125","12.625"
"1574193321884","529","0.1953125","-1.0800781","-0.2734375","-98.40625","-10.40625","7.5"
"1574193322673","530","0.1328125","-1.0458984","-0.25878906","35.3125","55.28125","28.84375"
"1574193322674","531","-0.11425781","-0.6113281","0.018554688","58.59375","45.28125","-2.53125"
"1574193322674","532","0.15527344","-0.43164062","-0.036132812","-11.78125","14.4375","12.375"
"1574193322674","533","0.3154297","-0.5722656","-0.15820312","-19.84375","2.0","29.78125"
"1574193322674","534","0.2626953","-0.9326172","-0.27929688","0.03125","32.46875","13.96875"
"1574193322675","535","0.18945312","-1.0126953","-0.24414062","4.3125","22.9375","9.03125"
"1574193322675","536","0.24511719","-1.0166016","-0.2890625","-5.75","24.875","16.65625"
"1574193322675","537","0.32714844","-1.2177734","-0.265625","-30.40625","24.40625","22.5"
"1574193322676","538","0.45898438","-1.4902344","-0.39453125","-31.25","-7.65625","13.0"
"1574193322676","539","0.22460938","-1.3291016","-0.38085938","-38.46875","10.96875","-17.21875"
"1574193322871","540","0.047851562","-1.2714844","-0.046875","-37.3125","45.15625","-9.53125"
"1574193322872","541","-0.375","-0.8417969","-0.029296875","-31.15625","36.125","7.8125"
"1574193322873","542","-0.6347656","-0.94628906","-0.32714844","37.34375","-19.0625","-14.96875"
"1574193322873","543","0.1015625","-1.2177734","-0.23339844","-5.15625","-52.5625","-46.59375"
"1574193322874","544","0.7763672","-1.2490234","-0.23144531","36.125","27.28125","0.0"
"1574193322874","545","-0.009765625","-0.6035156","-0.009765625","-6.0625","18.65625","-24.125"
"1574193322874","546","-0.20898438","-0.5136719","-0.2421875","9.1875","-18.8125","-40.71875"
"1574193322874","547","0.0126953125","-0.5917969","-0.33984375","-7.78125","-51.59375","-25.09375"
"1574193322875","548","0.34570312","-0.70703125","-0.296875","-19.3125","-76.90625","-1.34375"
"1574193322875","549","0.4794922","-0.79296875","-0.296875","2.1875","-23.9375","-12.21875"
"1574193323071","550","0.140625","-0.8076172","-0.34570312","-3.8125","-22.71875","-22.78125"
"1574193323071","551","-0.045898438","-1.0585938","-0.5332031","-9.65625","-59.90625","-25.03125"
"1574193323072","552","0.19238281","-1.4677734","-0.6191406","-26.3125","-16.8125","-25.09375"
"1574193323073","553","0.4453125","-1.0478516","-0.54589844","23.90625","-31.5625","-34.3125"
"1574193323073","554","0.3388672","-1.3496094","-0.27441406","-34.75","38.4375","-20.84375"
"1574193323073","555","0.09765625","-1.3759766","0.109375","-17.46875","21.03125","38.8125"
"1574193323074","556","-0.18457031","-0.734375","0.087890625","102.9375","-45.1875","1.15625"
"1574193323074","557","-0.08105469","-0.9316406","-0.07324219","-21.875","9.625","-7.78125"
"1574193323074","558","0.025390625","-1.3164062","-0.42382812","-145.65625","42.78125","18.1875"
"1574193323074","559","-0.013671875","-1.2314453","-0.2109375","75.59375","88.65625","19.34375"
"1574193323669","560","0.034179688","-0.70214844","-0.03515625","2.71875","84.46875","10.46875"
"1574193323670","561","0.12988281","-0.56933594","-0.14746094","-66.375","76.09375","29.15625"
"1574193323670","562","0.21386719","-0.7685547","-0.27148438","-42.96875","56.1875","36.125"
"1574193323670","563","0.29882812","-0.9082031","-0.27148438","1.09375","73.84375","15.3125"
"1574193323670","564","0.15722656","-0.7792969","-0.14746094","-3.90625","109.78125","26.65625"
"1574193323672","565","0.09277344","-0.6972656","-0.16308594","-26.5625","98.5","41.625"
"1574193323672","566","0.09277344","-0.93066406","-0.21679688","-27.90625","111.96875","40.03125"
"1574193323673","567","0.20703125","-1.15625","-0.13867188","-24.25","144.15625","17.6875"
"1574193323673","568","-0.22949219","-1.3984375","-0.21972656","-15.53125","192.4375","37.09375"
"1574193323673","569","-0.28320312","-1.4765625","-0.5888672","-29.5","114.375","31.125"
