"# PR data"
"# Start time: 20191119T194506"
"# Subject: joao"
"# Activity type: Knee extension"
"# Correctness: Correct"
"# Notes: "
""
"timestamp","seq","accel_x","accel_y","accel_z","gyro_x","gyro_y","gyro_z"
"1574192707147","0","0.26464844","-0.7714844","-0.6201172","-0.375","1.03125","-2.09375"
"1574192707147","1","0.26757812","-0.77441406","-0.6201172","-2.625","1.09375","-1.34375"
"1574192707147","2","0.2626953","-0.77441406","-0.6171875","-0.625","4.3125","0.0"
"1574192707148","3","0.26757812","-0.78027344","-0.625","1.03125","1.8125","-1.1875"
"1574192707148","4","0.2705078","-0.77246094","-0.6113281","0.65625","2.65625","-0.125"
"1574192707148","5","0.26757812","-0.78222656","-0.6152344","0.71875","4.0625","1.03125"
"1574192707148","6","0.26660156","-0.7832031","-0.6220703","0.53125","4.25","0.53125"
"1574192707149","7","0.2626953","-0.78125","-0.6171875","3.09375","5.0625","0.53125"
"1574192707149","8","0.26660156","-0.78027344","-0.60546875","3.34375","4.75","1.03125"
"1574192707149","9","0.265625","-0.7861328","-0.6064453","2.65625","3.59375","0.84375"
"1574192707542","10","0.26367188","-0.7919922","-0.61035156","2.25","3.21875","0.46875"
"1574192707542","11","0.26171875","-0.79003906","-0.60546875","3.71875","3.34375","0.40625"
"1574192707543","12","0.265625","-0.7890625","-0.59765625","1.5625","2.90625","0.09375"
"1574192707544","13","0.2607422","-0.7910156","-0.60253906","0.53125","3.21875","0.28125"
"1574192707547","14","0.25878906","-0.79785156","-0.5957031","2.1875","3.34375","0.34375"
"1574192707547","15","0.2607422","-0.7939453","-0.59765625","2.5","2.65625","0.0"
"1574192707547","16","0.26367188","-0.79296875","-0.5966797","1.75","3.21875","0.0"
"1574192707548","17","0.2685547","-0.7998047","-0.5957031","2.71875","3.71875","0.40625"
"1574192707548","18","0.25976562","-0.80078125","-0.59472656","2.3125","4.8125","0.65625"
"1574192707548","19","0.2548828","-0.7949219","-0.5966797","2.84375","4.9375","0.65625"
"1574192708136","20","0.265625","-0.8066406","-0.5859375","1.5625","2.65625","-0.375"
"1574192708137","21","0.26464844","-0.796875","-0.57421875","-0.375","2.59375","-0.6875"
"1574192708137","22","0.25976562","-0.8095703","-0.5908203","1.5625","2.71875","0.53125"
"1574192708137","23","0.26367188","-0.8105469","-0.5878906","1.5625","3.59375","-0.3125"
"1574192708138","24","0.26367188","-0.8027344","-0.57910156","-1.25","3.46875","-0.875"
"1574192708138","25","0.25976562","-0.80078125","-0.5751953","0.34375","3.90625","0.0"
"1574192708138","26","0.2578125","-0.8046875","-0.5878906","-0.375","2.71875","0.0"
"1574192708138","27","0.26367188","-0.8105469","-0.57421875","0.03125","2.65625","-0.3125"
"1574192708138","28","0.2626953","-0.80371094","-0.5751953","-0.5","2.375","-0.625"
"1574192708139","29","0.265625","-0.8076172","-0.5761719","-1.84375","2.125","-1.0"
"1574192708337","30","0.26171875","-0.8076172","-0.578125","-2.53125","2.1875","-1.1875"
"1574192708337","31","0.25683594","-0.80566406","-0.57714844","-2.15625","2.1875","-0.875"
"1574192708337","32","0.2607422","-0.8046875","-0.58203125","-1.84375","2.125","-1.0625"
"1574192708337","33","0.26660156","-0.8105469","-0.5888672","-1.0625","2.375","-0.6875"
"1574192708338","34","0.26757812","-0.8105469","-0.57714844","-1.25","2.71875","-0.75"
"1574192708338","35","0.2578125","-0.8046875","-0.58203125","-2.75","1.8125","-1.0"
"1574192708338","36","0.26367188","-0.8095703","-0.57910156","-0.3125","2.78125","-0.9375"
"1574192708339","37","0.26171875","-0.8027344","-0.5732422","-2.59375","1.8125","-1.46875"
"1574192708340","38","0.25878906","-0.79785156","-0.57910156","-3.875","0.71875","-1.25"
"1574192708340","39","0.25683594","-0.80566406","-0.59277344","-2.40625","2.125","-0.875"
"1574192708735","40","0.2626953","-0.8027344","-0.5888672","-2.875","1.5","-1.90625"
"1574192708735","41","0.2548828","-0.79589844","-0.5859375","-2.46875","3.03125","-1.0"
"1574192708735","42","0.2578125","-0.80078125","-0.5839844","-1.3125","2.3125","-0.6875"
"1574192708736","43","0.2626953","-0.80566406","-0.5966797","-1.78125","2.65625","-0.5"
"1574192708736","44","0.2626953","-0.80371094","-0.58496094","-1.3125","2.59375","-1.0"
"1574192708736","45","0.26660156","-0.8017578","-0.5878906","-2.6875","3.46875","-0.5625"
"1574192708736","46","0.26367188","-0.7949219","-0.59472656","-4.96875","4.6875","0.09375"
"1574192708737","47","0.2607422","-0.7988281","-0.59375","-2.15625","5.28125","0.40625"
"1574192708737","48","0.26367188","-0.8046875","-0.5878906","-0.1875","4.0625","0.34375"
"1574192708738","49","0.25585938","-0.8046875","-0.5839844","-0.5625","2.3125","-1.3125"
"1574192709133","50","0.26367188","-0.8027344","-0.58691406","-3.0625","-0.1875","-2.15625"
"1574192709134","51","0.2607422","-0.79785156","-0.5966797","-1.40625","0.15625","-1.71875"
"1574192709134","52","0.26171875","-0.7949219","-0.59277344","2.65625","2.78125","-1.125"
"1574192709134","53","0.2607422","-0.8046875","-0.5839844","-3.5625","0.28125","-2.09375"
"1574192709134","54","0.26171875","-0.79296875","-0.5810547","-5.8125","0.46875","-2.15625"
"1574192709135","55","0.25878906","-0.7939453","-0.60253906","-1.84375","0.15625","-1.1875"
"1574192709135","56","0.26367188","-0.79785156","-0.5996094","-2.59375","0.78125","-1.90625"
"1574192709135","57","0.25976562","-0.7939453","-0.5966797","-4.65625","1.28125","-1.96875"
"1574192709135","58","0.26171875","-0.7949219","-0.5986328","-3.625","0.96875","-1.96875"
"1574192709136","59","0.2607422","-0.7949219","-0.609375","-2.59375","0.84375","-1.90625"
"1574192709532","60","0.2607422","-0.7919922","-0.59765625","-2.34375","1.3125","-2.03125"
"1574192709533","61","0.2607422","-0.7910156","-0.60546875","-2.625","1.5","-1.90625"
"1574192709534","62","0.25976562","-0.79296875","-0.6035156","-3.375","0.78125","-1.96875"
"1574192709534","63","0.26171875","-0.7910156","-0.6035156","-4.34375","1.3125","-2.40625"
"1574192709534","64","0.26953125","-0.7919922","-0.6015625","-3.1875","2.4375","-1.96875"
"1574192709535","65","0.2626953","-0.78515625","-0.6113281","-2.875","2.0625","-1.65625"
"1574192709535","66","0.26464844","-0.7832031","-0.6074219","-2.34375","2.125","-1.40625"
"1574192709535","67","0.26367188","-0.78808594","-0.6064453","-4.09375","2.3125","-1.71875"
"1574192709535","68","0.2734375","-0.75","-0.6035156","1.6875","5.59375","-1.34375"
"1574192709536","69","0.32714844","-0.78222656","-0.60839844","7.5","2.5625","-1.65625"
"1574192710322","70","0.27246094","-0.79589844","-0.57421875","-2.9375","9.75","5.34375"
"1574192710322","71","0.2529297","-0.8046875","-0.60839844","-0.9375","0.65625","4.75"
"1574192710323","72","0.28027344","-0.77246094","-0.6171875","-10.21875","-5.875","-0.5625"
"1574192710324","73","0.32128906","-0.80371094","-0.66503906","-19.5","-7.71875","-3.125"
"1574192710325","74","0.29003906","-0.8261719","-0.64160156","-17.15625","-7.65625","-3.96875"
"1574192710325","75","0.1875","-0.7626953","-0.57128906","12.375","3.34375","-2.59375"
"1574192710325","76","0.16503906","-0.7109375","-0.63964844","3.15625","-8.6875","-7.40625"
"1574192710325","77","0.20019531","-0.7548828","-0.67871094","-6.375","-1.65625","-3.6875"
"1574192710326","78","0.25","-0.7988281","-0.6279297","22.5625","1.21875","-4.40625"
"1574192710326","79","0.28222656","-0.80859375","-0.54785156","18.90625","-0.5","-5.4375"
"1574192710520","80","0.2607422","-0.77734375","-0.5810547","11.15625","1.75","-7.65625"
"1574192710520","81","0.27246094","-0.8105469","-0.6220703","13.71875","4.375","-8.5625"
"1574192710520","82","0.27441406","-0.83203125","-0.58984375","9.125","4.4375","-7.21875"
"1574192710521","83","0.2763672","-0.82128906","-0.59375","10.59375","3.90625","-0.75"
"1574192710521","84","0.26757812","-0.81347656","-0.58496094","22.375","0.03125","4.5625"
"1574192710522","85","0.2265625","-0.82714844","-0.5488281","9.375","3.90625","2.4375"
"1574192710523","86","0.23535156","-0.7949219","-0.5625","10.375","2.0625","1.875"
"1574192710523","87","0.28320312","-0.81640625","-0.5830078","10.46875","0.0","2.65625"
"1574192710524","88","0.2529297","-0.8232422","-0.50097656","11.71875","11.71875","8.15625"
"1574192710524","89","0.25976562","-0.8203125","-0.4892578","11.8125","8.46875","4.5625"
"1574192710722","90","0.27734375","-0.85253906","-0.4609375","6.28125","1.6875","2.65625"
"1574192710722","91","0.2685547","-0.8701172","-0.49609375","9.75","-3.5625","1.875"
"1574192710722","92","0.28710938","-0.8378906","-0.5595703","-7.21875","-3.3125","-2.8125"
"1574192710722","93","0.2685547","-0.8457031","-0.5673828","-5.25","0.03125","-4.21875"
"1574192710723","94","0.26171875","-0.8359375","-0.5644531","-1.90625","-1.46875","-2.53125"
"1574192710723","95","0.2783203","-0.80371094","-0.5410156","-5.25","-2.875","-4.15625"
"1574192710723","96","0.24121094","-0.80566406","-0.47265625","0.40625","4.875","-2.53125"
"1574192710724","97","0.22558594","-0.86816406","-0.53222656","-7.03125","0.46875","-3.375"
"1574192710725","98","0.2265625","-0.8544922","-0.5029297","-6.25","-1.96875","3.40625"
"1574192710725","99","0.19824219","-0.8623047","-0.50878906","8.15625","2.1875","7.25"
"1574192711120","100","0.21582031","-0.8261719","-0.53027344","-6.125","-0.3125","1.21875"
"1574192711120","101","0.23046875","-0.859375","-0.5097656","-1.96875","1.4375","0.46875"
"1574192711120","102","0.23828125","-0.86035156","-0.5214844","-2.59375","4.0","-1.59375"
"1574192711121","103","0.24121094","-0.83203125","-0.5410156","-1.90625","10.125","-3.3125"
"1574192711121","104","0.24707031","-0.8027344","-0.5029297","4.375","6.28125","-2.34375"
"1574192711121","105","0.23925781","-0.8251953","-0.5761719","-5.5625","7.5","-5.375"
"1574192711122","106","0.27246094","-0.8310547","-0.55078125","12.375","15.71875","-6.90625"
"1574192711122","107","0.234375","-0.9042969","-0.5371094","28.0","19.625","4.125"
"1574192711122","108","0.2548828","-0.81347656","-0.5361328","-5.25","15.4375","6.8125"
"1574192711124","109","0.29882812","-0.8847656","-0.46484375","12.5","17.0","0.15625"
"1574192711518","110","0.265625","-0.8828125","-0.44726562","0.84375","10.46875","4.375"
"1574192711518","111","0.2529297","-0.87402344","-0.4638672","8.15625","-1.1875","8.15625"
"1574192711519","112","0.2548828","-0.9121094","-0.4716797","-3.6875","3.59375","14.09375"
"1574192711519","113","0.2734375","-0.8779297","-0.47265625","10.59375","1.15625","10.375"
"1574192711519","114","0.24511719","-0.90527344","-0.50390625","16.84375","5.90625","5.90625"
"1574192711519","115","0.25097656","-0.8613281","-0.47851562","9.6875","5.78125","5.0"
"1574192711520","116","0.2861328","-0.8935547","-0.45996094","15.71875","3.90625","2.5"
"1574192711520","117","0.27246094","-0.85839844","-0.42871094","10.375","2.0","2.78125"
"1574192711520","118","0.25097656","-0.84375","-0.38476562","15.1875","0.15625","-1.34375"
"1574192711520","119","0.25","-0.87597656","-0.40039062","-3.0625","2.0625","-3.1875"
"1574192711915","120","0.17480469","-0.9580078","-0.4091797","-2.59375","0.78125","10.375"
"1574192711916","121","0.13378906","-0.88671875","-0.3828125","2.5625","0.90625","9.25"
"1574192711917","122","0.22949219","-0.87890625","-0.43847656","-6.0","-0.1875","-7.21875"
"1574192711917","123","0.21972656","-0.9404297","-0.44140625","-20.65625","11.34375","-6.1875"
"1574192711918","124","0.23339844","-0.84472656","-0.46289062","-15.46875","7.75","-13.03125"
"1574192711918","125","0.29003906","-0.8486328","-0.5498047","-26.03125","7.3125","-16.0"
"1574192711918","126","0.25878906","-0.8564453","-0.4716797","-7.8125","19.15625","0.90625"
"1574192711918","127","0.2548828","-0.8466797","-0.5498047","-32.3125","11.21875","-1.3125"
"1574192711919","128","0.2685547","-0.82714844","-0.4765625","-23.4375","15.65625","-4.21875"
"1574192711919","129","0.24609375","-0.83984375","-0.44921875","-6.125","9.1875","2.0"
"1574192712312","130","0.29492188","-0.88378906","-0.49023438","1.375","2.65625","-0.4375"
"1574192712312","131","0.31933594","-0.87890625","-0.48535156","-11.84375","5.0625","-3.0"
"1574192712312","132","0.32226562","-0.8847656","-0.48632812","-9.84375","-1.65625","-6.0625"
"1574192712313","133","0.3095703","-0.90527344","-0.4814453","-17.53125","-3.96875","-5.5625"
"1574192712314","134","0.27246094","-0.8222656","-0.5107422","-26.8125","-10.40625","-3.4375"
"1574192712314","135","0.359375","-0.7949219","-0.5","-10.8125","-18.5625","-11.5625"
"1574192712314","136","0.3701172","-0.93847656","-0.6298828","-58.96875","-11.3125","-13.375"
"1574192712315","137","0.1875","-0.796875","-0.56347656","-4.28125","-4.90625","-1.3125"
"1574192712315","138","0.16503906","-0.78515625","-0.5703125","30.4375","-13.1875","4.25"
"1574192712315","139","0.20507812","-0.71484375","-0.55859375","5.71875","-3.90625","1.75"
"1574192712909","140","0.23730469","-0.7910156","-0.5810547","12.6875","-2.53125","-5.875"
"1574192712910","141","0.24511719","-0.87402344","-0.5546875","16.15625","-1.25","-5.21875"
"1574192712910","142","0.2734375","-0.85839844","-0.51953125","7.6875","1.03125","-6.4375"
"1574192712910","143","0.2529297","-0.8339844","-0.56152344","-3.5","-0.5","-3.6875"
"1574192712910","144","0.22949219","-0.8691406","-0.56933594","13.59375","-0.375","2.0"
"1574192712912","145","0.23339844","-0.8330078","-0.5439453","10.125","-1.59375","-1.96875"
"1574192712913","146","0.22363281","-0.8310547","-0.5654297","2.0625","-0.75","3.21875"
"1574192712913","147","0.18359375","-0.8300781","-0.49609375","21.59375","-1.59375","9.5"
"1574192712913","148","0.23144531","-0.8359375","-0.5019531","8.28125","0.15625","3.40625"
"1574192712913","149","0.23144531","-0.86816406","-0.515625","2.5625","9.8125","3.03125"
"1574192713107","150","0.2548828","-0.8720703","-0.46191406","13.03125","8.15625","2.0625"
"1574192713107","151","0.2734375","-0.8544922","-0.46289062","0.21875","3.21875","0.96875"
"1574192713107","152","0.27148438","-0.8691406","-0.48535156","-5.09375","0.40625","-0.8125"
"1574192713108","153","0.26464844","-0.85058594","-0.48632812","-7.46875","1.8125","-2.34375"
"1574192713108","154","0.27148438","-0.8574219","-0.5253906","-9.71875","0.71875","-5.6875"
"1574192713108","155","0.25195312","-0.8574219","-0.5419922","-15.03125","-1.90625","-5.375"
"1574192713108","156","0.25","-0.8251953","-0.5566406","-14.1875","-1.34375","-3.0625"
"1574192713109","157","0.2626953","-0.796875","-0.52734375","-1.78125","0.46875","-6.84375"
"1574192713110","158","0.2529297","-0.8544922","-0.54003906","-11.96875","1.03125","-6.71875"
"1574192713110","159","0.1875","-0.8535156","-0.5048828","-6.53125","3.84375","0.53125"
"1574192713700","160","0.18359375","-0.8125","-0.5283203","-14.1875","0.59375","4.5625"
"1574192713700","161","0.20898438","-0.8330078","-0.54589844","-9.0625","2.25","10.59375"
"1574192713700","162","0.22167969","-0.8613281","-0.5419922","3.90625","9.5","7.8125"
"1574192713701","163","0.21679688","-0.84472656","-0.515625","10.0625","12.25","0.71875"
"1574192713701","164","0.1953125","-0.80371094","-0.5253906","2.3125","18.84375","-2.34375"
"1574192713701","165","0.23925781","-0.80371094","-0.57910156","5.21875","20.5","-6.125"
"1574192713702","166","0.3017578","-0.9267578","-0.6035156","-16.4375","27.75","-2.28125"
"1574192713702","167","0.21484375","-0.90234375","-0.53222656","9.8125","39.34375","20.125"
"1574192713702","168","0.32714844","-0.7939453","-0.45898438","38.375","14.28125","-7.46875"
"1574192713703","169","0.3798828","-0.8964844","-0.4638672","-10.4375","3.34375","-8.75"
"1574192713902","170","0.19628906","-0.8652344","-0.43847656","-2.59375","8.53125","26.34375"
"1574192713903","171","0.22558594","-0.81640625","-0.52441406","0.78125","-6.5","3.53125"
"1574192713903","172","0.31640625","-0.8857422","-0.53027344","6.46875","2.90625","-4.34375"
"1574192713903","173","0.28320312","-0.9003906","-0.48046875","16.34375","9.25","4.6875"
"1574192713903","174","0.28515625","-0.84375","-0.484375","14.8125","-5.5","0.0"
"1574192713904","175","0.3046875","-0.8486328","-0.4951172","9.75","-2.625","-3.125"
"1574192713904","176","0.3486328","-0.82128906","-0.48046875","18.21875","-4.09375","-6.65625"
"1574192713904","177","0.29589844","-0.8652344","-0.421875","14.625","0.46875","-1.1875"
"1574192713904","178","0.1796875","-0.89941406","-0.40820312","7.8125","0.78125","11.71875"
"1574192713905","179","0.14941406","-0.90527344","-0.3935547","18.125","0.84375","14.875"
"1574192714499","180","0.20214844","-0.8671875","-0.41601562","0.53125","1.5625","2.96875"
"1574192714501","181","0.234375","-0.9121094","-0.390625","13.71875","10.375","0.34375"
"1574192714502","182","0.23242188","-0.9238281","-0.40039062","-2.15625","10.53125","-4.09375"
"1574192714502","183","0.2548828","-0.89160156","-0.44335938","-25.09375","8.53125","-9.0625"
"1574192714502","184","0.29101562","-0.8564453","-0.46875","-6.25","5.96875","-3.0"
"1574192714502","185","0.30078125","-0.8691406","-0.47753906","-4.59375","6.9375","-1.25"
"1574192714503","186","0.23730469","-0.90234375","-0.45507812","-13.0625","12.0","5.90625"
"1574192714503","187","0.21875","-0.82910156","-0.42285156","-8.75","6.625","4.1875"
"1574192714503","188","0.25","-0.86816406","-0.46777344","-13.25","9.75","-0.1875"
"1574192714504","189","0.24414062","-0.9316406","-0.42089844","-3.375","15.0","4.0625"
"1574192714699","190","0.22363281","-0.8798828","-0.4267578","-2.625","9.09375","4.0"
"1574192714699","191","0.31054688","-0.8701172","-0.43847656","-7.875","5.28125","-4.40625"
"1574192714699","192","0.29492188","-0.9355469","-0.49316406","-23.875","11.875","-2.75"
"1574192714700","193","0.24804688","-0.8964844","-0.43554688","1.4375","6.15625","0.53125"
"1574192714701","194","0.2919922","-0.8847656","-0.44140625","-17.59375","-5.375","-3.96875"
"1574192714701","195","0.2841797","-0.89160156","-0.46777344","-31.625","-2.625","-0.4375"
"1574192714701","196","0.32226562","-0.8183594","-0.4189453","-2.875","-9.34375","-8.4375"
"1574192714702","197","0.36132812","-0.91503906","-0.55859375","-37.75","-11.0","-11.0625"
"1574192714702","198","0.22949219","-0.95214844","-0.6357422","-47.5","-4.09375","-0.375"
"1574192714702","199","0.19140625","-0.8017578","-0.47265625","16.9375","-15.46875","7.5"
"1574192715095","200","0.15332031","-0.75390625","-0.48535156","-1.3125","-5.21875","8.03125"
"1574192715096","201","0.19726562","-0.7763672","-0.5546875","-9.71875","1.625","-5.4375"
"1574192715096","202","0.23730469","-0.8671875","-0.57714844","21.34375","-4.03125","-13.6875"
"1574192715097","203","0.2685547","-0.8779297","-0.5","-3.8125","-3.625","-7.40625"
"1574192715097","204","0.203125","-0.7998047","-0.5361328","-10.03125","1.8125","-4.40625"
"1574192715098","205","0.27148438","-0.82714844","-0.59277344","0.96875","-7.875","-11.0625"
"1574192715099","206","0.25195312","-0.87597656","-0.62890625","-5.375","-1.25","-0.4375"
"1574192715099","207","0.20117188","-0.8466797","-0.5498047","6.5625","4.5625","3.65625"
"1574192715099","208","0.21875","-0.7939453","-0.5488281","7.3125","-1.1875","-0.9375"
"1574192715099","209","0.23242188","-0.81347656","-0.5527344","4.875","-0.8125","2.0"
"1574192715492","210","0.21679688","-0.8310547","-0.484375","9.25","6.34375","6.03125"
"1574192715493","211","0.25390625","-0.85253906","-0.5097656","0.71875","8.46875","-0.125"
"1574192715493","212","0.24316406","-0.9033203","-0.4765625","5.40625","9.375","-0.1875"
"1574192715493","213","0.25878906","-0.8388672","-0.48339844","7.125","1.6875","-6.53125"
"1574192715494","214","0.28808594","-0.8574219","-0.55078125","-15.09375","-1.25","-2.875"
"1574192715494","215","0.26660156","-0.8613281","-0.49804688","-1.25","2.3125","1.21875"
"1574192715494","216","0.265625","-0.8330078","-0.53808594","-6.0","-0.0625","-4.40625"
"1574192715496","217","0.26660156","-0.796875","-0.5449219","-4.03125","-1.125","-5.09375"
"1574192715496","218","0.24414062","-0.83691406","-0.54296875","-9.46875","0.34375","-0.875"
"1574192715497","219","0.23925781","-0.83203125","-0.5527344","-11.5","2.0625","1.3125"
"1574192715891","220","0.2607422","-0.8251953","-0.5439453","0.03125","0.09375","-0.25"
"1574192715891","221","0.24511719","-0.8154297","-0.50878906","0.65625","0.28125","-0.625"
"1574192715892","222","0.24316406","-0.8330078","-0.5048828","-0.0625","0.65625","-1.34375"
"1574192715892","223","0.23632812","-0.8466797","-0.57910156","-15.15625","-2.40625","-0.4375"
"1574192715892","224","0.20214844","-0.84375","-0.53125","-2.59375","3.53125","6.9375"
"1574192715892","225","0.21582031","-0.83496094","-0.53515625","-2.53125","3.15625","6.21875"
"1574192715893","226","0.20410156","-0.8222656","-0.54785156","-3.0","6.40625","2.71875"
"1574192715893","227","0.1953125","-0.83496094","-0.5546875","5.78125","12.0625","-1.0"
"1574192715893","228","0.21875","-0.8466797","-0.5341797","-1.0","11.65625","-2.75"
"1574192715894","229","0.1953125","-0.79785156","-0.48632812","4.5625","19.03125","-1.59375"
"1574192716488","230","0.21191406","-0.8847656","-0.66015625","-11.25","21.03125","-3.875"
"1574192716488","231","0.2783203","-0.83984375","-0.5859375","26.78125","31.40625","-1.34375"
"1574192716488","232","0.38964844","-0.8066406","-0.46972656","40.03125","16.40625","-11.96875"
"1574192716489","233","0.3564453","-0.8876953","-0.4580078","0.65625","8.59375","-3.1875"
"1574192716489","234","0.20996094","-0.953125","-0.42285156","-1.3125","15.5","23.1875"
"1574192716489","235","0.16992188","-0.8574219","-0.45703125","17.625","-10.40625","15.71875"
"1574192716489","236","0.31445312","-0.859375","-0.5","-3.1875","-10.4375","-6.96875"
"1574192716490","237","0.29492188","-0.9277344","-0.46484375","2.65625","14.9375","4.4375"
"1574192716490","238","0.29003906","-0.85058594","-0.4033203","27.03125","-2.09375","0.21875"
"1574192716490","239","0.296875","-0.95214844","-0.4501953","8.09375","-11.71875","-4.03125"
"1574192716685","240","0.21484375","-0.8828125","-0.43652344","30.5625","-4.53125","2.4375"
"1574192716686","241","0.30664062","-0.76953125","-0.47070312","31.0625","-7.8125","-11.5"
"1574192716687","242","0.36035156","-0.8310547","-0.46875","6.28125","-2.8125","-14.53125"
"1574192716687","243","0.22558594","-0.91796875","-0.3798828","5.90625","5.0","3.09375"
"1574192716687","244","0.16308594","-0.92285156","-0.3779297","5.1875","-2.59375","9.5"
"1574192716687","245","0.20996094","-0.9033203","-0.40722656","-6.53125","-8.8125","6.5625"
"1574192716688","246","0.23339844","-0.8730469","-0.3779297","-11.5625","-1.0625","0.03125"
"1574192716688","247","0.27734375","-0.8876953","-0.42578125","-14.46875","0.59375","-14.1875"
"1574192716688","248","0.28027344","-0.9296875","-0.48339844","-20.15625","2.59375","-9.125"
"1574192716688","249","0.25097656","-0.8066406","-0.41992188","-1.1875","2.0625","-2.8125"
"1574192717083","250","0.25683594","-0.8105469","-0.5341797","-27.46875","-1.25","-7.9375"
"1574192717084","251","0.29882812","-0.90234375","-0.46191406","-15.6875","10.96875","-5.5"
"1574192717084","252","0.21484375","-0.921875","-0.44921875","-9.0","3.53125","3.59375"
"1574192717085","253","0.19335938","-0.7988281","-0.45703125","8.40625","-7.09375","-3.90625"
"1574192717086","254","0.31640625","-0.8173828","-0.4716797","-13.4375","2.5","-15.28125"
"1574192717086","255","0.3408203","-0.89941406","-0.49414062","-37.5","11.34375","-9.28125"
"1574192717086","256","0.28222656","-0.8925781","-0.42578125","3.90625","0.78125","3.21875"
"1574192717087","257","0.32617188","-0.8798828","-0.4814453","-10.09375","-12.21875","-10.6875"
"1574192717087","258","0.30566406","-0.85546875","-0.5214844","-25.21875","-12.78125","-2.40625"
"1574192717087","259","0.2861328","-0.8847656","-0.484375","-17.15625","-10.5625","0.21875"
"1574192717480","260","0.2841797","-0.8457031","-0.5410156","-23.75","-11.96875","-4.21875"
"1574192717481","261","0.2939453","-0.86035156","-0.62109375","-35.59375","-16.0","-7.71875"
"1574192717481","262","0.2607422","-0.83496094","-0.61035156","-12.09375","-12.21875","5.125"
"1574192717482","263","0.2109375","-0.72265625","-0.5048828","14.875","-5.4375","8.28125"
"1574192717482","264","0.23730469","-0.7529297","-0.5107422","19.15625","-0.875","-4.03125"
"1574192717483","265","0.23339844","-0.82421875","-0.6113281","-9.0625","-5.6875","-7.03125"
"1574192717484","266","0.20605469","-0.8564453","-0.5205078","21.15625","-2.875","2.0625"
"1574192717484","267","0.234375","-0.8779297","-0.4892578","16.03125","-9.40625","-1.84375"
"1574192717484","268","0.24609375","-0.8417969","-0.5810547","-8.9375","-12.40625","-4.78125"
"1574192717485","269","0.18457031","-0.86328125","-0.5839844","20.84375","-4.65625","1.5625"
"1574192718271","270","0.18164062","-0.8544922","-0.54003906","18.28125","2.0","4.0625"
"1574192718272","271","0.17773438","-0.86621094","-0.59472656","-5.21875","2.125","5.21875"
"1574192718272","272","0.18066406","-0.83984375","-0.5283203","15.3125","3.90625","6.09375"
"1574192718273","273","0.18261719","-0.81933594","-0.50097656","24.09375","5.34375","6.8125"
"1574192718273","274","0.22851562","-0.8408203","-0.4951172","-2.75","8.28125","0.71875"
"1574192718273","275","0.24707031","-0.86035156","-0.46191406","10.25","10.84375","2.0"
"1574192718274","276","0.2685547","-0.85058594","-0.50097656","-1.71875","6.8125","0.46875"
"1574192718274","277","0.24609375","-0.88671875","-0.48632812","-3.96875","8.53125","3.71875"
"1574192718274","278","0.24511719","-0.87109375","-0.47753906","-4.59375","4.0","5.21875"
"1574192718275","279","0.2529297","-0.8613281","-0.50390625","-9.15625","3.28125","-0.125"
"1574192718470","280","0.22949219","-0.8613281","-0.49414062","-5.875","3.15625","-2.9375"
"1574192718470","281","0.23242188","-0.8701172","-0.5644531","-21.625","1.3125","-4.09375"
"1574192718470","282","0.21484375","-0.8378906","-0.53125","-10.8125","5.28125","0.40625"
"1574192718471","283","0.21386719","-0.86328125","-0.54785156","-7.9375","7.1875","-1.0625"
"1574192718471","284","0.20019531","-0.8330078","-0.50878906","-13.125","7.96875","0.34375"
"1574192718471","285","0.20117188","-0.8388672","-0.46972656","1.5","3.53125","0.65625"
"1574192718471","286","0.20507812","-0.8457031","-0.54589844","-17.59375","7.75","1.09375"
"1574192718472","287","0.18457031","-0.8564453","-0.5673828","-11.5625","10.53125","5.65625"
"1574192718472","288","0.16796875","-0.8203125","-0.5498047","-4.09375","18.59375","9.5"
"1574192718473","289","0.21875","-0.8105469","-0.54296875","-1.1875","21.34375","9.8125"
"1574192718672","290","0.2109375","-0.8720703","-0.5341797","-14.53125","21.53125","9.5"
"1574192718672","291","0.20117188","-0.80371094","-0.46191406","14.3125","19.03125","6.6875"
"1574192718672","292","0.203125","-0.8496094","-0.56347656","18.53125","23.46875","2.78125"
"1574192718673","293","0.19921875","-0.9189453","-0.64453125","-20.53125","38.5","3.40625"
"1574192718673","294","0.31835938","-0.8798828","-0.4453125","52.0","18.125","-5.5625"
"1574192718673","295","0.36523438","-0.8798828","-0.4638672","11.75","-1.53125","-14.96875"
"1574192718673","296","0.24121094","-0.89453125","-0.48242188","-13.9375","14.4375","17.4375"
"1574192718674","297","0.14648438","-0.81640625","-0.4609375","22.03125","3.03125","14.375"
"1574192718674","298","0.2841797","-0.8623047","-0.5449219","-4.71875","-13.5625","-5.8125"
"1574192718674","299","0.25976562","-0.9423828","-0.43945312","12.375","19.9375","12.0625"
"1574192719264","300","0.22167969","-0.8535156","-0.46484375","16.90625","9.5","6.21875"
"1574192719265","301","0.22265625","-0.9199219","-0.46191406","19.40625","-2.6875","7.5"
"1574192719266","302","0.21582031","-0.8808594","-0.3984375","44.53125","7.5","10.59375"
"1574192719266","303","0.25390625","-0.8886719","-0.42089844","37.875","-2.03125","3.90625"
"1574192719266","304","0.24804688","-0.9111328","-0.33789062","38.5625","0.90625","7.125"
"1574192719266","305","0.23925781","-0.9140625","-0.33496094","29.65625","-0.3125","4.4375"
"1574192719267","306","0.25585938","-0.91503906","-0.375","-0.875","0.21875","-7.34375"
"1574192719267","307","0.21972656","-0.9560547","-0.29296875","8.15625","2.5","-2.21875"
"1574192719267","308","0.16503906","-0.93652344","-0.32226562","6.8125","-5.5625","3.46875"
"1574192719267","309","0.18164062","-0.9169922","-0.34765625","-2.53125","-6.90625","0.96875"
"1574192719468","310","0.18554688","-0.9277344","-0.3515625","-14.84375","-3.0625","-1.65625"
"1574192719469","311","0.20214844","-0.92089844","-0.375","-19.59375","-3.5","-6.84375"
"1574192719469","312","0.21679688","-0.9501953","-0.40429688","-21.0625","0.46875","-8.0625"
"1574192719471","313","0.19140625","-0.89746094","-0.32910156","-3.4375","2.375","-2.53125"
"1574192719471","314","0.23144531","-0.90527344","-0.41796875","-41.53125","0.28125","-6.125"
"1574192719472","315","0.27441406","-0.8769531","-0.39746094","-18.4375","-0.25","-12.09375"
"1574192719472","316","0.20117188","-0.9580078","-0.4296875","-8.375","0.59375","0.0"
"1574192719472","317","0.20605469","-0.86621094","-0.3857422","-8.25","-1.96875","-4.84375"
"1574192719472","318","0.25390625","-0.8769531","-0.45214844","-11.0625","-18.5625","-4.78125"
"1574192719473","319","0.18359375","-0.875","-0.4580078","-29.0","-1.34375","4.125"
"1574192719866","320","0.19238281","-0.8857422","-0.4404297","-16.875","0.59375","-6.0"
"1574192719867","321","0.21289062","-0.9267578","-0.41601562","-21.5","1.3125","-8.4375"
"1574192719867","322","0.25097656","-0.87402344","-0.41601562","-5.15625","-8.875","-12.40625"
"1574192719867","323","0.33984375","-0.9238281","-0.52441406","-23.8125","-16.25","-14.3125"
"1574192719868","324","0.31054688","-0.9042969","-0.5214844","-29.5","-4.90625","-6.59375"
"1574192719869","325","0.23535156","-0.95410156","-0.55566406","-11.25","-14.0","-9.65625"
"1574192719870","326","0.1953125","-0.8486328","-0.50878906","-24.90625","-17.59375","-12.21875"
"1574192719870","327","0.072265625","-0.765625","-0.57714844","3.53125","-10.625","1.3125"
"1574192719870","328","0.11230469","-0.7324219","-0.51953125","13.96875","4.8125","2.0"
"1574192719870","329","0.234375","-0.828125","-0.49023438","10.84375","2.5","-14.0"
"1574192720262","330","0.25","-0.9277344","-0.51660156","-0.875","2.125","-7.875"
"1574192720262","331","0.21777344","-0.90722656","-0.48535156","22.8125","2.84375","-4.46875"
"1574192720263","332","0.2529297","-0.84765625","-0.5175781","0.21875","-4.09375","-6.375"
"1574192720263","333","0.25195312","-0.859375","-0.53808594","-0.1875","-4.03125","-2.6875"
"1574192720263","334","0.21484375","-0.8925781","-0.5205078","10.0","-1.34375","2.375"
"1574192720263","335","0.21289062","-0.9033203","-0.4892578","12.9375","-6.84375","3.78125"
"1574192720264","336","0.2109375","-0.8730469","-0.46484375","3.03125","-11.125","-1.34375"
"1574192720265","337","0.1953125","-0.7910156","-0.5136719","2.65625","-7.09375","-1.90625"
"1574192720265","338","0.20605469","-0.8574219","-0.55371094","-7.28125","0.46875","-2.03125"
"1574192720265","339","0.1953125","-0.8720703","-0.4716797","6.15625","8.46875","0.53125"
"1574192720661","340","0.22851562","-0.85058594","-0.4404297","9.125","1.3125","2.0"
"1574192720661","341","0.24609375","-0.8564453","-0.49316406","0.40625","-2.15625","1.15625"
"1574192720661","342","0.23535156","-0.88964844","-0.47265625","0.65625","-0.8125","-0.4375"
"1574192720662","343","0.23339844","-0.87890625","-0.50097656","-6.71875","-0.25","-3.0"
"1574192720662","344","0.203125","-0.8408203","-0.515625","-12.34375","2.84375","-1.34375"
"1574192720662","345","0.22949219","-0.8544922","-0.54296875","-11.5625","6.5","-5.375"
"1574192720662","346","0.24707031","-0.86328125","-0.51464844","-8.3125","6.09375","-5.875"
"1574192720663","347","0.22167969","-0.8876953","-0.53808594","-13.625","4.25","0.53125"
"1574192720663","348","0.21679688","-0.8496094","-0.43945312","-0.9375","4.875","2.5625"
"1574192720664","349","0.17089844","-0.8691406","-0.53515625","-13.125","5.34375","5.21875"
"1574192721252","350","0.203125","-0.8144531","-0.4951172","-2.6875","6.40625","1.3125"
"1574192721253","351","0.21484375","-0.8457031","-0.51953125","-12.34375","12.6875","1.21875"
"1574192721253","352","0.20019531","-0.8955078","-0.5078125","-5.9375","17.25","3.90625"
"1574192721253","353","0.21582031","-0.8652344","-0.4921875","4.375","12.5","-0.6875"
"1574192721253","354","0.22070312","-0.83496094","-0.5097656","-9.53125","10.96875","-1.78125"
"1574192721254","355","0.19140625","-0.8574219","-0.52246094","-4.84375","20.6875","5.53125"
"1574192721254","356","0.15332031","-0.82421875","-0.51171875","6.09375","24.46875","5.90625"
"1574192721254","357","0.18554688","-0.9707031","-0.65234375","-7.40625","25.875","7.625"
"1574192721254","358","0.21582031","-0.8457031","-0.5126953","20.3125","38.1875","0.90625"
"1574192721255","359","0.45214844","-0.8457031","-0.37109375","61.75","8.15625","-14.3125"
"1574192721456","360","0.4248047","-0.91015625","-0.4609375","-36.6875","0.28125","-8.8125"
"1574192721458","361","0.14453125","-0.9824219","-0.4482422","7.125","18.84375","45.03125"
"1574192721458","362","0.140625","-0.7714844","-0.4404297","30.125","-20.53125","14.625"
"1574192721459","363","0.34375","-0.9042969","-0.49804688","-7.8125","-6.53125","-8.5625"
"1574192721459","364","0.23632812","-0.92285156","-0.43847656","13.03125","16.09375","12.25"
"1574192721459","365","0.1640625","-0.90722656","-0.40820312","22.09375","-1.53125","4.125"
"1574192721460","366","0.2265625","-0.8378906","-0.4111328","25.375","-2.53125","-3.75"
"1574192721460","367","0.28125","-0.90234375","-0.39453125","34.71875","-2.53125","-0.25"
"1574192721460","368","0.265625","-0.91015625","-0.39257812","17.6875","-1.3125","0.78125"
"1574192721461","369","0.23632812","-0.90234375","-0.3720703","16.84375","-0.875","1.4375"
"1574192721852","370","0.24609375","-0.9013672","-0.39746094","5.1875","-4.71875","-5.3125"
"1574192721852","371","0.20800781","-0.9355469","-0.3828125","6.75","-1.96875","-2.21875"
"1574192721852","372","0.15136719","-0.93652344","-0.3125","9.09375","-1.59375","7.375"
"1574192721853","373","0.16894531","-0.89941406","-0.3671875","-13.9375","-1.84375","2.90625"
"1574192721854","374","0.22167969","-0.9169922","-0.39746094","-3.4375","0.59375","-2.8125"
"1574192721854","375","0.20800781","-0.9296875","-0.3857422","-3.3125","7.4375","-4.71875"
"1574192721854","376","0.2265625","-0.9394531","-0.37597656","-5.5625","6.03125","-4.53125"
"1574192721854","377","0.20507812","-0.92578125","-0.3955078","-5.03125","4.5","0.0"
"1574192721855","378","0.20898438","-0.890625","-0.38476562","-7.46875","5.46875","-0.25"
"1574192721855","379","0.23535156","-0.890625","-0.4111328","-41.21875","3.03125","-10.40625"
"1574192722447","380","0.21679688","-0.9160156","-0.35351562","-19.125","4.625","-0.875"
"1574192722447","381","0.18652344","-0.8935547","-0.3857422","-8.4375","-1.40625","-0.5625"
"1574192722448","382","0.22949219","-0.92285156","-0.43945312","-9.40625","-2.53125","-8.25"
"1574192722448","383","0.23144531","-0.9013672","-0.44140625","-23.5","5.84375","-7.53125"
"1574192722448","384","0.2529297","-0.8925781","-0.43066406","-11.6875","0.96875","-7.875"
"1574192722449","385","0.3095703","-0.87402344","-0.4580078","-20.59375","-6.375","-13.3125"
"1574192722450","386","0.24414062","-0.9589844","-0.4921875","-34.4375","2.65625","-5.6875"
"1574192722450","387","0.18066406","-0.8779297","-0.45703125","-11.6875","-2.53125","0.84375"
"1574192722450","388","0.2939453","-0.7861328","-0.48632812","-11.96875","-14.1875","-9.28125"
"1574192722451","389","0.27441406","-0.9169922","-0.60253906","-53.46875","10.53125","-4.71875"
"1574192722647","390","0.14550781","-0.8808594","-0.52441406","-9.0","11.53125","3.46875"
"1574192722648","391","0.20898438","-0.7890625","-0.5097656","12.0","-9.21875","-6.0625"
"1574192722649","392","0.26464844","-0.828125","-0.5078125","-19.5","7.96875","-4.03125"
"1574192722649","393","0.17871094","-0.8798828","-0.5","0.90625","14.09375","3.90625"
"1574192722649","394","0.22851562","-0.8378906","-0.5205078","1.6875","5.78125","-0.6875"
"1574192722649","395","0.29589844","-0.85058594","-0.5390625","0.21875","4.5625","-2.09375"
"1574192722650","396","0.25585938","-0.8876953","-0.5058594","-2.46875","6.28125","1.15625"
"1574192722650","397","0.23339844","-0.82910156","-0.515625","-6.25","3.84375","-0.75"
"1574192722650","398","0.25097656","-0.82714844","-0.5361328","-5.375","-0.375","-0.875"
"1574192722651","399","0.24414062","-0.8535156","-0.5361328","-4.28125","3.34375","0.71875"
