local_ts,breathing_rate,breathing_signal,accel_x,accel_y,accel_z,bs_timestamp,rs_ts,activity_level,current_exercise,pred_exercise
1584707432212,NaN,-0.28866187,0.06982422,-0.97875977,-0.18188477,1584707432141,856218777182,0.08365941,0,1
1584707432214,NaN,-0.25847334,0.0690918,-0.9794922,-0.18115234,1584707432221,856218777182,0.08365941,0,1
1584707434590,NaN,-0.22279437,0.060058594,-0.97680664,-0.17504883,1584707432301,-5340452835102,0.08365941,0,1
1584707434598,NaN,-0.18136524,0.06591797,-0.97314453,-0.17114258,1584707432381,-5340452835102,0.08365941,0,1
1584707434606,NaN,-0.12896742,0.06738281,-0.98706055,-0.17089844,1584707432461,-5340452835102,0.08365941,0,1
1584707434609,NaN,-0.07747587,0.06982422,-0.9797363,-0.16601562,1584707432541,-5340452835102,0.08365941,0,1
1584707434613,NaN,-0.006378966,0.06762695,-0.9814453,-0.16601562,1584707432621,-5340452835102,0.08365941,0,1
1584707434618,NaN,0.045386594,0.06323242,-0.99121094,-0.17407227,1584707432701,-5340452835102,0.08224351,0,1
1584707434622,NaN,0.042905077,0.052001953,-0.9802246,-0.15234375,1584707432781,-5340452835102,0.035551604,0,1
1584707434625,NaN,0.045189213,0.07080078,-0.9851074,-0.1706543,1584707432861,-5340452835102,0.03495391,0,1
1584707434630,NaN,0.058637213,0.076171875,-0.98095703,-0.16455078,1584707432941,-5340452835102,0.03495391,0,1
1584707434634,NaN,0.07212546,0.07470703,-0.98095703,-0.1628418,1584707433021,-5340452835102,0.03495391,0,1
1584707434638,NaN,0.049387317,0.080322266,-0.9802246,-0.15478516,1584707433101,-5340452835102,0.03495391,0,1
1584707434642,NaN,0.009329997,0.088378906,-0.98168945,-0.14746094,1584707433181,-5340452835102,0.03495391,0,1
1584707434646,NaN,-0.030433202,0.087890625,-0.967041,-0.14624023,1584707433261,-5340452835102,0.03495391,0,1
1584707434651,NaN,-0.06560829,0.08618164,-0.9711914,-0.14282227,1584707433341,-5340452835102,0.03495391,0,1
1584707434657,NaN,-0.10531493,0.08496094,-0.97558594,-0.14794922,1584707433421,-5340452835102,0.03495391,0,1
1584707434661,NaN,-0.10667025,0.06591797,-0.9794922,-0.17993164,1584707433501,-5340452835102,0.037426844,0,1
1584707434664,NaN,-0.13053189,0.05834961,-0.99121094,-0.1640625,1584707433581,-5340452835102,0.037426844,0,1
1584707434668,NaN,-0.14944974,0.06640625,-0.9772949,-0.17358398,1584707433661,-5340452835102,0.037426844,0,1
1584707434670,NaN,-0.12904708,0.063964844,-0.98583984,-0.17089844,1584707433741,-5340452835102,0.037426844,0,1
1584707434673,NaN,-0.116425544,0.064697266,-0.97509766,-0.17480469,1584707433821,-5340452835102,0.037426844,0,1
1584707434676,NaN,-0.1041489,0.06713867,-0.9875488,-0.17260742,1584707433901,-5340452835102,0.037426844,0,1
1584707434680,NaN,-0.09157148,0.06542969,-0.9814453,-0.17358398,1584707433981,-5340452835102,0.037426844,0,1
1584707434683,NaN,-0.052855313,0.07446289,-0.97558594,-0.17260742,1584707434061,-5340452835102,0.037426844,0,1
1584707434687,NaN,-1.191174E-4,0.0690918,-0.98095703,-0.16430664,1584707434141,-5340452835102,0.037426844,0,1
1584707434690,NaN,0.054783408,0.0690918,-0.9838867,-0.16967773,1584707434221,-5340452835102,0.037426844,0,1
1584707434693,NaN,0.115643285,0.060302734,-0.99438477,-0.17553711,1584707434301,-5340452835102,0.037426844,0,1
1584707434698,NaN,0.17112772,0.030029297,-0.98950195,-0.16015625,1584707434381,-5340452835102,0.037426844,0,1
1584707434701,NaN,0.15831585,0.052734375,-0.9782715,-0.16894531,1584707434461,-5340452835102,0.037426844,0,1
1584707434704,NaN,0.15696378,0.047851562,-0.9946289,-0.1586914,1584707434541,-5340452835102,0.037426844,0,1
1584707434707,NaN,0.14983708,0.022216797,-0.9914551,-0.13623047,1584707434621,-5340452835102,0.037426844,0,1
1584707434710,NaN,0.16120519,-0.009765625,-0.984375,-0.15185547,1584707434701,-5340452835102,0.037426844,0,1
1584707434712,NaN,0.1323768,-0.012939453,-1.0131836,-0.10058594,1584707434781,-5340452835102,0.058894593,0,1
1584707437171,NaN,0.10398528,-0.026367188,-1.0002441,-0.09057617,1584707434861,6909901101298,0.058894593,0,1
1584707437175,NaN,0.0915385,-0.07397461,-0.9848633,-0.09033203,1584707434941,6909901101298,0.058894593,0,1
1584707437179,NaN,0.1053172,-0.09838867,-0.9958496,-0.11791992,1584707435021,6909901101298,0.058894593,0,1
1584707437185,NaN,0.08452651,-0.09057617,-0.9970703,-0.0793457,1584707435101,6909901101298,0.058894593,0,1
1584707437189,NaN,-0.041907653,-9.765625E-4,-0.9694824,0.011230469,1584707435181,6909901101298,0.13035807,0,1
1584707437197,NaN,-0.2460749,0.011230469,-1.0087891,0.08154297,1584707435261,6909901101298,0.13035807,0,1
1584707437198,NaN,-0.507824,0.028808594,-0.9807129,0.15039062,1584707435341,6909901101298,0.13035807,0,1
1584707437202,NaN,-0.80671763,0.037353516,-0.9707031,0.23535156,1584707435421,6909901101298,0.13035807,0,1
1584707437205,NaN,-1.1422421,0.047607422,-0.94799805,0.27783203,1584707435501,6909901101298,0.13035807,0,1
1584707437210,NaN,-1.5152549,0.1105957,-0.8959961,0.3190918,1584707435581,6909901101298,0.13035807,0,1
1584707437214,NaN,-2.0067608,0.16113281,-0.9243164,0.38745117,1584707435661,6909901101298,0.13035807,0,1
1584707437218,NaN,-2.4513264,0.19311523,-0.8322754,0.40039062,1584707435741,6909901101298,0.13035807,0,1
1584707437222,NaN,-2.8873863,0.24121094,-0.88964844,0.3779297,1584707435821,6909901101298,0.13035807,0,1
1584707437237,NaN,-3.3795507,0.24194336,-0.86694336,0.40551758,1584707435901,6909901101298,0.13035807,0,1
1584707437238,NaN,-3.9012964,0.16040039,-0.8874512,0.39770508,1584707435981,6909901101298,0.13035807,0,1
1584707437240,NaN,-4.342382,0.17993164,-0.954834,0.39526367,1584707436061,6909901101298,0.13035807,0,1
1584707437240,NaN,-4.57803,0.19165039,-0.907959,0.37719727,1584707436141,6909901101298,0.13035807,0,1
1584707437241,NaN,-4.757235,0.19213867,-0.82299805,0.42114258,1584707436221,6909901101298,0.13035807,0,1
1584707437247,NaN,-4.7792974,0.14282227,-0.8654785,0.40405273,1584707436301,6909901101298,0.13035807,0,1
1584707437250,NaN,-4.695336,0.17529297,-0.8847656,0.45263672,1584707436381,6909901101298,0.13035807,0,1
1584707437254,NaN,-4.542941,0.14770508,-0.8869629,0.4724121,1584707436461,6909901101298,0.13035807,0,1
1584707437257,NaN,-4.2613683,0.24829102,-0.84814453,0.40356445,1584707436541,6909901101298,0.13035807,0,1
1584707437260,NaN,-3.810819,0.34301758,-0.9055176,0.37548828,1584707436621,6909901101298,0.13035807,0,1
1584707437263,NaN,-3.32693,0.36035156,-0.7885742,0.33032227,1584707436701,6909901101298,0.13035807,0,1
1584707437266,NaN,-2.8150673,0.44580078,-0.84033203,0.2541504,1584707436781,6909901101298,0.13035807,0,1
1584707437270,NaN,-2.1848795,0.45458984,-0.8991699,0.21655273,1584707436861,6909901101298,0.13035807,0,1
1584707437274,NaN,-1.5895764,0.39135742,-0.8383789,0.2211914,1584707436941,6909901101298,0.13035807,0,1
1584707437277,NaN,-0.95964354,0.40576172,-0.9165039,0.12451172,1584707437021,6909901101298,0.13035807,0,1
1584707437280,NaN,-0.33106312,0.44458008,-0.9538574,0.022216797,1584707437101,6909901101298,0.13035807,0,1
1584707437283,NaN,0.35509503,0.57373047,-0.8186035,-0.008056641,1584707437181,6909901101298,0.18944636,0,1
1584707437285,NaN,1.0703064,0.65234375,-0.8322754,-0.19067383,1584707437261,6909901101298,0.19928876,0,1
1584707437288,NaN,1.830205,0.78637695,-0.8269043,-0.20410156,1584707437341,6909901101298,0.19928876,0,1
1584707439756,NaN,2.6092212,0.7246094,-0.7062988,-0.23388672,1584707437421,713510963990,0.19928876,0,1
1584707439760,NaN,3.2915802,0.74316406,-0.6308594,-0.2685547,1584707437501,713510963990,0.19928876,0,1
1584707439764,NaN,3.8275397,0.7866211,-0.56103516,-0.19750977,1584707437581,713510963990,0.19928876,0,1
1584707439768,NaN,4.3201504,0.8457031,-0.5905762,-0.24291992,1584707437661,713510963990,0.19928876,0,1
1584707439773,NaN,4.6629047,0.82592773,-0.58813477,-0.18383789,1584707437741,713510963990,0.19928876,0,1
1584707439778,NaN,5.002987,0.76660156,-0.61206055,-0.3293457,1584707437821,713510963990,0.19928876,0,1
1584707439782,NaN,5.303223,0.7998047,-0.5361328,-0.20385742,1584707437901,713510963990,0.19928876,0,1
1584707439785,NaN,5.5667424,0.73706055,-0.5727539,-0.36401367,1584707437981,713510963990,0.19928876,0,1
1584707439788,NaN,5.5716786,0.7233887,-0.58203125,-0.21435547,1584707438061,713510963990,0.19928876,0,1
1584707439792,NaN,5.484101,0.77905273,-0.6220703,-0.26513672,1584707438141,713510963990,0.19928876,0,1
1584707439795,NaN,5.035668,0.6882324,-0.72875977,-0.15112305,1584707438221,713510963990,0.19928876,0,1
1584707439798,NaN,4.345823,0.6125488,-0.9616699,-0.07495117,1584707438301,713510963990,0.25647086,0,1
1584707439801,NaN,3.435251,0.5227051,-1.0671387,0.025146484,1584707438381,713510963990,0.25647086,0,1
1584707439806,NaN,2.413185,0.31323242,-0.9711914,0.1328125,1584707438461,713510963990,0.25647086,0,1
1584707439810,NaN,1.4399496,0.15136719,-0.84521484,0.17504883,1584707438541,713510963990,0.25647086,0,1
1584707439814,NaN,0.34364137,0.17480469,-0.9199219,0.23095703,1584707438621,713510963990,0.25647086,0,1
1584707439818,NaN,-0.66184247,0.18798828,-0.94750977,0.2746582,1584707438701,713510963990,0.25647086,0,1
1584707439821,NaN,-1.9176251,0.1508789,-0.9284668,0.35131836,1584707438781,713510963990,0.25647086,0,1
1584707439824,NaN,-3.038758,0.11450195,-0.8342285,0.35131836,1584707438861,713510963990,0.25647086,0,1
1584707439827,NaN,-4.3302417,0.17529297,-0.87475586,0.39770508,1584707438941,713510963990,0.25647086,0,1
1584707439830,NaN,-5.3412895,0.15332031,-0.90844727,0.39916992,1584707439021,713510963990,0.25647086,0,1
1584707439833,NaN,-6.3090057,0.14160156,-0.8598633,0.33813477,1584707439101,713510963990,0.25647086,0,1
1584707439838,NaN,-6.8914895,0.19238281,-0.8601074,0.33666992,1584707439181,713510963990,0.25647086,0,1
1584707439840,NaN,-7.1858544,0.25732422,-0.904541,0.30859375,1584707439261,713510963990,0.25647086,0,1
1584707439845,NaN,-7.140943,0.32373047,-0.9851074,0.2607422,1584707439341,713510963990,0.25647086,0,1
1584707439849,NaN,-6.568091,0.52490234,-1.0847168,0.10180664,1584707439421,713510963990,0.27505028,0,1
1584707439853,NaN,-5.6982865,0.73828125,-1.0559082,9.765625E-4,1584707439501,713510963990,0.27505028,0,1
1584707439857,NaN,-4.5691085,0.6711426,-0.8833008,-0.23461914,1584707439581,713510963990,0.29967692,0,1
1584707439860,NaN,-3.386407,0.6845703,-0.85009766,-0.23730469,1584707439661,713510963990,0.29967692,0,1
1584707439863,NaN,-2.0083687,0.6101074,-0.80737305,-0.2097168,1584707439741,713510963990,0.29967692,0,1
1584707439866,NaN,-0.70402616,0.57910156,-0.79418945,-0.19628906,1584707439821,713510963990,0.29967692,0,1
1584707439869,NaN,0.6558996,0.47973633,-0.7727051,-0.14648438,1584707439901,713510963990,0.29967692,0,1
1584707442338,NaN,1.8591042,0.43701172,-0.79003906,-0.10522461,1584707439981,-5483160648294,0.29967692,0,1
1584707442342,NaN,2.937856,0.37475586,-0.82373047,-0.037109375,1584707440061,-5483160648294,0.29967692,0,1
1584707442346,NaN,3.7499855,0.28588867,-0.8547363,0.03491211,1584707440141,-5483160648294,0.29967692,0,1
1584707442350,NaN,4.3362217,0.29882812,-0.8959961,0.122558594,1584707440221,-5483160648294,0.29967692,0,1
1584707442355,NaN,4.6511683,0.19970703,-0.9121094,0.15649414,1584707440301,-5483160648294,0.29967692,0,1
1584707442360,NaN,4.3601003,0.19238281,-0.9001465,0.21484375,1584707440381,-5483160648294,0.29967692,0,1
1584707442364,NaN,3.5487945,0.16430664,-0.9355469,0.27734375,1584707440461,-5483160648294,0.29967692,0,1
1584707442367,NaN,2.4104016,0.15332031,-0.9013672,0.2590332,1584707440541,-5483160648294,0.29967692,0,1
1584707442370,NaN,1.1931361,0.14697266,-0.89208984,0.27075195,1584707440621,-5483160648294,0.29967692,0,1
1584707442375,NaN,-0.03123208,0.14550781,-0.9296875,0.29736328,1584707440701,-5483160648294,0.29967692,0,1
1584707442378,NaN,-1.201828,0.14916992,-0.92749023,0.28295898,1584707440781,-5483160648294,0.29967692,0,1
1584707442381,NaN,-2.198042,0.15625,-0.9411621,0.27075195,1584707440861,-5483160648294,0.29967692,0,1
1584707442384,NaN,-3.0986624,0.15576172,-0.9421387,0.27319336,1584707440941,-5483160648294,0.29967692,0,1
1584707442387,NaN,-3.7418716,0.1887207,-0.91552734,0.23779297,1584707441021,-5483160648294,0.29967692,0,1
1584707442390,NaN,-4.1564174,0.21044922,-0.8930664,0.22802734,1584707441101,-5483160648294,0.29967692,0,1
1584707442393,NaN,-4.3869104,0.24633789,-0.90283203,0.20751953,1584707441181,-5483160648294,0.29967692,0,1
1584707442396,NaN,-4.377317,0.29785156,-0.9042969,0.15063477,1584707441261,-5483160648294,0.29967692,0,1
1584707442399,NaN,-4.105185,0.31640625,-0.89086914,0.14135742,1584707441341,-5483160648294,0.29967692,0,1
1584707442402,NaN,-3.460702,0.38354492,-0.79663086,0.08129883,1584707441421,-5483160648294,0.29967692,0,1
1584707442406,NaN,-2.5375683,0.4169922,-0.8498535,-0.0126953125,1584707441501,-5483160648294,0.29967692,0,1
1584707442408,NaN,-1.4950733,0.4819336,-0.8239746,-0.049804688,1584707441581,-5483160648294,0.29967692,0,1
1584707442412,NaN,-0.37901863,0.5637207,-0.84472656,-0.083496094,1584707441661,-5483160648294,0.29967692,0,1
1584707442415,NaN,0.7330963,0.62060547,-0.8581543,-0.111816406,1584707441741,-5483160648294,0.29967692,0,1
1584707442419,NaN,1.7414051,0.62109375,-0.8093262,-0.12939453,1584707441821,-5483160648294,0.29967692,0,1
1584707442422,NaN,2.7164106,0.7297363,-0.80322266,-0.09472656,1584707441901,-5483160648294,0.29967692,0,1
1584707442426,NaN,3.488294,0.6660156,-0.7998047,-0.107666016,1584707441981,-5483160648294,0.29967692,0,1
1584707442430,NaN,4.099139,0.7416992,-0.8557129,-0.059570312,1584707442061,-5483160648294,0.29967692,0,1
1584707442434,NaN,4.5452905,0.6599121,-0.82128906,-0.037841797,1584707442141,-5483160648294,0.13036676,0,1
1584707442437,NaN,4.707644,0.62353516,-0.873291,0.03540039,1584707442221,-5483160648294,0.13036676,0,1
1584707442441,NaN,4.7111344,0.51708984,-0.8918457,0.08129883,1584707442301,-5483160648294,0.13036676,0,1
1584707442444,NaN,4.430487,0.44018555,-0.9499512,0.10229492,1584707442381,-5483160648294,0.13036676,0,1
1584707442447,NaN,3.96193,0.38549805,-1.026123,0.1105957,1584707442461,-5483160648294,0.13036676,0,1
1584707444923,NaN,3.330262,0.2993164,-0.96728516,0.13769531,1584707442541,6767193288106,0.13036676,0,1
1584707444929,NaN,2.5399976,0.2265625,-0.9108887,0.14404297,1584707442621,6767193288106,0.13036676,0,1
1584707444937,NaN,1.6472026,0.21362305,-0.9094238,0.16748047,1584707442701,6767193288106,0.13036676,0,1
1584707444944,NaN,0.6863783,0.22436523,-0.97436523,0.20385742,1584707442781,6767193288106,0.13036676,0,1
1584707444949,NaN,-0.37619376,0.18066406,-0.9538574,0.23876953,1584707442861,6767193288106,0.13036676,0,1
1584707444956,NaN,-1.351921,0.1730957,-0.9230957,0.24560547,1584707442941,6767193288106,0.13036676,0,1
1584707444962,NaN,-2.2974107,0.17504883,-0.9387207,0.2578125,1584707443021,6767193288106,0.13036676,0,1
1584707444966,NaN,-3.1154277,0.1694336,-0.9411621,0.2553711,1584707443101,6767193288106,0.13036676,0,1
1584707444970,NaN,-3.7151642,0.18457031,-0.93603516,0.25732422,1584707443181,6767193288106,0.13036676,0,1
1584707444974,NaN,-4.114531,0.21826172,-0.9226074,0.26464844,1584707443261,6767193288106,0.13036676,0,1
1584707444978,NaN,-4.2881846,0.22802734,-0.92578125,0.25073242,1584707443341,6767193288106,0.13036676,0,1
1584707444982,NaN,-4.3177724,0.234375,-0.9250488,0.24536133,1584707443421,6767193288106,0.13036676,0,1
1584707444985,NaN,-4.1856265,0.23266602,-0.9458008,0.23242188,1584707443501,6767193288106,0.13036676,0,1
1584707444989,NaN,-3.9123173,0.2541504,-0.9406738,0.21240234,1584707443581,6767193288106,0.13036676,0,1
1584707444993,NaN,-3.5378892,0.27441406,-0.92626953,0.2097168,1584707443661,6767193288106,0.13036676,0,1
1584707444996,NaN,-3.0524607,0.31396484,-0.907959,0.19091797,1584707443741,6767193288106,0.13036676,0,1
1584707445000,NaN,-2.4211051,0.34472656,-0.90185547,0.17871094,1584707443821,6767193288106,0.13036676,0,1
1584707445002,NaN,-1.7397035,0.40576172,-0.91552734,0.14868164,1584707443901,6767193288106,0.13036676,0,1
1584707445005,NaN,-0.93958336,0.51293945,-1.0024414,0.0859375,1584707443981,6767193288106,0.15158479,0,1
1584707445009,NaN,-0.017521182,0.6870117,-0.94433594,-0.03491211,1584707444061,6767193288106,0.21973172,0,1
1584707445012,NaN,0.8687977,0.6904297,-0.8823242,-0.11010742,1584707444141,6767193288106,0.21973172,0,1
1584707445015,NaN,1.6923466,0.75805664,-0.8574219,-0.14355469,1584707444221,6767193288106,0.21973172,0,1
1584707445018,NaN,2.3975933,0.6989746,-0.8474121,-0.14453125,1584707444301,6767193288106,0.21973172,0,1
1584707445021,NaN,3.031329,0.6525879,-0.8051758,-0.1381836,1584707444381,6767193288106,0.21973172,0,1
1584707445024,NaN,3.5443904,0.6135254,-0.7614746,-0.083740234,1584707444461,6767193288106,0.21973172,0,1
1584707445027,NaN,3.9497957,0.5722656,-0.7585449,-0.09423828,1584707444541,6767193288106,0.21973172,0,1
1584707445030,NaN,4.246164,0.4729004,-0.83935547,-0.1081543,1584707444621,6767193288106,0.21973172,0,1
1584707445033,NaN,4.437244,0.44091797,-0.82373047,-0.0871582,1584707444701,6767193288106,0.21973172,0,1
1584707445036,NaN,4.466539,0.4375,-0.875,-0.0068359375,1584707444781,6767193288106,0.21973172,0,1
1584707445039,NaN,4.339224,0.36401367,-0.87109375,0.03491211,1584707444861,6767193288106,0.21973172,0,1
1584707445042,NaN,4.0166197,0.31201172,-0.8640137,0.06591797,1584707444941,6767193288106,0.21973172,0,1
1584707445045,NaN,3.2855237,0.28930664,-0.91064453,0.13085938,1584707445021,6767193288106,0.21973172,0,1
1584707447307,NaN,2.410137,0.25952148,-0.89990234,0.15258789,1584707445101,570803150798,0.21973172,0,1
1584707447312,NaN,1.3861283,0.2409668,-0.9267578,0.17944336,1584707445181,570803150798,0.21973172,0,1
1584707447316,NaN,0.3822168,0.21655273,-0.9313965,0.22045898,1584707445261,570803150798,0.21973172,0,1
1584707447321,NaN,-0.58763504,0.20507812,-0.9223633,0.22485352,1584707445341,570803150798,0.21973172,0,1
1584707447326,NaN,-1.4748403,0.19238281,-0.923584,0.23120117,1584707445421,570803150798,0.21973172,0,1
1584707447331,NaN,-2.2911565,0.20947266,-0.90771484,0.22363281,1584707445501,570803150798,0.21973172,0,1
1584707447338,NaN,-2.9810092,0.21264648,-0.95166016,0.23364258,1584707445581,570803150798,0.21973172,0,1
1584707447345,NaN,-3.5748103,0.21875,-0.94677734,0.23583984,1584707445661,570803150798,0.21973172,0,1
1584707447349,NaN,-3.9930117,0.23535156,-0.9489746,0.20874023,1584707445741,570803150798,0.21973172,0,1
1584707447354,NaN,-4.2473516,0.23364258,-0.93066406,0.21142578,1584707445821,570803150798,0.21973172,0,1
1584707447358,NaN,-4.328278,0.25390625,-0.9099121,0.18383789,1584707445901,570803150798,0.21973172,0,1
1584707447363,NaN,-4.1037493,0.27441406,-0.90356445,0.18530273,1584707445981,570803150798,0.21973172,0,1
1584707447368,NaN,-3.7107325,0.28271484,-0.8913574,0.13989258,1584707446061,570803150798,0.21973172,0,1
1584707447373,NaN,-3.1044786,0.34350586,-0.857666,0.0793457,1584707446141,570803150798,0.21973172,0,1
1584707447378,NaN,-2.3639934,0.3955078,-0.8544922,0.025634766,1584707446221,570803150798,0.21973172,0,1
1584707447382,NaN,-1.5729666,0.45532227,-0.8791504,0.015136719,1584707446301,570803150798,0.21973172,0,1
1584707447386,NaN,-0.73892564,0.52905273,-0.8796387,-0.01928711,1584707446381,570803150798,0.21973172,0,1
1584707447390,NaN,0.09765053,0.5732422,-0.8395996,-0.059326172,1584707446461,570803150798,0.21973172,0,1
1584707447395,NaN,0.94132155,0.61157227,-0.7832031,-0.08544922,1584707446541,570803150798,0.21973172,0,1
1584707447398,NaN,1.8121495,0.63061523,-0.720459,-0.15478516,1584707446621,570803150798,0.12883109,0,1
1584707447401,NaN,2.6177785,0.69506836,-0.7219238,-0.16210938,1584707446701,570803150798,0.12883109,0,1
1584707447404,NaN,3.3871982,0.7133789,-0.68725586,-0.18847656,1584707446781,570803150798,0.12883109,0,1
1584707447407,NaN,4.0589986,0.7397461,-0.6843262,-0.19897461,1584707446861,570803150798,0.12883109,0,1
1584707447410,NaN,4.6726966,0.7536621,-0.7011719,-0.24780273,1584707446941,570803150798,0.12883109,0,1
1584707447413,NaN,5.190473,0.78125,-0.7116699,-0.2614746,1584707447021,570803150798,0.12883109,0,1
1584707447417,NaN,5.502274,0.7902832,-0.74609375,-0.2631836,1584707447101,570803150798,0.12883109,0,1
1584707447419,NaN,5.6165166,0.71313477,-0.73217773,-0.26416016,1584707447181,570803150798,0.095430255,0,1
1584707447422,NaN,5.5919147,0.69262695,-0.7988281,-0.22583008,1584707447261,570803150798,0.095430255,0,1
1584707447425,NaN,5.3574963,0.6413574,-0.86865234,-0.17211914,1584707447341,570803150798,0.101925716,0,1
1584707447428,NaN,4.9244556,0.5119629,-0.8811035,-0.07885742,1584707447421,570803150798,0.15998664,0,1
1584707447431,NaN,4.3233905,0.4580078,-0.9189453,-0.05126953,1584707447501,570803150798,0.15998664,0,1
1584707447435,NaN,3.534745,0.41381836,-0.92993164,-0.0021972656,1584707447581,570803150798,0.15998664,0,1
1584707449893,NaN,2.6451657,0.35986328,-0.96240234,0.01928711,1584707447661,-5625868461486,0.15998664,0,1
1584707449903,NaN,1.6408561,0.30322266,-0.93310547,0.072265625,1584707447741,-5625868461486,0.15998664,0,1
1584707449908,NaN,0.6035009,0.296875,-0.9362793,0.10986328,1584707447821,-5625868461486,0.15998664,0,1
1584707449914,NaN,-0.5087865,0.26367188,-0.9382324,0.14038086,1584707447901,-5625868461486,0.15998664,0,1
1584707449920,NaN,-1.6583118,0.23461914,-0.9609375,0.17871094,1584707447981,-5625868461486,0.15998664,0,1
1584707449923,NaN,-2.7689638,0.19018555,-0.9326172,0.25927734,1584707448061,-5625868461486,0.15998664,0,1
1584707449931,NaN,-3.7894535,0.18774414,-0.9238281,0.32299805,1584707448141,-5625868461486,0.15998664,0,1
1584707449935,NaN,-4.7108355,0.17822266,-0.92749023,0.36865234,1584707448221,-5625868461486,0.15998664,0,1
1584707449939,NaN,-5.469883,0.14526367,-0.88964844,0.41015625,1584707448301,-5625868461486,0.15998664,0,1
1584707449944,NaN,-5.9505672,0.13793945,-0.87060547,0.42773438,1584707448381,-5625868461486,0.15998664,0,1
1584707449947,NaN,-6.296333,0.118896484,-0.8640137,0.4489746,1584707448461,-5625868461486,0.15998664,0,1
1584707449951,NaN,-6.487612,0.103759766,-0.87475586,0.46826172,1584707448541,-5625868461486,0.15998664,0,1
1584707449954,NaN,-6.557379,0.104003906,-0.8720703,0.47680664,1584707448621,-5625868461486,0.15998664,0,1
1584707449957,NaN,-6.4530334,0.12573242,-0.8449707,0.4506836,1584707448701,-5625868461486,0.15998664,0,1
1584707449960,NaN,-6.2769666,0.13208008,-0.83251953,0.4580078,1584707448781,-5625868461486,0.15998664,0,1
1584707449964,NaN,-5.988266,0.125,-0.86499023,0.43823242,1584707448861,-5625868461486,0.15998664,0,1
1584707449965,NaN,-5.5861893,0.13989258,-0.8828125,0.44799805,1584707448941,-5625868461486,0.15998664,0,1
1584707449969,NaN,-5.0380673,0.15649414,-0.8894043,0.45629883,1584707449021,-5625868461486,0.15998664,0,1
1584707449972,NaN,-4.443118,0.15698242,-0.87402344,0.43115234,1584707449101,-5625868461486,0.15998664,0,1
1584707449975,NaN,-3.7950685,0.18359375,-0.8901367,0.39331055,1584707449181,-5625868461486,0.15998664,0,1
1584707449979,NaN,-3.0866954,0.22216797,-0.88720703,0.3564453,1584707449261,-5625868461486,0.15998664,0,1
1584707449981,NaN,-2.4649749,0.22241211,-0.89746094,0.3305664,1584707449341,-5625868461486,0.15998664,0,1
1584707449984,NaN,-1.8075446,0.26538086,-0.8852539,0.30908203,1584707449421,-5625868461486,0.15998664,0,1
1584707449987,NaN,-1.1009184,0.3178711,-0.9001465,0.25683594,1584707449501,-5625868461486,0.15998664,0,1
1584707449990,NaN,-0.36105356,0.39160156,-0.8935547,0.21557617,1584707449581,-5625868461486,0.15998664,0,1
1584707449993,NaN,0.43239498,0.5473633,-1.0124512,0.091552734,1584707449661,-5625868461486,0.23190494,0,1
1584707449996,NaN,1.3519087,0.67944336,-1.0097656,-0.047851562,1584707449741,-5625868461486,0.23190494,0,1
1584707449999,NaN,2.2644627,0.6726074,-0.8569336,-0.14672852,1584707449821,-5625868461486,0.23190494,0,1
1584707450002,NaN,3.2131832,0.74731445,-0.7763672,-0.19873047,1584707449901,-5625868461486,0.23190494,0,1
1584707450004,NaN,4.028417,0.68774414,-0.7861328,-0.17773438,1584707449981,-5625868461486,0.23190494,0,1
1584707450007,NaN,4.7468996,0.6437988,-0.78930664,-0.17016602,1584707450061,-5625868461486,0.23190494,0,1
1584707450010,NaN,5.3354874,0.64746094,-0.7763672,-0.12207031,1584707450141,-5625868461486,0.23190494,0,1
1584707452477,NaN,5.752071,0.61450195,-0.7993164,-0.1105957,1584707450221,6624485474914,0.23190494,0,1
1584707452483,NaN,6.068413,0.5529785,-0.7775879,-0.064453125,1584707450301,6624485474914,0.23190494,0,1
1584707452489,NaN,6.227261,0.49267578,-0.81152344,-0.040771484,1584707450381,6624485474914,0.23190494,0,1
1584707452494,NaN,6.2274265,0.49829102,-0.89086914,-0.04345703,1584707450461,6624485474914,0.23190494,0,1
1584707452498,NaN,6.050144,0.40698242,-0.8527832,-0.018310547,1584707450541,6624485474914,0.23190494,0,1
1584707452502,NaN,5.6228027,0.40649414,-0.84228516,0.0087890625,1584707450621,6624485474914,0.23190494,0,1
1584707452507,NaN,4.84811,0.36206055,-0.8886719,0.043701172,1584707450701,6624485474914,0.23190494,0,1
1584707452511,NaN,3.880678,0.33935547,-0.8984375,0.07788086,1584707450781,6624485474914,0.23190494,0,1
1584707452515,NaN,2.6900394,0.3161621,-0.90478516,0.11816406,1584707450861,6624485474914,0.23190494,0,1
1584707452519,NaN,1.539897,0.28271484,-0.91552734,0.16503906,1584707450941,6624485474914,0.23190494,0,1
1584707452523,NaN,0.42216957,0.26098633,-0.921875,0.21289062,1584707451021,6624485474914,0.23190494,0,1
1584707452527,NaN,-0.64199394,0.21191406,-0.92749023,0.21118164,1584707451101,6624485474914,0.23190494,0,1
1584707452532,NaN,-1.602573,0.21484375,-0.91918945,0.22753906,1584707451181,6624485474914,0.23190494,0,1
1584707452536,NaN,-2.438364,0.20678711,-0.93408203,0.22363281,1584707451261,6624485474914,0.23190494,0,1
1584707452540,NaN,-3.1312587,0.20336914,-0.9406738,0.24023438,1584707451341,6624485474914,0.23190494,0,1
1584707452543,NaN,-3.7425907,0.20117188,-0.9436035,0.24121094,1584707451421,6624485474914,0.23190494,0,1
1584707452546,NaN,-4.1867585,0.2055664,-0.95166016,0.25439453,1584707451501,6624485474914,0.23190494,0,1
1584707452549,NaN,-4.5173936,0.19824219,-0.9472656,0.26220703,1584707451581,6624485474914,0.23190494,0,1
1584707452552,NaN,-4.592218,0.20336914,-0.92871094,0.2644043,1584707451661,6624485474914,0.23190494,0,1
1584707452555,NaN,-4.4683027,0.21655273,-0.93652344,0.26245117,1584707451741,6624485474914,0.23190494,0,1
1584707452559,NaN,-4.14673,0.22241211,-0.939209,0.24047852,1584707451821,6624485474914,0.23190494,0,1
1584707452561,NaN,-3.7598732,0.22802734,-0.94628906,0.2355957,1584707451901,6624485474914,0.23190494,0,1
1584707452564,NaN,-3.312443,0.22753906,-0.93725586,0.2331543,1584707451981,6624485474914,0.23190494,0,1
1584707452566,NaN,-2.8245173,0.23461914,-0.9355469,0.24121094,1584707452061,6624485474914,0.23190494,0,1
1584707452569,NaN,-2.3497946,0.22729492,-0.92089844,0.2277832,1584707452141,6624485474914,0.23190494,0,1
1584707452572,NaN,-1.9140972,0.23828125,-0.90625,0.21655273,1584707452221,6624485474914,0.19205707,0,1
1584707452575,NaN,-1.5049168,0.25024414,-0.9370117,0.21264648,1584707452301,6624485474914,0.18215656,0,1
1584707452578,NaN,-1.08997,0.24707031,-0.9477539,0.19238281,1584707452381,6624485474914,0.121557765,0,1
1584707452594,NaN,-0.72639054,0.2668457,-0.93774414,0.19921875,1584707452461,6624485474914,0.10207911,0,1
1584707452595,NaN,-0.3530579,0.28149414,-0.9379883,0.19604492,1584707452541,6624485474914,0.10207911,0,1
1584707452595,NaN,-0.018066993,0.29638672,-0.92749023,0.17553711,1584707452621,6624485474914,0.10207911,0,1
1584707452596,NaN,0.2753368,0.31054688,-0.93530273,0.16894531,1584707452701,6624485474914,0.10207911,0,1
1584707455059,NaN,0.51680833,0.3293457,-0.9291992,0.15820312,1584707452781,428095337605,0.10207911,0,1
1584707455067,NaN,0.7129293,0.33764648,-0.9128418,0.14331055,1584707452861,428095337605,0.10207911,0,1
1584707455074,NaN,0.9034129,0.37280273,-0.90771484,0.1171875,1584707452941,428095337605,0.10207911,0,1
1584707455080,NaN,1.0869648,0.39770508,-0.89282227,0.10473633,1584707453021,428095337605,0.10207911,0,1
1584707455083,NaN,1.2851237,0.4152832,-0.8857422,0.07519531,1584707453101,428095337605,0.07310901,0,1
1584707455088,NaN,1.4921021,0.46606445,-0.8881836,0.05810547,1584707453181,428095337605,0.07310901,0,1
1584707455092,NaN,1.7116185,0.5019531,-0.8935547,0.024658203,1584707453261,428095337605,0.05857798,0,1
1584707455096,NaN,1.9412168,0.5073242,-0.85668945,-0.01171875,1584707453341,428095337605,0.05857798,0,1
1584707455101,NaN,2.177811,0.53027344,-0.8215332,-0.028076172,1584707453421,428095337605,0.05857798,0,1
1584707455106,NaN,2.412448,0.5546875,-0.779541,-0.03540039,1584707453501,428095337605,0.053635422,0,1
1584707455111,NaN,2.6292439,0.5666504,-0.7697754,-0.055908203,1584707453581,428095337605,0.053635422,0,1
1584707455115,NaN,2.847618,0.57250977,-0.74658203,-0.061035156,1584707453661,428095337605,0.053635422,0,1
1584707455118,NaN,3.0409772,0.57788086,-0.7453613,-0.04321289,1584707453741,428095337605,0.053635422,0,1
1584707455122,NaN,3.2299573,0.64501953,-0.7573242,-0.024902344,1584707453821,428095337605,0.07061153,0,1
1584707455125,NaN,3.378578,0.6843262,-0.7775879,-0.055664062,1584707453901,428095337605,0.07061153,0,1
1584707455129,NaN,3.5125396,0.7741699,-0.83032227,-0.075683594,1584707453981,428095337605,0.10608296,0,1
1584707455131,NaN,3.5873883,0.71972656,-0.82128906,-0.1171875,1584707454061,428095337605,0.10608296,0,1
1584707455135,NaN,3.5645807,0.6923828,-0.8522949,-0.099365234,1584707454141,428095337605,0.10608296,0,1
1584707455138,NaN,3.4101522,0.6435547,-0.8725586,-0.04248047,1584707454221,428095337605,0.10608296,0,1
1584707455141,NaN,3.1050727,0.54174805,-0.8864746,0.030029297,1584707454301,428095337605,0.12576133,0,1
1584707455144,NaN,2.67183,0.50561523,-0.9572754,0.087646484,1584707454381,428095337605,0.12576133,0,1
1584707455147,NaN,2.121883,0.40161133,-0.93481445,0.1430664,1584707454461,428095337605,0.12576133,0,1
1584707455150,NaN,1.5543346,0.42114258,-0.9187012,0.16479492,1584707454541,428095337605,0.12576133,0,1
1584707455152,NaN,0.9257233,0.34960938,-0.86572266,0.2133789,1584707454621,428095337605,0.12576133,0,1
1584707455156,NaN,0.28226814,0.2939453,-0.90185547,0.22290039,1584707454701,428095337605,0.12576133,0,1
1584707455159,NaN,-0.43222213,0.2619629,-0.9296875,0.2607422,1584707454781,428095337605,0.12576133,0,1
1584707455161,NaN,-1.2153635,0.21142578,-0.9279785,0.2800293,1584707454861,428095337605,0.12576133,0,1
1584707455164,NaN,-2.080031,0.19018555,-0.9152832,0.29101562,1584707454941,428095337605,0.12576133,0,1
1584707455167,NaN,-2.9342337,0.17382812,-0.9260254,0.3046875,1584707455021,428095337605,0.12576133,0,1
1584707455171,NaN,-3.6877062,0.17236328,-0.9321289,0.29589844,1584707455101,428095337605,0.12576133,0,1
1584707455174,NaN,-4.272162,0.18115234,-0.91748047,0.28881836,1584707455181,428095337605,0.12576133,0,1
1584707455176,NaN,-4.6238875,0.18823242,-0.9379883,0.29418945,1584707455261,428095337605,0.12576133,0,1
1584707457642,NaN,-4.8101,0.19384766,-0.9284668,0.29907227,1584707455341,-5768576274679,0.12576133,0,1
1584707457649,NaN,-4.789694,0.21582031,-0.9042969,0.30078125,1584707455421,-5768576274679,0.12576133,0,1
1584707457655,NaN,-4.7432923,0.22485352,-0.9157715,0.29174805,1584707455501,-5768576274679,0.12576133,0,1
1584707457662,NaN,-4.548329,0.2434082,-0.91308594,0.27929688,1584707455581,-5768576274679,0.12576133,0,1
1584707457667,NaN,-4.237065,0.27856445,-0.8930664,0.25097656,1584707455661,-5768576274679,0.12576133,0,1
1584707457672,NaN,-3.792117,0.30200195,-0.8972168,0.23071289,1584707455741,-5768576274679,0.12576133,0,1
1584707457677,NaN,-3.138812,0.40698242,-0.91796875,0.18798828,1584707455821,-5768576274679,0.12576133,0,1
1584707457681,NaN,-2.2245677,0.5852051,-1.0263672,0.08129883,1584707455901,-5768576274679,0.23429933,0,1
1584707457687,NaN,-1.1209072,0.74243164,-0.9645996,-0.020019531,1584707455981,-5768576274679,0.23429933,0,1
1584707457693,NaN,0.034222007,0.765625,-0.8701172,-0.14746094,1584707456061,-5768576274679,0.23429933,0,1
1584707457699,NaN,1.1294957,0.7451172,-0.7922363,-0.19824219,1584707456141,-5768576274679,0.23429933,0,1
1584707457707,NaN,2.097275,0.6599121,-0.7175293,-0.21264648,1584707456221,-5768576274679,0.23429933,0,1
1584707457711,NaN,3.0046709,0.66796875,-0.6923828,-0.18676758,1584707456301,-5768576274679,0.23429933,0,1
1584707457715,NaN,3.7617524,0.64160156,-0.73291016,-0.1862793,1584707456381,-5768576274679,0.23429933,0,1
1584707457717,NaN,4.446068,0.6086426,-0.7976074,-0.15966797,1584707456461,-5768576274679,0.23429933,0,1
1584707457720,NaN,4.9586887,0.5715332,-0.810791,-0.1027832,1584707456541,-5768576274679,0.23429933,0,1
1584707457724,NaN,5.3052316,0.5439453,-0.8149414,-0.05419922,1584707456621,-5768576274679,0.23429933,0,1
1584707457727,NaN,5.505427,0.4736328,-0.8137207,-0.010986328,1584707456701,-5768576274679,0.23429933,0,1
1584707457730,NaN,5.4546046,0.42822266,-0.8532715,0.022705078,1584707456781,-5768576274679,0.23429933,0,1
1584707457733,NaN,5.0810184,0.3955078,-0.8635254,0.06274414,1584707456861,-5768576274679,0.23429933,0,1
1584707457738,NaN,4.359914,0.3647461,-0.8613281,0.08666992,1584707456941,-5768576274679,0.23429933,0,1
1584707457741,NaN,3.386338,0.33251953,-0.8947754,0.103271484,1584707457021,-5768576274679,0.23429933,0,1
1584707457744,NaN,2.289345,0.30493164,-0.92700195,0.14257812,1584707457101,-5768576274679,0.23429933,0,1
1584707457748,NaN,1.1946408,0.27978516,-0.90844727,0.17114258,1584707457181,-5768576274679,0.23429933,0,1
1584707457752,NaN,0.092200875,0.27197266,-0.9230957,0.17797852,1584707457261,-5768576274679,0.23429933,0,1
1584707457756,NaN,-0.9846823,0.24975586,-0.9436035,0.22265625,1584707457341,-5768576274679,0.23429933,0,1
1584707457759,NaN,-1.9417983,0.24414062,-0.9265137,0.2163086,1584707457421,-5768576274679,0.23429933,0,1
1584707457763,NaN,-2.7768946,0.23291016,-0.92871094,0.23266602,1584707457501,-5768576274679,0.23429933,0,1
1584707457767,NaN,-3.4810932,0.22216797,-0.94311523,0.2265625,1584707457581,-5768576274679,0.23429933,0,1
1584707457770,NaN,-4.0407996,0.21826172,-0.9440918,0.23486328,1584707457661,-5768576274679,0.23429933,0,1
1584707457776,NaN,-4.406363,0.2290039,-0.9421387,0.20751953,1584707457741,-5768576274679,0.23429933,0,1
1584707457777,NaN,-4.5880885,0.22924805,-0.9477539,0.20117188,1584707457821,-5768576274679,0.23429933,0,1
1584707460226,NaN,-4.5481305,0.234375,-0.9399414,0.19995117,1584707457901,6481777661721,0.23429933,0,1
1584707460245,NaN,-4.2994847,0.24365234,-0.9399414,0.2043457,1584707457981,6481777661721,0.23429933,0,1
1584707460253,NaN,-3.8911097,0.24951172,-0.91796875,0.20166016,1584707458061,6481777661721,0.23429933,0,1
1584707460258,NaN,-3.402626,0.2775879,-0.91381836,0.18554688,1584707458141,6481777661721,0.23429933,0,1
1584707460261,NaN,-2.8747606,0.29516602,-0.9111328,0.16992188,1584707458221,6481777661721,0.23429933,0,1
1584707460264,NaN,-2.2559633,0.33740234,-0.9226074,0.15551758,1584707458301,6481777661721,0.23429933,0,1
1584707460268,NaN,-1.6682638,0.35205078,-0.9133301,0.12695312,1584707458381,6481777661721,0.23429933,0,1
1584707460271,NaN,-1.0801041,0.38500977,-0.9069824,0.11694336,1584707458461,6481777661721,0.19697928,0,1
1584707460273,NaN,-0.4884015,0.43701172,-0.8874512,0.10131836,1584707458541,6481777661721,0.16033144,0,1
1584707460277,NaN,0.075698435,0.46264648,-0.87524414,0.0793457,1584707458621,6481777661721,0.11423016,0,1
1584707460282,NaN,0.57542294,0.48266602,-0.85913086,0.04248047,1584707458701,6481777661721,0.11423016,0,1
1584707460285,NaN,1.0903896,0.5192871,-0.80126953,-0.01977539,1584707458781,6481777661721,0.092546366,0,1
1584707460289,NaN,1.5852915,0.5229492,-0.7741699,-0.04272461,1584707458861,6481777661721,0.092546366,0,1
1584707460293,NaN,2.0898263,0.57373047,-0.7597656,-0.061523438,1584707458941,6481777661721,0.092546366,0,1
1584707460296,NaN,2.576133,0.56030273,-0.75634766,-0.13452148,1584707459021,6481777661721,0.092546366,0,1
1584707460300,NaN,3.0027225,0.6237793,-0.7194824,-0.09472656,1584707459101,6481777661721,0.092546366,0,1
1584707460304,NaN,3.4495356,0.720459,-0.8005371,-0.16430664,1584707459181,6481777661721,0.1440771,0,1
1584707460309,NaN,3.726065,0.62060547,-0.75341797,-0.12207031,1584707459261,6481777661721,0.1440771,0,1
1584707460312,NaN,4.0421467,0.79541016,-0.7980957,-0.15820312,1584707459341,6481777661721,0.18400641,0,1
1584707460317,NaN,4.2371726,0.73779297,-0.7536621,-0.10083008,1584707459421,6481777661721,0.18400641,0,1
1584707460321,NaN,4.315987,0.73706055,-0.84716797,-0.13061523,1584707459501,6481777661721,0.18400641,0,1
1584707460325,NaN,4.236071,0.7233887,-0.8898926,-0.018310547,1584707459581,6481777661721,0.18400641,0,1
1584707460329,NaN,4.0032372,0.59277344,-0.8876953,0.061279297,1584707459661,6481777661721,0.18400641,0,1
1584707460333,NaN,3.5478995,0.49121094,-0.90649414,0.119140625,1584707459741,6481777661721,0.18400641,0,1
1584707460337,NaN,3.0018053,0.43041992,-0.9243164,0.14477539,1584707459821,6481777661721,0.18400641,0,1
1584707460340,NaN,2.3333364,0.37158203,-0.9230957,0.16772461,1584707459901,6481777661721,0.18400641,0,1
1584707460343,NaN,1.5716352,0.30517578,-0.9030762,0.17773438,1584707459981,6481777661721,0.18400641,0,1
1584707460347,NaN,0.72507495,0.23730469,-0.91552734,0.22094727,1584707460061,6481777661721,0.18400641,0,1
1584707460351,NaN,-0.29222575,0.2109375,-0.95336914,0.27197266,1584707460141,6481777661721,0.18400641,0,1
1584707460354,NaN,-1.1922082,0.18457031,-0.9313965,0.32226562,1584707460221,6481777661721,0.18400641,0,1
1584707460358,NaN,-2.289551,0.15991211,-0.9169922,0.33544922,1584707460301,6481777661721,0.18400641,0,1
1584707460362,NaN,-3.2767591,0.13720703,-0.8847656,0.3479004,1584707460381,6481777661721,0.18400641,0,1
1584707462809,NaN,-4.2167363,0.1262207,-0.92407227,0.35253906,1584707460461,285387524413,0.18400641,0,1
1584707462814,NaN,-4.9730124,0.12207031,-0.9104004,0.35546875,1584707460541,285387524413,0.18400641,0,1
1584707462819,NaN,-5.4601493,0.12768555,-0.91259766,0.3479004,1584707460621,285387524413,0.18400641,0,1
1584707462822,NaN,-5.679907,0.14501953,-0.90844727,0.3461914,1584707460701,285387524413,0.18400641,0,1
1584707462825,NaN,-5.7559676,0.16479492,-0.9226074,0.33764648,1584707460781,285387524413,0.18400641,0,1
1584707462828,NaN,-5.694205,0.17333984,-0.91381836,0.33129883,1584707460861,285387524413,0.18400641,0,1
1584707462832,NaN,-5.507813,0.18286133,-0.9152832,0.328125,1584707460941,285387524413,0.18400641,0,1
1584707462835,NaN,-5.1366477,0.20605469,-0.9328613,0.30004883,1584707461021,285387524413,0.18400641,0,1
1584707462838,NaN,-4.591435,0.21801758,-0.9250488,0.2915039,1584707461101,285387524413,0.18400641,0,1
1584707462842,NaN,-4.0148706,0.23413086,-0.9050293,0.29370117,1584707461181,285387524413,0.18400641,0,1
1584707462847,NaN,-3.2617369,0.2565918,-0.89697266,0.2849121,1584707461261,285387524413,0.18400641,0,1
1584707462850,NaN,-2.4748733,0.31030273,-0.890625,0.27294922,1584707461341,285387524413,0.18400641,0,1
1584707462853,NaN,-1.6023964,0.36132812,-0.8989258,0.23339844,1584707461421,285387524413,0.18400641,0,1
1584707462856,NaN,-0.7315113,0.41259766,-0.88793945,0.19091797,1584707461501,285387524413,0.18400641,0,1
1584707462859,NaN,0.11135451,0.5439453,-0.92163086,0.14770508,1584707461581,285387524413,0.18400641,0,1
1584707462862,NaN,0.9817937,0.7080078,-0.9265137,0.056152344,1584707461661,285387524413,0.18794215,0,1
1584707462866,NaN,1.8649387,0.79296875,-0.88500977,-0.04296875,1584707461741,285387524413,0.18794215,0,1
1584707462869,NaN,2.7063367,0.828125,-0.8051758,-0.05126953,1584707461821,285387524413,0.18794215,0,1
1584707462874,NaN,3.526161,0.8203125,-0.8051758,-0.16967773,1584707461901,285387524413,0.18794215,0,1
1584707462878,NaN,4.164596,0.7290039,-0.7336426,-0.140625,1584707461981,285387524413,0.18794215,0,1
1584707462881,NaN,4.716991,0.6542969,-0.68725586,-0.16113281,1584707462061,285387524413,0.18794215,0,1
1584707462884,NaN,5.1828866,0.59399414,-0.6828613,-0.18139648,1584707462141,285387524413,0.18794215,0,1
1584707462888,NaN,5.5174212,0.5629883,-0.76586914,-0.1394043,1584707462221,285387524413,0.18794215,0,1
1584707462893,NaN,5.682673,0.5275879,-0.81274414,-0.083984375,1584707462301,285387524413,0.18794215,0,1
1584707462897,NaN,5.697666,0.4855957,-0.826416,-0.05126953,1584707462381,285387524413,0.18794215,0,1
1584707462899,NaN,5.55813,0.46191406,-0.8613281,-0.017578125,1584707462461,285387524413,0.18794215,0,1
1584707462903,NaN,5.187292,0.39624023,-0.86035156,0.041748047,1584707462541,285387524413,0.18794215,0,1
1584707462906,NaN,4.528443,0.35229492,-0.86376953,0.049804688,1584707462621,285387524413,0.18794215,0,1
1584707462910,NaN,3.627547,0.34399414,-0.8901367,0.08935547,1584707462701,285387524413,0.18794215,0,1
1584707462914,NaN,2.61255,0.32788086,-0.8977051,0.115722656,1584707462781,285387524413,0.18794215,0,1
1584707462915,NaN,1.4461269,0.32055664,-0.9265137,0.15356445,1584707462861,285387524413,0.18794215,0,1
1584707462919,NaN,0.40055004,0.34057617,-0.9042969,0.1809082,1584707462941,285387524413,0.18794215,0,1
1584707465396,NaN,-0.6094584,0.32128906,-0.91503906,0.18310547,1584707463021,-5911284087871,0.18794215,0,1
1584707465404,NaN,-1.5749016,0.29711914,-0.92041016,0.1899414,1584707463101,-5911284087871,0.18794215,0,1
1584707465409,NaN,-2.3819094,0.30615234,-0.9160156,0.19873047,1584707463181,-5911284087871,0.18794215,0,1
1584707465417,NaN,-3.01548,0.31323242,-0.91381836,0.20019531,1584707463261,-5911284087871,0.18794215,0,1
1584707465420,NaN,-3.521424,0.3022461,-0.9267578,0.19873047,1584707463341,-5911284087871,0.18794215,0,1
1584707465425,NaN,-3.8823898,0.30908203,-0.9177246,0.19067383,1584707463421,-5911284087871,0.18794215,0,1
1584707465429,NaN,-4.0329823,0.32055664,-0.9279785,0.19165039,1584707463501,-5911284087871,0.18794215,0,1
1584707465434,NaN,-3.9910097,0.32641602,-0.92211914,0.1862793,1584707463581,-5911284087871,0.18794215,0,1
1584707465440,NaN,-3.7553165,0.3173828,-0.9248047,0.1628418,1584707463661,-5911284087871,0.18794215,0,1
1584707465446,NaN,-3.3859403,0.32617188,-0.890625,0.15600586,1584707463741,-5911284087871,0.18794215,0,1
1584707465450,NaN,-2.850315,0.33642578,-0.8762207,0.123291016,1584707463821,-5911284087871,0.18794215,0,1
1584707465453,NaN,-2.314727,0.3840332,-0.8725586,0.10961914,1584707463901,-5911284087871,0.18794215,0,1
1584707465457,NaN,-1.7235931,0.41577148,-0.8618164,0.071777344,1584707463981,-5911284087871,0.18794215,0,1
1584707465461,NaN,-1.063567,0.46728516,-0.8432617,0.030029297,1584707464061,-5911284087871,0.18794215,0,1
1584707465465,NaN,-0.4027163,0.5251465,-0.8288574,-0.030029297,1584707464141,-5911284087871,0.18794215,0,1
1584707465469,NaN,0.21633571,0.5595703,-0.82177734,-0.044189453,1584707464221,-5911284087871,0.13698879,0,1
1584707465474,NaN,0.87455744,0.6057129,-0.8190918,-0.118896484,1584707464301,-5911284087871,0.11957558,0,1
1584707465478,NaN,1.4968414,0.623291,-0.76708984,-0.123291016,1584707464381,-5911284087871,0.11957558,0,1
1584707465482,NaN,2.0679078,0.6489258,-0.71435547,-0.1262207,1584707464461,-5911284087871,0.11957558,0,1
1584707465486,NaN,2.6446266,0.66186523,-0.7077637,-0.20263672,1584707464541,-5911284087871,0.09805613,0,1
1584707465491,NaN,3.1937132,0.72387695,-0.7258301,-0.18188477,1584707464621,-5911284087871,0.09805613,0,1
1584707465495,NaN,3.7012312,0.7055664,-0.70288086,-0.22583008,1584707464701,-5911284087871,0.09805613,0,1
1584707465498,NaN,4.141398,0.75878906,-0.72753906,-0.23950195,1584707464781,-5911284087871,0.08850763,0,1
1584707465501,NaN,4.4779353,0.7492676,-0.76953125,-0.24072266,1584707464861,-5911284087871,0.08850763,0,1
1584707465504,NaN,4.6757,0.732666,-0.80615234,-0.22924805,1584707464941,-5911284087871,0.08850763,0,1
1584707465507,NaN,4.6547737,0.6730957,-0.84277344,-0.15991211,1584707465021,-5911284087871,0.09847435,0,1
1584707465511,NaN,4.401994,0.592041,-0.9001465,-0.09106445,1584707465101,-5911284087871,0.12083679,0,1
1584707465514,NaN,4.011337,0.49145508,-0.9458008,-0.045654297,1584707465181,-5911284087871,0.12083679,0,1
1584707465517,NaN,3.3978424,0.41601562,-0.96435547,0.040527344,1584707465261,-5911284087871,0.12083679,0,1
1584707465520,NaN,2.6987603,0.33154297,-0.921875,0.07519531,1584707465341,-5911284087871,0.12083679,0,1
1584707465523,NaN,1.8737063,0.30517578,-0.920166,0.16186523,1584707465421,-5911284087871,0.12083679,0,1
1584707465526,NaN,0.8964115,0.24145508,-0.9448242,0.18115234,1584707465501,-5911284087871,0.12083679,0,1
1584707467977,NaN,-0.13258485,0.23266602,-0.95166016,0.21142578,1584707465581,6339069848529,0.12083679,0,1
1584707467983,NaN,-1.2180805,0.17773438,-0.92578125,0.22851562,1584707465661,6339069848529,0.12083679,0,1
1584707467988,NaN,-2.3422754,0.16601562,-0.9182129,0.24707031,1584707465741,6339069848529,0.12083679,0,1
1584707467993,NaN,-3.3970015,0.1616211,-0.92749023,0.24438477,1584707465821,6339069848529,0.12083679,0,1
1584707467997,NaN,-4.3629003,0.16210938,-0.9140625,0.26708984,1584707465901,6339069848529,0.12083679,0,1
1584707468002,NaN,-5.109503,0.15698242,-0.9758301,0.23950195,1584707465981,6339069848529,0.12083679,0,1
1584707468007,NaN,-5.6015706,0.16821289,-0.9484863,0.2614746,1584707466061,6339069848529,0.12083679,0,1
1584707468012,NaN,-5.9011064,0.17529297,-0.9663086,0.28735352,1584707466141,6339069848529,0.12083679,0,1
1584707468016,NaN,-5.976082,0.15356445,-0.92700195,0.28759766,1584707466221,6339069848529,0.12083679,0,1
1584707468021,NaN,-5.900736,0.16967773,-0.9367676,0.29467773,1584707466301,6339069848529,0.12083679,0,1
1584707468025,NaN,-5.6645503,0.18115234,-0.93188477,0.3059082,1584707466381,6339069848529,0.12083679,0,1
1584707468028,NaN,-5.267157,0.18481445,-0.93115234,0.30322266,1584707466461,6339069848529,0.12083679,0,1
1584707468032,NaN,-4.8093805,0.18798828,-0.9230957,0.31445312,1584707466541,6339069848529,0.12083679,0,1
1584707468036,NaN,-4.237141,0.1965332,-0.9260254,0.3083496,1584707466621,6339069848529,0.12083679,0,1
1584707468039,NaN,-3.5934258,0.19458008,-0.9238281,0.3022461,1584707466701,6339069848529,0.12083679,0,1
1584707468042,NaN,-2.949167,0.19970703,-0.93066406,0.30444336,1584707466781,6339069848529,0.12083679,0,1
1584707468047,NaN,-2.2971916,0.2097168,-0.921875,0.3088379,1584707466861,6339069848529,0.12083679,0,1
1584707468050,NaN,-1.7365276,0.2109375,-0.9328613,0.30981445,1584707466941,6339069848529,0.12083679,0,1
1584707468053,NaN,-1.2573032,0.22436523,-0.9394531,0.31030273,1584707467021,6339069848529,0.12083679,0,1
1584707468057,NaN,-0.8635723,0.22265625,-0.92211914,0.32788086,1584707467101,6339069848529,0.12083679,0,1
1584707468060,NaN,-0.5283342,0.2355957,-0.89868164,0.328125,1584707467181,6339069848529,0.12083679,0,1
1584707468063,NaN,-0.2694362,0.25024414,-0.92626953,0.32592773,1584707467261,6339069848529,0.12083679,0,1
1584707468066,NaN,-0.09567788,0.23486328,-0.904541,0.3413086,1584707467341,6339069848529,0.12083679,0,1
1584707468069,NaN,0.001661237,0.2253418,-0.8774414,0.35913086,1584707467421,6339069848529,0.12083679,0,1
1584707468072,NaN,0.09584883,0.2355957,-0.8508301,0.35058594,1584707467501,6339069848529,0.12083679,0,1
1584707468076,NaN,0.12860009,0.23730469,-0.8791504,0.3486328,1584707467581,6339069848529,0.12083679,0,1
1584707468078,NaN,0.15767373,0.25219727,-0.9301758,0.33618164,1584707467661,6339069848529,0.11943169,0,1
1584707468082,NaN,0.19703616,0.24975586,-0.91967773,0.2998047,1584707467741,6339069848529,0.11602872,0,1
1584707468084,NaN,0.24006873,0.28393555,-0.89282227,0.29736328,1584707467821,6339069848529,0.10070793,0,1
1584707468087,NaN,0.33034632,0.31762695,-0.8894043,0.27026367,1584707467901,6339069848529,0.09060808,0,1
1584707468090,NaN,0.44480515,0.35009766,-0.8947754,0.22436523,1584707467981,6339069848529,0.070995405,0,1
1584707468093,NaN,0.60419446,0.3647461,-0.88183594,0.18334961,1584707468061,6339069848529,0.06784254,0,1
1584707470563,NaN,0.832606,0.45922852,-0.88012695,0.111572266,1584707468141,142679711221,0.11866691,0,1
1584707470569,NaN,1.1571693,0.5593262,-0.9477539,0.02319336,1584707468221,142679711221,0.14967892,0,1
1584707470576,NaN,1.7391945,0.7775879,-0.9238281,-0.1303711,1584707468301,142679711221,0.26794153,0,1
1584707470579,NaN,2.4106286,0.8000488,-0.8144531,-0.19946289,1584707468381,142679711221,0.26794153,0,1
1584707470582,NaN,3.15279,0.83862305,-0.75268555,-0.3330078,1584707468461,142679711221,0.26794153,0,1
1584707470586,NaN,3.881385,0.7783203,-0.6665039,-0.3269043,1584707468541,142679711221,0.26794153,0,1
1584707470589,NaN,4.5368333,0.7192383,-0.68188477,-0.2927246,1584707468621,142679711221,0.26794153,0,1
1584707470593,NaN,5.1280665,0.70751953,-0.6694336,-0.25390625,1584707468701,142679711221,0.26794153,0,1
1584707470596,NaN,5.626576,0.6755371,-0.67407227,-0.21435547,1584707468781,142679711221,0.26794153,0,1
1584707470600,NaN,5.9741974,0.62109375,-0.7536621,-0.18017578,1584707468861,142679711221,0.26794153,0,1
1584707470603,NaN,6.1716933,0.5966797,-0.79174805,-0.103027344,1584707468941,142679711221,0.26794153,0,1
1584707470607,NaN,6.223211,0.5012207,-0.79003906,-0.05102539,1584707469021,142679711221,0.26794153,0,1
1584707470612,NaN,6.0558467,0.45776367,-0.8132324,-0.009521484,1584707469101,142679711221,0.26794153,0,1
1584707470616,NaN,5.697803,0.42260742,-0.82910156,0.017822266,1584707469181,142679711221,0.26794153,0,1
1584707470619,NaN,4.852546,0.37280273,-0.892334,0.045898438,1584707469261,142679711221,0.26794153,0,1
1584707470622,NaN,3.7679832,0.3149414,-0.9211426,0.0793457,1584707469341,142679711221,0.26794153,0,1
1584707470625,NaN,2.4037411,0.2944336,-0.9328613,0.14355469,1584707469421,142679711221,0.26794153,0,1
1584707470628,NaN,1.0092242,0.25317383,-0.9301758,0.16186523,1584707469501,142679711221,0.26794153,0,1
1584707470632,NaN,-0.3076518,0.22875977,-0.9145508,0.19580078,1584707469581,142679711221,0.26794153,0,1
1584707470635,NaN,-1.5825294,0.19750977,-0.9145508,0.21655273,1584707469661,142679711221,0.26794153,0,1
1584707470638,NaN,-2.7321484,0.20410156,-0.9309082,0.20654297,1584707469741,142679711221,0.26794153,0,1
1584707470641,NaN,-3.702876,0.19726562,-0.9350586,0.21728516,1584707469821,142679711221,0.26794153,0,1
1584707470644,NaN,-4.490722,0.19970703,-0.94262695,0.2199707,1584707469901,142679711221,0.26794153,0,1
1584707470647,NaN,-5.074079,0.20458984,-0.9655762,0.21142578,1584707469981,142679711221,0.26794153,0,1
1584707470649,NaN,-5.45097,0.2290039,-0.9416504,0.20751953,1584707470061,142679711221,0.26794153,0,1
1584707470652,NaN,-5.7000613,0.22314453,-0.953125,0.21069336,1584707470141,142679711221,0.26794153,0,1
1584707470655,NaN,-5.6446404,0.22290039,-0.9394531,0.21166992,1584707470221,142679711221,0.26794153,0,1
1584707470658,NaN,-5.352759,0.23486328,-0.92626953,0.20996094,1584707470301,142679711221,0.26794153,0,1
1584707470661,NaN,-4.808641,0.24487305,-0.9277344,0.20605469,1584707470381,142679711221,0.26794153,0,1
1584707470664,NaN,-4.1443543,0.29052734,-0.9086914,0.19946289,1584707470461,142679711221,0.26794153,0,1
1584707470667,NaN,-3.433996,0.30566406,-0.89501953,0.15966797,1584707470541,142679711221,0.26794153,0,1
1584707470670,NaN,-2.6638205,0.33691406,-0.89624023,0.15917969,1584707470621,142679711221,0.26794153,0,1
1584707472950,NaN,-1.902773,0.38330078,-0.873291,0.12207031,1584707470701,-6053991901063,0.26794153,0,1
1584707472957,NaN,-1.1407443,0.42529297,-0.8598633,0.075927734,1584707470781,-6053991901063,0.26794153,0,1
1584707472963,NaN,-0.39095834,0.4753418,-0.873291,0.03125,1584707470861,-6053991901063,0.15211,0,1
1584707472969,NaN,0.341429,0.5527344,-0.8208008,-0.026123047,1584707470941,-6053991901063,0.15211,0,1
1584707472977,NaN,1.0320038,0.5944824,-0.84594727,-0.08496094,1584707471021,-6053991901063,0.10971099,0,1
1584707472981,NaN,1.7566981,0.6359863,-0.78686523,-0.13232422,1584707471101,-6053991901063,0.10971099,0,1
1584707472988,NaN,2.4560847,0.63427734,-0.7331543,-0.1628418,1584707471181,-6053991901063,0.10971099,0,1
1584707472992,NaN,3.138274,0.68310547,-0.70751953,-0.20336914,1584707471261,-6053991901063,0.10971099,0,1
1584707472996,NaN,3.775161,0.7158203,-0.6882324,-0.1977539,1584707471341,-6053991901063,0.10971099,0,1
1584707472999,NaN,4.3443317,0.6972656,-0.6455078,-0.25561523,1584707471421,-6053991901063,0.10971099,0,1
1584707473002,NaN,4.840962,0.7470703,-0.62353516,-0.2548828,1584707471501,-6053991901063,0.10971099,0,1
1584707473007,NaN,5.279098,0.77856445,-0.62353516,-0.2553711,1584707471581,-6053991901063,0.10971099,0,1
1584707473012,NaN,5.625773,0.77441406,-0.6376953,-0.29248047,1584707471661,-6053991901063,0.10971099,0,1
1584707473015,NaN,5.8759017,0.82666016,-0.65966797,-0.32763672,1584707471741,-6053991901063,0.10971099,0,1
1584707473018,NaN,5.999806,0.8120117,-0.68896484,-0.33032227,1584707471821,-6053991901063,0.10971099,0,1
1584707473021,NaN,5.901146,0.73779297,-0.6965332,-0.29907227,1584707471901,-6053991901063,0.10971099,0,1
1584707473024,NaN,5.6614375,0.7192383,-0.7409668,-0.22509766,1584707471981,-6053991901063,0.10971099,0,1
1584707473027,NaN,5.1589756,0.64697266,-0.8234863,-0.119384766,1584707472061,-6053991901063,0.15233847,0,1
1584707473030,NaN,4.4638476,0.58862305,-0.8901367,0.009277344,1584707472141,-6053991901063,0.15620784,0,1
1584707473033,NaN,3.5591373,0.52734375,-0.93774414,0.1328125,1584707472221,-6053991901063,0.15620784,0,1
1584707473036,NaN,2.5890567,0.46044922,-0.9272461,0.15991211,1584707472301,-6053991901063,0.15620784,0,1
1584707473039,NaN,1.5256406,0.3515625,-0.8684082,0.20800781,1584707472381,-6053991901063,0.15620784,0,1
1584707473042,NaN,0.4156648,0.33374023,-0.8273926,0.24804688,1584707472461,-6053991901063,0.15620784,0,1
1584707473045,NaN,-0.7666957,0.2763672,-0.8701172,0.2607422,1584707472541,-6053991901063,0.15620784,0,1
1584707473048,NaN,-1.9554558,0.28222656,-0.9655762,0.25732422,1584707472621,-6053991901063,0.15620784,0,1
1584707473051,NaN,-3.1953936,0.22753906,-0.8876953,0.31445312,1584707472701,-6053991901063,0.15620784,0,1
1584707473054,NaN,-4.3731422,0.22998047,-0.91015625,0.32592773,1584707472781,-6053991901063,0.15620784,0,1
1584707473057,NaN,-5.3447576,0.23657227,-0.91259766,0.32617188,1584707472861,-6053991901063,0.15620784,0,1
1584707473060,NaN,-6.147962,0.22241211,-0.9375,0.3100586,1584707472941,-6053991901063,0.15620784,0,1
1584707473064,NaN,-6.6310124,0.22583008,-0.90893555,0.30297852,1584707473021,-6053991901063,0.15620784,0,1
1584707473066,NaN,-6.8288913,0.22802734,-0.90405273,0.2919922,1584707473101,-6053991901063,0.15620784,0,1
1584707473069,NaN,-6.7761016,0.22924805,-0.9367676,0.32104492,1584707473181,-6053991901063,0.15620784,0,1
1584707475532,NaN,-6.6128917,0.22631836,-0.9187012,0.3161621,1584707473261,6196362035337,0.15620784,0,1
1584707475538,NaN,-6.272533,0.21386719,-0.8991699,0.31958008,1584707473341,6196362035337,0.15620784,0,1
1584707475542,NaN,-5.8403525,0.21850586,-0.90893555,0.3173828,1584707473421,6196362035337,0.15620784,0,1
1584707475547,NaN,-5.295839,0.21435547,-0.92089844,0.3330078,1584707473501,6196362035337,0.15620784,0,1
1584707475552,NaN,-4.685008,0.23217773,-0.9121094,0.31958008,1584707473581,6196362035337,0.15620784,0,1
1584707475558,NaN,-3.9526958,0.19873047,-0.9057617,0.33276367,1584707473661,6196362035337,0.15620784,0,1
1584707475560,NaN,-3.1752243,0.23779297,-0.907959,0.3149414,1584707473741,6196362035337,0.15620784,0,1
1584707475564,NaN,-2.4540257,0.25756836,-0.8913574,0.31030273,1584707473821,6196362035337,0.15620784,0,1
1584707475569,NaN,-1.7622088,0.2927246,-0.90283203,0.2861328,1584707473901,6196362035337,0.15620784,0,1
1584707475575,NaN,-1.1797651,0.3251953,-0.8664551,0.2788086,1584707473981,6196362035337,0.15620784,0,1
1584707475578,NaN,-0.7015329,0.34326172,-0.87280273,0.25561523,1584707474061,6196362035337,0.15620784,0,1
1584707475582,NaN,-0.21725021,0.42456055,-0.99316406,0.20019531,1584707474141,6196362035337,0.15620784,0,1
1584707475587,NaN,NaN,0.71533203,-1.1062012,0.20117188,1584707474221,6196362035337,0.31197178,0,1
1584707475592,NaN,NaN,0.8022461,-0.8498535,0.016845703,1584707474301,6196362035337,0.32748178,0,1
1584707475597,NaN,NaN,0.7229004,-0.81347656,-0.11376953,1584707474381,6196362035337,0.32748178,0,1
1584707475600,NaN,NaN,0.64819336,-0.7824707,-0.1538086,1584707474461,6196362035337,0.32748178,0,1
1584707475603,NaN,NaN,0.6125488,-0.7631836,-0.18188477,1584707474541,6196362035337,0.32748178,0,1
1584707475606,NaN,NaN,0.60961914,-0.77978516,-0.16455078,1584707474621,6196362035337,0.32748178,0,1
1584707475609,NaN,NaN,0.5349121,-0.8088379,-0.13452148,1584707474701,6196362035337,0.32748178,0,1
1584707475613,NaN,NaN,0.51660156,-0.8256836,-0.10180664,1584707474781,6196362035337,0.32748178,0,1
1584707475616,NaN,NaN,0.46557617,-0.83325195,-0.053710938,1584707474861,6196362035337,0.32748178,0,1
1584707475619,NaN,NaN,0.42919922,-0.85839844,-0.012939453,1584707474941,6196362035337,0.32748178,0,1
1584707475621,NaN,NaN,0.37963867,-0.8798828,0.038085938,1584707475021,6196362035337,0.32748178,0,1
1584707475624,NaN,NaN,0.3269043,-0.8642578,0.07006836,1584707475101,6196362035337,0.32748178,0,1
1584707475627,NaN,NaN,0.31054688,-0.85302734,0.09643555,1584707475181,6196362035337,0.32748178,0,1
1584707475630,NaN,NaN,0.28173828,-0.9243164,0.1484375,1584707475261,6196362035337,0.32748178,0,1
1584707475633,NaN,NaN,0.24511719,-0.9248047,0.17553711,1584707475341,6196362035337,0.32748178,0,1
1584707475637,NaN,NaN,0.24194336,-0.892334,0.17114258,1584707475421,6196362035337,0.32748178,0,1
1584707475641,NaN,NaN,0.25170898,-0.92529297,0.17602539,1584707475501,6196362035337,0.32748178,0,1
1584707475643,NaN,NaN,0.25683594,-0.95532227,0.17773438,1584707475581,6196362035337,0.32748178,0,1
1584707475646,NaN,NaN,0.22851562,-0.96655273,0.18408203,1584707475661,6196362035337,0.32748178,0,1
1584707475648,NaN,NaN,0.25146484,-0.96069336,0.17749023,1584707475741,6196362035337,0.32748178,0,1
1584707478115,NaN,NaN,0.24902344,-0.94873047,0.1809082,1584707475821,-309576947,0.32748178,0,1
1584707478123,NaN,NaN,0.25610352,-0.94628906,0.18115234,1584707475901,-309576947,0.32748178,0,1
1584707478127,NaN,NaN,0.25708008,-0.9433594,0.16821289,1584707475981,-309576947,0.32748178,0,1
1584707478131,NaN,NaN,0.26293945,-0.94628906,0.15966797,1584707476061,-309576947,0.32748178,0,1
1584707478135,NaN,NaN,0.26611328,-0.93310547,0.16894531,1584707476141,-309576947,0.32748178,0,1
1584707478138,NaN,NaN,0.27319336,-0.94311523,0.16015625,1584707476221,-309576947,0.32748178,0,1
1584707478142,NaN,NaN,0.27807617,-0.92749023,0.16137695,1584707476301,-309576947,0.32748178,0,1
1584707478145,NaN,NaN,0.27416992,-0.9782715,0.14892578,1584707476381,-309576947,0.32748178,0,1
1584707478148,NaN,NaN,0.25097656,-0.99365234,0.12133789,1584707476461,-309576947,0.32748178,0,1
1584707478151,NaN,NaN,0.24853516,-0.9460449,0.1508789,1584707476541,-309576947,0.32748178,0,1
1584707478154,NaN,NaN,0.25561523,-0.87475586,0.1381836,1584707476621,-309576947,0.32748178,0,1
1584707478158,NaN,NaN,0.24829102,-0.8371582,0.123535156,1584707476701,-309576947,0.32748178,0,1
1584707478161,NaN,NaN,0.2824707,-0.85375977,0.08129883,1584707476781,-309576947,0.32748178,0,1
1584707478164,NaN,0.26687387,0.3762207,-0.8898926,0.037597656,1584707476861,-309576947,0.15709667,0,1
1584707478167,NaN,0.7485032,0.43041992,-0.8676758,-0.027832031,1584707476941,-309576947,0.10956475,0,1
1584707478171,NaN,1.3108748,0.53100586,-0.84277344,-0.123535156,1584707477021,-309576947,0.14105582,0,1
1584707478174,NaN,1.8493179,0.51220703,-0.81640625,-0.1237793,1584707477101,-309576947,0.14105582,0,1
1584707478177,NaN,2.419272,0.62060547,-0.78149414,-0.100097656,1584707477181,-309576947,0.14105582,0,1
1584707478180,NaN,3.031931,0.6311035,-0.7614746,-0.17163086,1584707477261,-309576947,0.14105582,0,1
1584707478183,NaN,3.6004755,0.71655273,-0.74438477,-0.1303711,1584707477341,-309576947,0.14105582,0,1
1584707478186,NaN,4.141684,0.6948242,-0.7553711,-0.16674805,1584707477421,-309576947,0.14105582,0,1
1584707478189,NaN,4.630837,0.7607422,-0.75878906,-0.14868164,1584707477501,-309576947,0.14105582,0,1
1584707478194,NaN,5.011744,0.68847656,-0.7758789,-0.14331055,1584707477581,-309576947,0.14105582,0,1
1584707478197,NaN,5.288107,0.7126465,-0.82128906,-0.055908203,1584707477661,-309576947,0.14105582,0,1
1584707478200,NaN,5.401989,0.6274414,-0.8286133,-0.06298828,1584707477741,-309576947,0.14105582,0,1
1584707478203,NaN,5.2916484,0.60131836,-0.95214844,-0.079833984,1584707477821,-309576947,0.14105582,0,1
1584707478206,NaN,4.9460044,0.50390625,-1.0449219,-0.07519531,1584707477901,-309576947,0.14105582,0,1
1584707478210,NaN,4.3203144,0.3474121,-0.9926758,-0.053955078,1584707477981,-309576947,0.16634668,0,1
1584707478212,NaN,3.6488297,0.25170898,-0.9226074,-0.01928711,1584707478061,-309576947,0.16634668,0,1
1584707478215,NaN,2.846173,0.23242188,-0.9226074,0.03149414,1584707478141,-309576947,0.16634668,0,1
1584707478218,NaN,1.8824884,0.23925781,-0.9519043,0.05810547,1584707478221,-309576947,0.16634668,0,1
1584707478220,NaN,0.87222975,0.2758789,-0.9814453,0.11621094,1584707478301,-309576947,0.16634668,0,1
1584707480698,NaN,-0.21648319,0.15966797,-0.9641113,0.171875,1584707478381,-6268756208782,0.16634668,0,1
1584707480704,NaN,-1.3190001,0.17480469,-0.95166016,0.19091797,1584707478461,-6268756208782,0.16634668,0,1
1584707480708,NaN,-2.2951193,0.18969727,-0.9370117,0.21899414,1584707478541,-6268756208782,0.16634668,0,1
1584707480715,NaN,-3.1785018,0.13891602,-0.94091797,0.22802734,1584707478621,-6268756208782,0.16634668,0,1
1584707480720,NaN,-3.9430552,0.18115234,-0.93481445,0.2578125,1584707478701,-6268756208782,0.16634668,0,1
1584707480724,NaN,-4.5152297,0.17993164,-0.95288086,0.24023438,1584707478781,-6268756208782,0.16634668,0,1
1584707480729,NaN,-4.8575053,0.19335938,-0.9645996,0.22875977,1584707478861,-6268756208782,0.16634668,0,1
1584707480734,NaN,-4.9289203,0.21240234,-0.93603516,0.23999023,1584707478941,-6268756208782,0.16634668,0,1
1584707480739,NaN,-4.8995705,0.18164062,-0.9501953,0.22680664,1584707479021,-6268756208782,0.16634668,0,1
1584707480744,NaN,-4.7434387,0.18237305,-0.94555664,0.23388672,1584707479101,-6268756208782,0.16634668,0,1
1584707480748,NaN,-4.529818,0.17016602,-0.94628906,0.28100586,1584707479181,-6268756208782,0.16634668,0,1
1584707480750,NaN,-4.2712626,0.16723633,-0.92529297,0.30517578,1584707479261,-6268756208782,0.16634668,0,1
1584707480755,NaN,-3.8445399,0.16772461,-0.91918945,0.3635254,1584707479341,-6268756208782,0.16634668,0,1
1584707480758,NaN,-3.3893254,0.17675781,-0.92285156,0.37817383,1584707479421,-6268756208782,0.16634668,0,1
1584707480761,NaN,-2.9995272,0.15258789,-0.9042969,0.41186523,1584707479501,-6268756208782,0.16634668,0,1
1584707480765,NaN,-2.603435,0.11376953,-0.876709,0.41064453,1584707479581,-6268756208782,0.16634668,0,1
1584707480767,NaN,-2.282716,0.09667969,-0.89819336,0.41259766,1584707479661,-6268756208782,0.16634668,0,1
1584707480770,NaN,-2.0073712,0.08911133,-0.8757324,0.41967773,1584707479741,-6268756208782,0.16634668,0,1
1584707480773,NaN,-1.8283144,0.0871582,-0.87158203,0.41918945,1584707479821,-6268756208782,0.16634668,0,1
1584707480776,NaN,-1.7541767,0.095214844,-0.8859863,0.41259766,1584707479901,-6268756208782,0.16634668,0,1
1584707480779,NaN,-1.7224193,0.099121094,-0.92041016,0.40551758,1584707479981,-6268756208782,0.16634668,0,1
1584707480783,NaN,-1.729756,0.0925293,-0.90771484,0.40429688,1584707480061,-6268756208782,0.16634668,0,1
1584707480786,NaN,-1.673593,0.1027832,-0.89990234,0.3972168,1584707480141,-6268756208782,0.16634668,0,1
1584707480790,NaN,-1.5710105,0.13110352,-0.90356445,0.390625,1584707480221,-6268756208782,0.16634668,0,1
1584707480794,NaN,-1.5021712,0.14501953,-0.9091797,0.39160156,1584707480301,-6268756208782,0.16634668,0,1
1584707480798,NaN,-1.4253289,0.15722656,-0.9013672,0.3935547,1584707480381,-6268756208782,0.16634668,0,1
1584707480803,NaN,-1.2792222,0.16430664,-0.89990234,0.39086914,1584707480461,-6268756208782,0.16634668,0,1
1584707480806,NaN,-1.113173,0.1616211,-0.90112305,0.38208008,1584707480541,-6268756208782,0.13001513,0,1
1584707480809,NaN,-0.92530626,0.1484375,-0.90478516,0.38500977,1584707480621,-6268756208782,0.13001513,0,1
1584707480812,NaN,-0.7082049,0.14428711,-0.90234375,0.38354492,1584707480701,-6268756208782,0.13001513,0,1
1584707480815,NaN,-0.4692141,0.14624023,-0.9226074,0.38598633,1584707480781,-6268756208782,0.13001513,0,1
1584707480818,NaN,-0.2538621,0.1459961,-0.89819336,0.39501953,1584707480861,-6268756208782,0.13001513,0,1
1584707483479,NaN,-0.08151736,0.13085938,-0.9042969,0.39819336,1584707480941,5981597727618,0.058669996,0,1
1584707483486,NaN,0.08259075,0.12133789,-0.90478516,0.41430664,1584707481021,5981597727618,0.058669996,0,1
1584707483492,NaN,0.18654399,0.12060547,-0.88916016,0.42822266,1584707481101,5981597727618,0.058669996,0,1
1584707483498,NaN,0.23823023,0.13085938,-0.8989258,0.42504883,1584707481181,5981597727618,0.058669996,0,1
1584707483501,NaN,0.22695442,0.12036133,-0.88256836,0.43603516,1584707481261,5981597727618,0.058669996,0,1
1584707483505,NaN,0.21205415,0.12133789,-0.8959961,0.42211914,1584707481341,5981597727618,0.058669996,0,1
1584707483511,NaN,0.14426732,0.123535156,-0.87768555,0.4321289,1584707481421,5981597727618,0.058669996,0,1
1584707483517,NaN,0.023697153,0.09790039,-0.8691406,0.4326172,1584707481501,5981597727618,0.058669996,0,1
1584707483520,NaN,-0.088279925,0.10107422,-0.86328125,0.43774414,1584707481581,5981597727618,0.058669996,0,1
1584707483525,NaN,-0.19292665,0.1027832,-0.88256836,0.41674805,1584707481661,5981597727618,0.058669996,0,1
1584707483528,NaN,-0.31662562,0.08544922,-0.90771484,0.42529297,1584707481741,5981597727618,0.058669996,0,1
1584707483534,NaN,-0.41578925,0.09326172,-0.90063477,0.43774414,1584707481821,5981597727618,0.058669996,0,1
1584707483537,NaN,-0.4772688,0.09692383,-0.87890625,0.42382812,1584707481901,5981597727618,0.04763871,0,1
1584707483543,NaN,-0.50247604,0.115478516,-0.8864746,0.42456055,1584707481981,5981597727618,0.04763871,0,1
1584707483548,NaN,-0.478103,0.13793945,-0.90722656,0.4182129,1584707482061,5981597727618,0.04763871,0,1
1584707483553,NaN,-0.4575819,0.12866211,-0.8886719,0.41381836,1584707482141,5981597727618,0.035360802,0,1
1584707483558,NaN,-0.38409552,0.14575195,-0.89819336,0.4104004,1584707482221,5981597727618,0.035360802,0,1
1584707483562,NaN,-0.32222044,0.14672852,-0.8996582,0.4099121,1584707482301,5981597727618,0.035360802,0,1
1584707483566,NaN,-0.2424537,0.14233398,-0.89819336,0.40356445,1584707482381,5981597727618,0.035360802,0,1
1584707483570,NaN,-0.12650079,0.13964844,-0.8964844,0.40600586,1584707482461,5981597727618,0.035360802,0,1
1584707483575,NaN,-0.016859615,0.13623047,-0.8977051,0.40039062,1584707482541,5981597727618,0.031714797,0,1
1584707483578,NaN,0.045845628,0.118896484,-0.90966797,0.41333008,1584707482621,5981597727618,0.031714797,0,1
1584707483581,NaN,0.13272692,0.114990234,-0.9074707,0.41357422,1584707482701,5981597727618,0.031714797,0,1
1584707483585,NaN,0.21784876,0.12524414,-0.8937988,0.41845703,1584707482781,5981597727618,0.031714797,0,1
1584707483589,NaN,0.27820864,0.12207031,-0.8991699,0.41918945,1584707482861,5981597727618,0.031714797,0,1
1584707483592,NaN,0.28084815,0.11206055,-0.8911133,0.43945312,1584707482941,5981597727618,0.031714797,0,1
1584707483595,NaN,0.2424282,0.1171875,-0.8796387,0.42211914,1584707483021,5981597727618,0.031714797,0,1
1584707483598,NaN,0.23278087,0.12402344,-0.8754883,0.41845703,1584707483101,5981597727618,0.031714797,0,1
1584707483601,NaN,0.18239175,0.122802734,-0.87597656,0.41137695,1584707483181,5981597727618,0.031714797,0,1
1584707483607,NaN,0.14382042,0.122802734,-0.8942871,0.4074707,1584707483261,5981597727618,0.031714797,0,1
1584707483610,NaN,0.10067218,0.11743164,-0.9074707,0.40063477,1584707483341,5981597727618,0.031714797,0,1
1584707483614,NaN,0.028470933,0.10473633,-0.90527344,0.4177246,1584707483421,5981597727618,0.031714797,0,1
1584707485869,NaN,-0.0268775,0.12939453,-0.8942871,0.40795898,1584707483501,-215073884666,0.031714797,0,1
1584707485876,NaN,-0.031968243,0.1315918,-0.90112305,0.40551758,1584707483581,-215073884666,0.031714797,0,1
1584707485880,NaN,-0.0320388,0.13549805,-0.9020996,0.38891602,1584707483661,-215073884666,0.031714797,0,1
1584707485886,NaN,-0.043745425,0.13085938,-0.90771484,0.3942871,1584707483741,-215073884666,0.031714797,0,1
1584707485889,NaN,-0.039299957,0.13378906,-0.9099121,0.38623047,1584707483821,-215073884666,0.031714797,0,1
1584707485892,NaN,0.011615534,0.13208008,-0.9069824,0.38745117,1584707483901,-215073884666,0.031714797,0,1
1584707485898,NaN,0.06470054,0.13085938,-0.91552734,0.38330078,1584707483981,-215073884666,0.031714797,0,1
1584707485901,NaN,0.09744451,0.13061523,-0.90112305,0.3840332,1584707484061,-215073884666,0.031714797,0,1
1584707485905,NaN,0.13017829,0.11621094,-0.92041016,0.3876953,1584707484141,-215073884666,0.031714797,0,1
1584707485909,NaN,0.1438389,0.111816406,-0.9128418,0.40185547,1584707484221,-215073884666,0.031714797,0,1
1584707485912,NaN,0.15723254,0.118896484,-0.9086914,0.40307617,1584707484301,-215073884666,0.031231875,0,1
1584707485915,NaN,0.20119213,0.119384766,-0.90527344,0.40405273,1584707484381,-215073884666,0.031231875,0,1
1584707485919,NaN,0.21197331,0.115478516,-0.89868164,0.38842773,1584707484461,-215073884666,0.031231875,0,1
1584707485923,NaN,0.18471086,0.107177734,-0.9008789,0.40698242,1584707484541,-215073884666,0.031231875,0,1
1584707485926,NaN,0.12878798,0.1015625,-0.89404297,0.40454102,1584707484621,-215073884666,0.028707035,0,1
1584707485930,NaN,0.08103818,0.10498047,-0.8815918,0.41259766,1584707484701,-215073884666,0.028707035,0,1
1584707485935,NaN,0.019496454,0.10180664,-0.8881836,0.4091797,1584707484781,-215073884666,0.028707035,0,1
1584707485938,NaN,-0.052785933,0.10107422,-0.8979492,0.40527344,1584707484861,-215073884666,0.028707035,0,1
1584707485941,NaN,-0.13056956,0.09326172,-0.9091797,0.41967773,1584707484941,-215073884666,0.028707035,0,1
1584707485944,NaN,-0.18607734,0.1171875,-0.89501953,0.4230957,1584707485021,-215073884666,0.028707035,0,1
1584707485947,NaN,-0.20439498,0.13208008,-0.89038086,0.40576172,1584707485101,-215073884666,0.028707035,0,1
1584707485950,NaN,-0.19175738,0.14819336,-0.8942871,0.4189453,1584707485181,-215073884666,0.028707035,0,1
1584707485953,NaN,-0.1789968,0.15307617,-0.89819336,0.4169922,1584707485261,-215073884666,0.028707035,0,1
1584707485956,NaN,-0.1857205,0.15258789,-0.8828125,0.41845703,1584707485341,-215073884666,0.028707035,0,1
1584707485960,NaN,-0.17391825,0.15600586,-0.8894043,0.4074707,1584707485421,-215073884666,0.028707035,0,1
1584707485964,NaN,-0.13945667,0.15332031,-0.8901367,0.42358398,1584707485501,-215073884666,0.028707035,0,1
1584707485967,NaN,-0.08786452,0.14770508,-0.888916,0.4177246,1584707485581,-215073884666,0.028707035,0,1
1584707485969,NaN,-0.03421946,0.14672852,-0.888916,0.41845703,1584707485661,-215073884666,0.028707035,0,1
1584707485972,NaN,0.028568698,0.15063477,-0.8911133,0.4152832,1584707485741,-215073884666,0.028707035,0,1
1584707485975,32.608696,0.0677486,0.13378906,-0.89331055,0.42456055,1584707485821,-215073884666,0.028707035,0,1
1584707485978,NaN,0.13260074,0.13696289,-0.89453125,0.42578125,1584707485901,-215073884666,0.028707035,0,1
1584707485981,NaN,0.17106648,0.13598633,-0.888916,0.42651367,1584707485981,-215073884666,0.028707035,0,1
1584707488448,NaN,0.17751974,0.14379883,-0.8967285,0.41625977,1584707486061,-6483521616012,0.028011346,0,1
1584707488455,NaN,0.16591126,0.14697266,-0.8947754,0.41870117,1584707486141,-6483521616012,0.028011346,0,1
1584707488461,NaN,0.14273852,0.13256836,-0.8952637,0.41308594,1584707486221,-6483521616012,0.028011346,0,1
1584707488468,NaN,0.11191215,0.12231445,-0.88671875,0.42504883,1584707486301,-6483521616012,0.028011346,0,1
1584707488473,NaN,0.070789106,0.118896484,-0.88305664,0.41479492,1584707486381,-6483521616012,0.028011346,0,1
1584707488480,NaN,0.033497456,0.12451172,-0.87841797,0.42333984,1584707486461,-6483521616012,0.028011346,0,1
1584707488490,NaN,-0.0031343352,0.12670898,-0.8742676,0.41918945,1584707486541,-6483521616012,0.028011346,0,1
1584707488495,NaN,-0.03800841,0.11816406,-0.8925781,0.4086914,1584707486621,-6483521616012,0.028011346,0,1
1584707488500,NaN,-0.08363248,0.122802734,-0.90356445,0.42236328,1584707486701,-6483521616012,0.028011346,0,1
1584707488504,NaN,-0.10250919,0.12231445,-0.8947754,0.4309082,1584707486781,-6483521616012,0.028011346,0,1
1584707488507,NaN,-0.11966393,0.14038086,-0.88720703,0.42041016,1584707486861,-6483521616012,0.028011346,0,1
1584707488510,NaN,-0.11715909,0.15283203,-0.88623047,0.42382812,1584707486941,-6483521616012,0.028011346,0,1
1584707488515,NaN,-0.11462921,0.1550293,-0.88793945,0.41674805,1584707487021,-6483521616012,0.028011346,0,1
1584707488520,NaN,-0.11524864,0.15063477,-0.892334,0.42382812,1584707487101,-6483521616012,0.028011346,0,1
1584707488525,NaN,-0.10042879,0.14453125,-0.8991699,0.4194336,1584707487181,-6483521616012,0.028011346,0,1
1584707488528,NaN,-0.06830933,0.14282227,-0.8840332,0.42626953,1584707487261,-6483521616012,0.028011346,0,1
1584707488532,NaN,-0.0397885,0.13110352,-0.8820801,0.42529297,1584707487341,-6483521616012,0.028011346,0,1
1584707488537,NaN,-0.019247983,0.13061523,-0.8972168,0.43310547,1584707487421,-6483521616012,0.028011346,0,1
1584707488541,NaN,-0.0063222474,0.1274414,-0.890625,0.43041992,1584707487501,-6483521616012,0.028011346,0,1
1584707488546,NaN,-0.022789242,0.09741211,-0.8989258,0.43823242,1584707487581,-6483521616012,0.032120038,0,1
1584707488550,NaN,-0.02406747,0.13671875,-0.8820801,0.46435547,1584707487661,-6483521616012,0.05011191,0,1
1584707488554,NaN,-0.033428293,0.12133789,-0.8684082,0.45532227,1584707487741,-6483521616012,0.05011191,0,1
1584707488557,NaN,-0.07520633,0.12133789,-0.85180664,0.4560547,1584707487821,-6483521616012,0.05011191,0,1
1584707488560,NaN,-0.1443501,0.100097656,-0.86572266,0.4663086,1584707487901,-6483521616012,0.05011191,0,1
1584707488564,NaN,-0.22798133,0.0625,-0.8483887,0.4494629,1584707487981,-6483521616012,0.05011191,0,1
1584707488569,NaN,-0.31526527,0.033203125,-0.8696289,0.4543457,1584707488061,-6483521616012,0.05011191,0,1
1584707488572,NaN,-0.4133047,-0.0031738281,-0.88012695,0.42871094,1584707488141,-6483521616012,0.05011191,0,1
1584707488576,NaN,-0.49552262,-0.016845703,-0.91430664,0.40722656,1584707488221,-6483521616012,0.05011191,0,1
1584707488579,NaN,-0.5630826,-0.05053711,-0.92333984,0.3881836,1584707488301,-6483521616012,0.05011191,0,1
1584707488585,NaN,-0.60046965,-0.044189453,-0.9121094,0.34960938,1584707488381,-6483521616012,0.05011191,0,1
1584707488587,NaN,-0.6239757,-0.072509766,-0.9460449,0.34106445,1584707488461,-6483521616012,0.05011191,0,1
1584707488591,NaN,-0.5889562,-0.07348633,-0.9445801,0.32763672,1584707488541,-6483521616012,0.05011191,0,1
1584707491036,NaN,-0.54249436,-0.0871582,-0.9370117,0.3154297,1584707488621,5766832320388,0.05011191,0,1
1584707491041,NaN,-0.46512732,-0.10083008,-0.9470215,0.30004883,1584707488701,5766832320388,0.05011191,0,1
1584707491046,NaN,-0.3353784,-0.10546875,-0.94799805,0.28564453,1584707488781,5766832320388,0.05011191,0,1
1584707491056,NaN,-0.15423632,-0.11816406,-0.9465332,0.27905273,1584707488861,5766832320388,0.05011191,0,1
1584707491059,19.23077,0.054276314,-0.12597656,-0.94628906,0.28759766,1584707488941,5766832320388,0.05011191,0,1
1584707491064,NaN,0.3014517,-0.13916016,-0.9675293,0.27246094,1584707489021,5766832320388,0.05011191,0,1
1584707491067,NaN,0.5332169,-0.14550781,-0.9597168,0.27783203,1584707489101,5766832320388,0.05011191,0,1
1584707491070,NaN,0.7250435,-0.13769531,-0.9316406,0.26245117,1584707489181,5766832320388,0.05011191,0,1
1584707491073,NaN,0.89499253,-0.14257812,-0.95043945,0.27026367,1584707489261,5766832320388,0.05011191,0,1
1584707491077,NaN,0.99664825,-0.15136719,-0.9433594,0.28515625,1584707489341,5766832320388,0.05011191,0,1
1584707491082,NaN,1.0735644,-0.15234375,-0.93237305,0.2824707,1584707489421,5766832320388,0.05011191,0,1
1584707491086,NaN,1.1109519,-0.14379883,-0.93237305,0.27783203,1584707489501,5766832320388,0.05011191,0,1
1584707491090,NaN,1.1035699,-0.13696289,-0.92089844,0.29467773,1584707489581,5766832320388,0.05011191,0,1
1584707491096,NaN,1.0582132,-0.13623047,-0.9328613,0.2866211,1584707489661,5766832320388,0.05011191,0,1
1584707491099,NaN,0.9516694,-0.15454102,-0.9506836,0.31445312,1584707489741,5766832320388,0.05011191,0,1
1584707491102,NaN,0.7944703,-0.12939453,-0.9453125,0.32470703,1584707489821,5766832320388,0.05011191,0,1
1584707491105,NaN,0.6129017,-0.095458984,-0.9272461,0.3425293,1584707489901,5766832320388,0.05011191,0,1
1584707491108,NaN,0.3739058,-0.076171875,-0.9135742,0.34545898,1584707489981,5766832320388,0.05011191,0,1
1584707491111,NaN,0.14195111,-0.0690918,-0.9355469,0.37109375,1584707490061,5766832320388,0.05011191,0,1
1584707491114,NaN,-0.08766795,-0.035888672,-0.9277344,0.37036133,1584707490141,5766832320388,0.05011191,0,1
1584707491117,NaN,-0.31263617,-0.017333984,-0.91748047,0.37426758,1584707490221,5766832320388,0.04572344,0,1
1584707491121,NaN,-0.5257691,0.0056152344,-0.9050293,0.40454102,1584707490301,5766832320388,0.04572344,0,1
1584707491125,NaN,-0.75965405,0.032470703,-0.8901367,0.4321289,1584707490381,5766832320388,0.04572344,0,1
1584707491129,NaN,-1.0101563,0.055664062,-0.89501953,0.4489746,1584707490461,5766832320388,0.04572344,0,1
1584707491136,NaN,-1.2514167,0.091308594,-0.8703613,0.46533203,1584707490541,5766832320388,0.046326287,0,1
1584707491139,NaN,-1.5192901,0.0949707,-0.8522949,0.49023438,1584707490621,5766832320388,0.046326287,0,1
1584707491143,NaN,-1.7750983,0.12231445,-0.8430176,0.49658203,1584707490701,5766832320388,0.046326287,0,1
1584707491145,NaN,-2.0318716,0.13549805,-0.8432617,0.5439453,1584707490781,5766832320388,0.049164493,0,1
1584707491148,NaN,-2.2445571,0.12207031,-0.8171387,0.54833984,1584707490861,5766832320388,0.049164493,0,1
1584707491151,NaN,-2.4090867,0.12402344,-0.81591797,0.53808594,1584707490941,5766832320388,0.049164493,0,1
1584707491154,NaN,-2.5457747,0.1237793,-0.80810547,0.5275879,1584707491021,5766832320388,0.049164493,0,1
1584707491158,NaN,-2.647291,0.11376953,-0.82299805,0.54052734,1584707491101,5766832320388,0.049164493,0,1
1584707493616,NaN,-2.7308998,0.12866211,-0.810791,0.53686523,1584707491181,-429839291896,0.049164493,0,1
1584707493625,NaN,-2.756828,0.13769531,-0.80981445,0.53149414,1584707491261,-429839291896,0.049164493,0,1
1584707493633,NaN,-2.7152083,0.12988281,-0.7993164,0.5354004,1584707491341,-429839291896,0.049164493,0,1
1584707493638,NaN,-2.6269913,0.13696289,-0.8190918,0.532959,1584707491421,-429839291896,0.049164493,0,1
1584707493646,NaN,-2.4661758,0.1315918,-0.83984375,0.5175781,1584707491501,-429839291896,0.049164493,0,1
1584707493652,NaN,-2.251367,0.12182617,-0.8432617,0.5336914,1584707491581,-429839291896,0.049164493,0,1
1584707493659,NaN,-1.9950169,0.14941406,-0.845459,0.5004883,1584707491661,-429839291896,0.049164493,0,1
1584707493664,NaN,-1.6842985,0.15771484,-0.84765625,0.49047852,1584707491741,-429839291896,0.049164493,0,1
1584707493667,NaN,-1.3821421,0.16015625,-0.86157227,0.4790039,1584707491821,-429839291896,0.049164493,0,1
1584707493671,NaN,-1.0951984,0.14868164,-0.86083984,0.4729004,1584707491901,-429839291896,0.049164493,0,1
1584707493676,NaN,-0.81149644,0.14013672,-0.87060547,0.46313477,1584707491981,-429839291896,0.049164493,0,1
1584707493680,NaN,-0.546189,0.12866211,-0.87719727,0.4675293,1584707492061,-429839291896,0.049164493,0,1
1584707493683,NaN,-0.27663597,0.13916016,-0.8718262,0.45507812,1584707492141,-429839291896,0.049164493,0,1
1584707493687,NaN,-0.03579114,0.13696289,-0.8742676,0.45703125,1584707492221,-429839291896,0.049164493,0,1
1584707493690,NaN,0.1764936,0.14477539,-0.87231445,0.4482422,1584707492301,-429839291896,0.049164493,0,1
1584707493694,NaN,0.3578093,0.14453125,-0.8762207,0.45288086,1584707492381,-429839291896,0.049164493,0,1
1584707493697,NaN,0.46929136,0.13989258,-0.8859863,0.453125,1584707492461,-429839291896,0.049164493,0,1
1584707493701,NaN,0.55635923,0.13891602,-0.87524414,0.45922852,1584707492541,-429839291896,0.049164493,0,1
1584707493703,NaN,0.6156835,0.1352539,-0.8815918,0.45751953,1584707492621,-429839291896,0.049164493,0,1
1584707493707,NaN,0.61362875,0.1472168,-0.8664551,0.4807129,1584707492701,-429839291896,0.049164493,0,1
1584707493710,NaN,0.5840459,0.14404297,-0.86206055,0.4790039,1584707492781,-429839291896,0.049164493,0,1
1584707493713,NaN,0.5403399,0.14428711,-0.85913086,0.47827148,1584707492861,-429839291896,0.049164493,0,1
1584707493716,NaN,0.47569633,0.12231445,-0.86279297,0.49389648,1584707492941,-429839291896,0.049164493,0,1
1584707493719,NaN,0.39944208,0.115234375,-0.8417969,0.4934082,1584707493021,-429839291896,0.049164493,0,1
1584707493723,NaN,0.31430998,0.111816406,-0.84814453,0.49902344,1584707493101,-429839291896,0.049164493,0,1
1584707493726,NaN,0.23441207,0.09472656,-0.8425293,0.4934082,1584707493181,-429839291896,0.049164493,0,1
1584707493730,NaN,0.1465407,0.09863281,-0.8432617,0.49804688,1584707493261,-429839291896,0.049164493,0,1
1584707493733,NaN,0.067624874,0.099121094,-0.84228516,0.49389648,1584707493341,-429839291896,0.043224614,0,1
1584707493736,NaN,-0.0031691927,0.10986328,-0.8496094,0.48876953,1584707493421,-429839291896,0.043224614,0,1
1584707493739,NaN,-0.068400346,0.10498047,-0.85839844,0.5078125,1584707493501,-429839291896,0.043224614,0,1
1584707493742,NaN,-0.13888115,0.10864258,-0.8557129,0.50512695,1584707493581,-429839291896,0.043224614,0,1
1584707493745,NaN,-0.17131396,0.123291016,-0.8388672,0.50634766,1584707493661,-429839291896,0.043224614,0,1
1584707496003,NaN,-0.18503664,0.12646484,-0.85180664,0.4958496,1584707493741,-6626229429204,0.043224614,0,1
1584707496009,NaN,-0.19500744,0.1381836,-0.8483887,0.49560547,1584707493821,-6626229429204,0.043224614,0,1
1584707496016,NaN,-0.19356398,0.13916016,-0.8544922,0.4921875,1584707493901,-6626229429204,0.043224614,0,1
1584707496020,NaN,-0.17653489,0.13964844,-0.8552246,0.49072266,1584707493981,-6626229429204,0.043224614,0,1
1584707496025,NaN,-0.15393783,0.1381836,-0.86206055,0.48388672,1584707494061,-6626229429204,0.043224614,0,1
1584707496028,NaN,-0.15035163,0.13769531,-0.8601074,0.48632812,1584707494141,-6626229429204,0.043224614,0,1
1584707496032,NaN,-0.13594174,0.12915039,-0.8605957,0.49072266,1584707494221,-6626229429204,0.030168906,0,1
1584707496035,NaN,-0.118420094,0.12915039,-0.86157227,0.47875977,1584707494301,-6626229429204,0.030168906,0,1
1584707496039,NaN,-0.09532264,0.122558594,-0.8623047,0.48266602,1584707494381,-6626229429204,0.030168906,0,1
1584707496043,NaN,-0.06284216,0.118652344,-0.8671875,0.4790039,1584707494461,-6626229429204,0.030168906,0,1
1584707496047,NaN,-0.022445181,0.111816406,-0.8654785,0.48339844,1584707494541,-6626229429204,0.030168906,0,1
1584707496051,NaN,0.013237589,0.11816406,-0.8652344,0.4921875,1584707494621,-6626229429204,0.030168906,0,1
1584707496055,NaN,0.02788125,0.115478516,-0.85913086,0.49414062,1584707494701,-6626229429204,0.030168906,0,1
1584707496059,NaN,0.065523796,0.09448242,-0.859375,0.49267578,1584707494781,-6626229429204,0.030168906,0,1
1584707496062,NaN,0.094665654,0.09741211,-0.85791016,0.49536133,1584707494861,-6626229429204,0.030168906,0,1
1584707496065,NaN,0.110653065,0.099365234,-0.8479004,0.49829102,1584707494941,-6626229429204,0.030168906,0,1
1584707496068,NaN,0.10346476,0.099121094,-0.8371582,0.50756836,1584707495021,-6626229429204,0.030168906,0,1
1584707496072,NaN,0.12102344,0.09741211,-0.8339844,0.48608398,1584707495101,-6626229429204,0.030168906,0,1
1584707496075,NaN,0.14253189,0.08984375,-0.8491211,0.4831543,1584707495181,-6626229429204,0.030168906,0,1
1584707496078,NaN,0.16917147,0.091308594,-0.88256836,0.4736328,1584707495261,-6626229429204,0.034806952,0,1
1584707496080,NaN,0.17584102,0.09765625,-0.87841797,0.49780273,1584707495341,-6626229429204,0.034806952,0,1
1584707496083,NaN,0.14944804,0.107421875,-0.84472656,0.4951172,1584707495421,-6626229429204,0.035180826,0,1
1584707496086,NaN,0.12077156,0.12451172,-0.85131836,0.4873047,1584707495501,-6626229429204,0.035180826,0,1
1584707496089,NaN,0.09288755,0.1352539,-0.8630371,0.48876953,1584707495581,-6626229429204,0.035180826,0,1
1584707496091,NaN,0.07785501,0.1262207,-0.8527832,0.49169922,1584707495661,-6626229429204,0.035180826,0,1
1584707496094,NaN,0.038689826,0.12841797,-0.8642578,0.49121094,1584707495741,-6626229429204,0.035180826,0,1
1584707496097,NaN,0.004167916,0.12792969,-0.84936523,0.49194336,1584707495821,-6626229429204,0.035180826,0,1
1584707496099,NaN,-0.012299858,0.12866211,-0.85668945,0.48950195,1584707495901,-6626229429204,0.035180826,0,1
1584707496102,NaN,-0.0031413443,0.12158203,-0.857666,0.4970703,1584707495981,-6626229429204,0.035180826,0,1
1584707496105,NaN,-0.017078789,0.12011719,-0.85253906,0.48999023,1584707496061,-6626229429204,0.035180826,0,1
1584707496107,NaN,-0.051263142,0.122558594,-0.8557129,0.4892578,1584707496141,-6626229429204,0.035180826,0,1
1584707496110,NaN,-0.11180087,0.115478516,-0.8659668,0.4975586,1584707496221,-6626229429204,0.035180826,0,1
1584707498789,NaN,-0.1397386,0.11303711,-0.86450195,0.5083008,1584707496301,5624124507196,0.035180826,0,1
1584707498798,NaN,-0.13656197,0.115234375,-0.8508301,0.5095215,1584707496381,5624124507196,0.035180826,0,1
1584707498803,NaN,-0.14528652,0.12084961,-0.8288574,0.5131836,1584707496461,5624124507196,0.035180826,0,1
1584707498808,NaN,-0.14772767,0.118896484,-0.85131836,0.50927734,1584707496541,5624124507196,0.035180826,0,1
1584707498811,NaN,-0.1432145,0.107666016,-0.8564453,0.51123047,1584707496621,5624124507196,0.035180826,0,1
1584707498814,NaN,-0.1277388,0.10058594,-0.8461914,0.4958496,1584707496701,5624124507196,0.035180826,0,1
1584707498818,NaN,-0.10534977,0.10253906,-0.8395996,0.49291992,1584707496781,5624124507196,0.035180826,0,1
1584707498822,NaN,-0.095684975,0.091796875,-0.83691406,0.49560547,1584707496861,5624124507196,0.035180826,0,1
1584707498826,NaN,-0.07432619,0.08544922,-0.8520508,0.47729492,1584707496941,5624124507196,0.035180826,0,1
1584707498830,NaN,-0.04402856,0.09301758,-0.8666992,0.47753906,1584707497021,5624124507196,0.035180826,0,1
1584707498834,NaN,-0.005412318,0.09057617,-0.8815918,0.4921875,1584707497101,5624124507196,0.035180826,0,1
1584707498838,NaN,0.028697113,0.0949707,-0.8479004,0.4963379,1584707497181,5624124507196,0.035180826,0,1
1584707498840,NaN,0.05417606,0.12036133,-0.8564453,0.4855957,1584707497261,5624124507196,0.035180826,0,1
1584707498844,NaN,0.079957485,0.12084961,-0.86694336,0.4885254,1584707497341,5624124507196,0.035180826,0,1
1584707498847,25.862068,0.13654096,0.12646484,-0.86743164,0.47729492,1584707497421,5624124507196,0.035180826,0,1
1584707498850,NaN,0.15894975,0.13500977,-0.8598633,0.48120117,1584707497501,5624124507196,0.035180826,0,1
1584707498854,NaN,0.17436852,0.13793945,-0.8618164,0.46972656,1584707497581,5624124507196,0.035180826,0,1
1584707498858,NaN,0.17061926,0.14038086,-0.85961914,0.47827148,1584707497661,5624124507196,0.035180826,0,1
1584707498862,NaN,0.16629015,0.13769531,-0.8691406,0.4831543,1584707497741,5624124507196,0.035180826,0,1
1584707498866,NaN,0.16247736,0.13208008,-0.8642578,0.48339844,1584707497821,5624124507196,0.035180826,0,1
1584707498871,NaN,0.12377984,0.12158203,-0.86987305,0.48535156,1584707497901,5624124507196,0.035180826,0,1
1584707498875,NaN,0.06669558,0.11767578,-0.85498047,0.50561523,1584707497981,5624124507196,0.034229353,0,1
1584707498878,NaN,0.014928679,0.10449219,-0.8449707,0.5061035,1584707498061,5624124507196,0.034229353,0,1
1584707498881,NaN,0.0048647723,0.10083008,-0.85253906,0.50756836,1584707498141,5624124507196,0.034229353,0,1
1584707498885,NaN,-0.0065506673,0.099853516,-0.84887695,0.5036621,1584707498221,5624124507196,0.034229353,0,1
1584707498888,NaN,-0.027050087,0.08984375,-0.8442383,0.5041504,1584707498301,5624124507196,0.034229353,0,1
1584707498892,NaN,-0.06958868,0.07763672,-0.8444824,0.5144043,1584707498381,5624124507196,0.034229353,0,1
1584707498896,NaN,-0.07891243,0.0715332,-0.83325195,0.50439453,1584707498461,5624124507196,0.034229353,0,1
1584707498899,NaN,-0.105438925,0.083984375,-0.81274414,0.4963379,1584707498541,5624124507196,0.034229353,0,1
1584707498902,NaN,-0.077794544,0.07543945,-0.8769531,0.49194336,1584707498621,5624124507196,0.064923964,0,1
1584707498906,NaN,-0.061575297,0.080322266,-0.8730469,0.49365234,1584707498701,5624124507196,0.064923964,0,1
1584707498911,NaN,-0.057978954,0.087890625,-0.8605957,0.50219727,1584707498781,5624124507196,0.064923964,0,1
1584707501171,NaN,-0.044237766,0.10546875,-0.8522949,0.4831543,1584707498861,-572547105088,0.064923964,0,1
1584707501176,NaN,-0.0060547697,0.12231445,-0.8552246,0.49316406,1584707498941,-572547105088,0.064923964,0,1
1584707501182,NaN,0.032477528,0.12133789,-0.86450195,0.49389648,1584707499021,-572547105088,0.064923964,0,1
1584707501188,35.714287,0.035084788,0.13354492,-0.84716797,0.49365234,1584707499101,-572547105088,0.064923964,0,1
1584707501198,NaN,0.038787074,0.1315918,-0.859375,0.4951172,1584707499181,-572547105088,0.064923964,0,1
1584707501202,NaN,0.04223372,0.13061523,-0.85668945,0.49291992,1584707499261,-572547105088,0.064923964,0,1
1584707501204,NaN,0.05462764,0.12597656,-0.8547363,0.49194336,1584707499341,-572547105088,0.064923964,0,1
1584707501207,NaN,0.04462838,0.12133789,-0.8430176,0.4975586,1584707499421,-572547105088,0.064923964,0,1
1584707501217,NaN,0.060421407,0.12109375,-0.8498535,0.49902344,1584707499501,-572547105088,0.064923964,0,1
1584707501218,NaN,0.0083599165,0.12036133,-0.84594727,0.49169922,1584707499581,-572547105088,0.064923964,0,1
1584707501219,NaN,-0.025933534,0.104003906,-0.86694336,0.5031738,1584707499661,-572547105088,0.064923964,0,1
1584707501224,NaN,-0.03574045,0.11694336,-0.8613281,0.4987793,1584707499741,-572547105088,0.064923964,0,1
1584707501231,NaN,-0.055352136,0.11035156,-0.84716797,0.5065918,1584707499821,-572547105088,0.064923964,0,1
1584707501233,NaN,-0.062206984,0.114990234,-0.86035156,0.50024414,1584707499901,-572547105088,0.064923964,0,1
1584707501234,NaN,-0.0812268,0.10131836,-0.8544922,0.50927734,1584707499981,-572547105088,0.064923964,0,1
1584707501238,NaN,-0.07346865,0.099609375,-0.8442383,0.5004883,1584707500061,-572547105088,0.064923964,0,1
1584707501241,NaN,-0.07654551,0.1003418,-0.84472656,0.50341797,1584707500141,-572547105088,0.064923964,0,1
1584707501245,NaN,-0.066041864,0.08544922,-0.8413086,0.48583984,1584707500221,-572547105088,0.064923964,0,1
1584707501247,NaN,-0.06968754,0.076171875,-0.8425293,0.501709,1584707500301,-572547105088,0.064923964,0,1
1584707501251,NaN,-0.03274216,0.08618164,-0.85375977,0.4716797,1584707500381,-572547105088,0.064923964,0,1
1584707501254,NaN,-0.012669045,0.08691406,-0.8757324,0.49291992,1584707500461,-572547105088,0.064923964,0,1
1584707501257,NaN,0.023551354,0.09326172,-0.8676758,0.49853516,1584707500541,-572547105088,0.064923964,0,1
1584707501262,39.473682,0.039901774,0.09033203,-0.85131836,0.4963379,1584707500621,-572547105088,0.064923964,0,1
1584707501265,NaN,0.04463108,0.10107422,-0.85009766,0.49658203,1584707500701,-572547105088,0.064923964,0,1
1584707501267,NaN,0.077356175,0.10522461,-0.8588867,0.49560547,1584707500781,-572547105088,0.064923964,0,1
1584707501270,NaN,0.0857586,0.10253906,-0.85717773,0.48950195,1584707500861,-572547105088,0.064923964,0,1
1584707501274,NaN,0.108927995,0.11669922,-0.8613281,0.49267578,1584707500941,-572547105088,0.064923964,0,1
1584707501279,NaN,0.12110629,0.11767578,-0.8659668,0.49169922,1584707501021,-572547105088,0.064923964,0,1
1584707501282,NaN,0.13817213,0.12182617,-0.8515625,0.48999023,1584707501101,-572547105088,0.064923964,0,1
1584707501285,NaN,0.13861705,0.12548828,-0.861084,0.48706055,1584707501181,-572547105088,0.033586863,0,1
1584707501292,NaN,0.16361657,0.13330078,-0.861084,0.4873047,1584707501261,-572547105088,0.033586863,0,1
1584707501293,NaN,0.12500851,0.12426758,-0.8640137,0.49682617,1584707501341,-572547105088,0.033586863,0,1
1584707503756,NaN,0.09960729,0.115234375,-0.8654785,0.49829102,1584707501421,-6768937242397,0.033586863,0,1
1584707503763,NaN,0.08445644,0.119628906,-0.8491211,0.5036621,1584707501501,-6768937242397,0.033586863,0,1
1584707503770,NaN,0.076270096,0.115478516,-0.84350586,0.51171875,1584707501581,-6768937242397,0.033586863,0,1
1584707503778,NaN,0.06701343,0.11425781,-0.84887695,0.5151367,1584707501661,-6768937242397,0.033586863,0,1
1584707503782,NaN,0.036075663,0.11328125,-0.8388672,0.51342773,1584707501741,-6768937242397,0.033586863,0,1
1584707503785,NaN,0.003756024,0.099853516,-0.8327637,0.5109863,1584707501821,-6768937242397,0.033586863,0,1
1584707503804,NaN,-0.04048467,0.084472656,-0.8347168,0.5085449,1584707501901,-6768937242397,0.033586863,0,1
1584707503810,NaN,-0.08930516,0.084228516,-0.8310547,0.5070801,1584707501981,-6768937242397,0.033586863,0,1
1584707503816,NaN,-0.104938924,0.08300781,-0.8586426,0.4807129,1584707502061,-6768937242397,0.038181283,0,1
1584707503820,NaN,-0.13345635,0.083740234,-0.875,0.5024414,1584707502141,-6768937242397,0.038181283,0,1
1584707503823,NaN,-0.186855,0.087890625,-0.85839844,0.50561523,1584707502221,-6768937242397,0.038181283,0,1
1584707503827,NaN,-0.19352888,0.09082031,-0.84814453,0.4934082,1584707502301,-6768937242397,0.038181283,0,1
1584707503831,NaN,-0.20365083,0.107421875,-0.85424805,0.5065918,1584707502381,-6768937242397,0.038181283,0,1
1584707503834,NaN,-0.19436496,0.111083984,-0.859375,0.49780273,1584707502461,-6768937242397,0.038181283,0,1
1584707503839,NaN,-0.17744698,0.11743164,-0.8540039,0.5041504,1584707502541,-6768937242397,0.038181283,0,1
1584707503843,NaN,-0.17627619,0.10449219,-0.8388672,0.517334,1584707502621,-6768937242397,0.038181283,0,1
1584707503846,NaN,-0.16295613,0.103271484,-0.83935547,0.51416016,1584707502701,-6768937242397,0.038181283,0,1
1584707503851,NaN,-0.14085586,0.10473633,-0.8425293,0.5227051,1584707502781,-6768937242397,0.038181283,0,1
1584707503853,NaN,-0.09683615,0.11352539,-0.8444824,0.51049805,1584707502861,-6768937242397,0.038181283,0,1
1584707503857,NaN,-0.058708046,0.10180664,-0.84521484,0.51831055,1584707502941,-6768937242397,0.038181283,0,1
1584707503860,NaN,-0.07773021,0.099121094,-0.8432617,0.5151367,1584707503021,-6768937242397,0.038181283,0,1
1584707503863,NaN,-0.079129495,0.08520508,-0.85302734,0.5217285,1584707503101,-6768937242397,0.038181283,0,1
1584707503865,NaN,-0.05365247,0.09399414,-0.8483887,0.5078125,1584707503181,-6768937242397,0.038181283,0,1
1584707503868,NaN,-0.057983324,0.09008789,-0.84106445,0.5180664,1584707503261,-6768937242397,0.038181283,0,1
1584707503874,NaN,-0.064843535,0.080078125,-0.83251953,0.50805664,1584707503341,-6768937242397,0.038181283,0,1
1584707503875,NaN,-0.08474159,0.0793457,-0.85058594,0.49731445,1584707503421,-6768937242397,0.038181283,0,1
1584707503878,NaN,-0.09040827,0.072021484,-0.857666,0.47460938,1584707503501,-6768937242397,0.038181283,0,1
1584707503880,NaN,-0.05454279,0.07836914,-0.86694336,0.47802734,1584707503581,-6768937242397,0.038181283,0,1
1584707503884,NaN,-0.02679401,0.080566406,-0.8876953,0.49389648,1584707503661,-6768937242397,0.038181283,0,1
1584707503887,NaN,-0.014039473,0.08935547,-0.84228516,0.5,1584707503741,-6768937242397,0.046653863,0,1
1584707503895,NaN,-0.028948976,0.0847168,-0.85253906,0.50341797,1584707503821,-6768937242397,0.046653863,0,1
1584707503897,NaN,-0.02928424,0.084228516,-0.8586426,0.51171875,1584707503901,-6768937242397,0.046653863,0,1
1584707506336,NaN,-0.009800008,0.09790039,-0.83984375,0.515625,1584707503981,5481416694003,0.046653863,0,1
1584707506343,NaN,0.018250896,0.099609375,-0.8474121,0.51293945,1584707504061,5481416694003,0.046653863,0,1
1584707506349,NaN,0.017091537,0.10473633,-0.84155273,0.5144043,1584707504141,5481416694003,0.046653863,0,1
1584707506355,16.666666,0.035964523,0.1003418,-0.84033203,0.5222168,1584707504221,5481416694003,0.046653863,0,1
1584707506361,NaN,0.059069693,0.09643555,-0.84643555,0.5168457,1584707504301,5481416694003,0.046653863,0,1
1584707506367,NaN,0.054119725,0.10131836,-0.8417969,0.52978516,1584707504381,5481416694003,0.046653863,0,1
1584707506371,NaN,4.456391E-4,0.095703125,-0.8342285,0.5407715,1584707504461,5481416694003,0.046653863,0,1
1584707506375,NaN,-0.086733796,0.1015625,-0.82470703,0.5463867,1584707504541,5481416694003,0.046653863,0,1
1584707506379,NaN,-0.16374567,0.08862305,-0.83325195,0.54052734,1584707504621,5481416694003,0.046653863,0,1
1584707506382,NaN,-0.19445504,0.0793457,-0.83496094,0.52197266,1584707504701,5481416694003,0.046653863,0,1
1584707506386,NaN,-0.22585241,0.07299805,-0.83251953,0.5349121,1584707504781,5481416694003,0.046653863,0,1
1584707506390,NaN,-0.24452253,0.08618164,-0.8251953,0.5131836,1584707504861,5481416694003,0.046653863,0,1
1584707506394,NaN,-0.24567975,0.076660156,-0.83325195,0.51000977,1584707504941,5481416694003,0.046653863,0,1
1584707506399,NaN,-0.24045773,0.07714844,-0.8466797,0.48632812,1584707505021,5481416694003,0.046653863,0,1
1584707506403,NaN,-0.23015314,0.083496094,-0.8635254,0.5114746,1584707505101,5481416694003,0.046653863,0,1
1584707506406,NaN,-0.21893285,0.075683594,-0.8586426,0.51049805,1584707505181,5481416694003,0.046653863,0,1
1584707506410,NaN,-0.22220884,0.095947266,-0.84277344,0.5136719,1584707505261,5481416694003,0.046653863,0,1
1584707506413,NaN,-0.1797343,0.1105957,-0.8503418,0.50561523,1584707505341,5481416694003,0.046653863,0,1
1584707506416,NaN,-0.1019989,0.1105957,-0.8515625,0.51538086,1584707505421,5481416694003,0.046653863,0,1
1584707506419,NaN,-0.0013367062,0.11791992,-0.845459,0.5053711,1584707505501,5481416694003,0.046653863,0,1
1584707506422,44.117645,0.08450226,0.11010742,-0.8491211,0.5097656,1584707505581,5481416694003,0.046653863,0,1
1584707506425,NaN,0.12959456,0.11816406,-0.8508301,0.50756836,1584707505661,5481416694003,0.046653863,0,1
1584707506427,NaN,0.19918358,0.1105957,-0.8449707,0.50146484,1584707505741,5481416694003,0.046653863,0,1
1584707506431,NaN,0.23296338,0.114746094,-0.8503418,0.5090332,1584707505821,5481416694003,0.046653863,0,1
1584707506433,NaN,0.24942298,0.110839844,-0.85058594,0.51220703,1584707505901,5481416694003,0.046653863,0,1
1584707506436,NaN,0.21608853,0.10107422,-0.8510742,0.5241699,1584707505981,5481416694003,0.046653863,0,1
1584707506440,NaN,0.19971518,0.10522461,-0.8376465,0.5175781,1584707506061,5481416694003,0.046653863,0,1
1584707506442,NaN,0.18144546,0.107177734,-0.8430176,0.5205078,1584707506141,5481416694003,0.046653863,0,1
1584707506444,NaN,0.18103047,0.103759766,-0.84472656,0.51660156,1584707506221,5481416694003,0.046653863,0,1
1584707506448,NaN,0.14270775,0.09448242,-0.842041,0.5192871,1584707506301,5481416694003,0.030925978,0,1
1584707506451,NaN,0.104703404,0.09326172,-0.83691406,0.5163574,1584707506381,5481416694003,0.030925978,0,1
1584707506454,NaN,0.056457743,0.08618164,-0.84155273,0.5046387,1584707506461,5481416694003,0.030925978,0,1
1584707508920,NaN,0.014008681,0.080322266,-0.84399414,0.51171875,1584707506541,-715254918281,0.030925978,0,1
1584707508929,NaN,-0.015262511,0.09106445,-0.8400879,0.49975586,1584707506621,-715254918281,0.030925978,0,1
1584707508934,NaN,-0.060196444,0.08911133,-0.8522949,0.5102539,1584707506701,-715254918281,0.030925978,0,1
1584707508940,NaN,-0.083382525,0.09277344,-0.8564453,0.5114746,1584707506781,-715254918281,0.030925978,0,1
1584707508943,NaN,-0.110959716,0.100097656,-0.8395996,0.5229492,1584707506861,-715254918281,0.030925978,0,1
1584707508946,NaN,-0.08504341,0.10546875,-0.8483887,0.5151367,1584707506941,-715254918281,0.030925978,0,1
1584707508950,NaN,-0.07106467,0.10961914,-0.83813477,0.5131836,1584707507021,-715254918281,0.030925978,0,1
1584707508952,NaN,-0.056489866,0.11303711,-0.845459,0.51293945,1584707507101,-715254918281,0.030925978,0,1
1584707508955,NaN,-0.052800387,0.10229492,-0.8486328,0.51293945,1584707507181,-715254918281,0.030925978,0,1
1584707508958,NaN,-0.02955606,0.099853516,-0.8425293,0.5109863,1584707507261,-715254918281,0.030925978,0,1
1584707508962,NaN,-0.007972724,0.09838867,-0.84472656,0.5061035,1584707507341,-715254918281,0.030925978,0,1
1584707508965,NaN,5.19088E-4,0.095947266,-0.8503418,0.51123047,1584707507421,-715254918281,0.030925978,0,1
1584707508969,NaN,0.020894459,0.10107422,-0.8461914,0.5046387,1584707507501,-715254918281,0.030925978,0,1
1584707508973,NaN,0.025865614,0.0925293,-0.86083984,0.5114746,1584707507581,-715254918281,0.030925978,0,1
1584707508976,NaN,0.030462122,0.099365234,-0.8483887,0.5161133,1584707507661,-715254918281,0.025932975,0,1
1584707508980,NaN,0.02762624,0.09423828,-0.8383789,0.51123047,1584707507741,-715254918281,0.025932975,0,1
1584707508982,26.785715,0.05291089,0.095214844,-0.8522949,0.5131836,1584707507821,-715254918281,0.021658452,0,1
1584707508985,NaN,0.044851694,0.09082031,-0.8474121,0.51342773,1584707507901,-715254918281,0.021658452,0,1
1584707508989,NaN,0.045009434,0.091308594,-0.84594727,0.5073242,1584707507981,-715254918281,0.021658452,0,1
1584707508992,NaN,0.032908518,0.095947266,-0.84716797,0.51660156,1584707508061,-715254918281,0.021658452,0,1
1584707508995,NaN,0.03182984,0.09008789,-0.8405762,0.50146484,1584707508141,-715254918281,0.021658452,0,1
1584707508998,NaN,0.033715777,0.08886719,-0.8417969,0.4951172,1584707508221,-715254918281,0.021658452,0,1
1584707509001,NaN,0.033430073,0.084228516,-0.84765625,0.4885254,1584707508301,-715254918281,0.021658452,0,1
1584707509004,NaN,0.06799448,0.08276367,-0.87890625,0.47460938,1584707508381,-715254918281,0.0342398,0,1
1584707509008,NaN,0.08149707,0.0871582,-0.876709,0.4855957,1584707508461,-715254918281,0.0342398,0,1
1584707509011,NaN,0.09494818,0.092285156,-0.8586426,0.4909668,1584707508541,-715254918281,0.0342398,0,1
1584707509016,NaN,0.1181748,0.10644531,-0.85058594,0.49121094,1584707508621,-715254918281,0.0342398,0,1
1584707509019,NaN,0.14756104,0.099365234,-0.86499023,0.4958496,1584707508701,-715254918281,0.0342398,0,1
1584707509024,NaN,0.15963726,0.095214844,-0.85717773,0.48413086,1584707508781,-715254918281,0.0342398,0,1
1584707509027,NaN,0.17311591,0.09863281,-0.8544922,0.50268555,1584707508861,-715254918281,0.0342398,0,1
1584707509029,NaN,0.1825732,0.091552734,-0.8635254,0.49829102,1584707508941,-715254918281,0.0342398,0,1
1584707509032,NaN,0.19893281,0.09277344,-0.84814453,0.5007324,1584707509021,-715254918281,0.0342398,0,1
1584707511505,NaN,0.20487666,0.08666992,-0.857666,0.4987793,1584707509101,-6911645055589,0.0342398,0,1
1584707511512,NaN,0.19474639,0.08544922,-0.85839844,0.50561523,1584707509181,-6911645055589,0.0342398,0,1
1584707511517,NaN,0.16912617,0.083984375,-0.85058594,0.51000977,1584707509261,-6911645055589,0.0342398,0,1
1584707511522,NaN,0.10165453,0.087890625,-0.85131836,0.5031738,1584707509341,-6911645055589,0.0342398,0,1
1584707511528,NaN,0.05387708,0.083984375,-0.85839844,0.5078125,1584707509421,-6911645055589,0.0342398,0,1
1584707511532,NaN,0.025011763,0.07739258,-0.8547363,0.5090332,1584707509501,-6911645055589,0.0342398,0,1
1584707511537,NaN,-0.009541809,0.080078125,-0.85791016,0.51538086,1584707509581,-6911645055589,0.0342398,0,1
1584707511541,NaN,-0.053594213,0.08081055,-0.84155273,0.51171875,1584707509661,-6911645055589,0.0342398,0,1
1584707511545,NaN,-0.09760807,0.0715332,-0.84887695,0.5083008,1584707509741,-6911645055589,0.0342398,0,1
1584707511548,NaN,-0.121213526,0.07397461,-0.85058594,0.5161133,1584707509821,-6911645055589,0.0342398,0,1
1584707511552,NaN,-0.16145661,0.072265625,-0.8371582,0.51831055,1584707509901,-6911645055589,0.0342398,0,1
1584707511556,NaN,-0.18321955,0.075683594,-0.83935547,0.5085449,1584707509981,-6911645055589,0.0342398,0,1
1584707511560,NaN,-0.20860852,0.07348633,-0.84399414,0.51293945,1584707510061,-6911645055589,0.0342398,0,1
1584707511564,NaN,-0.19644363,0.07714844,-0.8444824,0.4814453,1584707510141,-6911645055589,0.0342398,0,1
1584707511569,NaN,-0.16902918,0.07788086,-0.85791016,0.49609375,1584707510221,-6911645055589,0.0342398,0,1
1584707511572,NaN,-0.12541254,0.075927734,-0.87353516,0.5,1584707510301,-6911645055589,0.0342398,0,1
1584707511578,NaN,-0.11120206,0.084472656,-0.84375,0.5124512,1584707510381,-6911645055589,0.0342398,0,1
1584707511579,NaN,-0.09642747,0.09301758,-0.84594727,0.50439453,1584707510461,-6911645055589,0.0342398,0,1
1584707511581,NaN,-0.07756209,0.08935547,-0.8557129,0.5083008,1584707510541,-6911645055589,0.0342398,0,1
1584707511584,NaN,-0.055468027,0.08886719,-0.8449707,0.51293945,1584707510621,-6911645055589,0.0342398,0,1
1584707511587,NaN,-0.03985892,0.08642578,-0.8469238,0.5148926,1584707510701,-6911645055589,0.0342398,0,1
1584707511590,NaN,-0.025665633,0.08911133,-0.8469238,0.51171875,1584707510781,-6911645055589,0.0342398,0,1
1584707511594,NaN,0.0032629084,0.08544922,-0.8388672,0.51660156,1584707510861,-6911645055589,0.0342398,0,1
1584707511596,NaN,0.0074706473,0.08325195,-0.8474121,0.5217285,1584707510941,-6911645055589,0.033394653,0,1
1584707511600,NaN,0.011717845,0.080566406,-0.8322754,0.5234375,1584707511021,-6911645055589,0.033394653,0,1
1584707511603,NaN,-0.030131022,0.08251953,-0.842041,0.5229492,1584707511101,-6911645055589,0.033394653,0,1
1584707511606,NaN,-0.07083108,0.079589844,-0.84033203,0.5241699,1584707511181,-6911645055589,0.033394653,0,1
1584707511609,NaN,-0.11740952,0.07861328,-0.8391113,0.52783203,1584707511261,-6911645055589,0.033394653,0,1
1584707511612,NaN,-0.11779065,0.07861328,-0.84375,0.5263672,1584707511341,-6911645055589,0.033394653,0,1
1584707511615,NaN,-0.13913065,0.075927734,-0.8444824,0.5336914,1584707511421,-6911645055589,0.033394653,0,1
1584707511619,NaN,-0.15584235,0.080566406,-0.8378906,0.5151367,1584707511501,-6911645055589,0.033394653,0,1
1584707511622,NaN,-0.16277038,0.076416016,-0.8498535,0.5246582,1584707511581,-6911645055589,0.033394653,0,1
1584707514090,NaN,-0.16385934,0.078125,-0.8378906,0.5180664,1584707511661,5338708880811,0.033394653,0,1
1584707514098,NaN,-0.17771734,0.07836914,-0.8405762,0.52368164,1584707511741,5338708880811,0.033394653,0,1
1584707514102,NaN,-0.18778998,0.083984375,-0.8339844,0.5241699,1584707511821,5338708880811,0.033394653,0,1
1584707514106,NaN,-0.1831646,0.0769043,-0.83984375,0.51831055,1584707511901,5338708880811,0.033394653,0,1
1584707514110,NaN,-0.1568337,0.08178711,-0.8400879,0.50878906,1584707511981,5338708880811,0.033394653,0,1
1584707514118,NaN,-0.11603013,0.07714844,-0.83740234,0.50561523,1584707512061,5338708880811,0.033394653,0,1
1584707514123,NaN,-0.06480809,0.07836914,-0.85424805,0.49975586,1584707512141,5338708880811,0.033394653,0,1
1584707514128,NaN,-0.013905936,0.08105469,-0.85595703,0.51586914,1584707512221,5338708880811,0.033394653,0,1
1584707514131,NaN,-1.5198936E-4,0.08544922,-0.84594727,0.5229492,1584707512301,5338708880811,0.033394653,0,1
1584707514135,13.157895,0.045829315,0.071777344,-0.84277344,0.49853516,1584707512381,5338708880811,0.033394653,0,1
1584707514139,NaN,0.07615205,0.08496094,-0.85424805,0.5004883,1584707512461,5338708880811,0.033394653,0,1
1584707514142,NaN,0.11139663,0.07470703,-0.8652344,0.49365234,1584707512541,5338708880811,0.033394653,0,1
1584707514146,NaN,0.13362734,0.08520508,-0.8574219,0.5078125,1584707512621,5338708880811,0.033394653,0,1
1584707514149,NaN,0.16910039,0.08618164,-0.8605957,0.50268555,1584707512701,5338708880811,0.033394653,0,1
1584707514153,NaN,0.20645376,0.07861328,-0.8557129,0.4958496,1584707512781,5338708880811,0.033394653,0,1
1584707514157,NaN,0.22048791,0.079833984,-0.84716797,0.5048828,1584707512861,5338708880811,0.033394653,0,1
1584707514160,NaN,0.21081458,0.072265625,-0.8562012,0.5124512,1584707512941,5338708880811,0.028160963,0,1
1584707514163,NaN,0.19692166,0.08251953,-0.8408203,0.51293945,1584707513021,5338708880811,0.028160963,0,1
1584707514195,NaN,0.15551133,0.07739258,-0.85180664,0.52319336,1584707513101,5338708880811,0.028160963,0,1
1584707514196,NaN,0.13128339,0.0769043,-0.8498535,0.52368164,1584707513181,5338708880811,0.028160963,0,1
1584707514197,NaN,0.118439265,0.08203125,-0.83740234,0.5305176,1584707513261,5338708880811,0.028160963,0,1
1584707514198,NaN,0.07368819,0.07885742,-0.8405762,0.52563477,1584707513341,5338708880811,0.028160963,0,1
1584707514198,NaN,0.032319587,0.080566406,-0.8444824,0.5275879,1584707513421,5338708880811,0.028160963,0,1
1584707514200,NaN,-0.023974761,0.076171875,-0.8400879,0.51660156,1584707513501,5338708880811,0.028160963,0,1
1584707514205,NaN,-0.06858311,0.07446289,-0.83740234,0.5358887,1584707513581,5338708880811,0.028160963,0,1
1584707514206,NaN,-0.119486995,0.068603516,-0.8322754,0.5234375,1584707513661,5338708880811,0.028160963,0,1
1584707514206,NaN,-0.17442332,0.07080078,-0.82836914,0.51416016,1584707513741,5338708880811,0.028160963,0,1
1584707514207,NaN,-0.2044763,0.07495117,-0.8300781,0.51831055,1584707513821,5338708880811,0.028160963,0,1
1584707514208,NaN,-0.20246643,0.06738281,-0.8581543,0.5046387,1584707513901,5338708880811,0.032132097,0,1
1584707514212,NaN,-0.1980688,0.07495117,-0.8562012,0.52124023,1584707513981,5338708880811,0.032132097,0,1
1584707514215,NaN,-0.1787607,0.07739258,-0.84350586,0.5161133,1584707514061,5338708880811,0.032132097,0,1
1584707514221,NaN,-0.1659509,0.0793457,-0.8457031,0.5148926,1584707514141,5338708880811,0.032132097,0,1
1584707516476,NaN,-0.14480801,0.08276367,-0.8432617,0.517334,1584707514221,-857962731473,0.032132097,0,1
1584707516480,NaN,-0.11648754,0.07763672,-0.84765625,0.5187988,1584707514301,-857962731473,0.032132097,0,1
1584707516487,NaN,-0.08997957,0.08569336,-0.8371582,0.51953125,1584707514381,-857962731473,0.032132097,0,1
1584707516492,NaN,-0.063933484,0.083984375,-0.8486328,0.5241699,1584707514461,-857962731473,0.032132097,0,1
1584707516499,NaN,-0.019889014,0.07910156,-0.8413086,0.517334,1584707514541,-857962731473,0.032132097,0,1
1584707516502,NaN,0.016424807,0.07446289,-0.842041,0.51708984,1584707514621,-857962731473,0.032132097,0,1
1584707516505,25.862068,0.04498029,0.07763672,-0.84375,0.51953125,1584707514701,-857962731473,0.032132097,0,1
1584707516508,NaN,0.069146104,0.07885742,-0.8449707,0.5180664,1584707514781,-857962731473,0.032132097,0,1
1584707516511,NaN,0.04843426,0.08325195,-0.84350586,0.51831055,1584707514861,-857962731473,0.032132097,0,1
1584707516515,NaN,0.03954489,0.07397461,-0.8483887,0.5280762,1584707514941,-857962731473,0.032132097,0,1
1584707516518,NaN,0.02598668,0.07373047,-0.84521484,0.5336914,1584707515021,-857962731473,0.032132097,0,1
1584707516521,NaN,0.0043645403,0.075683594,-0.83081055,0.5292969,1584707515101,-857962731473,0.032132097,0,1
1584707516525,NaN,-0.016829103,0.07836914,-0.8395996,0.52734375,1584707515181,-857962731473,0.032132097,0,1
1584707516528,NaN,-0.041369844,0.07055664,-0.8371582,0.53466797,1584707515261,-857962731473,0.032132097,0,1
1584707516531,NaN,-0.05498618,0.076660156,-0.8317871,0.52978516,1584707515341,-857962731473,0.032132097,0,1
1584707516535,NaN,-0.060799792,0.07885742,-0.8366699,0.5258789,1584707515421,-857962731473,0.032132097,0,1
1584707516538,NaN,-0.08040895,0.07055664,-0.83618164,0.5185547,1584707515501,-857962731473,0.032132097,0,1
1584707516540,NaN,-0.09595116,0.07739258,-0.82666016,0.517334,1584707515581,-857962731473,0.032132097,0,1
1584707516543,NaN,-0.09353351,0.06958008,-0.8413086,0.5083008,1584707515661,-857962731473,0.032132097,0,1
1584707516546,NaN,-0.07932305,0.07348633,-0.85424805,0.49291992,1584707515741,-857962731473,0.032132097,0,1
1584707516548,NaN,-0.052617956,0.076416016,-0.8730469,0.51782227,1584707515821,-857962731473,0.032132097,0,1
1584707516551,NaN,-0.029260224,0.07446289,-0.84643555,0.5058594,1584707515901,-857962731473,0.032132097,0,1
1584707516554,NaN,8.894888E-4,0.080078125,-0.84277344,0.5078125,1584707515981,-857962731473,0.032132097,0,1
1584707516558,44.117645,0.04466927,0.080566406,-0.85253906,0.50561523,1584707516061,-857962731473,0.032132097,0,1
1584707516560,NaN,0.067187466,0.07519531,-0.8510742,0.51538086,1584707516141,-857962731473,0.032132097,0,1
1584707516563,NaN,0.10842494,0.076416016,-0.84814453,0.50756836,1584707516221,-857962731473,0.032132097,0,1
1584707516566,NaN,0.14181904,0.08129883,-0.85180664,0.5107422,1584707516301,-857962731473,0.032132097,0,1
1584707516569,NaN,0.16052647,0.08203125,-0.84765625,0.51660156,1584707516381,-857962731473,0.032132097,0,1
1584707516572,NaN,0.17251055,0.07836914,-0.8469238,0.51538086,1584707516461,-857962731473,0.031338565,0,1
1584707516575,NaN,0.18727422,0.07299805,-0.84887695,0.5180664,1584707516541,-857962731473,0.031338565,0,1
1584707516578,NaN,0.17645507,0.068603516,-0.8461914,0.5180664,1584707516621,-857962731473,0.031338565,0,1
1584707516582,NaN,0.13238133,0.072021484,-0.8449707,0.5192871,1584707516701,-857962731473,0.031338565,0,1
1584707519059,NaN,0.10362261,0.076416016,-0.8486328,0.5263672,1584707516781,-7054352868781,0.031338565,0,1
1584707519064,NaN,0.06990054,0.08300781,-0.8366699,0.52734375,1584707516861,-7054352868781,0.031338565,0,1
1584707519069,NaN,0.031504545,0.08276367,-0.8300781,0.52905273,1584707516941,-7054352868781,0.031338565,0,1
1584707519076,NaN,-0.014880163,0.076660156,-0.8498535,0.53100586,1584707517021,-7054352868781,0.031338565,0,1
1584707519080,NaN,-0.042390365,0.072021484,-0.8305664,0.52246094,1584707517101,-7054352868781,0.031338565,0,1
1584707519084,NaN,-0.08217599,0.080566406,-0.8371582,0.5227051,1584707517181,-7054352868781,0.031338565,0,1
1584707519087,NaN,-0.11980003,0.071777344,-0.8364258,0.52124023,1584707517261,-7054352868781,0.031338565,0,1
1584707519094,NaN,-0.12842986,0.0715332,-0.83618164,0.5041504,1584707517341,-7054352868781,0.031338565,0,1
1584707519098,NaN,-0.13248558,0.080566406,-0.8334961,0.5024414,1584707517421,-7054352868781,0.031338565,0,1
1584707519103,NaN,-0.12105179,0.0715332,-0.8623047,0.49829102,1584707517501,-7054352868781,0.031338565,0,1
1584707519105,NaN,-0.09871876,0.07421875,-0.86328125,0.5048828,1584707517581,-7054352868781,0.031338565,0,1
1584707519109,NaN,-0.059573207,0.0793457,-0.85595703,0.5041504,1584707517661,-7054352868781,0.031338565,0,1
1584707519113,NaN,-0.027778,0.08935547,-0.8491211,0.50683594,1584707517741,-7054352868781,0.031338565,0,1
1584707519117,NaN,0.013040801,0.08984375,-0.84887695,0.5046387,1584707517821,-7054352868781,0.031338565,0,1
1584707519120,32.608696,0.05581544,0.08984375,-0.84936523,0.5102539,1584707517901,-7054352868781,0.031338565,0,1
1584707519122,NaN,0.08571551,0.0871582,-0.84765625,0.5168457,1584707517981,-7054352868781,0.031338565,0,1
1584707519125,NaN,0.1127991,0.083740234,-0.8449707,0.51464844,1584707518061,-7054352868781,0.031338565,0,1
1584707519128,NaN,0.1402307,0.08227539,-0.8466797,0.5114746,1584707518141,-7054352868781,0.031338565,0,1
1584707519131,NaN,0.16788383,0.07836914,-0.84594727,0.5102539,1584707518221,-7054352868781,0.031338565,0,1
1584707519134,NaN,0.1634279,0.079589844,-0.8457031,0.51293945,1584707518301,-7054352868781,0.031338565,0,1
1584707519137,NaN,0.16186093,0.07714844,-0.8547363,0.5114746,1584707518381,-7054352868781,0.030475557,0,1
1584707519140,NaN,0.12355253,0.07543945,-0.84643555,0.51538086,1584707518461,-7054352868781,0.030475557,0,1
1584707519143,NaN,0.09492097,0.068359375,-0.85375977,0.51416016,1584707518541,-7054352868781,0.030475557,0,1
1584707519146,NaN,0.06016071,0.07543945,-0.8461914,0.52368164,1584707518621,-7054352868781,0.030475557,0,1
1584707519149,NaN,0.03430214,0.064941406,-0.8469238,0.51538086,1584707518701,-7054352868781,0.030475557,0,1
1584707519152,NaN,0.010543206,0.07910156,-0.8486328,0.5046387,1584707518781,-7054352868781,0.030475557,0,1
1584707519155,NaN,-0.007565124,0.067871094,-0.859375,0.5061035,1584707518861,-7054352868781,0.030475557,0,1
1584707519158,NaN,-0.009997854,0.06225586,-0.84814453,0.5019531,1584707518941,-7054352868781,0.030475557,0,1
1584707519161,NaN,-0.025377057,0.06567383,-0.8391113,0.51171875,1584707519021,-7054352868781,0.030475557,0,1
1584707519165,NaN,-0.03431493,0.06689453,-0.83691406,0.4987793,1584707519101,-7054352868781,0.030475557,0,1
1584707519168,NaN,-0.03202562,0.0637207,-0.8491211,0.4892578,1584707519181,-7054352868781,0.030475557,0,1
1584707519171,NaN,-0.007773387,0.0637207,-0.86743164,0.49194336,1584707519261,-7054352868781,0.030475557,0,1
1584707521641,NaN,-0.00459695,0.064941406,-0.8701172,0.51171875,1584707519341,5196001067619,0.030475557,0,1
1584707521663,NaN,0.024642361,0.0715332,-0.8486328,0.5012207,1584707519421,5196001067619,0.030475557,0,1
1584707521667,37.5,0.049179833,0.083496094,-0.8479004,0.49438477,1584707519501,5196001067619,0.030475557,0,1
1584707521674,NaN,0.08668372,0.08251953,-0.8540039,0.5029297,1584707519581,5196001067619,0.030475557,0,1
1584707521678,NaN,0.11091093,0.07714844,-0.85595703,0.50341797,1584707519661,5196001067619,0.030475557,0,1
1584707521684,NaN,0.117609955,0.07080078,-0.8601074,0.5031738,1584707519741,5196001067619,0.030475557,0,1
1584707521688,NaN,0.11184011,0.07470703,-0.8469238,0.501709,1584707519821,5196001067619,0.030475557,0,1
1584707521693,NaN,0.09994486,0.06640625,-0.8508301,0.5095215,1584707519901,5196001067619,0.030475557,0,1
1584707521699,NaN,0.11264062,0.06958008,-0.8527832,0.5058594,1584707519981,5196001067619,0.030475557,0,1
1584707521703,NaN,0.10736435,0.060546875,-0.8520508,0.5097656,1584707520061,5196001067619,0.024804015,0,1
1584707521708,NaN,0.08182236,0.060546875,-0.8532715,0.5061035,1584707520141,5196001067619,0.024804015,0,1
1584707521712,NaN,0.04596362,0.072021484,-0.85913086,0.50561523,1584707520221,5196001067619,0.024804015,0,1
1584707521717,NaN,0.031936705,0.07348633,-0.8479004,0.51123047,1584707520301,5196001067619,0.024804015,0,1
1584707521720,NaN,0.007434327,0.076660156,-0.8508301,0.5217285,1584707520381,5196001067619,0.024804015,0,1
1584707521724,NaN,-0.02705128,0.06298828,-0.8425293,0.51953125,1584707520461,5196001067619,0.024804015,0,1
1584707521728,NaN,-0.06744186,0.05517578,-0.8400879,0.5222168,1584707520541,5196001067619,0.024804015,0,1
1584707521733,NaN,-0.10780451,0.048583984,-0.8442383,0.5307617,1584707520621,5196001067619,0.024804015,0,1
1584707521739,NaN,-0.14155896,0.049316406,-0.83740234,0.5270996,1584707520701,5196001067619,0.024804015,0,1
1584707521743,NaN,-0.16278033,0.059814453,-0.83081055,0.52197266,1584707520781,5196001067619,0.024804015,0,1
1584707521747,NaN,-0.15601069,0.055908203,-0.8457031,0.50146484,1584707520861,5196001067619,0.025644064,0,1
1584707521750,NaN,-0.17278028,0.044433594,-0.8408203,0.50439453,1584707520941,5196001067619,0.025644064,0,1
1584707521753,NaN,-0.18592513,0.05078125,-0.83374023,0.5185547,1584707521021,5196001067619,0.025644064,0,1
1584707521757,NaN,-0.22135484,0.032714844,-0.8330078,0.55444336,1584707521101,5196001067619,0.04018617,0,1
1584707521760,NaN,-0.25264534,0.025878906,-0.83251953,0.54418945,1584707521181,5196001067619,0.04018617,0,1
1584707521763,NaN,-0.26922038,0.011962891,-0.83032227,0.5239258,1584707521261,5196001067619,0.04018617,0,1
1584707521766,NaN,-0.25006178,-0.010253906,-0.8535156,0.5019531,1584707521341,5196001067619,0.04018617,0,1
1584707521770,NaN,-0.20720398,-0.017578125,-0.8664551,0.49487305,1584707521421,5196001067619,0.04018617,0,1
1584707521773,NaN,-0.14317282,-0.032714844,-0.8684082,0.47436523,1584707521501,5196001067619,0.04018617,0,1
1584707521775,NaN,-0.060665574,-0.030273438,-0.8720703,0.46875,1584707521581,5196001067619,0.04018617,0,1
1584707521778,NaN,0.04088213,-0.057861328,-0.8840332,0.45947266,1584707521661,5196001067619,0.04018617,0,1
1584707521781,26.785715,0.14932851,-0.072509766,-0.8833008,0.44995117,1584707521741,5196001067619,0.04018617,0,1
1584707521786,NaN,0.2715236,-0.15136719,-0.904541,0.40673828,1584707521821,5196001067619,0.09239586,0,1
1584707524227,NaN,0.44523755,-0.16479492,-0.9165039,0.37475586,1584707521901,-1000670544665,0.09239586,1,1
1584707524234,NaN,0.6338728,-0.13574219,-0.92822266,0.39111328,1584707521981,-1000670544665,0.09239586,1,1
1584707524239,NaN,0.87211466,-0.15209961,-0.89501953,0.38867188,1584707522061,-1000670544665,0.09239586,1,1
1584707524243,NaN,1.1250981,-0.16381836,-0.8859863,0.35864258,1584707522141,-1000670544665,0.09239586,1,1
1584707524248,NaN,1.3856235,-0.17211914,-0.91625977,0.3161621,1584707522221,-1000670544665,0.09239586,1,1
1584707524252,NaN,1.5769829,-0.17382812,-0.9199219,0.33203125,1584707522301,-1000670544665,0.09239586,1,1
1584707524257,NaN,1.7557746,-0.19165039,-0.9116211,0.31933594,1584707522381,-1000670544665,0.09239586,1,1
1584707524261,NaN,1.922678,-0.20629883,-0.91796875,0.28930664,1584707522461,-1000670544665,0.09239586,1,1
1584707524265,NaN,2.128158,-0.23388672,-0.9489746,0.23706055,1584707522541,-1000670544665,0.09239586,1,1
1584707524268,NaN,2.2679465,-0.23950195,-0.92700195,0.27514648,1584707522621,-1000670544665,0.09239586,1,1
1584707524272,NaN,2.39453,-0.24511719,-0.9399414,0.26489258,1584707522701,-1000670544665,0.09239586,1,1
1584707524275,NaN,2.4083426,-0.23266602,-0.9313965,0.26464844,1584707522781,-1000670544665,0.09239586,1,1
