local_ts,breathing_rate,breathing_signal,accel_x,accel_y,accel_z,bs_timestamp,rs_ts,activity_level,current_exercise,pred_exercise
1584961324910,NaN,0.03488088,-0.049072266,-0.98168945,0.17944336,1584961322127,-6843945912759,0.034572415,0,1
1584961324924,NaN,0.11725599,-0.05126953,-0.97875977,0.18432617,1584961322207,-6843945912759,0.034572415,0,1
1584961324952,NaN,0.21283978,-0.05078125,-0.9760742,0.17211914,1584961322287,-6843945912759,0.034572415,0,1
1584961324954,NaN,0.271957,-0.061767578,-0.9790039,0.18920898,1584961322367,-6843945912759,0.034572415,0,1
1584961324957,NaN,0.31896156,-0.043945312,-0.9746094,0.19702148,1584961322447,-6843945912759,0.034572415,0,1
1584961324959,NaN,0.34924456,-0.045898438,-0.9802246,0.19262695,1584961322527,-6843945912759,0.034572415,0,1
1584961324960,NaN,0.33988807,-0.052734375,-0.9641113,0.20239258,1584961322607,-6843945912759,0.034572415,0,1
1584961324961,NaN,0.33261558,-0.057861328,-0.97753906,0.22192383,1584961322687,-6843945912759,0.034572415,0,1
1584961324977,NaN,0.26588294,-0.052001953,-0.9572754,0.2421875,1584961322767,-6843945912759,0.034572415,0,1
1584961324978,NaN,0.16769457,-0.061523438,-0.9543457,0.2578125,1584961322847,-6843945912759,0.034572415,0,1
1584961324979,NaN,0.046122182,-0.041992188,-0.94970703,0.24975586,1584961322927,-6843945912759,0.034572415,0,1
1584961324980,NaN,-0.052934397,-0.03125,-0.95751953,0.2253418,1584961323007,-6843945912759,0.034572415,0,1
1584961324982,28.846153,-0.105986,-0.05126953,-0.9614258,0.18432617,1584961323087,-6843945912759,0.045807444,0,1
1584961324983,NaN,-0.13743468,-0.057128906,-0.9921875,0.19213867,1584961323167,-6843945912759,0.045807444,0,1
1584961324984,NaN,-0.18876219,-0.03125,-0.9760742,0.1821289,1584961323247,-6843945912759,0.045807444,0,1
1584961324987,NaN,-0.2089055,-0.051757812,-0.9777832,0.18310547,1584961323327,-6843945912759,0.045807444,0,1
1584961324993,NaN,-0.19988067,-0.03881836,-0.98657227,0.17407227,1584961323407,-6843945912759,0.045807444,0,1
1584961324997,NaN,-0.19796139,-0.04711914,-0.9753418,0.17529297,1584961323487,-6843945912759,0.045807444,0,1
1584961325001,NaN,-0.1704328,-0.044921875,-0.98095703,0.17871094,1584961323567,-6843945912759,0.045807444,0,1
1584961325004,NaN,-0.11755842,-0.036621094,-0.98461914,0.17626953,1584961323647,-6843945912759,0.045807444,0,1
1584961325008,NaN,-0.014123212,-0.05053711,-0.97875977,0.17041016,1584961323727,-6843945912759,0.045807444,0,1
1584961325012,NaN,0.11571482,-0.039794922,-0.9682617,0.17602539,1584961323807,-6843945912759,0.045807444,0,1
1584961325016,NaN,0.22076972,-0.0637207,-0.9802246,0.2006836,1584961323887,-6843945912759,0.045807444,0,1
1584961325019,NaN,0.2858182,-0.042236328,-0.96875,0.19311523,1584961323967,-6843945912759,0.045807444,0,1
1584961325023,NaN,0.28239802,-0.040039062,-0.9724121,0.19995117,1584961324047,-6843945912759,0.045807444,0,1
1584961325027,NaN,0.2920538,-0.04638672,-0.9746094,0.1821289,1584961324127,-6843945912759,0.045807444,0,1
1584961325030,NaN,0.2844007,-0.064941406,-0.9790039,0.20141602,1584961324207,-6843945912759,0.045807444,0,1
1584961325033,NaN,0.26257038,-0.04248047,-0.97143555,0.20288086,1584961324287,-6843945912759,0.045807444,0,1
1584961325036,NaN,0.23361628,-0.049072266,-0.9772949,0.18188477,1584961324367,-6843945912759,0.045807444,0,1
1584961325041,NaN,0.21078809,-0.045166016,-0.9902344,0.18969727,1584961324447,-6843945912759,0.045807444,0,1
1584961325045,NaN,0.1528681,-0.01928711,-0.9580078,0.21777344,1584961324527,-6843945912759,0.049965393,0,1
1584961325048,NaN,0.056865443,-0.034179688,-0.9733887,0.24365234,1584961324607,-6843945912759,0.049965393,0,1
1584961327283,NaN,-0.07731358,-0.029052734,-0.9465332,0.25097656,1584961324687,5406408023641,0.049965393,0,1
1584961327290,35.714287,-0.19744599,-0.048095703,-0.9602051,0.2355957,1584961324767,5406408023641,0.049965393,0,1
1584961327297,NaN,-0.26503396,-0.07104492,-0.95947266,0.22387695,1584961324847,5406408023641,0.049965393,0,1
1584961327303,NaN,-0.33556482,-0.06225586,-0.9580078,0.24267578,1584961324927,5406408023641,0.049965393,0,1
1584961327309,NaN,-0.35325766,-0.044921875,-0.9477539,0.22949219,1584961325007,5406408023641,0.049965393,0,1
1584961327313,NaN,-0.38970312,-0.079589844,-0.9680176,0.21826172,1584961325087,5406408023641,0.049965393,0,1
1584961327316,NaN,-0.37840104,-0.056396484,-0.9753418,0.20629883,1584961325167,5406408023641,0.049965393,0,1
1584961327319,NaN,-0.3815007,-0.016113281,-0.9621582,0.22509766,1584961325247,5406408023641,0.049965393,0,1
1584961327324,NaN,-0.40140948,-0.04711914,-0.986084,0.21801758,1584961325327,5406408023641,0.049965393,0,1
1584961327327,NaN,-0.41926727,-0.047851562,-0.96313477,0.21679688,1584961325407,5406408023641,0.049965393,0,1
1584961327330,NaN,-0.38231316,-0.056640625,-0.9584961,0.21728516,1584961325487,5406408023641,0.049965393,0,1
1584961327334,NaN,-0.2894186,-0.052978516,-0.9838867,0.203125,1584961325567,5406408023641,0.049965393,0,1
1584961327338,NaN,-0.17479695,-0.05029297,-0.9650879,0.20336914,1584961325647,5406408023641,0.049965393,0,1
1584961327341,NaN,-0.100388914,-0.04736328,-0.96655273,0.20751953,1584961325727,5406408023641,0.049965393,0,1
1584961327344,NaN,-0.056613952,-0.044189453,-0.97631836,0.20141602,1584961325807,5406408023641,0.049965393,0,1
1584961327348,NaN,0.02521661,-0.0625,-0.9667969,0.1965332,1584961325887,5406408023641,0.049965393,0,1
1584961327350,NaN,0.08343601,-0.068359375,-0.982666,0.20117188,1584961325967,5406408023641,0.049965393,0,1
1584961327353,NaN,0.12621923,-0.05078125,-0.97021484,0.20410156,1584961326047,5406408023641,0.049965393,0,1
1584961327356,NaN,0.13670854,-0.05102539,-0.98095703,0.20043945,1584961326127,5406408023641,0.049965393,0,1
1584961327362,NaN,0.16746096,-0.04638672,-0.9699707,0.21435547,1584961326207,5406408023641,0.049965393,0,1
1584961327363,NaN,0.18316899,-0.048583984,-0.9650879,0.22851562,1584961326287,5406408023641,0.049965393,0,1
1584961327365,NaN,0.19071978,-0.043945312,-0.9658203,0.24145508,1584961326367,5406408023641,0.049965393,0,1
1584961327367,NaN,0.17240043,-0.03125,-0.9499512,0.23583984,1584961326447,5406408023641,0.049965393,0,1
1584961327372,NaN,0.100934565,-0.04345703,-0.9555664,0.24047852,1584961326527,5406408023641,0.049965393,0,1
1584961327375,NaN,0.0259073,-0.040283203,-0.9580078,0.24072266,1584961326607,5406408023641,0.049965393,0,1
1584961327379,NaN,-0.018469354,-0.04296875,-0.96240234,0.23120117,1584961326687,5406408023641,0.049965393,0,1
1584961327382,NaN,-0.06556718,-0.04345703,-0.9658203,0.23071289,1584961326767,5406408023641,0.049965393,0,1
1584961327386,28.846153,-0.13322188,-0.04272461,-0.96728516,0.23046875,1584961326847,5406408023641,0.049965393,0,1
1584961327389,NaN,-0.17157388,-0.047607422,-0.97436523,0.20922852,1584961326927,5406408023641,0.049965393,0,1
1584961327392,NaN,-0.17297304,-0.04711914,-0.96777344,0.19042969,1584961327007,5406408023641,0.049965393,0,1
1584961327396,NaN,-0.16155852,-0.04272461,-0.9782715,0.1784668,1584961327087,5406408023641,0.04636744,0,1
1584961327398,NaN,-0.13941415,-0.03857422,-0.96972656,0.17407227,1584961327167,5406408023641,0.04636744,0,1
1584961330063,NaN,-0.06737695,-0.018554688,-0.98535156,0.15893555,1584961327247,-790263588643,0.04636744,0,1
1584961330068,NaN,0.024652863,-0.01928711,-0.98583984,0.15698242,1584961327327,-790263588643,0.04636744,0,1
1584961330074,NaN,0.11953616,-0.044189453,-0.9785156,0.14746094,1584961327407,-790263588643,0.04636744,0,1
1584961330080,NaN,0.22961359,-0.047851562,-0.9790039,0.1550293,1584961327487,-790263588643,0.04636744,0,1
1584961330087,NaN,0.33613047,-0.057861328,-0.98168945,0.15551758,1584961327567,-790263588643,0.04636744,0,1
1584961330091,NaN,0.42922804,-0.060791016,-0.9995117,0.15039062,1584961327647,-790263588643,0.04636744,0,1
1584961330094,NaN,0.5600671,-0.08227539,-1.0202637,0.114746094,1584961327727,-790263588643,0.046505425,0,1
1584961330099,NaN,0.68941814,-0.05126953,-1.0056152,0.11425781,1584961327807,-790263588643,0.046505425,0,1
1584961330105,NaN,0.7876765,-0.03515625,-0.9733887,0.099853516,1584961327887,-790263588643,0.046505425,0,1
1584961330110,NaN,0.802829,0.04638672,-1.0058594,0.16186523,1584961327967,-790263588643,0.107466534,0,1
1584961330114,NaN,0.7206049,0.099365234,-0.97802734,0.24829102,1584961328047,-790263588643,0.107466534,0,1
1584961330118,NaN,0.51806116,0.17895508,-0.8959961,0.34570312,1584961328127,-790263588643,0.15017585,0,1
1584961330123,NaN,0.26121056,0.20043945,-0.93603516,0.35791016,1584961328207,-790263588643,0.15017585,0,1
1584961330127,NaN,0.018930634,0.24145508,-0.9030762,0.29711914,1584961328287,-790263588643,0.15017585,0,1
1584961330131,39.473682,-0.2921778,0.2927246,-0.8342285,0.31713867,1584961328367,-790263588643,0.15017585,0,1
1584961330134,NaN,-0.59678656,0.3725586,-0.8461914,0.27001953,1584961328447,-790263588643,0.15017585,0,1
1584961330138,NaN,-0.9144139,0.43359375,-0.8652344,0.22753906,1584961328527,-790263588643,0.15017585,0,1
1584961330141,NaN,-1.209513,0.3647461,-0.92163086,0.21166992,1584961328607,-790263588643,0.15017585,0,1
1584961330145,NaN,-1.5415869,0.35473633,-0.9519043,0.15771484,1584961328687,-790263588643,0.15017585,0,1
1584961330148,NaN,-1.8517872,0.31567383,-0.90844727,0.1459961,1584961328767,-790263588643,0.15017585,0,1
1584961330151,NaN,-2.1483686,0.30688477,-0.93725586,0.16357422,1584961328847,-790263588643,0.15017585,0,1
1584961330154,NaN,-2.2628891,0.18603516,-0.9655762,0.18115234,1584961328927,-790263588643,0.15017585,0,1
1584961330157,NaN,-2.206334,0.15893555,-0.98828125,0.22290039,1584961329007,-790263588643,0.15017585,0,1
1584961330167,NaN,-1.861966,0.10253906,-1.0043945,0.17163086,1584961329087,-790263588643,0.15017585,0,1
1584961330168,NaN,-1.5314078,0.04711914,-1.0239258,0.29638672,1584961329167,-790263588643,0.15017585,0,1
1584961330169,NaN,-1.2749782,0.0041503906,-0.9436035,0.34350586,1584961329247,-790263588643,0.15017585,0,1
1584961330170,NaN,-0.9890013,0.076416016,-0.90600586,0.40527344,1584961329327,-790263588643,0.15017585,0,1
1584961330172,NaN,-0.7174303,0.07739258,-0.90283203,0.4008789,1584961329407,-790263588643,0.15017585,0,1
1584961330175,NaN,-0.5001407,0.16088867,-0.8483887,0.39770508,1584961329487,-790263588643,0.15017585,0,1
1584961330179,NaN,-0.3311811,0.100097656,-0.84155273,0.3774414,1584961329567,-790263588643,0.15017585,0,1
1584961330182,NaN,-0.23457162,0.17797852,-0.8964844,0.3876953,1584961329647,-790263588643,0.15017585,0,1
1584961330187,NaN,-0.17637603,0.24438477,-0.9094238,0.37817383,1584961329727,-790263588643,0.15017585,0,1
1584961332452,NaN,-0.13191159,0.30859375,-0.8935547,0.36669922,1584961329807,-6986653725951,0.15017585,0,1
1584961332457,NaN,-0.2194072,0.3256836,-0.8601074,0.3244629,1584961329887,-6986653725951,0.15017585,0,1
1584961332464,NaN,-0.38398704,0.34570312,-0.86499023,0.3310547,1584961329967,-6986653725951,0.15017585,0,1
1584961332470,NaN,-0.80967027,0.35107422,-0.8718262,0.35351562,1584961330047,-6986653725951,0.15017585,0,1
1584961332475,NaN,-1.1301126,0.31420898,-0.8684082,0.35766602,1584961330127,-6986653725951,0.15017585,0,1
1584961332480,NaN,-1.3733941,0.3269043,-0.8901367,0.375,1584961330207,-6986653725951,0.15017585,0,1
1584961332485,NaN,-1.507669,0.25,-0.8881836,0.42089844,1584961330287,-6986653725951,0.15017585,0,1
1584961332491,NaN,-1.6480831,0.23828125,-0.8461914,0.42578125,1584961330367,-6986653725951,0.15017585,0,1
1584961332495,NaN,-1.6211921,0.17700195,-0.8754883,0.40283203,1584961330447,-6986653725951,0.15017585,0,1
1584961332500,NaN,-1.6017199,0.19311523,-0.88720703,0.40234375,1584961330527,-6986653725951,0.15017585,0,1
1584961332504,NaN,-1.5099126,0.34179688,-0.86035156,0.33154297,1584961330607,-6986653725951,0.16685382,0,1
1584961332508,NaN,-1.3419412,0.33203125,-0.9013672,0.29785156,1584961330687,-6986653725951,0.16685382,0,1
1584961332511,NaN,-1.1357766,0.31811523,-0.8684082,0.27905273,1584961330767,-6986653725951,0.16685382,0,1
1584961332514,NaN,-0.88994193,0.3864746,-0.98413086,0.25708008,1584961330847,-6986653725951,0.16685382,0,1
1584961332518,NaN,-0.60859686,0.36938477,-0.8547363,0.14746094,1584961330927,-6986653725951,0.17044461,0,1
1584961332521,NaN,-0.1943724,0.37231445,-0.8828125,0.10449219,1584961331007,-6986653725951,0.17044461,0,1
1584961332525,NaN,0.1396632,0.3869629,-0.91552734,0.13061523,1584961331087,-6986653725951,0.17044461,0,1
1584961332528,NaN,0.5425243,0.42626953,-1.0112305,0.032470703,1584961331167,-6986653725951,0.17044461,0,1
1584961332532,NaN,0.8760741,0.5637207,-0.9133301,-0.045410156,1584961331247,-6986653725951,0.18585677,0,1
1584961332535,NaN,1.2828794,0.6062012,-0.7878418,-0.13427734,1584961331327,-6986653725951,0.18585677,0,1
1584961332538,NaN,1.5438486,0.6491699,-0.7536621,-0.103271484,1584961331407,-6986653725951,0.18585677,0,1
1584961332542,NaN,1.8902413,0.6184082,-0.8039551,-0.1159668,1584961331487,-6986653725951,0.18585677,0,1
1584961332545,NaN,2.1771364,0.63793945,-0.9069824,-0.0390625,1584961331567,-6986653725951,0.18585677,0,1
1584961332548,NaN,2.3305519,0.48364258,-0.888916,0.045898438,1584961331647,-6986653725951,0.18585677,0,1
1584961332551,NaN,2.409349,0.38305664,-0.90649414,0.111572266,1584961331727,-6986653725951,0.18585677,0,1
1584961332554,NaN,2.3929508,0.32470703,-0.9609375,0.19384766,1584961331807,-6986653725951,0.18585677,0,1
1584961332557,NaN,2.2527776,0.20117188,-0.9038086,0.21948242,1584961331887,-6986653725951,0.18585677,0,1
1584961332560,NaN,1.9599876,0.14990234,-0.9177246,0.30322266,1584961331967,-6986653725951,0.18585677,0,1
1584961332563,NaN,1.6049647,0.050048828,-0.8979492,0.42163086,1584961332047,-6986653725951,0.18585677,0,1
1584961332566,NaN,1.0200735,0.07470703,-0.9121094,0.45654297,1584961332127,-6986653725951,0.18585677,0,1
1584961332571,NaN,0.3748792,0.1262207,-0.84155273,0.421875,1584961332207,-6986653725951,0.18585677,0,1
1584961332576,NaN,-0.44088808,0.22143555,-0.86328125,0.47216797,1584961332287,-6986653725951,0.18585677,0,1
1584961335037,NaN,-1.1797961,0.115234375,-0.84643555,0.44262695,1584961332367,5263700210449,0.18585677,0,1
1584961335042,NaN,-2.0248277,0.118896484,-0.8779297,0.48413086,1584961332447,5263700210449,0.18585677,0,1
1584961335048,NaN,-2.759799,0.1809082,-0.8605957,0.46972656,1584961332527,5263700210449,0.18585677,0,1
1584961335054,NaN,-3.2771099,0.17675781,-0.8684082,0.41308594,1584961332607,5263700210449,0.18585677,0,1
1584961335058,NaN,-3.7010753,0.16992188,-0.8635254,0.43481445,1584961332687,5263700210449,0.18585677,0,1
1584961335063,NaN,-4.010985,0.17529297,-0.88305664,0.4609375,1584961332767,5263700210449,0.18585677,0,1
1584961335068,NaN,-4.2074485,0.13452148,-0.8691406,0.4909668,1584961332847,5263700210449,0.18585677,0,1
1584961335072,NaN,-4.227757,0.12451172,-0.8564453,0.47021484,1584961332927,5263700210449,0.18585677,0,1
1584961335076,NaN,-4.0635223,0.115722656,-0.83984375,0.46948242,1584961333007,5263700210449,0.18585677,0,1
1584961335081,NaN,-3.7614744,0.122802734,-0.83984375,0.4831543,1584961333087,5263700210449,0.18585677,0,1
1584961335084,NaN,-3.389157,0.14111328,-0.83740234,0.45166016,1584961333167,5263700210449,0.18585677,0,1
1584961335088,NaN,-2.8563058,0.17138672,-0.85058594,0.41992188,1584961333247,5263700210449,0.18585677,0,1
1584961335091,NaN,-2.307688,0.23999023,-0.875,0.3918457,1584961333327,5263700210449,0.18585677,0,1
1584961335094,NaN,-1.5809804,0.31152344,-0.92700195,0.29736328,1584961333407,5263700210449,0.18585677,0,1
1584961335097,NaN,NaN,0.55444336,-1.0461426,0.08227539,1584961333487,5263700210449,0.34564054,0,1
1584961335101,NaN,NaN,0.79541016,-0.8251953,-0.11669922,1584961333567,5263700210449,0.38271868,0,1
1584961335104,NaN,NaN,0.81884766,-0.829834,-0.22045898,1584961333647,5263700210449,0.38271868,0,1
1584961335107,NaN,NaN,0.7426758,-0.8132324,-0.2548828,1584961333727,5263700210449,0.38271868,0,1
1584961335109,NaN,NaN,0.71777344,-0.78222656,-0.28466797,1584961333807,5263700210449,0.38271868,0,1
1584961335113,NaN,NaN,0.59936523,-0.71875,-0.2993164,1584961333887,5263700210449,0.38271868,0,1
1584961335116,NaN,NaN,0.5776367,-0.765625,-0.26049805,1584961333967,5263700210449,0.38271868,0,1
1584961335119,NaN,NaN,0.48339844,-0.8005371,-0.20825195,1584961334047,5263700210449,0.38271868,0,1
1584961335122,NaN,NaN,0.41381836,-0.87060547,-0.15673828,1584961334127,5263700210449,0.38271868,0,1
1584961335125,NaN,NaN,0.37475586,-0.9108887,-0.059570312,1584961334207,5263700210449,0.38271868,0,1
1584961335129,NaN,NaN,0.31762695,-0.9121094,0.0017089844,1584961334287,5263700210449,0.38271868,0,1
1584961335132,NaN,NaN,0.25,-0.83740234,0.08325195,1584961334367,5263700210449,0.38271868,0,1
1584961335135,NaN,NaN,0.20800781,-0.828125,0.100097656,1584961334447,5263700210449,0.38271868,0,1
1584961335141,NaN,NaN,0.17626953,-0.93603516,0.19189453,1584961334527,5263700210449,0.38271868,0,1
1584961335143,NaN,NaN,0.16137695,-0.92407227,0.24511719,1584961334607,5263700210449,0.38271868,0,1
1584961335145,NaN,NaN,0.125,-0.90527344,0.24291992,1584961334687,5263700210449,0.38271868,0,1
1584961335148,NaN,NaN,0.13598633,-0.94433594,0.24487305,1584961334767,5263700210449,0.38271868,0,1
1584961335151,NaN,NaN,0.1459961,-0.939209,0.234375,1584961334847,5263700210449,0.38271868,0,1
1584961337620,NaN,NaN,0.17407227,-0.9609375,0.25952148,1584961334927,-932971401835,0.38271868,0,1
1584961337627,NaN,NaN,0.16235352,-0.95874023,0.24633789,1584961335007,-932971401835,0.38271868,0,1
1584961337633,NaN,NaN,0.1694336,-0.95996094,0.26464844,1584961335087,-932971401835,0.38271868,0,1
1584961337641,NaN,NaN,0.1640625,-0.92871094,0.25708008,1584961335167,-932971401835,0.38271868,0,1
1584961337647,NaN,NaN,0.17578125,-0.89038086,0.24829102,1584961335247,-932971401835,0.38271868,0,1
1584961337654,NaN,NaN,0.15966797,-0.8989258,0.2939453,1584961335327,-932971401835,0.38271868,0,1
1584961337658,NaN,NaN,0.25317383,-0.8391113,0.22607422,1584961335407,-932971401835,0.38271868,0,1
1584961337664,NaN,NaN,0.25463867,-0.82788086,0.17895508,1584961335487,-932971401835,0.38271868,0,1
1584961337670,NaN,NaN,0.36010742,-0.8342285,0.1315918,1584961335567,-932971401835,0.38271868,0,1
1584961337674,NaN,NaN,0.4819336,-0.80981445,0.10229492,1584961335647,-932971401835,0.38271868,0,1
1584961337679,NaN,NaN,0.58862305,-0.84155273,0.009033203,1584961335727,-932971401835,0.38271868,0,1
1584961337684,NaN,NaN,0.62841797,-0.7636719,-0.007080078,1584961335807,-932971401835,0.38271868,0,1
1584961337689,NaN,NaN,0.73046875,-0.72436523,-0.10522461,1584961335887,-932971401835,0.38271868,0,1
1584961337693,NaN,NaN,0.90722656,-0.75683594,-0.20776367,1584961335967,-932971401835,0.38271868,0,1
1584961337695,NaN,NaN,0.7631836,-0.5969238,-0.33203125,1584961336047,-932971401835,0.38271868,0,1
1584961337699,NaN,-0.4038225,0.8701172,-0.5419922,-0.34960938,1584961336127,-932971401835,0.248521,0,1
1584961337703,NaN,0.68161535,0.77124023,-0.4309082,-0.4345703,1584961336207,-932971401835,0.248521,0,1
1584961337705,NaN,1.9305159,0.8779297,-0.36547852,-0.5175781,1584961336287,-932971401835,0.248521,0,1
1584961337709,NaN,3.28868,0.8703613,-0.31713867,-0.55126953,1584961336367,-932971401835,0.248521,0,1
1584961337712,NaN,4.770944,0.8730469,-0.3232422,-0.5683594,1584961336447,-932971401835,0.248521,0,1
1584961337715,NaN,6.1533647,0.88256836,-0.31835938,-0.51342773,1584961336527,-932971401835,0.248521,0,1
1584961337718,NaN,7.388808,0.7817383,-0.31860352,-0.5058594,1584961336607,-932971401835,0.248521,0,1
1584961337722,NaN,8.612958,0.8574219,-0.2680664,-0.49926758,1584961336687,-932971401835,0.248521,0,1
1584961337725,NaN,9.731374,0.87060547,-0.29541016,-0.54174805,1584961336767,-932971401835,0.248521,0,1
1584961337728,NaN,10.677873,0.84350586,-0.28588867,-0.52124023,1584961336847,-932971401835,0.248521,0,1
1584961337731,NaN,11.481746,0.8430176,-0.28759766,-0.52612305,1584961336927,-932971401835,0.248521,0,1
1584961337733,NaN,12.047882,0.81762695,-0.31054688,-0.5163574,1584961337007,-932971401835,0.248521,0,1
1584961337736,NaN,11.581234,0.88256836,-0.31640625,-0.54418945,1584961337087,-932971401835,0.248521,0,1
1584961337740,NaN,10.921802,0.87768555,-0.35498047,-0.52075195,1584961337167,-932971401835,0.248521,0,1
1584961337742,NaN,9.987363,0.83569336,-0.33666992,-0.50219727,1584961337247,-932971401835,0.248521,0,1
1584961337744,NaN,8.788074,0.8815918,-0.40795898,-0.45532227,1584961337327,-932971401835,0.248521,0,1
1584961337747,NaN,7.3816032,0.8239746,-0.46948242,-0.42114258,1584961337407,-932971401835,0.248521,0,1
1584961340205,NaN,5.945986,0.80688477,-0.560791,-0.38452148,1584961337487,-7129361539143,0.248521,0,1
1584961340210,NaN,4.4441466,0.73950195,-0.62841797,-0.24243164,1584961337567,-7129361539143,0.248521,0,1
1584961340215,NaN,2.8271205,0.64746094,-0.7661133,-0.2290039,1584961337647,-7129361539143,0.248521,0,1
1584961340219,NaN,1.1749796,0.6040039,-0.89941406,-0.171875,1584961337727,-7129361539143,0.248521,0,1
1584961340226,NaN,-0.3794029,0.45751953,-0.8562012,-0.10473633,1584961337807,-7129361539143,0.248521,0,1
1584961340230,NaN,-1.9101571,0.39379883,-0.86572266,-0.042236328,1584961337887,-7129361539143,0.248521,0,1
1584961340234,NaN,-3.3818738,0.31298828,-0.87280273,0.018310547,1584961337967,-7129361539143,0.248521,0,1
1584961340238,NaN,-4.491287,0.30249023,-0.9782715,0.1171875,1584961338047,-7129361539143,0.248521,0,1
1584961340241,NaN,-5.5032825,0.21826172,-0.9692383,0.17675781,1584961338127,-7129361539143,0.248521,0,1
1584961340244,NaN,-6.464972,0.15942383,-0.92626953,0.19848633,1584961338207,-7129361539143,0.248521,0,1
1584961340248,NaN,-7.3076477,0.1237793,-0.9309082,0.21313477,1584961338287,-7129361539143,0.248521,0,1
1584961340253,NaN,-8.033715,0.17333984,-0.9916992,0.22583008,1584961338367,-7129361539143,0.248521,0,1
1584961340257,NaN,-8.581149,0.21484375,-0.9604492,0.18139648,1584961338447,-7129361539143,0.248521,0,1
1584961340261,NaN,-8.847057,0.23339844,-0.93115234,0.17529297,1584961338527,-7129361539143,0.248521,0,1
1584961340266,NaN,-8.882759,0.2446289,-0.96313477,0.1315918,1584961338607,-7129361539143,0.17127365,0,1
1584961340270,NaN,-8.749146,0.23291016,-0.9536133,0.16723633,1584961338687,-7129361539143,0.17127365,0,1
1584961340273,NaN,-8.535298,0.18798828,-0.95092773,0.23266602,1584961338767,-7129361539143,0.17118227,0,1
1584961340276,NaN,-8.197938,0.13989258,-0.95874023,0.23706055,1584961338847,-7129361539143,0.17118227,0,1
1584961340279,NaN,-7.749596,0.13427734,-0.9279785,0.27807617,1584961338927,-7129361539143,0.17118227,0,1
1584961340282,NaN,-7.054861,0.14331055,-0.93969727,0.28027344,1584961339007,-7129361539143,0.17118227,0,1
1584961340286,NaN,-6.209644,0.15478516,-0.95092773,0.25854492,1584961339087,-7129361539143,0.17118227,0,1
1584961340290,NaN,-5.238317,0.29760742,-0.87475586,0.27026367,1584961339167,-7129361539143,0.17118227,0,1
1584961340293,NaN,-4.125474,0.32250977,-0.9897461,0.111816406,1584961339247,-7129361539143,0.19735353,0,1
1584961340295,NaN,-2.970403,0.45410156,-1.0344238,0.026123047,1584961339327,-7129361539143,0.19735353,0,1
1584961340299,NaN,-1.877195,0.5534668,-0.84106445,-0.07495117,1584961339407,-7129361539143,0.23974423,0,1
1584961340304,NaN,-0.8662622,0.60913086,-0.7414551,-0.1784668,1584961339487,-7129361539143,0.23974423,0,1
1584961340307,NaN,0.07703503,0.63549805,-0.7573242,-0.2578125,1584961339567,-7129361539143,0.23974423,0,1
1584961340310,NaN,1.0132445,0.58081055,-0.7468262,-0.29248047,1584961339647,-7129361539143,0.23974423,0,1
1584961340312,NaN,1.9485761,0.50219727,-0.6750488,-0.29077148,1584961339727,-7129361539143,0.23974423,0,1
1584961340316,NaN,2.8462257,0.47924805,-0.8095703,-0.30981445,1584961339807,-7129361539143,0.23974423,0,1
1584961340318,NaN,3.602547,0.4711914,-0.82836914,-0.16967773,1584961339887,-7129361539143,0.23974423,0,1
1584961340321,NaN,4.1542664,0.39038086,-0.9736328,-0.09741211,1584961339967,-7129361539143,0.23974423,0,1
1584961342786,NaN,4.5221066,0.4555664,-1.1987305,-0.08154297,1584961340047,5120992397257,0.23974423,0,1
1584961342795,NaN,NaN,0.21875,-1.0063477,0.044921875,1584961340127,5120992397257,0.33028248,0,1
1584961342800,NaN,NaN,0.1352539,-0.7753906,0.123046875,1584961340207,5120992397257,0.33028248,0,1
1584961342808,NaN,NaN,0.2253418,-0.95410156,0.14575195,1584961340287,5120992397257,0.33028248,0,1
1584961342813,NaN,NaN,0.25830078,-1.0180664,0.19555664,1584961340367,5120992397257,0.33028248,0,1
1584961342820,NaN,NaN,0.30004883,-0.9211426,0.2043457,1584961340447,5120992397257,0.33028248,0,1
1584961342825,NaN,NaN,0.2836914,-0.8581543,0.20800781,1584961340527,5120992397257,0.33028248,0,1
1584961342830,NaN,NaN,0.29345703,-0.9694824,0.20751953,1584961340607,5120992397257,0.33028248,0,1
1584961342836,NaN,NaN,0.34228516,-0.9091797,0.21508789,1584961340687,5120992397257,0.33028248,0,1
1584961342841,NaN,NaN,0.31176758,-0.8745117,0.23583984,1584961340767,5120992397257,0.33028248,0,1
1584961342847,NaN,NaN,0.30786133,-0.9423828,0.21777344,1584961340847,5120992397257,0.33028248,0,1
1584961342850,NaN,NaN,0.3947754,-1.043457,0.1784668,1584961340927,5120992397257,0.33028248,0,1
1584961342854,NaN,NaN,0.66845703,-1.0454102,0.09277344,1584961341007,5120992397257,0.33028248,0,1
1584961342857,NaN,NaN,0.6279297,-0.9316406,-0.06518555,1584961341087,5120992397257,0.33028248,0,1
1584961342861,NaN,NaN,0.64331055,-0.9033203,-0.1550293,1584961341167,5120992397257,0.33028248,0,1
1584961342864,NaN,NaN,0.58251953,-0.8479004,-0.16357422,1584961341247,5120992397257,0.33028248,0,1
1584961342868,NaN,NaN,0.57714844,-0.83862305,-0.1550293,1584961341327,5120992397257,0.33028248,0,1
1584961342871,NaN,NaN,0.4892578,-0.8708496,-0.11376953,1584961341407,5120992397257,0.33028248,0,1
1584961342875,NaN,NaN,0.4494629,-0.85839844,-0.059570312,1584961341487,5120992397257,0.33028248,0,1
1584961342878,NaN,NaN,0.37768555,-0.8125,-0.020019531,1584961341567,5120992397257,0.33028248,0,1
1584961342882,NaN,NaN,0.3425293,-0.8171387,0.03125,1584961341647,5120992397257,0.33028248,0,1
1584961342885,NaN,NaN,0.29492188,-0.84277344,0.06738281,1584961341727,5120992397257,0.33028248,0,1
1584961342888,NaN,NaN,0.27856445,-0.8942871,0.12475586,1584961341807,5120992397257,0.33028248,0,1
1584961342893,NaN,NaN,0.21606445,-0.87939453,0.13085938,1584961341887,5120992397257,0.33028248,0,1
1584961342896,NaN,NaN,0.20043945,-0.9267578,0.19067383,1584961341967,5120992397257,0.33028248,0,1
1584961342900,NaN,NaN,0.1862793,-0.9370117,0.18652344,1584961342047,5120992397257,0.33028248,0,1
1584961342903,NaN,NaN,0.19213867,-0.9411621,0.21533203,1584961342127,5120992397257,0.33028248,0,1
1584961342907,NaN,NaN,0.18969727,-0.9394531,0.20385742,1584961342207,5120992397257,0.33028248,0,1
1584961342910,NaN,NaN,0.21240234,-0.93359375,0.1772461,1584961342287,5120992397257,0.33028248,0,1
1584961342913,NaN,NaN,0.21801758,-0.9885254,0.18945312,1584961342367,5120992397257,0.33028248,0,1
1584961342916,NaN,NaN,0.24316406,-0.953125,0.17919922,1584961342447,5120992397257,0.33028248,0,1
1584961342919,NaN,NaN,0.24414062,-0.94311523,0.15356445,1584961342527,5120992397257,0.33028248,0,1
1584961345370,NaN,NaN,0.23876953,-0.95336914,0.1484375,1584961342607,-1075679215027,0.33028248,0,1
1584961345377,NaN,4.5350075,0.24291992,-0.93969727,0.15771484,1584961342687,-1075679215027,0.28679052,0,1
1584961345382,NaN,4.315705,0.24389648,-0.9423828,0.15771484,1584961342767,-1075679215027,0.28679052,0,1
1584961345390,NaN,3.9096487,0.27319336,-0.9187012,0.16210938,1584961342847,-1075679215027,0.28679052,0,1
1584961345396,NaN,3.2819815,0.26757812,-0.888916,0.14868164,1584961342927,-1075679215027,0.28679052,0,1
1584961345400,NaN,2.452287,0.26953125,-0.8737793,0.1303711,1584961343007,-1075679215027,0.28679052,0,1
1584961345404,NaN,1.5691577,0.34423828,-0.8378906,0.109375,1584961343087,-1075679215027,0.28679052,0,1
1584961345407,NaN,0.7006323,0.38134766,-0.8261719,0.057128906,1584961343167,-1075679215027,0.28679052,0,1
1584961345410,NaN,-0.12725757,0.48339844,-0.82836914,0.033447266,1584961343247,-1075679215027,0.28679052,0,1
1584961345413,NaN,-0.87264204,0.51293945,-0.7570801,-0.03564453,1584961343327,-1075679215027,0.28679052,0,1
1584961345416,NaN,-1.3474787,0.5944824,-0.76293945,-0.09741211,1584961343407,-1075679215027,0.28679052,0,1
1584961345419,NaN,-1.4850785,0.7026367,-0.82055664,-0.16723633,1584961343487,-1075679215027,0.28679052,0,1
1584961345422,NaN,-1.4466008,0.84399414,-0.79467773,-0.15893555,1584961343567,-1075679215027,0.19883916,0,1
1584961345425,NaN,-0.9554784,0.78637695,-0.78125,-0.17895508,1584961343647,-1075679215027,0.14394632,0,1
1584961345429,NaN,-0.394933,0.795166,-0.71850586,-0.14038086,1584961343727,-1075679215027,0.14394632,0,1
1584961345432,NaN,0.18686692,0.7644043,-0.6940918,-0.091308594,1584961343807,-1075679215027,0.14394632,0,1
1584961345435,NaN,0.7819243,0.6660156,-0.81933594,-0.03564453,1584961343887,-1075679215027,0.16871548,0,1
1584961345439,NaN,1.3717971,0.7104492,-0.99365234,0.03540039,1584961343967,-1075679215027,0.1934113,0,1
1584961345443,NaN,1.7953992,0.5305176,-0.96240234,0.12719727,1584961344047,-1075679215027,0.2043982,0,1
1584961345446,NaN,2.0605228,0.3305664,-0.84155273,0.16186523,1584961344127,-1075679215027,0.23619264,0,1
1584961345449,NaN,2.1429322,0.28198242,-0.84887695,0.1850586,1584961344207,-1075679215027,0.23619264,0,1
1584961345452,NaN,2.0342424,0.34326172,-0.9379883,0.20263672,1584961344287,-1075679215027,0.23619264,0,1
1584961345455,NaN,1.6260227,0.29711914,-0.93530273,0.24707031,1584961344367,-1075679215027,0.23619264,0,1
1584961345458,NaN,0.9388836,0.29125977,-0.90063477,0.25097656,1584961344447,-1075679215027,0.23619264,0,1
1584961345461,NaN,0.077155985,0.28320312,-0.9250488,0.23071289,1584961344527,-1075679215027,0.23619264,0,1
1584961345463,NaN,-0.9809809,0.30859375,-0.9189453,0.23925781,1584961344607,-1075679215027,0.23619264,0,1
1584961345466,NaN,-1.9918085,0.34057617,-0.9169922,0.21875,1584961344687,-1075679215027,0.23619264,0,1
1584961345470,NaN,-2.8751411,0.34057617,-0.9074707,0.18798828,1584961344767,-1075679215027,0.23619264,0,1
1584961345473,NaN,-3.4653091,0.38305664,-0.90063477,0.15332031,1584961344847,-1075679215027,0.23619264,0,1
1584961345476,NaN,-3.8963203,0.41333008,-0.8803711,0.16479492,1584961344927,-1075679215027,0.23619264,0,1
1584961345479,NaN,-3.9844544,0.45922852,-0.88916016,0.18408203,1584961345007,-1075679215027,0.23619264,0,1
1584961345482,NaN,-3.8173172,0.4873047,-0.8347168,0.1809082,1584961345087,-1075679215027,0.23619264,0,1
1584961347956,NaN,-3.4900827,0.51000977,-0.83325195,0.1586914,1584961345167,-7272069352336,0.23619264,0,1
1584961347960,NaN,-3.044196,0.5439453,-0.8195801,0.12866211,1584961345247,-7272069352336,0.23619264,0,1
1584961347967,NaN,-2.313279,0.6245117,-0.8574219,0.0063476562,1584961345327,-7272069352336,0.23619264,0,1
1584961347971,NaN,-1.3288125,0.80126953,-0.828125,-0.12475586,1584961345407,-7272069352336,0.23619264,0,1
1584961347974,NaN,-0.17595072,0.8671875,-0.748291,-0.20703125,1584961345487,-7272069352336,0.23619264,0,1
1584961347977,NaN,0.9790025,0.8798828,-0.69189453,-0.22314453,1584961345567,-7272069352336,0.23619264,0,1
1584961347981,NaN,2.0360572,0.8100586,-0.7121582,-0.24267578,1584961345647,-7272069352336,0.23619264,0,1
1584961347984,NaN,2.9941761,0.79052734,-0.71362305,-0.25268555,1584961345727,-7272069352336,0.23619264,0,1
1584961347988,NaN,3.7240918,0.7441406,-0.7077637,-0.2355957,1584961345807,-7272069352336,0.23619264,0,1
1584961347991,NaN,4.314037,0.6586914,-0.7607422,-0.19946289,1584961345887,-7272069352336,0.23619264,0,1
1584961347995,NaN,4.644238,0.5529785,-0.7873535,-0.13842773,1584961345967,-7272069352336,0.23619264,0,1
1584961347997,NaN,4.7234263,0.5019531,-0.8120117,-0.072509766,1584961346047,-7272069352336,0.23619264,0,1
1584961348000,NaN,4.6444626,0.44580078,-0.82836914,-0.0017089844,1584961346127,-7272069352336,0.23619264,0,1
1584961348003,NaN,4.4601808,0.36279297,-0.8378906,0.018554688,1584961346207,-7272069352336,0.23619264,0,1
1584961348006,NaN,3.9809265,0.34960938,-0.8466797,0.0715332,1584961346287,-7272069352336,0.23619264,0,1
1584961348009,NaN,3.0942094,0.29785156,-0.87597656,0.11669922,1584961346367,-7272069352336,0.23619264,0,1
1584961348012,NaN,1.9542694,0.28637695,-0.8886719,0.15283203,1584961346447,-7272069352336,0.23619264,0,1
1584961348015,NaN,0.69418526,0.24389648,-0.89868164,0.1875,1584961346527,-7272069352336,0.23619264,0,1
1584961348019,NaN,-0.5434261,0.20825195,-0.8857422,0.24414062,1584961346607,-7272069352336,0.23619264,0,1
1584961348022,NaN,-1.7626671,0.24414062,-0.9399414,0.25805664,1584961346687,-7272069352336,0.22201298,0,1
1584961348025,NaN,-2.8907413,0.21264648,-0.9301758,0.26489258,1584961346767,-7272069352336,0.22201298,0,1
1584961348029,NaN,-3.8453658,0.22924805,-0.9343262,0.29638672,1584961346847,-7272069352336,0.22201298,0,1
1584961348032,NaN,-4.6080956,0.2121582,-0.93115234,0.30517578,1584961346927,-7272069352336,0.22201298,0,1
1584961348048,NaN,-5.1905837,0.20629883,-0.9074707,0.30810547,1584961347007,-7272069352336,0.22201298,0,1
1584961348048,NaN,-5.6052284,0.21362305,-0.9226074,0.32421875,1584961347087,-7272069352336,0.22201298,0,1
1584961348049,NaN,-5.87499,0.21118164,-0.90600586,0.33569336,1584961347167,-7272069352336,0.22201298,0,1
1584961348050,NaN,-5.980879,0.20874023,-0.8955078,0.3413086,1584961347247,-7272069352336,0.22201298,0,1
1584961348051,NaN,-5.7951074,0.20605469,-0.89038086,0.33422852,1584961347327,-7272069352336,0.22201298,0,1
1584961348052,NaN,-5.4228015,0.19311523,-0.90405273,0.33007812,1584961347407,-7272069352336,0.22201298,0,1
1584961348055,NaN,-4.8814683,0.2043457,-0.8959961,0.31518555,1584961347487,-7272069352336,0.22201298,0,1
1584961348058,NaN,-4.2506986,0.19458008,-0.9008789,0.3154297,1584961347567,-7272069352336,0.22201298,0,1
1584961348060,NaN,-3.5748062,0.23779297,-0.8886719,0.27734375,1584961347647,-7272069352336,0.22201298,0,1
1584961350341,NaN,-2.8600447,0.24267578,-0.9025879,0.23217773,1584961347727,4978284584065,0.22201298,0,1
1584961350346,NaN,-2.1195028,0.3461914,-0.8598633,0.17626953,1584961347807,4978284584065,0.22201298,0,1
1584961350350,NaN,-1.3805805,0.39233398,-0.9135742,0.08984375,1584961347887,4978284584065,0.22201298,0,1
1584961350356,NaN,-0.63422036,0.46142578,-0.79345703,0.033691406,1584961347967,4978284584065,0.14951555,0,1
1584961350360,NaN,0.1373883,0.53564453,-0.7956543,-0.041748047,1584961348047,4978284584065,0.14951555,0,1
1584961350366,NaN,0.9325468,0.5878906,-0.7675781,-0.10180664,1584961348127,4978284584065,0.14951555,0,1
1584961350370,NaN,1.792566,0.6230469,-0.6594238,-0.18896484,1584961348207,4978284584065,0.14951555,0,1
1584961350373,NaN,2.701748,0.7680664,-0.62890625,-0.19702148,1584961348287,4978284584065,0.14951555,0,1
1584961350377,NaN,3.7158816,0.77563477,-0.6369629,-0.37182617,1584961348367,4978284584065,0.17515384,0,1
1584961350381,NaN,4.630076,0.8210449,-0.6020508,-0.2861328,1584961348447,4978284584065,0.17515384,0,1
1584961350385,NaN,5.5452943,0.96972656,-0.5432129,-0.2175293,1584961348527,4978284584065,0.17515384,0,1
1584961350389,NaN,6.382915,0.9511719,-0.5070801,-0.2553711,1584961348607,4978284584065,0.17515384,0,1
1584961350393,NaN,7.079431,0.97387695,-0.5595703,-0.22216797,1584961348687,4978284584065,0.17515384,0,1
1584961350398,NaN,7.478464,0.91845703,-0.5847168,-0.15917969,1584961348767,4978284584065,0.17515384,0,1
1584961350402,NaN,7.6079903,0.8376465,-0.6374512,-0.03857422,1584961348847,4978284584065,0.17515384,0,1
1584961350407,NaN,7.3619943,0.7854004,-0.7751465,0.107666016,1584961348927,4978284584065,0.20754725,0,1
1584961350410,NaN,6.8118243,0.671875,-0.8798828,0.20141602,1584961349007,4978284584065,0.20754725,0,1
1584961350414,NaN,6.0424557,0.45947266,-0.8339844,0.25048828,1584961349087,4978284584065,0.22277682,0,1
1584961350417,NaN,5.0289054,0.35302734,-0.78393555,0.27294922,1584961349167,4978284584065,0.22277682,0,1
1584961350420,NaN,3.7530262,0.35766602,-0.8666992,0.32299805,1584961349247,4978284584065,0.22277682,0,1
1584961350425,NaN,2.1802847,0.33935547,-0.9001465,0.38916016,1584961349327,4978284584065,0.22277682,0,1
1584961350428,NaN,0.6266017,0.27612305,-0.87841797,0.38378906,1584961349407,4978284584065,0.22277682,0,1
1584961350432,NaN,-1.0511197,0.25439453,-0.8317871,0.39575195,1584961349487,4978284584065,0.22277682,0,1
1584961350435,NaN,-2.7372067,0.2446289,-0.8647461,0.40063477,1584961349567,4978284584065,0.22277682,0,1
1584961350439,NaN,-4.348146,0.22021484,-0.8984375,0.4189453,1584961349647,4978284584065,0.22277682,0,1
1584961350441,NaN,-5.6886973,0.20629883,-0.87231445,0.4194336,1584961349727,4978284584065,0.22277682,0,1
1584961350445,NaN,-6.718552,0.19921875,-0.8647461,0.40307617,1584961349807,4978284584065,0.22277682,0,1
1584961350448,NaN,-7.365711,0.17797852,-0.8791504,0.43554688,1584961349887,4978284584065,0.22277682,0,1
1584961350451,NaN,-7.696707,0.17236328,-0.87280273,0.44213867,1584961349967,4978284584065,0.22277682,0,1
1584961350453,NaN,-7.729646,0.16967773,-0.8625488,0.43847656,1584961350047,4978284584065,0.22277682,0,1
1584961350458,NaN,-7.5416074,0.17407227,-0.85791016,0.4580078,1584961350127,4978284584065,0.22277682,0,1
1584961350461,NaN,-7.1620765,0.19067383,-0.86938477,0.43603516,1584961350207,4978284584065,0.22277682,0,1
1584961352923,NaN,-6.592384,0.17382812,-0.8713379,0.45654297,1584961350287,-1218387028220,0.22277682,0,1
1584961352928,NaN,-5.919021,0.21801758,-0.876709,0.42944336,1584961350367,-1218387028220,0.22277682,0,1
1584961352932,NaN,-5.1395893,0.22802734,-0.861084,0.42626953,1584961350447,-1218387028220,0.22277682,0,1
1584961352937,NaN,-4.294007,0.25024414,-0.85668945,0.44702148,1584961350527,-1218387028220,0.22277682,0,1
1584961352943,NaN,-3.4081118,0.26586914,-0.8215332,0.45263672,1584961350607,-1218387028220,0.22277682,0,1
1584961352948,NaN,-2.5616398,0.30004883,-0.81518555,0.44702148,1584961350687,-1218387028220,0.22277682,0,1
1584961352952,NaN,-1.8395196,0.33422852,-0.796875,0.45776367,1584961350767,-1218387028220,0.22277682,0,1
1584961352956,NaN,-1.098924,0.42529297,-0.81884766,0.41796875,1584961350847,-1218387028220,0.22277682,0,1
1584961352959,NaN,-0.24565303,0.69750977,-0.90893555,0.34423828,1584961350927,-1218387028220,0.29606417,0,1
1584961352963,NaN,0.5577137,0.80029297,-0.8527832,0.22802734,1584961351007,-1218387028220,0.29606417,0,1
1584961352967,NaN,1.366426,0.8342285,-0.80810547,0.104003906,1584961351087,-1218387028220,0.29606417,0,1
1584961352971,NaN,2.1996772,0.82006836,-0.83032227,-0.09277344,1584961351167,-1218387028220,0.29606417,0,1
1584961352976,NaN,3.0007083,0.6611328,-0.7651367,-0.1953125,1584961351247,-1218387028220,0.29606417,0,1
1584961352980,NaN,3.652899,0.64086914,-0.7453613,-0.15527344,1584961351327,-1218387028220,0.29606417,0,1
1584961352984,NaN,4.2104363,0.56689453,-0.7558594,-0.13232422,1584961351407,-1218387028220,0.29606417,0,1
1584961352987,NaN,4.7000833,0.5102539,-0.80371094,-0.10595703,1584961351487,-1218387028220,0.29606417,0,1
1584961352991,NaN,5.0938926,0.4572754,-0.78930664,-0.053955078,1584961351567,-1218387028220,0.29606417,0,1
1584961352994,NaN,5.371548,0.42797852,-0.85180664,-0.016357422,1584961351647,-1218387028220,0.29606417,0,1
1584961352997,NaN,5.562048,0.3840332,-0.86035156,0.037353516,1584961351727,-1218387028220,0.29606417,0,1
1584961353001,NaN,5.517093,0.34326172,-0.90283203,0.091552734,1584961351807,-1218387028220,0.29606417,0,1
1584961353006,NaN,5.0833697,0.31933594,-0.8798828,0.12182617,1584961351887,-1218387028220,0.29606417,0,1
1584961353008,NaN,4.323795,0.25830078,-0.9091797,0.17016602,1584961351967,-1218387028220,0.29606417,0,1
1584961353012,NaN,3.3138475,0.22338867,-0.9038086,0.21386719,1584961352047,-1218387028220,0.29606417,0,1
1584961353016,NaN,2.0786884,0.21362305,-0.9279785,0.24584961,1584961352127,-1218387028220,0.29606417,0,1
1584961353019,NaN,0.81549215,0.17089844,-0.9230957,0.26513672,1584961352207,-1218387028220,0.29606417,0,1
1584961353023,NaN,-0.3597817,0.17211914,-0.9465332,0.2709961,1584961352287,-1218387028220,0.29606417,0,1
1584961353027,NaN,-1.3923264,0.17333984,-0.91381836,0.2590332,1584961352367,-1218387028220,0.29606417,0,1
1584961353030,NaN,-2.3118901,0.18457031,-0.93188477,0.27905273,1584961352447,-1218387028220,0.29606417,0,1
1584961353032,NaN,-3.085743,0.17504883,-0.9433594,0.25512695,1584961352527,-1218387028220,0.29606417,0,1
1584961353035,NaN,-3.742379,0.18286133,-0.9470215,0.28588867,1584961352607,-1218387028220,0.29606417,0,1
1584961353038,NaN,-4.2511764,0.18188477,-0.93408203,0.26586914,1584961352687,-1218387028220,0.29606417,0,1
1584961353041,NaN,-4.5880437,0.18261719,-0.93481445,0.28833008,1584961352767,-1218387028220,0.29606417,0,1
1584961355508,NaN,-4.7322183,0.18017578,-0.94140625,0.28833008,1584961352847,-7414777165528,0.29606417,0,1
1584961355513,NaN,-4.6026206,0.18237305,-0.91137695,0.2956543,1584961352927,-7414777165528,0.29606417,0,1
1584961355517,NaN,-4.268118,0.17871094,-0.92333984,0.30395508,1584961353007,-7414777165528,0.29606417,0,1
1584961355522,NaN,-3.749448,0.1809082,-0.8991699,0.3005371,1584961353087,-7414777165528,0.29606417,0,1
1584961355528,NaN,-3.1463242,0.19580078,-0.859375,0.30371094,1584961353167,-7414777165528,0.29606417,0,1
1584961355532,NaN,-2.5539427,0.19604492,-0.873291,0.28222656,1584961353247,-7414777165528,0.29606417,0,1
1584961355535,NaN,-1.9723748,0.2878418,-0.83984375,0.25463867,1584961353327,-7414777165528,0.29606417,0,1
1584961355539,NaN,-1.3623654,0.33618164,-0.8234863,0.16455078,1584961353407,-7414777165528,0.29606417,0,1
1584961355543,NaN,-0.75091976,0.39453125,-0.8137207,0.08691406,1584961353487,-7414777165528,0.2000598,0,1
1584961355547,NaN,-0.020142714,0.5476074,-0.7783203,0.023925781,1584961353567,-7414777165528,0.2000598,0,1
1584961355550,NaN,0.74773073,0.63256836,-0.7573242,-0.071777344,1584961353647,-7414777165528,0.2000598,0,1
1584961355554,NaN,1.5764877,0.6933594,-0.7663574,-0.15258789,1584961353727,-7414777165528,0.2000598,0,1
1584961355558,NaN,2.4682858,0.7836914,-0.69555664,-0.1796875,1584961353807,-7414777165528,0.16927205,0,1
1584961355561,NaN,3.3791199,0.890625,-0.7116699,-0.2163086,1584961353887,-7414777165528,0.16927205,0,1
1584961355567,NaN,4.290953,0.87060547,-0.62841797,-0.26635742,1584961353967,-7414777165528,0.16927205,0,1
1584961355569,NaN,5.12732,0.8720703,-0.63720703,-0.23168945,1584961354047,-7414777165528,0.16927205,0,1
1584961355572,NaN,5.822836,0.8256836,-0.6542969,-0.19848633,1584961354127,-7414777165528,0.16927205,0,1
1584961355576,NaN,6.364849,0.79174805,-0.71435547,-0.091308594,1584961354207,-7414777165528,0.16927205,0,1
1584961355579,NaN,6.649254,0.7150879,-0.7910156,-0.03466797,1584961354287,-7414777165528,0.16927205,0,1
1584961355583,NaN,6.641763,0.6882324,-0.8808594,0.083984375,1584961354367,-7414777165528,0.16927205,0,1
1584961355585,NaN,6.3861365,0.56469727,-0.8955078,0.16455078,1584961354447,-7414777165528,0.16927205,0,1
1584961355589,NaN,5.8316627,0.44628906,-0.8100586,0.21679688,1584961354527,-7414777165528,0.16927205,0,1
1584961355593,NaN,5.014933,0.38867188,-0.83203125,0.25610352,1584961354607,-7414777165528,0.16927205,0,1
1584961355597,NaN,3.9626827,0.4111328,-0.91552734,0.30664062,1584961354687,-7414777165528,0.16927205,0,1
1584961355601,NaN,2.6750298,0.29785156,-0.8737793,0.33422852,1584961354767,-7414777165528,0.16927205,0,1
1584961355605,NaN,1.1743137,0.22705078,-0.888916,0.34375,1584961354847,-7414777165528,0.16927205,0,1
1584961355608,NaN,-0.43754587,0.22265625,-0.89331055,0.34375,1584961354927,-7414777165528,0.16927205,0,1
1584961355611,NaN,-2.0449934,0.16992188,-0.8984375,0.39208984,1584961355007,-7414777165528,0.16927205,0,1
1584961355614,NaN,-3.5139573,0.17333984,-0.9121094,0.40185547,1584961355087,-7414777165528,0.16927205,0,1
1584961355617,NaN,-4.7694583,0.13012695,-0.88256836,0.40014648,1584961355167,-7414777165528,0.16927205,0,1
1584961355623,NaN,-5.7505417,0.099853516,-0.8803711,0.36743164,1584961355247,-7414777165528,0.16927205,0,1
1584961355624,NaN,-6.466614,0.092285156,-0.9055176,0.40185547,1584961355327,-7414777165528,0.16927205,0,1
1584961358089,NaN,-6.9068484,0.05834961,-0.9304199,0.38842773,1584961355407,4835576770872,0.16927205,0,1
1584961358093,NaN,-7.102524,0.052001953,-0.92333984,0.3955078,1584961355487,4835576770872,0.16927205,0,1
1584961358098,NaN,-7.079006,0.046875,-0.90893555,0.37304688,1584961355567,4835576770872,0.16927205,0,1
1584961358107,NaN,-6.9103017,0.059814453,-0.9160156,0.3618164,1584961355647,4835576770872,0.16927205,0,1
1584961358109,NaN,-6.5070176,0.05126953,-0.9157715,0.35083008,1584961355727,4835576770872,0.16927205,0,1
1584961358112,NaN,-5.929979,0.030517578,-0.935791,0.34375,1584961355807,4835576770872,0.16927205,0,1
1584961358116,NaN,-5.251431,0.055908203,-0.93359375,0.3203125,1584961355887,4835576770872,0.16927205,0,1
1584961358119,NaN,-4.4540334,0.07104492,-0.94628906,0.3149414,1584961355967,4835576770872,0.16927205,0,1
1584961358123,NaN,-3.6794777,0.110839844,-0.92700195,0.32592773,1584961356047,4835576770872,0.16927205,0,1
1584961358127,NaN,-2.9432945,0.10620117,-0.95092773,0.32080078,1584961356127,4835576770872,0.15508619,0,1
1584961358130,NaN,-2.2392874,0.17944336,-0.9230957,0.31567383,1584961356207,4835576770872,0.15508619,0,1
1584961358133,NaN,-1.5493101,0.21801758,-0.9033203,0.3125,1584961356287,4835576770872,0.15508619,0,1
1584961358136,NaN,-0.8680055,0.33374023,-0.8654785,0.29589844,1584961356367,4835576770872,0.15508619,0,1
1584961358140,NaN,-0.1813177,0.45629883,-0.84155273,0.26464844,1584961356447,4835576770872,0.15508619,0,1
1584961358144,NaN,0.58253235,0.6164551,-0.8083496,0.18359375,1584961356527,4835576770872,0.18254407,0,1
1584961358147,NaN,1.4696892,0.7722168,-0.720459,0.096191406,1584961356607,4835576770872,0.19906192,0,1
1584961358150,NaN,2.3643403,0.8125,-0.6279297,-0.012939453,1584961356687,4835576770872,0.19906192,0,1
1584961358154,NaN,3.3933647,0.9433594,-0.6501465,-0.13574219,1584961356767,4835576770872,0.19906192,0,1
1584961358158,NaN,4.3884845,0.9560547,-0.59033203,-0.14794922,1584961356847,4835576770872,0.19906192,0,1
1584961358162,NaN,5.3432984,0.9851074,-0.55200195,-0.18408203,1584961356927,4835576770872,0.19906192,0,1
1584961358165,NaN,6.2483788,0.97314453,-0.50927734,-0.18481445,1584961357007,4835576770872,0.19906192,0,1
1584961358169,NaN,7.146232,0.9526367,-0.49951172,-0.2705078,1584961357087,4835576770872,0.19906192,0,1
1584961358173,NaN,7.906339,0.89819336,-0.5048828,-0.30517578,1584961357167,4835576770872,0.19906192,0,1
1584961358177,NaN,8.515263,0.80444336,-0.55566406,-0.32128906,1584961357247,4835576770872,0.19906192,0,1
1584961358180,NaN,8.874,0.75683594,-0.6296387,-0.3100586,1584961357327,4835576770872,0.19906192,0,1
1584961358189,NaN,8.972182,0.7404785,-0.6611328,-0.22167969,1584961357407,4835576770872,0.19906192,0,1
1584961358190,NaN,8.752461,0.6394043,-0.6555176,-0.14990234,1584961357487,4835576770872,0.19906192,0,1
1584961358191,NaN,8.17597,0.51342773,-0.7036133,-0.1027832,1584961357567,4835576770872,0.19906192,0,1
1584961358193,NaN,7.26559,0.49975586,-0.80615234,-0.0034179688,1584961357647,4835576770872,0.19906192,0,1
1584961358196,NaN,6.014525,0.4440918,-0.85546875,0.031982422,1584961357727,4835576770872,0.19906192,0,1
1584961358199,NaN,4.6594043,0.40844727,-0.8652344,0.08251953,1584961357807,4835576770872,0.19906192,0,1
1584961358202,NaN,3.1589267,0.3642578,-0.8835449,0.10449219,1584961357887,4835576770872,0.19906192,0,1
1584961360673,NaN,1.6184841,0.33789062,-0.8894043,0.12915039,1584961357967,-1361094841412,0.19906192,0,1
1584961360679,NaN,-0.037950516,0.33813477,-0.9025879,0.15893555,1584961358047,-1361094841412,0.19906192,0,1
1584961360682,NaN,-1.6440763,0.32104492,-0.9108887,0.1940918,1584961358127,-1361094841412,0.19906192,0,1
1584961360688,NaN,-3.1021385,0.29101562,-0.9230957,0.19311523,1584961358207,-1361094841412,0.19906192,0,1
1584961360691,NaN,-4.3228307,0.3334961,-0.9272461,0.19897461,1584961358287,-1361094841412,0.19906192,0,1
1584961360695,NaN,-5.3279533,0.30908203,-0.94506836,0.19018555,1584961358367,-1361094841412,0.19906192,0,1
1584961360699,NaN,-6.049553,0.30615234,-0.9030762,0.20678711,1584961358447,-1361094841412,0.19906192,0,1
1584961360702,NaN,-6.504898,0.2536621,-0.8964844,0.2841797,1584961358527,-1361094841412,0.19906192,0,1
1584961360706,NaN,-6.657097,0.21508789,-0.9206543,0.25610352,1584961358607,-1361094841412,0.19906192,0,1
1584961360710,NaN,-6.568117,0.2043457,-0.94018555,0.21020508,1584961358687,-1361094841412,0.19906192,0,1
1584961360714,NaN,-6.3004823,0.20825195,-0.89282227,0.18652344,1584961358767,-1361094841412,0.19906192,0,1
1584961360718,NaN,-5.853821,0.23608398,-0.91430664,0.17211914,1584961358847,-1361094841412,0.19906192,0,1
1584961360721,NaN,-5.251325,0.28173828,-0.83203125,0.13891602,1584961358927,-1361094841412,0.19906192,0,1
1584961360725,NaN,-4.5161595,0.30932617,-0.86987305,0.11376953,1584961359007,-1361094841412,0.19906192,0,1
1584961360728,NaN,-3.7110608,0.3046875,-0.86743164,0.09887695,1584961359087,-1361094841412,0.19906192,0,1
1584961360731,NaN,-2.840699,0.40063477,-0.8171387,0.072753906,1584961359167,-1361094841412,0.18082663,0,1
1584961360735,NaN,-2.0446305,0.47485352,-0.8647461,0.09423828,1584961359247,-1361094841412,0.18082663,0,1
1584961360738,NaN,-1.2315906,0.5625,-0.857666,0.084472656,1584961359327,-1361094841412,0.1434386,0,1
1584961360742,NaN,-0.5254672,0.5776367,-0.82714844,0.11425781,1584961359407,-1361094841412,0.1434386,0,1
1584961360745,NaN,0.22062027,0.65063477,-0.86035156,0.1616211,1584961359487,-1361094841412,0.1434386,0,1
1584961360748,NaN,0.7715567,0.5280762,-0.86865234,0.2590332,1584961359567,-1361094841412,0.15677573,0,1
1584961360751,NaN,1.0994467,0.48046875,-1.0620117,0.36523438,1584961359647,-1361094841412,0.22568342,0,1
1584961360754,NaN,1.2520742,0.41479492,-1.135498,0.40625,1584961359727,-1361094841412,0.22568342,0,1
1584961360758,NaN,NaN,0.18725586,-0.857666,0.37402344,1584961359807,-1361094841412,0.36055958,0,1
1584961360760,NaN,NaN,0.2121582,-0.82128906,0.27929688,1584961359887,-1361094841412,0.36055958,0,1
1584961360763,NaN,NaN,0.21044922,-0.94311523,0.30615234,1584961359967,-1361094841412,0.36055958,0,1
1584961360767,NaN,NaN,0.12719727,-0.97436523,0.27075195,1584961360047,-1361094841412,0.36055958,0,1
1584961360769,NaN,NaN,0.0859375,-0.93847656,0.28076172,1584961360127,-1361094841412,0.36055958,0,1
1584961360772,NaN,NaN,0.111572266,-0.92700195,0.27490234,1584961360207,-1361094841412,0.36055958,0,1
1584961360776,NaN,NaN,0.119384766,-0.96240234,0.27514648,1584961360287,-1361094841412,0.36055958,0,1
1584961360778,NaN,NaN,0.11010742,-0.95458984,0.28979492,1584961360367,-1361094841412,0.36055958,0,1
1584961360782,NaN,NaN,0.09423828,-0.9370117,0.27954102,1584961360447,-1361094841412,0.36055958,0,1
1584961363259,NaN,NaN,0.10058594,-0.9760742,0.27001953,1584961360527,-7557484978720,0.36055958,0,1
1584961363264,NaN,NaN,0.11303711,-0.9633789,0.2409668,1584961360607,-7557484978720,0.36055958,0,1
1584961363270,NaN,NaN,0.11279297,-0.9560547,0.20629883,1584961360687,-7557484978720,0.36055958,0,1
1584961363275,NaN,NaN,0.14892578,-0.97265625,0.20385742,1584961360767,-7557484978720,0.36055958,0,1
1584961363280,NaN,NaN,0.13769531,-0.99731445,0.20019531,1584961360847,-7557484978720,0.36055958,0,1
1584961363285,NaN,NaN,0.16040039,-0.9057617,0.23608398,1584961360927,-7557484978720,0.36055958,0,1
1584961363289,NaN,NaN,0.19433594,-0.9790039,0.20288086,1584961361007,-7557484978720,0.36055958,0,1
1584961363293,NaN,NaN,0.20214844,-0.8874512,0.2553711,1584961361087,-7557484978720,0.36055958,0,1
1584961363297,NaN,NaN,0.20458984,-0.9255371,0.24780273,1584961361167,-7557484978720,0.36055958,0,1
1584961363301,NaN,NaN,0.21069336,-0.95532227,0.29614258,1584961361247,-7557484978720,0.36055958,0,1
1584961363305,NaN,NaN,0.2265625,-0.90722656,0.26513672,1584961361327,-7557484978720,0.36055958,0,1
1584961363310,NaN,NaN,0.2697754,-0.8769531,0.2932129,1584961361407,-7557484978720,0.36055958,0,1
1584961363313,NaN,NaN,0.2783203,-0.92407227,0.2824707,1584961361487,-7557484978720,0.36055958,0,1
1584961363316,NaN,NaN,0.29589844,-0.9277344,0.29907227,1584961361567,-7557484978720,0.36055958,0,1
1584961363320,NaN,NaN,0.32373047,-0.87524414,0.27124023,1584961361647,-7557484978720,0.36055958,0,1
1584961363323,NaN,NaN,0.34375,-0.8874512,0.2614746,1584961361727,-7557484978720,0.36055958,0,1
1584961363326,NaN,NaN,0.44458008,-0.93408203,0.23925781,1584961361807,-7557484978720,0.36055958,0,1
1584961363330,NaN,NaN,0.59765625,-0.95214844,0.15356445,1584961361887,-7557484978720,0.36055958,0,1
1584961363333,NaN,NaN,0.6767578,-0.8803711,0.08642578,1584961361967,-7557484978720,0.36055958,0,1
1584961363336,NaN,NaN,0.70654297,-0.8483887,0.023925781,1584961362047,-7557484978720,0.36055958,0,1
1584961363340,NaN,NaN,0.72875977,-0.828125,-0.020996094,1584961362127,-7557484978720,0.36055958,0,1
1584961363344,NaN,NaN,0.7211914,-0.8190918,-0.046875,1584961362207,-7557484978720,0.36055958,0,1
1584961363348,NaN,NaN,0.62768555,-0.81591797,-0.041015625,1584961362287,-7557484978720,0.36055958,0,1
1584961363351,NaN,1.6775304,0.5871582,-0.859375,0.017822266,1584961362367,-7557484978720,0.17635776,0,1
1584961363355,NaN,1.8891302,0.50268555,-0.8676758,0.037841797,1584961362447,-7557484978720,0.17635776,0,1
1584961363359,NaN,1.960062,0.49145508,-0.83740234,0.17895508,1584961362527,-7557484978720,0.17635776,0,1
1584961363362,NaN,1.937369,0.39819336,-0.8227539,0.18139648,1584961362607,-7557484978720,0.17635776,0,1
1584961363366,NaN,1.6899557,0.3310547,-0.77124023,0.20532227,1584961362687,-7557484978720,0.17635776,0,1
1584961363369,NaN,1.3737882,0.32958984,-0.7927246,0.26293945,1584961362767,-7557484978720,0.17635776,0,1
1584961363372,NaN,0.8432351,0.26660156,-0.8664551,0.3022461,1584961362847,-7557484978720,0.17635776,0,1
1584961363375,NaN,0.25562796,0.1940918,-0.8679199,0.31298828,1584961362927,-7557484978720,0.17635776,0,1
1584961363378,NaN,-0.44200382,0.21875,-0.8881836,0.33251953,1584961363007,-7557484978720,0.17635776,0,1
1584961365842,NaN,-0.9129303,0.1965332,-0.88671875,0.34692383,1584961363087,4692868957680,0.17635776,0,1
1584961365847,NaN,-1.164838,0.17822266,-0.88183594,0.3815918,1584961363167,4692868957680,0.17635776,0,1
1584961365852,NaN,-1.2342594,0.19189453,-0.8991699,0.37158203,1584961363247,4692868957680,0.17635776,0,1
1584961365855,NaN,-2.0324383,0.14941406,-0.9199219,0.3671875,1584961363327,4692868957680,0.17635776,0,1
1584961365861,NaN,-2.6458085,0.14526367,-0.90625,0.39257812,1584961363407,4692868957680,0.17635776,0,1
1584961365864,NaN,-3.0957355,0.12524414,-0.90527344,0.39404297,1584961363487,4692868957680,0.17635776,0,1
1584961365869,NaN,-3.4001608,0.14355469,-0.89453125,0.3876953,1584961363567,4692868957680,0.17635776,0,1
1584961365873,NaN,-3.514206,0.14404297,-0.90600586,0.37695312,1584961363647,4692868957680,0.17635776,0,1
1584961365878,NaN,-3.5401762,0.1484375,-0.8959961,0.3876953,1584961363727,4692868957680,0.17635776,0,1
1584961365882,NaN,-3.3798132,0.140625,-0.892334,0.3947754,1584961363807,4692868957680,0.17635776,0,1
1584961365886,NaN,-3.0662003,0.18725586,-0.8601074,0.36791992,1584961363887,4692868957680,0.17635776,0,1
1584961365889,NaN,-2.731119,0.19067383,-0.8469238,0.34472656,1584961363967,4692868957680,0.17635776,0,1
1584961365893,NaN,-2.3953118,0.2788086,-0.8210449,0.3022461,1584961364047,4692868957680,0.17635776,0,1
1584961365896,NaN,-2.075661,0.2944336,-0.8684082,0.27148438,1584961364127,4692868957680,0.17635776,0,1
1584961365898,NaN,-1.7377434,0.38964844,-0.8466797,0.17797852,1584961364207,4692868957680,0.17635776,0,1
1584961365902,NaN,-0.8619674,0.5036621,-0.80908203,0.10644531,1584961364287,4692868957680,0.17635776,0,1
1584961365904,NaN,0.05332319,0.56689453,-0.8203125,0.048095703,1584961364367,4692868957680,0.17635776,0,1
1584961365908,NaN,0.97542477,0.6164551,-0.7553711,0.024169922,1584961364447,4692868957680,0.14476036,0,1
1584961365913,NaN,1.9052776,0.7141113,-0.7702637,-0.049316406,1584961364527,4692868957680,0.14476036,0,1
1584961365917,NaN,2.7505312,0.7167969,-0.75927734,-0.022705078,1584961364607,4692868957680,0.14476036,0,1
1584961365921,NaN,3.61995,0.8125,-0.6887207,0.021728516,1584961364687,4692868957680,0.14476036,0,1
1584961365925,NaN,4.4397454,0.83032227,-0.64624023,0.060302734,1584961364767,4692868957680,0.14476036,0,1
1584961365928,NaN,5.0905447,0.9123535,-0.6621094,0.14428711,1584961364847,4692868957680,0.14476036,0,1
1584961365932,NaN,5.626425,0.79345703,-0.62158203,0.18261719,1584961364927,4692868957680,0.14476036,0,1
1584961365935,NaN,5.925892,0.7192383,-0.57592773,0.2211914,1584961365007,4692868957680,0.14476036,0,1
1584961365939,NaN,6.0652485,0.66015625,-0.58813477,0.32958984,1584961365087,4692868957680,0.1397487,0,1
1584961365942,NaN,5.8247147,0.5895996,-0.81762695,0.41674805,1584961365167,4692868957680,0.25542408,0,1
1584961365946,NaN,5.15966,0.5629883,-1.0483398,0.54907227,1584961365247,4692868957680,0.2672944,0,1
1584961365950,NaN,NaN,0.35131836,-0.82788086,0.53100586,1584961365327,4692868957680,0.30615798,0,1
1584961365954,NaN,NaN,0.24926758,-0.6972656,0.40454102,1584961365407,4692868957680,0.30615798,0,1
1584961365958,NaN,NaN,0.25170898,-0.8491211,0.42944336,1584961365487,4692868957680,0.30615798,0,1
1584961365961,NaN,NaN,0.21289062,-0.89868164,0.4572754,1584961365567,4692868957680,0.30615798,0,1
1584961368424,NaN,NaN,0.15356445,-0.86035156,0.4543457,1584961365647,-1503802654604,0.30615798,0,1
1584961368431,NaN,NaN,0.106933594,-0.8469238,0.4333496,1584961365727,-1503802654604,0.30615798,0,1
1584961368437,NaN,NaN,0.080566406,-0.88964844,0.4128418,1584961365807,-1503802654604,0.30615798,0,1
1584961368443,NaN,NaN,0.064453125,-0.9301758,0.40429688,1584961365887,-1503802654604,0.30615798,0,1
1584961368447,NaN,NaN,0.05078125,-0.9350586,0.3713379,1584961365967,-1503802654604,0.30615798,0,1
1584961368451,NaN,NaN,-0.01171875,-0.9121094,0.3737793,1584961366047,-1503802654604,0.30615798,0,1
1584961368456,NaN,NaN,0.025634766,-0.9350586,0.35424805,1584961366127,-1503802654604,0.30615798,0,1
1584961368461,NaN,NaN,-0.0075683594,-0.9416504,0.32958984,1584961366207,-1503802654604,0.30615798,0,1
1584961368465,NaN,NaN,-0.025634766,-0.9411621,0.31591797,1584961366287,-1503802654604,0.30615798,0,1
1584961368469,NaN,NaN,-0.041259766,-0.9482422,0.28173828,1584961366367,-1503802654604,0.30615798,0,1
1584961368472,NaN,NaN,-0.044189453,-0.95043945,0.2734375,1584961366447,-1503802654604,0.30615798,0,1
1584961368476,NaN,NaN,-0.02758789,-0.9555664,0.2524414,1584961366527,-1503802654604,0.30615798,0,1
1584961368479,NaN,NaN,-0.034423828,-0.96533203,0.23168945,1584961366607,-1503802654604,0.30615798,0,1
1584961368482,NaN,NaN,-0.043945312,-0.97998047,0.18676758,1584961366687,-1503802654604,0.30615798,0,1
1584961368486,NaN,NaN,-0.045898438,-0.98535156,0.16845703,1584961366767,-1503802654604,0.30615798,0,1
1584961368489,NaN,NaN,-0.05834961,-0.99438477,0.1394043,1584961366847,-1503802654604,0.30615798,0,1
1584961368493,NaN,NaN,-0.0637207,-0.9946289,0.114746094,1584961366927,-1503802654604,0.30615798,0,1
1584961368496,NaN,NaN,-0.049560547,-1.0009766,0.1015625,1584961367007,-1503802654604,0.30615798,0,1
1584961368500,NaN,NaN,-0.046142578,-0.9851074,0.07861328,1584961367087,-1503802654604,0.30615798,0,1
1584961368504,NaN,NaN,-0.044433594,-0.9929199,0.07373047,1584961367167,-1503802654604,0.30615798,0,1
1584961368507,NaN,NaN,-0.056152344,-0.9946289,0.076171875,1584961367247,-1503802654604,0.30615798,0,1
1584961368511,NaN,NaN,-0.05883789,-0.99609375,0.09008789,1584961367327,-1503802654604,0.30615798,0,1
1584961368515,NaN,NaN,-0.036376953,-0.99121094,0.091796875,1584961367407,-1503802654604,0.30615798,0,1
1584961368518,NaN,NaN,-0.048828125,-0.9855957,0.09008789,1584961367487,-1503802654604,0.30615798,0,1
1584961368522,NaN,NaN,-0.06591797,-0.9914551,0.103271484,1584961367567,-1503802654604,0.30615798,0,1
1584961368526,NaN,NaN,-0.08325195,-0.99560547,0.095458984,1584961367647,-1503802654604,0.30615798,0,1
1584961368529,NaN,NaN,-0.091552734,-0.9812012,0.11376953,1584961367727,-1503802654604,0.30615798,0,1
1584961368532,NaN,NaN,-0.107910156,-1.0014648,0.11376953,1584961367807,-1503802654604,0.30615798,0,1
1584961368536,NaN,4.248489,-0.080078125,-0.98461914,0.12475586,1584961367887,-1503802654604,0.20848995,0,1
1584961368539,NaN,3.1696808,-0.07055664,-0.98535156,0.15112305,1584961367967,-1503802654604,0.15390313,0,1
1584961368542,NaN,1.8757728,-0.06933594,-0.9733887,0.17016602,1584961368047,-1503802654604,0.0706921,0,1
1584961368545,NaN,0.5729962,-0.07055664,-0.96728516,0.1796875,1584961368127,-1503802654604,0.0706921,0,1
1584961371009,NaN,-0.86590433,-0.072021484,-0.9543457,0.18359375,1584961368207,-7700192791913,0.0666249,0,1
1584961371017,NaN,-2.3371952,-0.07836914,-0.96899414,0.19482422,1584961368287,-7700192791913,0.0666249,0,1
1584961371024,NaN,-3.7580652,-0.08569336,-0.9641113,0.18945312,1584961368367,-7700192791913,0.0666249,0,1
1584961371030,NaN,-4.951099,-0.08642578,-0.9770508,0.1928711,1584961368447,-7700192791913,0.0666249,0,1
1584961371034,NaN,-5.915415,-0.083984375,-0.9716797,0.20629883,1584961368527,-7700192791913,0.0666249,0,1
1584961371039,NaN,-6.6606445,-0.07446289,-0.9680176,0.22680664,1584961368607,-7700192791913,0.04819969,0,1
1584961371043,NaN,-7.033638,-0.07885742,-0.95874023,0.2109375,1584961368687,-7700192791913,0.04819969,0,1
1584961371047,NaN,-7.0835567,-0.08886719,-0.9667969,0.20727539,1584961368767,-7700192791913,0.04819969,0,1
1584961371051,NaN,-6.690966,-0.091308594,-0.9584961,0.20727539,1584961368847,-7700192791913,0.04819969,0,1
1584961371054,NaN,-6.2006154,-0.0949707,-0.9736328,0.203125,1584961368927,-7700192791913,0.04819969,0,1
1584961371058,NaN,-5.5813546,-0.092041016,-0.96313477,0.20117188,1584961369007,-7700192791913,0.04819969,0,1
1584961371063,NaN,-4.938344,-0.10205078,-0.96899414,0.19458008,1584961369087,-7700192791913,0.04819969,0,1
1584961371067,NaN,-4.2050343,-0.099853516,-0.9680176,0.1887207,1584961369167,-7700192791913,0.04819969,0,1
1584961371070,NaN,-3.4380875,-0.10595703,-0.970459,0.18481445,1584961369247,-7700192791913,0.034338012,0,1
1584961371073,NaN,-2.6450098,-0.10473633,-0.9692383,0.17602539,1584961369327,-7700192791913,0.034338012,0,1
1584961371076,NaN,-1.9641991,-0.09838867,-0.967041,0.17871094,1584961369407,-7700192791913,0.034338012,0,1
1584961371079,NaN,-1.390052,-0.114990234,-0.97436523,0.19042969,1584961369487,-7700192791913,0.034338012,0,1
1584961371082,NaN,-0.9450728,-0.13012695,-0.9733887,0.19799805,1584961369567,-7700192791913,0.034338012,0,1
1584961371085,NaN,-0.58180946,-0.12060547,-0.9580078,0.18408203,1584961369647,-7700192791913,0.034338012,0,1
1584961371088,NaN,-0.26491335,-0.12548828,-0.97436523,0.19213867,1584961369727,-7700192791913,0.034338012,0,1
1584961371091,NaN,-0.2424776,-0.13012695,-0.9663086,0.19213867,1584961369807,-7700192791913,0.034338012,0,1
1584961371094,NaN,-0.222727,-0.13232422,-0.9628906,0.17919922,1584961369887,-7700192791913,0.034338012,0,1
1584961371097,NaN,-0.21207143,-0.13500977,-0.96484375,0.17114258,1584961369967,-7700192791913,0.034338012,0,1
1584961371099,NaN,-0.19980717,-0.12963867,-0.9645996,0.1821289,1584961370047,-7700192791913,0.034338012,0,1
1584961371102,NaN,-0.18698716,-0.11694336,-0.9597168,0.17114258,1584961370127,-7700192791913,0.034338012,0,1
1584961371106,NaN,-0.1553512,-0.11669922,-0.9885254,0.12792969,1584961370207,-7700192791913,0.051936004,0,1
1584961371108,NaN,-0.14830886,-0.14135742,-0.99072266,0.11767578,1584961370287,-7700192791913,0.051936004,0,1
1584961371111,NaN,-0.14987524,-0.13623047,-0.98657227,0.13256836,1584961370367,-7700192791913,0.051936004,0,1
1584961371113,NaN,-0.11643051,-0.12768555,-0.9831543,0.12133789,1584961370447,-7700192791913,0.051936004,0,1
1584961371116,NaN,-0.07310873,-0.15722656,-0.9807129,0.107666016,1584961370527,-7700192791913,0.051936004,0,1
1584961371119,NaN,-0.06517649,-0.1743164,-0.9880371,0.12817383,1584961370607,-7700192791913,0.051936004,0,1
1584961371122,NaN,-0.071420185,-0.17114258,-0.95825195,0.16918945,1584961370687,-7700192791913,0.051936004,0,1
1584961373396,NaN,-0.061120328,-0.14013672,-0.9526367,0.19458008,1584961370767,4550161144488,0.051936004,0,1
1584961373402,NaN,-0.05345528,-0.10888672,-0.9614258,0.24951172,1584961370847,4550161144488,0.063806705,0,1
1584961373407,NaN,-0.01877265,-0.048339844,-0.9641113,0.28051758,1584961370927,4550161144488,0.06807716,0,1
1584961373412,NaN,0.015885497,-0.024902344,-0.93725586,0.30126953,1584961371007,4550161144488,0.06807716,0,1
1584961373417,NaN,0.036396887,-0.0048828125,-0.9406738,0.31982422,1584961371087,4550161144488,0.06807716,0,1
1584961373422,NaN,0.034441695,0.056640625,-0.953125,0.3701172,1584961371167,4550161144488,0.080433495,0,1
1584961373427,NaN,0.053758007,0.080078125,-0.8947754,0.40112305,1584961371247,4550161144488,0.080433495,0,1
1584961373430,NaN,0.08978039,0.13354492,-0.8666992,0.45288086,1584961371327,4550161144488,0.080433495,0,1
1584961373434,NaN,0.10593472,0.1928711,-0.8515625,0.49780273,1584961371407,4550161144488,0.080433495,0,1
1584961373439,NaN,0.096370995,0.16821289,-0.8059082,0.52490234,1584961371487,4550161144488,0.080433495,0,1
1584961373442,NaN,0.11025553,0.14526367,-0.8208008,0.5319824,1584961371567,4550161144488,0.080433495,0,1
1584961373450,NaN,0.13721213,0.1538086,-0.78271484,0.56347656,1584961371647,4550161144488,0.080433495,0,1
1584961373454,NaN,0.16073367,0.18823242,-0.78393555,0.55493164,1584961371727,4550161144488,0.080433495,0,1
1584961373457,NaN,0.21498398,0.22509766,-0.7783203,0.53637695,1584961371807,4550161144488,0.080433495,0,1
1584961373460,NaN,0.22118466,0.23583984,-0.8171387,0.5419922,1584961371887,4550161144488,0.080433495,0,1
1584961373464,NaN,0.19527817,0.20654297,-0.7998047,0.54296875,1584961371967,4550161144488,0.080433495,0,1
1584961373467,NaN,0.15191735,0.19824219,-0.8208008,0.56591797,1584961372047,4550161144488,0.080433495,0,1
1584961373470,NaN,0.08433848,0.18725586,-0.79296875,0.55200195,1584961372127,4550161144488,0.080433495,0,1
1584961373473,NaN,0.01486743,0.18432617,-0.8010254,0.56762695,1584961372207,4550161144488,0.080433495,0,1
1584961373477,NaN,-0.07859651,0.17480469,-0.78515625,0.57592773,1584961372287,4550161144488,0.080433495,0,1
1584961373480,NaN,-0.17791325,0.1850586,-0.7895508,0.57910156,1584961372367,4550161144488,0.080433495,0,1
1584961373483,NaN,-0.21476959,0.18334961,-0.7800293,0.58154297,1584961372447,4550161144488,0.080433495,0,1
1584961373488,NaN,-0.24676593,0.171875,-0.7792969,0.5888672,1584961372527,4550161144488,0.080433495,0,1
1584961373491,NaN,-0.2486627,0.16381836,-0.77905273,0.57055664,1584961372607,4550161144488,0.080433495,0,1
1584961373494,NaN,-0.2731836,0.18798828,-0.80444336,0.58374023,1584961372687,4550161144488,0.080433495,0,1
1584961373498,NaN,-0.33201542,0.20507812,-0.79052734,0.5517578,1584961372767,4550161144488,0.080433495,0,1
1584961373501,NaN,-0.4278364,0.1381836,-0.8005371,0.57470703,1584961372847,4550161144488,0.080433495,0,1
1584961373503,NaN,-0.49480757,0.103271484,-0.8022461,0.5800781,1584961372927,4550161144488,0.080433495,0,1
1584961373506,NaN,-0.520525,0.10522461,-0.8076172,0.5720215,1584961373007,4550161144488,0.080433495,0,1
1584961373510,NaN,-0.533174,0.09472656,-0.7897949,0.5830078,1584961373087,4550161144488,0.080433495,0,1
1584961373513,NaN,-0.5359689,0.07348633,-0.8261719,0.5776367,1584961373167,4550161144488,0.080433495,0,1
1584961373515,NaN,-0.49780044,0.048828125,-0.8364258,0.5422363,1584961373247,4550161144488,0.080433495,0,1
1584961375979,NaN,-0.47277796,0.037841797,-0.8161621,0.5437012,1584961373327,-1718568061834,0.080433495,0,1
1584961375985,NaN,-0.48301795,0.025878906,-0.8186035,0.5515137,1584961373407,-1718568061834,0.080433495,0,1
1584961375990,NaN,-0.4773685,0.013671875,-0.8293457,0.54345703,1584961373487,-1718568061834,0.080433495,0,1
1584961376000,NaN,-0.5121176,-0.009765625,-0.8276367,0.5378418,1584961373567,-1718568061834,0.080433495,0,1
1584961376008,NaN,-0.5402275,-0.008300781,-0.82373047,0.53125,1584961373647,-1718568061834,0.080433495,0,1
1584961376014,NaN,-0.55592793,-0.01953125,-0.8557129,0.5073242,1584961373727,-1718568061834,0.07953516,0,1
1584961376018,NaN,-0.476956,-0.0053710938,-0.857666,0.5209961,1584961373807,-1718568061834,0.07953516,0,1
1584961376022,NaN,-0.356886,0.009033203,-0.87719727,0.5046387,1584961373887,-1718568061834,0.075938724,0,1
1584961376027,NaN,-0.26211134,0.053466797,-0.84106445,0.5058594,1584961373967,-1718568061834,0.071426466,0,1
1584961376030,NaN,-0.16225958,0.071777344,-0.8256836,0.54248047,1584961374047,-1718568061834,0.071426466,0,1
1584961376034,NaN,-0.06721275,0.09472656,-0.85058594,0.54003906,1584961374127,-1718568061834,0.071426466,0,1
1584961376038,NaN,0.020781228,0.1159668,-0.86376953,0.4963379,1584961374207,-1718568061834,0.071426466,0,1
1584961376042,NaN,0.1819802,0.1328125,-0.8774414,0.44360352,1584961374287,-1718568061834,0.071426466,0,1
1584961376045,NaN,0.36454144,0.14428711,-0.8754883,0.42919922,1584961374367,-1718568061834,0.071426466,0,1
1584961376049,NaN,0.5667452,0.20898438,-0.89819336,0.41137695,1584961374447,-1718568061834,0.071426466,0,1
1584961376052,NaN,0.7889743,0.20947266,-0.89404297,0.4025879,1584961374527,-1718568061834,0.071426466,0,1
1584961376056,NaN,1.0593296,0.26220703,-0.8918457,0.35791016,1584961374607,-1718568061834,0.071426466,0,1
1584961376058,NaN,1.3349451,0.33813477,-0.8754883,0.33398438,1584961374687,-1718568061834,0.08127133,0,1
1584961376061,NaN,1.5487944,0.26733398,-0.8852539,0.34765625,1584961374767,-1718568061834,0.08127133,0,1
1584961376064,NaN,1.6812305,0.23583984,-0.8671875,0.35058594,1584961374847,-1718568061834,0.08127133,0,1
1584961376067,NaN,1.7044839,0.25512695,-0.85839844,0.51416016,1584961374927,-1718568061834,0.1649417,0,1
1584961376071,NaN,1.6735233,0.18969727,-0.8041992,0.58203125,1584961375007,-1718568061834,0.1649417,0,1
1584961376073,NaN,1.5671139,0.15698242,-0.7392578,0.6135254,1584961375087,-1718568061834,0.1649417,0,1
1584961376076,NaN,1.3833251,0.18554688,-0.7531738,0.6472168,1584961375167,-1718568061834,0.1649417,0,1
1584961376079,NaN,1.0713936,0.18603516,-0.6882324,0.64624023,1584961375247,-1718568061834,0.1649417,0,1
1584961376082,NaN,0.7563746,0.18798828,-0.72436523,0.6191406,1584961375327,-1718568061834,0.1649417,0,1
1584961376085,NaN,0.36447486,0.17456055,-0.73339844,0.6179199,1584961375407,-1718568061834,0.1649417,0,1
1584961376089,NaN,-0.08510891,0.15258789,-0.7211914,0.66259766,1584961375487,-1718568061834,0.1649417,0,1
1584961376092,32.608696,-0.62592894,0.14916992,-0.7248535,0.6652832,1584961375567,-1718568061834,0.1649417,0,1
1584961376094,NaN,-1.1919765,0.12207031,-0.7416992,0.6364746,1584961375647,-1718568061834,0.1649417,0,1
1584961376097,NaN,-1.6920453,0.10595703,-0.7717285,0.6286621,1584961375727,-1718568061834,0.1649417,0,1
1584961376103,NaN,-2.1180463,0.11401367,-0.77319336,0.61499023,1584961375807,-1718568061834,0.1649417,0,1
1584961378563,NaN,-2.3166015,0.08911133,-0.7885742,0.6069336,1584961375887,-7914958199143,0.1649417,0,1
1584961378569,NaN,-2.349238,0.07055664,-0.8029785,0.5810547,1584961375967,-7914958199143,0.1649417,0,1
1584961378574,NaN,-2.2549028,0.05883789,-0.80322266,0.579834,1584961376047,-7914958199143,0.1649417,0,1
1584961378580,NaN,-2.0925577,0.04663086,-0.7973633,0.57128906,1584961376127,-7914958199143,0.1649417,0,1
1584961378587,NaN,-1.8188134,0.031982422,-0.81640625,0.5722656,1584961376207,-7914958199143,0.1649417,0,1
1584961378594,NaN,-1.5900197,0.03173828,-0.82373047,0.5708008,1584961376287,-7914958199143,0.1649417,0,1
1584961378595,NaN,-1.3078954,0.04345703,-0.8286133,0.5571289,1584961376367,-7914958199143,0.1649417,0,1
1584961378599,NaN,-0.92846924,0.048828125,-0.82421875,0.54296875,1584961376447,-7914958199143,0.1649417,0,1
1584961378603,NaN,-0.49440166,0.08544922,-0.82958984,0.54541016,1584961376527,-7914958199143,0.1649417,0,1
1584961378607,NaN,-0.094043195,0.039794922,-0.8186035,0.5629883,1584961376607,-7914958199143,0.1649417,0,1
1584961378613,NaN,0.24506177,0.04663086,-0.8327637,0.57714844,1584961376687,-7914958199143,0.1649417,0,1
1584961378617,NaN,0.555502,0.045166016,-0.79663086,0.5292969,1584961376767,-7914958199143,0.1649417,0,1
1584961378620,NaN,0.7430549,-0.0056152344,-0.8352051,0.55249023,1584961376847,-7914958199143,0.1649417,0,1
1584961378625,NaN,0.82527566,0.001953125,-0.85546875,0.53344727,1584961376927,-7914958199143,0.1649417,0,1
1584961378630,NaN,0.8454959,-0.0078125,-0.8276367,0.51904297,1584961377007,-7914958199143,0.1649417,0,1
1584961378634,NaN,0.86501306,-0.010986328,-0.8305664,0.50341797,1584961377087,-7914958199143,0.1649417,0,1
1584961378638,NaN,0.83866185,-0.0043945312,-0.8210449,0.49414062,1584961377167,-7914958199143,0.1649417,0,1
1584961378642,NaN,0.8501026,0.010498047,-0.888916,0.51831055,1584961377247,-7914958199143,0.1649417,0,1
1584961378646,NaN,0.82696867,0.01977539,-0.8623047,0.51586914,1584961377327,-7914958199143,0.1649417,0,1
1584961378650,NaN,0.744837,0.029541016,-0.8425293,0.50683594,1584961377407,-7914958199143,0.1649417,0,1
1584961378654,NaN,0.6577157,0.0107421875,-0.8544922,0.5227051,1584961377487,-7914958199143,0.108743206,0,1
1584961378659,NaN,0.63845426,0.009277344,-0.8642578,0.5136719,1584961377567,-7914958199143,0.07924347,0,1
1584961378662,NaN,0.63395804,-7.324219E-4,-0.83862305,0.517334,1584961377647,-7914958199143,0.07356942,0,1
1584961378666,NaN,0.58601063,0.01977539,-0.82910156,0.5361328,1584961377727,-7914958199143,0.07356942,0,1
1584961378669,NaN,0.51595336,0.05102539,-0.8183594,0.545166,1584961377807,-7914958199143,0.07356942,0,1
1584961378672,NaN,0.42044625,0.06616211,-0.83081055,0.55615234,1584961377887,-7914958199143,0.07356942,0,1
1584961378675,NaN,0.34141433,0.07470703,-0.8359375,0.53393555,1584961377967,-7914958199143,0.07356942,0,1
1584961378677,NaN,0.22016038,0.08544922,-0.8220215,0.5463867,1584961378047,-7914958199143,0.07356942,0,1
1584961378681,NaN,0.09288929,0.09375,-0.8327637,0.5620117,1584961378127,-7914958199143,0.07356942,0,1
1584961378684,NaN,-0.06790871,0.0715332,-0.79711914,0.5722656,1584961378207,-7914958199143,0.07356942,0,1
1584961378687,NaN,-0.23727636,0.10498047,-0.7832031,0.61083984,1584961378287,-7914958199143,0.07356942,0,1
1584961378689,NaN,-0.3776097,0.12475586,-0.79589844,0.58447266,1584961378367,-7914958199143,0.07356942,0,1
1584961381147,NaN,-0.52747774,0.118652344,-0.79345703,0.5905762,1584961378447,4335395737257,0.07356942,0,1
1584961381168,NaN,-0.7164441,0.12524414,-0.7714844,0.5793457,1584961378527,4335395737257,0.07356942,0,1
1584961381172,NaN,-0.8907059,0.092041016,-0.7741699,0.6086426,1584961378607,4335395737257,0.07356942,0,1
1584961381176,NaN,-1.0060728,0.1081543,-0.76464844,0.59521484,1584961378687,4335395737257,0.07356942,0,1
1584961381182,NaN,-1.0496532,0.1328125,-0.7910156,0.57373047,1584961378767,4335395737257,0.07356942,0,1
1584961381185,NaN,-1.048886,0.12890625,-0.8034668,0.5654297,1584961378847,4335395737257,0.07356942,0,1
1584961381188,NaN,-1.0938367,0.13623047,-0.8005371,0.59350586,1584961378927,4335395737257,0.07356942,0,1
1584961381191,NaN,-1.100177,0.14575195,-0.7824707,0.5917969,1584961379007,4335395737257,0.07356942,0,1
1584961381196,NaN,-1.0817566,0.15039062,-0.7902832,0.58203125,1584961379087,4335395737257,0.07356942,0,1
1584961381199,NaN,-1.0429083,0.16674805,-0.7751465,0.5900879,1584961379167,4335395737257,0.07356942,0,1
1584961381203,NaN,-0.9295867,0.15844727,-0.7775879,0.5917969,1584961379247,4335395737257,0.07356942,0,1
1584961381206,NaN,-0.86494964,0.1730957,-0.77197266,0.6040039,1584961379327,4335395737257,0.07356942,0,1
1584961381210,NaN,-0.796772,0.16967773,-0.7578125,0.6047363,1584961379407,4335395737257,0.07356942,0,1
1584961381213,NaN,-0.68794113,0.14086914,-0.7734375,0.6074219,1584961379487,4335395737257,0.07356942,0,1
1584961381216,NaN,-0.57668376,0.12158203,-0.782959,0.61376953,1584961379567,4335395737257,0.07356942,0,1
1584961381219,NaN,-0.489138,0.1496582,-0.77319336,0.5983887,1584961379647,4335395737257,0.07356942,0,1
1584961381223,NaN,-0.45543495,0.15429688,-0.77368164,0.5944824,1584961379727,4335395737257,0.07356942,0,1
1584961381226,NaN,-0.45373508,0.16381836,-0.7895508,0.60253906,1584961379807,4335395737257,0.05291829,0,1
1584961381229,NaN,-0.3839451,0.1328125,-0.78930664,0.59350586,1584961379887,4335395737257,0.05291829,0,1
1584961381231,NaN,-0.29984555,0.10864258,-0.7998047,0.5998535,1584961379967,4335395737257,0.05291829,0,1
1584961381234,NaN,-0.25393677,0.10571289,-0.7729492,0.60498047,1584961380047,4335395737257,0.05291829,0,1
1584961381237,NaN,-0.16917562,0.08959961,-0.7993164,0.6062012,1584961380127,4335395737257,0.05291829,0,1
1584961381242,NaN,-0.14385365,0.08081055,-0.76586914,0.6022949,1584961380207,4335395737257,0.05291829,0,1
1584961381244,NaN,-0.063778214,0.10253906,-0.7939453,0.5966797,1584961380287,4335395737257,0.05291829,0,1
1584961381248,NaN,0.026623284,0.083496094,-0.7885742,0.6035156,1584961380367,4335395737257,0.05291829,0,1
1584961381252,NaN,0.07981218,0.0793457,-0.7741699,0.5895996,1584961380447,4335395737257,0.05291829,0,1
1584961381255,NaN,0.10825809,0.071777344,-0.75683594,0.58862305,1584961380527,4335395737257,0.05291829,0,1
1584961381258,NaN,0.18252403,0.06298828,-0.8269043,0.5908203,1584961380607,4335395737257,0.07065161,0,1
1584961381261,NaN,0.23857075,0.107177734,-0.7858887,0.58618164,1584961380687,4335395737257,0.07065161,0,1
1584961381264,NaN,0.31330344,0.10571289,-0.7902832,0.58081055,1584961380767,4335395737257,0.07065161,0,1
1584961381266,NaN,0.32016686,0.11303711,-0.7910156,0.6032715,1584961380847,4335395737257,0.07065161,0,1
1584961381269,NaN,0.29730657,0.123291016,-0.79125977,0.5932617,1584961380927,4335395737257,0.07065161,0,1
1584961383729,NaN,0.2999091,0.13696289,-0.7775879,0.5957031,1584961381007,-1861275875027,0.07065161,0,1
1584961383735,NaN,0.26385674,0.140625,-0.79467773,0.5810547,1584961381087,-1861275875027,0.07065161,0,1
1584961383740,NaN,0.2523074,0.13671875,-0.7885742,0.5812988,1584961381167,-1861275875027,0.07065161,0,1
1584961383747,NaN,0.20360625,0.1328125,-0.7910156,0.59106445,1584961381247,-1861275875027,0.07065161,0,1
1584961383752,NaN,0.14968096,0.1340332,-0.78881836,0.5864258,1584961381327,-1861275875027,0.07065161,0,1
1584961383755,NaN,0.101307966,0.13598633,-0.782959,0.5900879,1584961381407,-1861275875027,0.07065161,0,1
1584961383759,NaN,0.08182881,0.11450195,-0.7895508,0.5908203,1584961381487,-1861275875027,0.07065161,0,1
1584961383762,NaN,-0.015699716,0.10668945,-0.7890625,0.5942383,1584961381567,-1861275875027,0.07065161,0,1
1584961383766,NaN,-0.039576534,0.11376953,-0.7963867,0.58447266,1584961381647,-1861275875027,0.07065161,0,1
1584961383769,NaN,-0.08622307,0.118652344,-0.78930664,0.59375,1584961381727,-1861275875027,0.07065161,0,1
1584961383772,NaN,-0.07859943,0.11352539,-0.8027344,0.59594727,1584961381807,-1861275875027,0.07065161,0,1
1584961383775,NaN,-0.08353571,0.11206055,-0.77612305,0.60424805,1584961381887,-1861275875027,0.07065161,0,1
1584961383779,NaN,-0.09937643,0.122558594,-0.765625,0.6254883,1584961381967,-1861275875027,0.07065161,0,1
1584961383782,NaN,-0.11052195,0.10620117,-0.78344727,0.61621094,1584961382047,-1861275875027,0.07065161,0,1
1584961383785,NaN,-0.11593309,0.09326172,-0.7788086,0.5957031,1584961382127,-1861275875027,0.07065161,0,1
1584961383790,NaN,-0.092540145,0.08203125,-0.78808594,0.58691406,1584961382207,-1861275875027,0.07065161,0,1
1584961383795,NaN,-0.08237852,0.06201172,-0.78393555,0.6074219,1584961382287,-1861275875027,0.07065161,0,1
1584961383799,NaN,-0.051074922,0.061035156,-0.77246094,0.5871582,1584961382367,-1861275875027,0.07065161,0,1
1584961383802,NaN,-0.02264419,0.046875,-0.7963867,0.57836914,1584961382447,-1861275875027,0.07065161,0,1
1584961383805,NaN,0.03177023,0.0625,-0.79296875,0.5854492,1584961382527,-1861275875027,0.07065161,0,1
1584961383808,NaN,0.026872756,0.037109375,-0.7919922,0.61376953,1584961382607,-1861275875027,0.07065161,0,1
1584961383812,NaN,0.04672006,0.040283203,-0.7902832,0.61376953,1584961382687,-1861275875027,0.07065161,0,1
1584961383815,NaN,0.030683495,0.044921875,-0.77856445,0.6125488,1584961382767,-1861275875027,0.07065161,0,1
1584961383819,NaN,0.055229228,0.044921875,-0.77490234,0.6074219,1584961382847,-1861275875027,0.07065161,0,1
1584961383821,NaN,0.121218435,0.05053711,-0.79541016,0.60424805,1584961382927,-1861275875027,0.07065161,0,1
1584961383825,NaN,0.1408023,0.072021484,-0.7687988,0.61450195,1584961383007,-1861275875027,0.07065161,0,1
1584961383829,NaN,0.13260968,0.06591797,-0.7685547,0.6152344,1584961383087,-1861275875027,0.07065161,0,1
1584961383831,NaN,0.09610286,0.059814453,-0.7734375,0.6201172,1584961383167,-1861275875027,0.060469054,0,1
1584961383834,NaN,0.090918064,0.048583984,-0.78125,0.6154785,1584961383247,-1861275875027,0.03804836,0,1
1584961383838,NaN,0.072930746,0.056640625,-0.7819824,0.6010742,1584961383327,-1861275875027,0.03804836,0,1
1584961383842,NaN,0.01108824,0.057128906,-0.77563477,0.6113281,1584961383407,-1861275875027,0.03804836,0,1
1584961383844,NaN,-0.036072325,0.07055664,-0.77685547,0.6147461,1584961383487,-1861275875027,0.03804836,0,1
1584961386313,NaN,-0.059909448,0.060791016,-0.77685547,0.63183594,1584961383567,-8057666012335,0.03804836,0,1
1584961386319,NaN,-0.0873022,0.076416016,-0.7692871,0.6147461,1584961383647,-8057666012335,0.03804836,0,1
1584961386323,NaN,-0.08715638,0.05883789,-0.779541,0.6176758,1584961383727,-8057666012335,0.03804836,0,1
1584961386329,NaN,-0.106708206,0.05810547,-0.77612305,0.61279297,1584961383807,-8057666012335,0.03804836,0,1
1584961386332,NaN,-0.16308622,0.07299805,-0.78125,0.60131836,1584961383887,-8057666012335,0.03804836,0,1
1584961386335,NaN,-0.14702128,0.08911133,-0.78759766,0.59594727,1584961383967,-8057666012335,0.03804836,0,1
1584961386338,NaN,-0.122656174,0.08300781,-0.7832031,0.60058594,1584961384047,-8057666012335,0.03804836,0,1
1584961386342,NaN,-0.08029097,0.076171875,-0.7824707,0.5917969,1584961384127,-8057666012335,0.03804836,0,1
1584961386345,NaN,-0.064796425,0.072021484,-0.77441406,0.5847168,1584961384207,-8057666012335,0.03804836,0,1
1584961386349,NaN,-0.048303097,0.07495117,-0.7932129,0.58447266,1584961384287,-8057666012335,0.03804836,0,1
1584961386352,NaN,0.0029634621,0.063964844,-0.8041992,0.60498047,1584961384367,-8057666012335,0.03804836,0,1
1584961386356,NaN,0.030530842,0.072265625,-0.77319336,0.6125488,1584961384447,-8057666012335,0.03804836,0,1
1584961386359,NaN,0.06119519,0.08569336,-0.77001953,0.61083984,1584961384527,-8057666012335,0.03804836,0,1
1584961386363,NaN,0.07740154,0.10131836,-0.7727051,0.61621094,1584961384607,-8057666012335,0.03804836,0,1
1584961386367,NaN,0.07330876,0.09301758,-0.7709961,0.6152344,1584961384687,-8057666012335,0.03804836,0,1
1584961386372,NaN,0.07194144,0.0949707,-0.77441406,0.60839844,1584961384767,-8057666012335,0.03804836,0,1
1584961386376,NaN,0.06667617,0.09765625,-0.77905273,0.61328125,1584961384847,-8057666012335,0.03804836,0,1
1584961386379,NaN,0.03622542,0.095947266,-0.7792969,0.60546875,1584961384927,-8057666012335,0.03804836,0,1
1584961386382,NaN,0.012182209,0.09326172,-0.78393555,0.61206055,1584961385007,-8057666012335,0.03804836,0,1
1584961386385,NaN,-0.026488602,0.09057617,-0.77563477,0.6086426,1584961385087,-8057666012335,0.03804836,0,1
1584961386388,NaN,-0.054642748,0.084472656,-0.78100586,0.60913086,1584961385167,-8057666012335,0.035705514,0,1
1584961386391,NaN,-0.09270198,0.072753906,-0.7783203,0.6147461,1584961385247,-8057666012335,0.035705514,0,1
1584961386393,NaN,-0.13287555,0.059326172,-0.7705078,0.61743164,1584961385327,-8057666012335,0.035705514,0,1
1584961386396,NaN,-0.124205746,0.0390625,-0.782959,0.626709,1584961385407,-8057666012335,0.035705514,0,1
1584961386399,NaN,-0.12123245,0.042236328,-0.7722168,0.6230469,1584961385487,-8057666012335,0.035705514,0,1
1584961386402,NaN,-0.0932147,0.07080078,-0.7780762,0.5974121,1584961385567,-8057666012335,0.03882527,0,1
1584961386405,NaN,-0.061123993,0.05834961,-0.7922363,0.6171875,1584961385647,-8057666012335,0.03882527,0,1
1584961386408,NaN,-0.040220033,0.05810547,-0.77197266,0.607666,1584961385727,-8057666012335,0.03882527,0,1
1584961386410,NaN,0.0067315525,0.044677734,-0.79003906,0.6069336,1584961385807,-8057666012335,0.03882527,0,1
1584961386414,NaN,0.06672141,0.028564453,-0.7956543,0.5900879,1584961385887,-8057666012335,0.03882527,0,1
1584961386416,NaN,0.11707994,0.03564453,-0.76904297,0.5788574,1584961385967,-8057666012335,0.03882527,0,1
1584961386419,NaN,0.19337112,0.027832031,-0.78466797,0.5686035,1584961386047,-8057666012335,0.03882527,0,1
1584961388897,NaN,0.27503142,0.053222656,-0.8444824,0.5593262,1584961386127,4192687924065,0.06563933,0,1
1584961388903,NaN,0.3244266,0.07348633,-0.80566406,0.58374023,1584961386207,4192687924065,0.06563933,0,1
1584961388908,NaN,0.35718057,0.06689453,-0.78808594,0.6015625,1584961386287,4192687924065,0.06563933,0,1
1584961388913,NaN,0.34534392,0.061767578,-0.78271484,0.6086426,1584961386367,4192687924065,0.06563933,0,1
1584961388919,NaN,0.3330127,0.06616211,-0.77856445,0.6086426,1584961386447,4192687924065,0.06563933,0,1
1584961388923,NaN,0.30968973,0.061767578,-0.78686523,0.6125488,1584961386527,4192687924065,0.06563933,0,1
1584961388929,NaN,0.2813322,0.068115234,-0.7758789,0.6057129,1584961386607,4192687924065,0.06563933,0,1
1584961388934,NaN,0.2611229,0.078125,-0.78222656,0.60717773,1584961386687,4192687924065,0.06563933,0,1
1584961388938,NaN,0.20514391,0.07519531,-0.7758789,0.6105957,1584961386767,4192687924065,0.06563933,0,1
1584961388941,NaN,0.11449963,0.076660156,-0.77612305,0.6069336,1584961386847,4192687924065,0.06563933,0,1
1584961388945,NaN,0.05594875,0.057617188,-0.7866211,0.6062012,1584961386927,4192687924065,0.06563933,0,1
1584961388949,NaN,-0.042618543,0.06274414,-0.77685547,0.6064453,1584961387007,4192687924065,0.06563933,0,1
1584961388952,31.25,-0.15996306,0.056152344,-0.7841797,0.6088867,1584961387087,4192687924065,0.06563933,0,1
1584961388957,NaN,-0.1937026,0.061279297,-0.7910156,0.60180664,1584961387167,4192687924065,0.06563933,0,1
1584961388960,NaN,-0.20863642,0.061279297,-0.78027344,0.6101074,1584961387247,4192687924065,0.06563933,0,1
1584961388963,NaN,-0.19354278,0.055664062,-0.78759766,0.5966797,1584961387327,4192687924065,0.06563933,0,1
1584961388966,NaN,-0.184108,0.05834961,-0.7873535,0.6125488,1584961387407,4192687924065,0.06563933,0,1
1584961388970,NaN,-0.18278067,0.057373047,-0.78466797,0.61083984,1584961387487,4192687924065,0.06563933,0,1
1584961388974,NaN,-0.15990672,0.04296875,-0.7890625,0.611084,1584961387567,4192687924065,0.06563933,0,1
1584961388978,NaN,-0.13224606,0.041748047,-0.7775879,0.6003418,1584961387647,4192687924065,0.06563933,0,1
1584961388982,NaN,-0.07396238,0.041992188,-0.7937012,0.5930176,1584961387727,4192687924065,0.06563933,0,1
1584961388986,NaN,0.00144732,0.044189453,-0.8015137,0.59765625,1584961387807,4192687924065,0.06563933,0,1
1584961388989,NaN,0.03232756,0.031982422,-0.7844238,0.6074219,1584961387887,4192687924065,0.06563933,0,1
1584961388992,NaN,0.09631187,0.037597656,-0.77685547,0.58691406,1584961387967,4192687924065,0.06563933,0,1
1584961388995,NaN,0.17017035,0.037109375,-0.77246094,0.57373047,1584961388047,4192687924065,0.06563933,0,1
1584961388999,NaN,0.20781308,0.044189453,-0.8034668,0.5720215,1584961388127,4192687924065,0.06563933,0,1
1584961389003,NaN,0.2548785,0.045898438,-0.8364258,0.5878906,1584961388207,4192687924065,0.06563933,0,1
1584961389005,NaN,0.23405702,0.068359375,-0.779541,0.59594727,1584961388287,4192687924065,0.06563933,0,1
1584961389008,NaN,0.21937834,0.071777344,-0.77783203,0.6081543,1584961388367,4192687924065,0.06563933,0,1
1584961389011,NaN,0.21256815,0.071777344,-0.7919922,0.611084,1584961388447,4192687924065,0.06563933,0,1
1584961389015,NaN,0.19232266,0.060546875,-0.7871094,0.59887695,1584961388527,4192687924065,0.06563933,0,1
1584961389018,NaN,0.16400889,0.06225586,-0.7844238,0.5991211,1584961388607,4192687924065,0.06563933,0,1
1584961391479,NaN,0.11351695,0.0715332,-0.78930664,0.59228516,1584961388687,-2003983688219,0.061686948,0,1
1584961391486,NaN,0.065839306,0.059326172,-0.7844238,0.59765625,1584961388767,-2003983688219,0.061686948,0,1
1584961391492,NaN,0.04932217,0.057128906,-0.79345703,0.5983887,1584961388847,-2003983688219,0.061686948,0,1
1584961391499,NaN,0.013675376,0.060058594,-0.7858887,0.5966797,1584961388927,-2003983688219,0.061686948,0,1
1584961391505,NaN,-0.022999065,0.039794922,-0.7849121,0.6074219,1584961389007,-2003983688219,0.061686948,0,1
1584961391510,30.0,-0.07135018,0.036621094,-0.79052734,0.6032715,1584961389087,-2003983688219,0.061686948,0,1
1584961391516,NaN,-0.13625428,0.044921875,-0.7980957,0.59814453,1584961389167,-2003983688219,0.061686948,0,1
1584961391522,NaN,-0.11223284,0.026611328,-0.78466797,0.6069336,1584961389247,-2003983688219,0.061686948,0,1
1584961391527,NaN,-0.08922606,0.05126953,-0.78808594,0.60668945,1584961389327,-2003983688219,0.061686948,0,1
1584961391531,NaN,-0.069976695,0.044921875,-0.7885742,0.6020508,1584961389407,-2003983688219,0.061686948,0,1
1584961391536,NaN,-0.064283274,0.040527344,-0.77685547,0.6020508,1584961389487,-2003983688219,0.061686948,0,1
1584961391540,NaN,-0.055341292,0.046875,-0.7883301,0.6098633,1584961389567,-2003983688219,0.061686948,0,1
1584961391546,NaN,-0.038069244,0.052978516,-0.77856445,0.5949707,1584961389647,-2003983688219,0.061686948,0,1
1584961391549,NaN,-0.00677544,0.041259766,-0.7841797,0.58154297,1584961389727,-2003983688219,0.061686948,0,1
1584961391554,NaN,1.438347E-4,0.064697266,-0.78125,0.578125,1584961389807,-2003983688219,0.061686948,0,1
1584961391558,NaN,0.041633096,0.052490234,-0.82177734,0.5805664,1584961389887,-2003983688219,0.061686948,0,1
1584961391562,NaN,0.066343494,0.060302734,-0.8039551,0.5917969,1584961389967,-2003983688219,0.061686948,0,1
1584961391566,NaN,0.08625111,0.0546875,-0.7944336,0.59472656,1584961390047,-2003983688219,0.061686948,0,1
1584961391570,NaN,0.08992627,0.05883789,-0.7751465,0.60302734,1584961390127,-2003983688219,0.061686948,0,1
1584961391574,NaN,0.060042605,0.064697266,-0.78466797,0.61035156,1584961390207,-2003983688219,0.061686948,0,1
1584961391577,NaN,0.036960777,0.064941406,-0.7788086,0.60546875,1584961390287,-2003983688219,0.061686948,0,1
1584961391580,NaN,0.009118271,0.06225586,-0.7788086,0.60595703,1584961390367,-2003983688219,0.061686948,0,1
1584961391583,NaN,0.004268874,0.05444336,-0.7805176,0.6008301,1584961390447,-2003983688219,0.061686948,0,1
1584961391587,NaN,-0.002886027,0.053466797,-0.78222656,0.60961914,1584961390527,-2003983688219,0.061686948,0,1
1584961391591,NaN,-0.0049504004,0.052001953,-0.782959,0.6010742,1584961390607,-2003983688219,0.061686948,0,1
1584961391594,37.5,-0.037485328,0.05053711,-0.78759766,0.60595703,1584961390687,-2003983688219,0.061686948,0,1
1584961391598,NaN,-0.057572436,0.05053711,-0.77441406,0.60668945,1584961390767,-2003983688219,0.061686948,0,1
1584961391602,NaN,-0.12336441,0.04663086,-0.7832031,0.6105957,1584961390847,-2003983688219,0.0423962,0,1
1584961391605,NaN,-0.15320279,0.04638672,-0.78759766,0.61376953,1584961390927,-2003983688219,0.0423962,0,1
1584961391609,NaN,-0.1714284,0.03173828,-0.7832031,0.6203613,1584961391007,-2003983688219,0.0423962,0,1
1584961391611,NaN,-0.1596589,0.050048828,-0.7751465,0.6166992,1584961391087,-2003983688219,0.0423962,0,1
1584961391614,NaN,-0.14359127,0.041259766,-0.7824707,0.61450195,1584961391167,-2003983688219,0.0423962,0,1
1584961394064,NaN,-0.13232033,0.039794922,-0.7792969,0.609375,1584961391247,-8200373825527,0.0423962,0,1
1584961394069,NaN,-0.11288244,0.026611328,-0.7824707,0.61157227,1584961391327,-8200373825527,0.0423962,0,1
1584961394073,NaN,-0.12145611,0.03540039,-0.76293945,0.61206055,1584961391407,-8200373825527,0.0423962,0,1
1584961394079,NaN,-0.116134994,0.038085938,-0.76220703,0.5986328,1584961391487,-8200373825527,0.0423962,0,1
1584961394082,NaN,-0.11268323,0.0390625,-0.7836914,0.6032715,1584961391567,-8200373825527,0.0423962,0,1
1584961394086,NaN,-0.07472614,0.045410156,-0.79541016,0.57958984,1584961391647,-8200373825527,0.0423962,0,1
1584961394090,NaN,-0.04303348,0.044921875,-0.80078125,0.6064453,1584961391727,-8200373825527,0.0423962,0,1
1584961394093,NaN,-2.2322561E-4,0.043945312,-0.7805176,0.5996094,1584961391807,-8200373825527,0.0423962,0,1
1584961394096,NaN,0.020312564,0.052246094,-0.7854004,0.6074219,1584961391887,-8200373825527,0.0423962,0,1
1584961394099,NaN,0.04241824,0.049316406,-0.78808594,0.611084,1584961391967,-8200373825527,0.0423962,0,1
1584961394102,NaN,0.057763234,0.044677734,-0.7792969,0.6086426,1584961392047,-8200373825527,0.0423962,0,1
1584961394105,NaN,0.06081299,0.05029297,-0.78686523,0.60913086,1584961392127,-8200373825527,0.0423962,0,1
1584961394108,NaN,0.05359541,0.04711914,-0.77978516,0.61450195,1584961392207,-8200373825527,0.0423962,0,1
1584961394112,NaN,0.03715964,0.047607422,-0.77612305,0.6140137,1584961392287,-8200373825527,0.0423962,0,1
1584961394115,NaN,0.047665507,0.04345703,-0.7739258,0.61865234,1584961392367,-8200373825527,0.0423962,0,1
1584961394119,NaN,0.04053973,0.045654297,-0.7727051,0.61499023,1584961392447,-8200373825527,0.027391665,0,1
1584961394123,NaN,0.026617771,0.044677734,-0.7753906,0.6130371,1584961392527,-8200373825527,0.027391665,0,1
1584961394128,NaN,-0.0269835,0.042236328,-0.7753906,0.61572266,1584961392607,-8200373825527,0.027391665,0,1
1584961394131,30.0,-0.06124106,0.044921875,-0.7714844,0.61376953,1584961392687,-8200373825527,0.027391665,0,1
1584961394135,NaN,-0.074640475,0.04638672,-0.7832031,0.6123047,1584961392767,-8200373825527,0.027391665,0,1
1584961394138,NaN,-0.08499038,0.037597656,-0.7890625,0.6298828,1584961392847,-8200373825527,0.027391665,0,1
1584961394141,NaN,-0.096402265,0.041748047,-0.7705078,0.611084,1584961392927,-8200373825527,0.027391665,0,1
1584961394145,NaN,-0.11693144,0.040771484,-0.76831055,0.6213379,1584961393007,-8200373825527,0.027391665,0,1
1584961394148,NaN,-0.12009389,0.034179688,-0.77905273,0.6086426,1584961393087,-8200373825527,0.027391665,0,1
1584961394151,NaN,-0.10821677,0.026611328,-0.78271484,0.61328125,1584961393167,-8200373825527,0.027391665,0,1
1584961394154,NaN,-0.078434676,0.040771484,-0.78125,0.58935547,1584961393247,-8200373825527,0.027840596,0,1
1584961394157,NaN,-0.058657467,0.040283203,-0.7861328,0.59936523,1584961393327,-8200373825527,0.027840596,0,1
1584961394159,NaN,-0.033859387,0.03540039,-0.7783203,0.59521484,1584961393407,-8200373825527,0.027840596,0,1
1584961394162,NaN,0.0025574937,0.045654297,-0.7861328,0.5812988,1584961393487,-8200373825527,0.027840596,0,1
1584961394165,NaN,0.07312068,0.04663086,-0.8137207,0.58203125,1584961393567,-8200373825527,0.027840596,0,1
1584961394168,NaN,0.116290145,0.055664062,-0.8017578,0.59521484,1584961393647,-8200373825527,0.027840596,0,1
1584961394171,NaN,0.13702284,0.05102539,-0.7858887,0.5908203,1584961393727,-8200373825527,0.027840596,0,1
1584961396650,NaN,0.15664801,0.053710938,-0.79052734,0.6074219,1584961393807,4049980110873,0.027840596,0,1
1584961396655,NaN,0.1648921,0.05517578,-0.7805176,0.6118164,1584961393887,4049980110873,0.027840596,0,1
1584961396663,NaN,0.18516453,0.051513672,-0.7788086,0.6130371,1584961393967,4049980110873,0.027840596,0,1
1584961396668,NaN,0.17425175,0.064208984,-0.7775879,0.6130371,1584961394047,4049980110873,0.027840596,0,1
1584961396671,NaN,0.153686,0.05493164,-0.77246094,0.6159668,1584961394127,4049980110873,0.027840596,0,1
1584961396675,NaN,0.10607069,0.061767578,-0.7729492,0.6188965,1584961394207,4049980110873,0.027840596,0,1
1584961396678,NaN,0.06556741,0.06201172,-0.77441406,0.6154785,1584961394287,4049980110873,0.027840596,0,1
1584961396681,NaN,0.027192233,0.060546875,-0.7741699,0.61376953,1584961394367,4049980110873,0.027840596,0,1
1584961396685,NaN,-0.025328318,0.056396484,-0.77856445,0.6154785,1584961394447,4049980110873,0.027840596,0,1
1584961396688,32.608696,-0.10518231,0.055908203,-0.7751465,0.6135254,1584961394527,4049980110873,0.027840596,0,1
1584961396692,NaN,-0.15258926,0.044189453,-0.7741699,0.61694336,1584961394607,4049980110873,0.027840596,0,1
1584961396696,NaN,-0.18866722,0.0390625,-0.78222656,0.63012695,1584961394687,4049980110873,0.027840596,0,1
1584961396699,NaN,-0.2120064,0.028564453,-0.76660156,0.6196289,1584961394767,4049980110873,0.027840596,0,1
1584961396703,NaN,-0.22675943,0.041992188,-0.76538086,0.626709,1584961394847,4049980110873,0.027840596,0,1
1584961396706,NaN,-0.23451424,0.0390625,-0.77978516,0.61816406,1584961394927,4049980110873,0.027840596,0,1
1584961396710,NaN,-0.22101057,0.032958984,-0.7697754,0.61279297,1584961395007,4049980110873,0.027840596,0,1
1584961396713,NaN,-0.20023803,0.020019531,-0.77734375,0.6208496,1584961395087,4049980110873,0.027840596,0,1
1584961396717,NaN,-0.17067136,0.024658203,-0.76293945,0.62060547,1584961395167,4049980110873,0.027840596,0,1
1584961396721,NaN,-0.15329562,0.032226562,-0.75439453,0.61499023,1584961395247,4049980110873,0.027840596,0,1
1584961396723,NaN,-0.11526417,0.040527344,-0.7788086,0.5961914,1584961395327,4049980110873,0.031911522,0,1
1584961396727,NaN,-0.057690363,0.056152344,-0.8029785,0.58862305,1584961395407,4049980110873,0.031911522,0,1
1584961396730,NaN,-0.0072689974,0.053710938,-0.78881836,0.6105957,1584961395487,4049980110873,0.031911522,0,1
1584961396734,NaN,0.0097786,0.056640625,-0.7709961,0.6208496,1584961395567,4049980110873,0.031911522,0,1
1584961396737,NaN,0.03398964,0.04711914,-0.7717285,0.61621094,1584961395647,4049980110873,0.031911522,0,1
1584961396740,NaN,0.05914122,0.037841797,-0.7871094,0.61279297,1584961395727,4049980110873,0.031911522,0,1
1584961396744,NaN,0.094043344,0.03515625,-0.7746582,0.60253906,1584961395807,4049980110873,0.031911522,0,1
1584961396747,NaN,0.098720394,0.038330078,-0.78393555,0.61376953,1584961395887,4049980110873,0.031911522,0,1
1584961396750,NaN,0.09538305,0.045166016,-0.78100586,0.61865234,1584961395967,4049980110873,0.031911522,0,1
1584961396753,NaN,0.08845214,0.04272461,-0.7753906,0.6130371,1584961396047,4049980110873,0.031911522,0,1
1584961396757,NaN,0.09897578,0.044677734,-0.77734375,0.60961914,1584961396127,4049980110873,0.031911522,0,1
1584961396759,NaN,0.11496416,0.047851562,-0.7775879,0.6130371,1584961396207,4049980110873,0.031911522,0,1
1584961396762,NaN,0.08832979,0.037109375,-0.77905273,0.6105957,1584961396287,4049980110873,0.031911522,0,1
1584961399034,NaN,0.030551242,0.029785156,-0.78100586,0.61572266,1584961396367,-2146691501411,0.031911522,0,1
1584961399040,NaN,0.0026614156,0.029296875,-0.7607422,0.6179199,1584961396447,-2146691501411,0.031911522,0,1
1584961399044,NaN,0.0030621663,0.0078125,-0.78344727,0.64160156,1584961396527,-2146691501411,0.03921631,0,1
1584961399049,NaN,0.038291767,0.014160156,-0.8076172,0.5905762,1584961396607,-2146691501411,0.056816094,0,1
1584961399055,NaN,0.068350814,0.060302734,-0.81274414,0.5666504,1584961396687,-2146691501411,0.056816094,0,1
1584961399059,NaN,0.10732434,0.08520508,-0.82177734,0.54589844,1584961396767,-2146691501411,0.056816094,0,1
1584961399063,NaN,0.17087674,0.084228516,-0.83032227,0.5461426,1584961396847,-2146691501411,0.056816094,0,1
1584961399067,NaN,0.2494151,0.104003906,-0.82421875,0.53564453,1584961396927,-2146691501411,0.056816094,0,1
1584961399071,NaN,0.33235505,0.09765625,-0.82006836,0.52612305,1584961397007,-2146691501411,0.056816094,0,1
1584961399075,NaN,0.3997272,0.10205078,-0.8144531,0.52612305,1584961397087,-2146691501411,0.056816094,0,1
1584961399079,NaN,0.47968206,0.109375,-0.8203125,0.51831055,1584961397167,-2146691501411,0.056816094,0,1
1584961399083,NaN,0.5667892,0.087402344,-0.8469238,0.5529785,1584961397247,-2146691501411,0.056816094,0,1
1584961399086,NaN,0.6649926,0.09301758,-0.81103516,0.5476074,1584961397327,-2146691501411,0.056816094,0,1
1584961399090,NaN,0.7567425,0.10424805,-0.81640625,0.56640625,1584961397407,-2146691501411,0.056816094,0,1
1584961399093,NaN,0.8200676,0.099853516,-0.7932129,0.59033203,1584961397487,-2146691501411,0.056816094,0,1
1584961399096,NaN,0.75509745,0.076171875,-0.76293945,0.61743164,1584961397567,-2146691501411,0.056816094,0,1
1584961399099,NaN,0.6326097,0.052001953,-0.7590332,0.64501953,1584961397647,-2146691501411,0.056816094,0,1
1584961399103,NaN,0.46603522,0.06616211,-0.7458496,0.64501953,1584961397727,-2146691501411,0.056816094,0,1
1584961399106,NaN,0.30057764,0.068847656,-0.7524414,0.6311035,1584961397807,-2146691501411,0.056816094,0,1
1584961399109,NaN,0.110230096,0.049072266,-0.7573242,0.63964844,1584961397887,-2146691501411,0.056816094,0,1
1584961399112,17.44186,-0.105222635,0.035888672,-0.7546387,0.6586914,1584961397967,-2146691501411,0.056816094,0,1
1584961399115,NaN,-0.32188445,0.033447266,-0.7470703,0.6628418,1584961398047,-2146691501411,0.056816094,0,1
1584961399118,NaN,-0.5294335,0.04248047,-0.76660156,0.63305664,1584961398127,-2146691501411,0.056816094,0,1
1584961399122,NaN,-0.69752455,0.014892578,-0.7758789,0.6113281,1584961398207,-2146691501411,0.056816094,0,1
1584961399125,NaN,-0.8602163,-0.008056641,-0.7807617,0.6274414,1584961398287,-2146691501411,0.056816094,0,1
1584961399128,NaN,-1.0179782,-0.010009766,-0.7675781,0.6098633,1584961398367,-2146691501411,0.056816094,0,1
1584961399131,NaN,-1.1254762,-0.016601562,-0.77075195,0.5930176,1584961398447,-2146691501411,0.056816094,0,1
1584961399133,NaN,-1.1079575,-0.0012207031,-0.7663574,0.59765625,1584961398527,-2146691501411,0.056816094,0,1
1584961399136,NaN,-0.9906299,-0.016357422,-0.81347656,0.5944824,1584961398607,-2146691501411,0.056816094,0,1
1584961399139,NaN,-0.8499985,-0.07446289,-0.8171387,0.5876465,1584961398687,-2146691501411,0.058620702,0,1
1584961399142,NaN,-0.7317853,-0.08105469,-0.8051758,0.5859375,1584961398767,-2146691501411,0.058620702,0,1
1584961399145,NaN,-0.57124704,-0.07055664,-0.8078613,0.5678711,1584961398847,-2146691501411,0.058620702,0,1
1584961401617,NaN,-0.37685886,-0.068115234,-0.8100586,0.5776367,1584961398927,-8343081638720,0.058620702,0,1
1584961401622,NaN,-0.17262436,-0.060791016,-0.80615234,0.58325195,1584961399007,-8343081638720,0.058620702,0,1
1584961401627,NaN,-0.039680082,-0.06616211,-0.79248047,0.6057129,1584961399087,-8343081638720,0.058620702,0,1
1584961401631,NaN,0.05383551,-0.05493164,-0.78686523,0.6020508,1584961399167,-8343081638720,0.058620702,0,1
1584961401635,NaN,0.17154674,-0.056396484,-0.798584,0.5949707,1584961399247,-8343081638720,0.058620702,0,1
1584961401639,NaN,0.26871678,-0.018066406,-0.77734375,0.5969238,1584961399327,-8343081638720,0.058620702,0,1
1584961401643,NaN,0.3111783,-0.020019531,-0.7817383,0.61279297,1584961399407,-8343081638720,0.058620702,0,1
1584961401648,NaN,0.31816575,0.0031738281,-0.78271484,0.6159668,1584961399487,-8343081638720,0.058620702,0,1
1584961401657,NaN,0.2518216,0.0061035156,-0.78125,0.61694336,1584961399567,-8343081638720,0.058620702,0,1
1584961401662,NaN,0.19082727,0.03173828,-0.7871094,0.61743164,1584961399647,-8343081638720,0.058620702,0,1
1584961401666,NaN,0.13661735,0.048339844,-0.7668457,0.61572266,1584961399727,-8343081638720,0.058620702,0,1
1584961401670,NaN,0.023389285,0.067871094,-0.7668457,0.6376953,1584961399807,-8343081638720,0.058620702,0,1
1584961401675,NaN,-0.112385936,0.08325195,-0.7565918,0.6437988,1584961399887,-8343081638720,0.058620702,0,1
1584961401679,30.0,-0.23730803,0.10522461,-0.7626953,0.6262207,1584961399967,-8343081638720,0.058620702,0,1
1584961401684,NaN,-0.30578312,0.10961914,-0.7492676,0.6291504,1584961400047,-8343081638720,0.058620702,0,1
1584961401687,NaN,-0.37466934,0.123046875,-0.7414551,0.63671875,1584961400127,-8343081638720,0.058620702,0,1
1584961401691,NaN,-0.49749723,0.12060547,-0.7324219,0.6538086,1584961400207,-8343081638720,0.058620702,0,1
1584961401695,NaN,-0.59045976,0.12060547,-0.7236328,0.642334,1584961400287,-8343081638720,0.058620702,0,1
1584961401700,NaN,-0.6570439,0.11328125,-0.73828125,0.6555176,1584961400367,-8343081638720,0.058620702,0,1
1584961401704,NaN,-0.7259508,0.1081543,-0.7409668,0.6640625,1584961400447,-8343081638720,0.058620702,0,1
1584961401708,NaN,-0.7711506,0.1027832,-0.73657227,0.66625977,1584961400527,-8343081638720,0.058620702,0,1
1584961401712,NaN,-0.81133246,0.10546875,-0.7355957,0.6555176,1584961400607,-8343081638720,0.058620702,0,1
1584961401716,NaN,-0.845428,0.10864258,-0.7260742,0.6682129,1584961400687,-8343081638720,0.058620702,0,1
1584961401719,NaN,-0.82503647,0.10205078,-0.72924805,0.6647949,1584961400767,-8343081638720,0.058620702,0,1
1584961401722,NaN,-0.7861306,0.09716797,-0.7253418,0.6677246,1584961400847,-8343081638720,0.058620702,0,1
1584961401726,NaN,-0.7689906,0.100097656,-0.7294922,0.6657715,1584961400927,-8343081638720,0.058620702,0,1
1584961401730,NaN,-0.7504397,0.09448242,-0.7258301,0.6682129,1584961401007,-8343081638720,0.058620702,0,1
1584961401733,NaN,-0.70383877,0.09350586,-0.72924805,0.66796875,1584961401087,-8343081638720,0.058620702,0,1
1584961401736,NaN,-0.61257225,0.09033203,-0.7282715,0.67163086,1584961401167,-8343081638720,0.058620702,0,1
1584961401739,NaN,-0.5403419,0.09448242,-0.7265625,0.66845703,1584961401247,-8343081638720,0.043865215,0,1
1584961401744,NaN,-0.4719576,0.0925293,-0.72998047,0.66552734,1584961401327,-8343081638720,0.043865215,0,1
1584961401747,NaN,-0.40380797,0.10424805,-0.73461914,0.66674805,1584961401407,-8343081638720,0.043865215,0,1
1584961404199,NaN,-0.33203116,0.10205078,-0.7338867,0.6677246,1584961401487,3907272297680,0.043865215,0,1
1584961404207,NaN,-0.26739636,0.095458984,-0.7451172,0.67163086,1584961401567,3907272297680,0.043865215,0,1
1584961404212,NaN,-0.19051068,0.103515625,-0.7373047,0.66381836,1584961401647,3907272297680,0.043865215,0,1
1584961404216,NaN,-0.15080163,0.09741211,-0.72143555,0.6669922,1584961401727,3907272297680,0.043865215,0,1
1584961404221,NaN,-0.113125704,0.10107422,-0.73999023,0.6750488,1584961401807,3907272297680,0.043865215,0,1
1584961404227,NaN,-0.06966682,0.10229492,-0.7258301,0.6567383,1584961401887,3907272297680,0.029398425,0,1
1584961404231,NaN,-0.025251905,0.10620117,-0.73461914,0.6525879,1584961401967,3907272297680,0.029398425,0,1
1584961404235,NaN,0.004404129,0.10620117,-0.73706055,0.6525879,1584961402047,3907272297680,0.029398425,0,1
1584961404239,NaN,0.03176226,0.107177734,-0.7392578,0.640625,1584961402127,3907272297680,0.029398425,0,1
1584961404242,NaN,0.08035948,0.09863281,-0.7561035,0.62646484,1584961402207,3907272297680,0.029398425,0,1
1584961404246,NaN,0.10741655,0.09301758,-0.7504883,0.64941406,1584961402287,3907272297680,0.029398425,0,1
1584961404249,NaN,0.13267004,0.09887695,-0.7536621,0.65112305,1584961402367,3907272297680,0.028793072,0,1
1584961404252,NaN,0.15814869,0.09814453,-0.7524414,0.6472168,1584961402447,3907272297680,0.028793072,0,1
1584961404256,NaN,0.18253219,0.09790039,-0.75219727,0.6398926,1584961402527,3907272297680,0.024284324,0,1
1584961404259,NaN,0.1984455,0.09643555,-0.7553711,0.63964844,1584961402607,3907272297680,0.024284324,0,1
1584961404262,NaN,0.231027,0.09277344,-0.7507324,0.6489258,1584961402687,3907272297680,0.024284324,0,1
1584961404267,NaN,0.252139,0.1003418,-0.751709,0.64575195,1584961402767,3907272297680,0.024284324,0,1
1584961404270,NaN,0.2765862,0.09277344,-0.75024414,0.6369629,1584961402847,3907272297680,0.024284324,0,1
1584961404272,NaN,0.2783966,0.09423828,-0.75024414,0.6484375,1584961402927,3907272297680,0.024284324,0,1
1584961404275,NaN,0.275913,0.09350586,-0.74487305,0.6501465,1584961403007,3907272297680,0.024284324,0,1
1584961404278,NaN,0.25783563,0.09277344,-0.748291,0.6489258,1584961403087,3907272297680,0.024284324,0,1
1584961404281,NaN,0.20104943,0.091552734,-0.7487793,0.64941406,1584961403167,3907272297680,0.024284324,0,1
1584961404284,NaN,0.18136775,0.08984375,-0.75146484,0.64941406,1584961403247,3907272297680,0.024284324,0,1
1584961404287,NaN,0.15964665,0.08496094,-0.7541504,0.65771484,1584961403327,3907272297680,0.024284324,0,1
1584961404290,NaN,0.14190736,0.09448242,-0.7536621,0.64038086,1584961403407,3907272297680,0.024284324,0,1
1584961404293,NaN,0.124527015,0.09301758,-0.75146484,0.63256836,1584961403487,3907272297680,0.024284324,0,1
1584961404296,NaN,0.09761969,0.08251953,-0.7590332,0.64941406,1584961403567,3907272297680,0.024284324,0,1
1584961404299,NaN,0.070778914,0.08691406,-0.74560547,0.64453125,1584961403647,3907272297680,0.024284324,0,1
1584961404302,NaN,0.048502084,0.08959961,-0.74902344,0.6437988,1584961403727,3907272297680,0.024284324,0,1
1584961404306,NaN,0.009595599,0.080078125,-0.7392578,0.6508789,1584961403807,3907272297680,0.024284324,0,1
1584961404309,NaN,0.005192839,0.07421875,-0.74658203,0.63720703,1584961403887,3907272297680,0.024284324,0,1
1584961404312,NaN,0.020009518,0.08984375,-0.7573242,0.6242676,1584961403967,3907272297680,0.024284324,0,1
1584961406785,NaN,0.036853258,0.09887695,-0.76464844,0.6286621,1584961404047,-2289399314604,0.024284324,0,1
1584961406789,NaN,0.049817603,0.110839844,-0.7480469,0.6472168,1584961404127,-2289399314604,0.027622437,0,1
1584961406795,NaN,0.036427725,0.099853516,-0.74853516,0.6633301,1584961404207,-2289399314604,0.027622437,0,1
1584961406801,NaN,0.03091757,0.099853516,-0.74487305,0.6542969,1584961404287,-2289399314604,0.027622437,0,1
1584961406808,NaN,0.031594194,0.0871582,-0.7602539,0.6386719,1584961404367,-2289399314604,0.027622437,0,1
1584961406812,NaN,0.019749485,0.06616211,-0.7446289,0.6472168,1584961404447,-2289399314604,0.027622437,0,1
1584961406816,NaN,0.008429267,0.064453125,-0.7373047,0.65649414,1584961404527,-2289399314604,0.027622437,0,1
1584961406820,NaN,0.011819928,0.07348633,-0.7519531,0.64746094,1584961404607,-2289399314604,0.027622437,0,1
1584961406826,NaN,0.011737447,0.06225586,-0.7480469,0.6489258,1584961404687,-2289399314604,0.027622437,0,1
1584961406830,NaN,0.025306148,0.07910156,-0.7434082,0.65185547,1584961404767,-2289399314604,0.027622437,0,1
1584961406833,NaN,0.004375679,0.079833984,-0.7409668,0.64990234,1584961404847,-2289399314604,0.027622437,0,1
1584961406836,NaN,-0.033542853,0.06762695,-0.75,0.6496582,1584961404927,-2289399314604,0.027622437,0,1
1584961406840,NaN,-0.07570863,0.06933594,-0.7463379,0.6591797,1584961405007,-2289399314604,0.027622437,0,1
1584961406843,NaN,-0.06300987,0.05810547,-0.7512207,0.6533203,1584961405087,-2289399314604,0.027622437,0,1
1584961406847,NaN,-0.038046032,0.06298828,-0.74975586,0.6567383,1584961405167,-2289399314604,0.027622437,0,1
1584961406850,NaN,-0.011246763,0.072265625,-0.7626953,0.6467285,1584961405247,-2289399314604,0.027622437,0,1
1584961406854,NaN,-0.015520226,0.05908203,-0.75512695,0.6411133,1584961405327,-2289399314604,0.027622437,0,1
1584961406857,NaN,0.0043960027,0.045654297,-0.7409668,0.6298828,1584961405407,-2289399314604,0.027622437,0,1
1584961406861,NaN,0.041724514,0.042236328,-0.76171875,0.6455078,1584961405487,-2289399314604,0.027622437,0,1
1584961406865,NaN,0.057234883,0.038330078,-0.75634766,0.6320801,1584961405567,-2289399314604,0.027622437,0,1
1584961406869,NaN,0.077461116,0.050048828,-0.7553711,0.62353516,1584961405647,-2289399314604,0.027622437,0,1
1584961406873,NaN,0.11053873,0.05493164,-0.75268555,0.6118164,1584961405727,-2289399314604,0.027622437,0,1
1584961406876,NaN,0.15909196,0.041503906,-0.7824707,0.6413574,1584961405807,-2289399314604,0.04404692,0,1
1584961406879,NaN,0.19981591,0.04296875,-0.767334,0.6320801,1584961405887,-2289399314604,0.04404692,0,1
1584961406884,NaN,0.2408809,0.046875,-0.75634766,0.6464844,1584961405967,-2289399314604,0.04404692,0,1
1584961406888,NaN,0.24429357,0.05419922,-0.751709,0.63427734,1584961406047,-2289399314604,0.04404692,0,1
1584961406891,NaN,0.24816245,0.048339844,-0.76049805,0.6447754,1584961406127,-2289399314604,0.04404692,0,1
1584961406894,NaN,0.23663284,0.04711914,-0.7570801,0.63793945,1584961406207,-2289399314604,0.04404692,0,1
1584961406898,NaN,0.22882567,0.052734375,-0.748291,0.6477051,1584961406287,-2289399314604,0.04404692,0,1
1584961406901,NaN,0.20816498,0.05810547,-0.7531738,0.64746094,1584961406367,-2289399314604,0.04404692,0,1
1584961406904,NaN,0.16733378,0.047851562,-0.748291,0.65771484,1584961406447,-2289399314604,0.04404692,0,1
1584961406907,NaN,0.13291839,0.05029297,-0.7495117,0.6447754,1584961406527,-2289399314604,0.04404692,0,1
1584961409370,NaN,0.096767664,0.047607422,-0.7519531,0.6452637,1584961406607,-8485789451912,0.04404692,0,1
1584961409376,NaN,0.04042349,0.055419922,-0.7524414,0.64746094,1584961406687,-8485789451912,0.04404692,0,1
1584961409385,8.823529,-0.014537516,0.04663086,-0.75024414,0.6413574,1584961406767,-8485789451912,0.04404692,0,1
1584961409392,NaN,-0.06221531,0.024658203,-0.75512695,0.66674805,1584961406847,-8485789451912,0.04404692,0,1
1584961409397,NaN,-0.08107986,0.03125,-0.7504883,0.6491699,1584961406927,-8485789451912,0.04404692,0,1
1584961409401,NaN,-0.09669023,0.0390625,-0.75146484,0.6464844,1584961407007,-8485789451912,0.04404692,0,1
1584961409408,NaN,-0.11198991,0.037597656,-0.75683594,0.6447754,1584961407087,-8485789451912,0.04404692,0,1
1584961409411,NaN,-0.12709245,0.035888672,-0.7504883,0.64868164,1584961407167,-8485789451912,0.04404692,0,1
1584961409425,NaN,-0.106993966,0.03149414,-0.75634766,0.642334,1584961407247,-8485789451912,0.04404692,1,1
1584961409429,NaN,-0.09277588,0.027832031,-0.748291,0.64941406,1584961407327,-8485789451912,0.04404692,1,1
1584961409430,NaN,-0.06624816,0.036621094,-0.7429199,0.6411133,1584961407407,-8485789451912,0.04404692,1,1
1584961409432,NaN,-0.038855154,0.043701172,-0.7504883,0.6269531,1584961407487,-8485789451912,0.04404692,1,1
1584961409439,NaN,-0.010607377,0.037109375,-0.763916,0.6376953,1584961407567,-8485789451912,0.04404692,1,1
1584961409441,NaN,0.019021148,0.052001953,-0.75024414,0.63305664,1584961407647,-8485789451912,0.04404692,1,1
1584961409445,NaN,0.015857138,0.048339844,-0.7265625,0.6582031,1584961407727,-8485789451912,0.04404692,1,1
1584961409449,NaN,0.03458692,0.020996094,-0.74731445,0.66796875,1584961407807,-8485789451912,0.04404692,1,1
1584961409457,NaN,0.05847006,0.016357422,-0.76586914,0.6308594,1584961407887,-8485789451912,0.04404692,1,1
1584961409461,NaN,0.107723854,-0.0034179688,-0.767334,0.6086426,1584961407967,-8485789451912,0.04404692,1,1
1584961409465,NaN,0.1874546,-0.034423828,-0.7878418,0.5810547,1584961408047,-8485789451912,0.046292823,1,1
1584961409468,NaN,0.29981557,-0.051757812,-0.81225586,0.5793457,1584961408127,-8485789451912,0.046292823,1,1
1584961409472,NaN,0.38134417,-0.060302734,-0.7993164,0.5822754,1584961408207,-8485789451912,0.046292823,1,1
1584961409475,NaN,0.52904046,-0.09692383,-0.83374023,0.54541016,1584961408287,-8485789451912,0.062330972,1,1
1584961409478,NaN,0.7010823,-0.10839844,-0.8498535,0.5202637,1584961408367,-8485789451912,0.062330972,1,1
1584961409482,NaN,0.9025705,-0.1430664,-0.84814453,0.48242188,1584961408447,-8485789451912,0.062330972,1,1
1584961409488,NaN,1.1337876,-0.16064453,-0.8691406,0.45166016,1584961408527,-8485789451912,0.062330972,1,1
1584961409494,NaN,1.3979758,-0.17333984,-0.8679199,0.4350586,1584961408607,-8485789451912,0.062330972,1,1
1584961409500,NaN,1.7629361,-0.22241211,-0.9008789,0.40795898,1584961408687,-8485789451912,0.065029,1,1
1584961409501,NaN,2.095573,-0.23950195,-0.8811035,0.40942383,1584961408767,-8485789451912,0.065029,1,1
1584961409508,NaN,2.4089363,-0.25878906,-0.88842773,0.36889648,1584961408847,-8485789451912,0.065029,1,1
1584961409512,NaN,2.675738,-0.25561523,-0.89404297,0.3659668,1584961408927,-8485789451912,0.065029,1,1
1584961409516,NaN,2.8759353,-0.25219727,-0.8942871,0.35009766,1584961409007,-8485789451912,0.065029,1,1
1584961409521,NaN,3.0403259,-0.25610352,-0.8967285,0.34521484,1584961409087,-8485789451912,0.065029,1,1
1584961411953,NaN,3.217761,-0.25830078,-0.8967285,0.3413086,1584961409167,3764564484488,0.065029,1,1
1584961411962,NaN,3.282753,-0.25927734,-0.892334,0.34887695,1584961409247,3764564484488,0.065029,1,1
1584961411967,NaN,3.301503,-0.25317383,-0.90649414,0.33642578,1584961409327,3764564484488,0.065029,1,1
1584961411971,NaN,3.2443218,-0.23632812,-0.8852539,0.32104492,1584961409407,3764564484488,0.065029,1,1
1584961411977,NaN,3.1416194,-0.25463867,-0.90527344,0.31347656,1584961409487,3764564484488,0.065029,1,1
1584961411980,NaN,3.0125782,-0.2680664,-0.8989258,0.29541016,1584961409567,3764564484488,0.065029,1,1
1584961411984,NaN,2.7621136,-0.25756836,-0.9121094,0.29541016,1584961409647,3764564484488,0.065029,1,1
1584961411989,NaN,2.512058,-0.24145508,-0.9304199,0.29858398,1584961409727,3764564484488,0.065029,1,1
1584961411993,NaN,2.2296958,-0.2409668,-0.9301758,0.2800293,1584961409807,3764564484488,0.065029,1,1
1584961411998,NaN,1.9547237,-0.22192383,-0.92578125,0.28979492,1584961409887,3764564484488,0.065029,1,1
1584961412001,NaN,1.6920639,-0.19677734,-0.92529297,0.2890625,1584961409967,3764564484488,0.065029,1,1
1584961412006,NaN,1.4436636,-0.20898438,-0.9394531,0.28808594,1584961410047,3764564484488,0.065029,1,1
1584961412010,NaN,1.17744,-0.23828125,-0.90283203,0.3190918,1584961410127,3764564484488,0.065029,1,1
1584961412014,NaN,0.97508925,-0.20922852,-0.9160156,0.29711914,1584961410207,3764564484488,0.065029,1,1
1584961412019,NaN,0.7897706,-0.24584961,-0.91845703,0.3112793,1584961410287,3764564484488,0.065029,1,1
1584961412022,NaN,0.6142171,-0.22924805,-0.91308594,0.3474121,1584961410367,3764564484488,0.065029,1,1
1584961412025,NaN,0.44865108,-0.21899414,-0.9189453,0.32714844,1584961410447,3764564484488,0.065029,1,1
1584961412028,NaN,0.2570314,-0.2133789,-0.90185547,0.3317871,1584961410527,3764564484488,0.065029,1,1
1584961412031,NaN,0.11698542,-0.21411133,-0.9133301,0.33642578,1584961410607,3764564484488,0.065029,1,1
1584961412034,NaN,-0.0041652643,-0.22241211,-0.9133301,0.34228516,1584961410687,3764564484488,0.065029,1,1
1584961412038,15.0,-0.12121976,-0.20874023,-0.88256836,0.33862305,1584961410767,3764564484488,0.065029,1,1
1584961412041,NaN,-0.2153933,-0.19897461,-0.8964844,0.34814453,1584961410847,3764564484488,0.065029,1,1
1584961412044,NaN,-0.27551344,-0.19921875,-0.91503906,0.34545898,1584961410927,3764564484488,0.065029,1,1
1584961412047,NaN,-0.33158225,-0.23217773,-0.9057617,0.33935547,1584961411007,3764564484488,0.065029,1,1
1584961412050,NaN,-0.37239754,-0.2019043,-0.90405273,0.34643555,1584961411087,3764564484488,0.065029,1,1
1584961412053,NaN,-0.41282547,-0.21655273,-0.8984375,0.3293457,1584961411167,3764564484488,0.065029,1,1
1584961412056,NaN,-0.44156167,-0.21508789,-0.9177246,0.31152344,1584961411247,3764564484488,0.056220766,1,1
1584961412059,NaN,-0.35776797,-0.234375,-0.9572754,0.2697754,1584961411327,3764564484488,0.06065605,1,1
1584961412063,NaN,-0.28133816,-0.21606445,-0.94189453,0.2565918,1584961411407,3764564484488,0.06065605,1,1
1584961412066,NaN,-0.19115393,-0.17871094,-0.9350586,0.2626953,1584961411487,3764564484488,0.06065605,1,1
1584961412069,NaN,-0.10849548,-0.16796875,-0.9489746,0.2709961,1584961411567,3764564484488,0.06065605,1,1
1584961412071,NaN,-0.05609645,-0.18164062,-0.91845703,0.30737305,1584961411647,3764564484488,0.06065605,1,1
1584961414534,NaN,-0.013111037,-0.17480469,-0.91918945,0.35546875,1584961411727,-2432107127796,0.06065605,1,1
1584961414538,NaN,-0.005967602,-0.13891602,-0.9140625,0.38720703,1584961411807,-2432107127796,0.06065605,1,1
1584961414541,NaN,-0.022794113,-0.119140625,-0.9182129,0.38330078,1584961411887,-2432107127796,0.06065605,1,1
1584961414544,NaN,-0.080338076,-0.09863281,-0.9050293,0.39135742,1584961411967,-2432107127796,0.06065605,1,1
1584961414549,NaN,-0.11828261,-0.10913086,-0.9013672,0.3930664,1584961412047,-2432107127796,0.06065605,1,1
1584961414552,NaN,-0.19330525,-0.1015625,-0.89160156,0.39892578,1584961412127,-2432107127796,0.06065605,1,1
1584961414557,NaN,-0.33055532,-0.0925293,-0.8833008,0.4423828,1584961412207,-2432107127796,0.06065605,1,1
1584961414560,NaN,-0.61881965,-0.06689453,-0.8664551,0.46118164,1584961412287,-2432107127796,0.06065605,1,1
1584961414564,NaN,-0.9156322,-0.05444336,-0.86157227,0.4831543,1584961412367,-2432107127796,0.06065605,1,1
1584961414568,NaN,-1.1979179,-0.038330078,-0.83447266,0.49145508,1584961412447,-2432107127796,0.06065605,1,1
1584961414572,NaN,-1.4557093,-0.04638672,-0.8352051,0.4790039,1584961412527,-2432107127796,0.06065605,1,1
1584961414576,NaN,-1.6683413,-0.040771484,-0.8745117,0.49853516,1584961412607,-2432107127796,0.06065605,1,1
1584961414581,NaN,-1.7803473,-0.05126953,-0.9550781,0.48583984,1584961412687,-2432107127796,0.08223336,1,1
1584961414585,NaN,-1.8078715,-0.01171875,-0.96728516,0.43701172,1584961412767,-2432107127796,0.08223336,1,1
1584961414588,NaN,-1.8058335,0.060791016,-0.8918457,0.33081055,1584961412847,-2432107127796,0.14908879,1,1
1584961414591,NaN,-1.766528,0.12866211,-0.8166504,0.27514648,1584961412927,-2432107127796,0.14908879,1,1
1584961414594,NaN,-1.7628951,0.14428711,-0.87597656,0.3190918,1584961413007,-2432107127796,0.14908879,1,1
1584961414597,NaN,-1.7126004,0.107421875,-0.9692383,0.37817383,1584961413087,-2432107127796,0.14908879,1,1
