local_ts,breathing_rate,breathing_signal,accel_x,accel_y,accel_z,bs_timestamp,rs_ts,activity_level,current_exercise,pred_exercise
1584104979795,NaN,0.07387806,0.12060547,-0.86499023,0.47705078,1584104977451,-2924262864694,0.02198486,1,1
1584104979798,NaN,0.059819866,0.111328125,-0.8635254,0.48388672,1584104977531,-2924262864694,0.02198486,1,1
1584104979809,NaN,0.04418321,0.107177734,-0.8588867,0.48535156,1584104977611,-2924262864694,0.02198486,1,1
1584104979811,NaN,0.011984028,0.11425781,-0.8557129,0.49731445,1584104977691,-2924262864694,0.02198486,1,1
1584104979827,NaN,-0.01703353,0.114990234,-0.8496094,0.49438477,1584104977771,-2924262864694,0.02198486,1,1
1584104979828,32.608696,-0.054783616,0.106933594,-0.8395996,0.50097656,1584104977851,-2924262864694,0.02198486,1,1
1584104979829,NaN,-0.06770731,0.119384766,-0.85375977,0.49438477,1584104977931,-2924262864694,0.02198486,1,1
1584104979830,NaN,-0.07862567,0.123535156,-0.8508301,0.4921875,1584104978011,-2924262864694,0.019974822,1,1
1584104979849,NaN,-0.07430169,0.11303711,-0.8640137,0.49291992,1584104978091,-2924262864694,0.019974822,1,1
1584104979850,NaN,-0.083918475,0.118896484,-0.8540039,0.49047852,1584104978171,-2924262864694,0.019974822,1,1
1584104979851,NaN,-0.069624014,0.11767578,-0.8623047,0.48583984,1584104978251,-2924262864694,0.019974822,1,1
1584104979851,NaN,-0.06009972,0.111572266,-0.86328125,0.48168945,1584104978331,-2924262864694,0.019974822,1,1
1584104979852,NaN,-0.061052483,0.12207031,-0.86328125,0.47094727,1584104978411,-2924262864694,0.019974822,1,1
1584104979853,NaN,-0.059973624,0.11425781,-0.8598633,0.48242188,1584104978491,-2924262864694,0.019974822,1,1
1584104979855,NaN,-0.05836277,0.11621094,-0.86279297,0.49267578,1584104978571,-2924262864694,0.019974822,1,1
1584104979856,NaN,-0.0281903,0.12158203,-0.85717773,0.4814453,1584104978651,-2924262864694,0.019974822,1,1
1584104979857,NaN,0.0021171942,0.119628906,-0.8623047,0.47729492,1584104978731,-2924262864694,0.019974822,1,1
1584104979858,NaN,0.04502989,0.11621094,-0.86206055,0.4897461,1584104978811,-2924262864694,0.019974822,1,1
1584104979862,NaN,0.061995804,0.11669922,-0.859375,0.4802246,1584104978891,-2924262864694,0.019974822,1,1
1584104979865,NaN,0.07952436,0.111328125,-0.8630371,0.4807129,1584104978971,-2924262864694,0.019974822,1,1
1584104979867,NaN,0.08228009,0.10571289,-0.8647461,0.48413086,1584104979051,-2924262864694,0.019974822,1,1
1584104979870,NaN,0.08687517,0.114990234,-0.85546875,0.49536133,1584104979131,-2924262864694,0.019974822,1,1
1584104979873,NaN,0.083619915,0.11206055,-0.85961914,0.48291016,1584104979211,-2924262864694,0.019974822,1,1
1584104979878,NaN,0.066476084,0.106933594,-0.861084,0.49365234,1584104979291,-2924262864694,0.019974822,1,1
1584104979880,NaN,0.046505164,0.111572266,-0.859375,0.4885254,1584104979371,-2924262864694,0.019974822,1,1
1584104979883,NaN,0.049628284,0.115722656,-0.86157227,0.47924805,1584104979451,-2924262864694,0.019974822,1,1
1584104979886,NaN,0.0561832,0.1105957,-0.85668945,0.48242188,1584104979531,-2924262864694,0.019974822,1,1
1584104979890,NaN,0.037722733,0.115234375,-0.85595703,0.48657227,1584104979611,-2924262864694,0.019974822,1,1
1584104979894,NaN,0.001578095,0.115722656,-0.84936523,0.49438477,1584104979691,-2924262864694,0.019974822,1,1
1584104979898,NaN,-0.022096276,0.11206055,-0.8547363,0.4921875,1584104979771,-2924262864694,0.019974822,1,1
1584104979901,30.0,-0.044002388,0.119384766,-0.85058594,0.4897461,1584104979851,-2924262864694,0.019974822,1,1
1584104979904,NaN,-0.05782452,0.111816406,-0.86376953,0.48486328,1584104979931,-2924262864694,0.019974822,1,1
1584104982372,NaN,-0.07190393,0.11401367,-0.85668945,0.49365234,1584104980011,-9120653002003,0.019974822,1,1
1584104982376,NaN,-0.062404737,0.11010742,-0.8569336,0.4868164,1584104980091,-9120653002003,0.019974822,1,1
1584104982382,NaN,-0.056236554,0.11669922,-0.8635254,0.47729492,1584104980171,-9120653002003,0.019974822,1,1
1584104982387,NaN,-0.0340587,0.115722656,-0.8623047,0.47998047,1584104980251,-9120653002003,0.019974822,1,1
1584104982395,NaN,-0.00919083,0.11987305,-0.8630371,0.4802246,1584104980331,-9120653002003,0.019974822,1,1
1584104982399,NaN,-0.013790558,0.12084961,-0.8630371,0.4831543,1584104980411,-9120653002003,0.019974822,1,1
1584104982405,NaN,-0.01138826,0.10864258,-0.86621094,0.47802734,1584104980491,-9120653002003,0.017270254,1,1
1584104982409,NaN,0.0030368424,0.119384766,-0.86279297,0.47851562,1584104980571,-9120653002003,0.017270254,1,1
1584104982415,NaN,0.039649185,0.11206055,-0.8654785,0.4765625,1584104980651,-9120653002003,0.017270254,1,1
1584104982418,NaN,0.053546626,0.119628906,-0.8613281,0.4855957,1584104980731,-9120653002003,0.017270254,1,1
1584104982421,NaN,0.074774615,0.115722656,-0.8642578,0.48046875,1584104980811,-9120653002003,0.017270254,1,1
1584104982426,NaN,0.08725336,0.11230469,-0.8642578,0.4716797,1584104980891,-9120653002003,0.017270254,1,1
1584104982430,NaN,0.11325849,0.11987305,-0.86450195,0.47509766,1584104980971,-9120653002003,0.017270254,1,1
1584104982433,NaN,0.12978116,0.11743164,-0.876709,0.46801758,1584104981051,-9120653002003,0.017270254,1,1
1584104982437,NaN,0.13424517,0.1171875,-0.8745117,0.46826172,1584104981131,-9120653002003,0.017270254,1,1
1584104982440,NaN,0.14748593,0.115234375,-0.8911133,0.46044922,1584104981211,-9120653002003,0.018451605,1,1
1584104982443,NaN,0.12719406,0.15405273,-0.8762207,0.50878906,1584104981291,-9120653002003,0.063760445,1,1
1584104982447,NaN,0.09785732,0.1237793,-0.83935547,0.5131836,1584104981371,-9120653002003,0.063760445,1,1
1584104982451,NaN,0.011087865,0.11743164,-0.75219727,0.52734375,1584104981451,-9120653002003,0.088528834,1,1
1584104982456,35.714287,-0.048465956,0.14453125,-0.8330078,0.53344727,1584104981531,-9120653002003,0.088528834,1,1
1584104982459,NaN,-0.10981322,0.15039062,-0.8220215,0.51342773,1584104981611,-9120653002003,0.088528834,1,1
1584104982463,NaN,-0.15020587,0.1015625,-0.78759766,0.48583984,1584104981691,-9120653002003,0.088528834,1,1
1584104982467,NaN,-0.1848545,0.068115234,-0.84375,0.4958496,1584104981771,-9120653002003,0.088528834,1,1
1584104982470,NaN,-0.17566247,0.04345703,-0.88842773,0.45581055,1584104981851,-9120653002003,0.088528834,1,1
1584104982473,NaN,-0.0047199926,0.12695312,-1.0666504,0.3322754,1584104981931,-9120653002003,0.23237006,1,1
1584104982475,NaN,0.24979742,0.21655273,-1.0725098,0.20385742,1584104982011,-9120653002003,0.23237006,1,1
1584104982479,NaN,0.56023157,0.18164062,-0.9655762,0.09008789,1584104982091,-9120653002003,0.23237006,1,1
1584104982482,NaN,0.9256647,0.30981445,-0.90405273,-0.014404297,1584104982171,-9120653002003,0.23237006,1,1
1584104982485,NaN,1.4250149,0.38500977,-0.904541,-0.055908203,1584104982251,-9120653002003,0.23237006,1,1
1584104982488,NaN,1.937534,0.47802734,-0.92749023,0.025634766,1584104982331,-9120653002003,0.23237006,1,1
1584104982492,NaN,2.5413506,0.43530273,-0.9367676,0.008544922,1584104982411,-9120653002003,0.23237006,1,1
1584104982495,NaN,3.0878136,0.44726562,-0.9050293,0.019042969,1584104982491,-9120653002003,0.23237006,1,1
1584104984956,NaN,3.5545282,0.4206543,-0.8327637,0.072753906,1584104982571,3129700934397,0.23237006,1,1
1584104984962,NaN,3.8312843,0.31176758,-0.76416016,0.2475586,1584104982651,3129700934397,0.23237006,1,1
1584104984967,NaN,3.9451115,0.15307617,-0.9038086,0.41479492,1584104982731,3129700934397,0.26954153,1,1
1584104984976,NaN,3.939102,0.064941406,-0.98461914,0.45239258,1584104982811,3129700934397,0.26954153,1,1
1584104984979,NaN,3.5892334,0.04736328,-0.86816406,0.49316406,1584104982891,3129700934397,0.26954153,1,1
1584104984984,NaN,2.9954026,0.10253906,-0.8701172,0.53564453,1584104982971,3129700934397,0.26954153,1,1
1584104984989,NaN,2.1836467,-0.013671875,-0.7729492,0.5966797,1584104983051,3129700934397,0.26954153,1,1
1584104984994,NaN,1.1666297,-0.09057617,-0.8449707,0.6022949,1584104983131,3129700934397,0.26954153,1,1
1584104984999,NaN,-0.0315454,-0.12402344,-0.78759766,0.60424805,1584104983211,3129700934397,0.26954153,1,1
1584104985003,34.090908,-1.178239,-0.061523438,-0.7351074,0.57910156,1584104983291,3129700934397,0.26954153,1,1
1584104985009,NaN,-2.486002,-0.1328125,-0.70043945,0.68188477,1584104983371,3129700934397,0.26954153,1,1
1584104985012,NaN,-3.7745187,-0.2019043,-0.7194824,0.68774414,1584104983451,3129700934397,0.26954153,1,1
1584104985016,NaN,-4.916033,-0.111816406,-0.6652832,0.74243164,1584104983531,3129700934397,0.26954153,1,1
1584104985019,NaN,-5.6595035,-0.09790039,-0.66796875,0.7272949,1584104983611,3129700934397,0.26954153,1,1
1584104985023,NaN,-6.145084,-0.12475586,-0.6525879,0.7036133,1584104983691,3129700934397,0.26954153,1,1
1584104985027,NaN,-6.568117,-0.118652344,-0.63500977,0.75146484,1584104983771,3129700934397,0.26954153,1,1
1584104985030,NaN,-6.7039433,-0.08251953,-0.6394043,0.732666,1584104983851,3129700934397,0.26954153,1,1
1584104985033,NaN,-6.7039833,-0.08276367,-0.6135254,0.73828125,1584104983931,3129700934397,0.26954153,1,1
1584104985036,NaN,-6.4376087,-0.17114258,-0.6113281,0.7380371,1584104984011,3129700934397,0.26954153,1,1
1584104985039,NaN,-6.0916715,-0.29003906,-0.6425781,0.77734375,1584104984091,3129700934397,0.26954153,1,1
1584104985042,NaN,-5.600939,-0.27734375,-0.59643555,0.70214844,1584104984171,3129700934397,0.26954153,1,1
1584104985045,NaN,-5.115799,-0.19628906,-0.62231445,0.7072754,1584104984251,3129700934397,0.26954153,1,1
1584104985048,NaN,-4.4290724,-0.25683594,-0.6660156,0.7392578,1584104984331,3129700934397,0.26954153,1,1
1584104985052,NaN,-3.7054498,-0.22998047,-0.6459961,0.71899414,1584104984411,3129700934397,0.26954153,1,1
1584104985055,NaN,-3.050132,-0.26635742,-0.63623047,0.69677734,1584104984491,3129700934397,0.26954153,1,1
1584104985059,NaN,-2.6161773,-0.265625,-0.6503906,0.6933594,1584104984571,3129700934397,0.26954153,1,1
1584104985061,NaN,-2.23148,-0.24707031,-0.6989746,0.6791992,1584104984651,3129700934397,0.26954153,1,1
1584104985064,NaN,-1.7949396,-0.24316406,-0.69628906,0.66259766,1584104984731,3129700934397,0.26954153,1,1
1584104985068,NaN,-1.4770089,-0.21728516,-0.73291016,0.6965332,1584104984811,3129700934397,0.26954153,1,1
1584104985071,NaN,-1.1239594,-0.21875,-0.72021484,0.685791,1584104984891,3129700934397,0.26954153,1,1
1584104985073,NaN,-0.84109145,-0.22802734,-0.69677734,0.6723633,1584104984971,3129700934397,0.26954153,1,1
1584104985076,NaN,-0.47555158,-0.20361328,-0.66064453,0.68188477,1584104985051,3129700934397,0.26954153,1,1
1584104987541,NaN,-0.1573395,-0.20263672,-0.68969727,0.6677246,1584104985131,-3066970677887,0.26954153,1,1
1584104987548,NaN,0.0414436,-0.25073242,-0.6723633,0.6850586,1584104985211,-3066970677887,0.26954153,1,1
1584104987553,NaN,0.18716179,-0.21801758,-0.673584,0.67456055,1584104985291,-3066970677887,0.1633153,1,1
1584104987558,NaN,0.2749658,-0.23242188,-0.654541,0.6862793,1584104985371,-3066970677887,0.1633153,1,1
1584104987562,NaN,0.40687886,-0.19580078,-0.6828613,0.66259766,1584104985451,-3066970677887,0.1633153,1,1
1584104987566,NaN,0.5581507,-0.19873047,-0.72680664,0.6567383,1584104985531,-3066970677887,0.1633153,1,1
1584104987569,NaN,0.61880976,-0.1953125,-0.71313477,0.63134766,1584104985611,-3066970677887,0.12980133,1,1
1584104987573,NaN,0.6806213,-0.15771484,-0.76586914,0.6296387,1584104985691,-3066970677887,0.12980133,1,1
1584104987577,NaN,0.68414974,-0.21582031,-0.7355957,0.6501465,1584104985771,-3066970677887,0.12980133,1,1
1584104987581,NaN,0.7039253,-0.2253418,-0.7595215,0.6105957,1584104985851,-3066970677887,0.12980133,1,1
1584104987586,NaN,0.71251684,-0.24169922,-0.7531738,0.58862305,1584104985931,-3066970677887,0.12906568,1,1
1584104987589,NaN,0.7350354,-0.2241211,-0.77075195,0.5732422,1584104986011,-3066970677887,0.12906568,1,1
1584104987593,NaN,0.71665597,-0.22338867,-0.765625,0.5756836,1584104986091,-3066970677887,0.12906568,1,1
1584104987596,NaN,0.80526066,-0.23339844,-0.77001953,0.5913086,1584104986171,-3066970677887,0.12906568,1,1
1584104987600,NaN,0.86412024,-0.22045898,-0.79541016,0.5925293,1584104986251,-3066970677887,0.12906568,1,1
1584104987603,NaN,0.9647922,-0.17871094,-0.75390625,0.59643555,1584104986331,-3066970677887,0.12906568,1,1
1584104987606,NaN,0.9883346,-0.1809082,-0.7739258,0.58691406,1584104986411,-3066970677887,0.12906568,1,1
1584104987609,NaN,0.94452286,-0.18383789,-0.75439453,0.61328125,1584104986491,-3066970677887,0.12906568,1,1
1584104987613,NaN,0.92171144,-0.20458984,-0.74975586,0.6088867,1584104986571,-3066970677887,0.12906568,1,1
1584104987616,NaN,0.80981874,-0.1953125,-0.74853516,0.63061523,1584104986651,-3066970677887,0.089132726,1,1
1584104987620,NaN,0.80503154,-0.2097168,-0.7453613,0.6274414,1584104986731,-3066970677887,0.08524005,1,1
1584104987623,NaN,0.7428434,-0.2163086,-0.7409668,0.6105957,1584104986811,-3066970677887,0.08123171,1,1
1584104987628,NaN,0.6189567,-0.24804688,-0.7141113,0.65234375,1584104986891,-3066970677887,0.06865346,1,1
1584104987632,NaN,0.45854652,-0.22265625,-0.7324219,0.63623047,1584104986971,-3066970677887,0.06865346,1,1
1584104987636,NaN,0.32745254,-0.21264648,-0.7248535,0.6386719,1584104987051,-3066970677887,0.06865346,1,1
1584104987640,NaN,0.177996,-0.18896484,-0.720459,0.6513672,1584104987131,-3066970677887,0.06865346,1,1
1584104987643,NaN,0.00775367,-0.19360352,-0.7097168,0.64331055,1584104987211,-3066970677887,0.06865346,1,1
1584104987647,NaN,-0.168115,-0.19604492,-0.7138672,0.6503906,1584104987291,-3066970677887,0.06865346,1,1
1584104987651,NaN,-0.33569387,-0.20288086,-0.7277832,0.6665039,1584104987371,-3066970677887,0.06865346,1,1
1584104987654,NaN,-0.4103289,-0.1652832,-0.72216797,0.6533203,1584104987451,-3066970677887,0.06865346,1,1
1584104987658,NaN,-0.46827284,-0.16894531,-0.7277832,0.6689453,1584104987531,-3066970677887,0.06865346,1,1
1584104987677,NaN,-0.47747293,-0.17797852,-0.7155762,0.6706543,1584104987611,-3066970677887,0.06865346,1,1
1584104990123,NaN,-0.52166307,-0.15844727,-0.7055664,0.66748047,1584104987691,9183383258514,0.06865346,1,1
1584104990131,NaN,-0.541107,-0.1706543,-0.71777344,0.66625977,1584104987771,9183383258514,0.06865346,1,1
1584104990135,NaN,-0.4779563,-0.16625977,-0.7036133,0.6826172,1584104987851,9183383258514,0.06865346,1,1
1584104990141,NaN,-0.44286212,-0.17114258,-0.69677734,0.6657715,1584104987931,9183383258514,0.06865346,1,1
1584104990146,NaN,-0.39880052,-0.17651367,-0.7216797,0.671875,1584104988011,9183383258514,0.06865346,1,1
1584104990151,NaN,-0.3783493,-0.18286133,-0.69750977,0.67163086,1584104988091,9183383258514,0.06865346,1,1
1584104990155,NaN,-0.33497098,-0.19946289,-0.71240234,0.68066406,1584104988171,9183383258514,0.06865346,1,1
1584104990159,NaN,-0.3154174,-0.19555664,-0.68896484,0.6945801,1584104988251,9183383258514,0.06865346,1,1
1584104990163,NaN,-0.28113964,-0.2133789,-0.6743164,0.6784668,1584104988331,9183383258514,0.05899773,1,1
1584104990167,NaN,-0.3468407,-0.26831055,-0.6604004,0.7067871,1584104988411,9183383258514,0.06334967,1,1
1584104990170,NaN,-0.41330257,-0.28442383,-0.6472168,0.6906738,1584104988491,9183383258514,0.06334967,1,1
1584104990174,NaN,-0.49703488,-0.30615234,-0.64160156,0.7302246,1584104988571,9183383258514,0.06334967,1,1
1584104990177,NaN,-0.57698625,-0.30004883,-0.62475586,0.6843262,1584104988651,9183383258514,0.06334967,1,1
1584104990180,NaN,-0.70178527,-0.31103516,-0.5942383,0.72558594,1584104988731,9183383258514,0.06334967,1,1
1584104990184,NaN,-0.81116563,-0.3005371,-0.6203613,0.69433594,1584104988811,9183383258514,0.06334967,1,1
1584104990187,NaN,-0.9108138,-0.3125,-0.62280273,0.7155762,1584104988891,9183383258514,0.06334967,1,1
1584104990191,NaN,-1.0504743,-0.29467773,-0.58740234,0.7219238,1584104988971,9183383258514,0.06334967,1,1
1584104990194,NaN,-1.1390759,-0.27026367,-0.6196289,0.7426758,1584104989051,9183383258514,0.06334967,1,1
1584104990199,NaN,-1.2248688,-0.2590332,-0.6123047,0.73217773,1584104989131,9183383258514,0.06334967,1,1
1584104990201,NaN,-1.2597433,-0.24560547,-0.6147461,0.7114258,1584104989211,9183383258514,0.06334967,1,1
1584104990206,NaN,-1.2836246,-0.25463867,-0.6303711,0.73046875,1584104989291,9183383258514,0.06334967,1,1
1584104990209,NaN,-1.2119431,-0.25146484,-0.62109375,0.7229004,1584104989371,9183383258514,0.06334967,1,1
1584104990213,NaN,-1.1284658,-0.24707031,-0.6311035,0.7297363,1584104989451,9183383258514,0.06334967,1,1
1584104990216,NaN,-0.9973305,-0.26513672,-0.6315918,0.7138672,1584104989531,9183383258514,0.06334967,1,1
1584104990219,NaN,-0.87089354,-0.24267578,-0.64575195,0.7121582,1584104989611,9183383258514,0.06334967,1,1
1584104990223,NaN,-0.6848189,-0.27001953,-0.6242676,0.720459,1584104989691,9183383258514,0.06334967,1,1
1584104990226,NaN,-0.58351654,-0.27929688,-0.6298828,0.7297363,1584104989771,9183383258514,0.06334967,1,1
1584104990229,NaN,-0.4584438,-0.26367188,-0.6088867,0.7163086,1584104989851,9183383258514,0.06334967,1,1
1584104990232,NaN,-0.27297243,-0.27661133,-0.63671875,0.7182617,1584104989931,9183383258514,0.06334967,1,1
1584104990234,NaN,-0.13580163,-0.2355957,-0.6347656,0.7294922,1584104990011,9183383258514,0.06334967,1,1
1584104990238,NaN,0.0068064407,-0.24682617,-0.64453125,0.70288086,1584104990091,9183383258514,0.06334967,1,1
1584104990240,NaN,0.11264348,-0.20336914,-0.64501953,0.7102051,1584104990171,9183383258514,0.06334967,1,1
1584104992705,NaN,0.21322131,-0.23583984,-0.66967773,0.7180176,1584104990251,2986993121205,0.06334967,1,1
1584104992711,NaN,0.28757846,-0.1796875,-0.6599121,0.72509766,1584104990331,2986993121205,0.06334967,1,1
1584104992718,NaN,0.3331873,-0.22998047,-0.64501953,0.6894531,1584104990411,2986993121205,0.063416906,1,1
1584104992723,NaN,0.4089209,-0.22167969,-0.73583984,0.6899414,1584104990491,2986993121205,0.091200165,1,1
1584104992725,NaN,0.45986196,-0.13134766,-0.67626953,0.6804199,1584104990571,2986993121205,0.10862392,1,1
1584104992732,NaN,0.53780067,-0.1459961,-0.70166016,0.67285156,1584104990651,2986993121205,0.10862392,1,1
1584104992737,NaN,0.64733136,-0.13842773,-0.704834,0.7055664,1584104990731,2986993121205,0.10862392,1,1
1584104992740,NaN,0.75804067,-0.1850586,-0.7011719,0.64208984,1584104990811,2986993121205,0.10862392,1,1
1584104992745,NaN,0.8291982,-0.18896484,-0.70996094,0.64501953,1584104990891,2986993121205,0.10862392,1,1
1584104992749,NaN,0.8728381,-0.25512695,-0.7067871,0.6538086,1584104990971,2986993121205,0.10862392,1,1
1584104992752,NaN,0.8901484,-0.16772461,-0.701416,0.7207031,1584104991051,2986993121205,0.11019481,1,1
1584104992757,NaN,0.8982652,-0.1159668,-0.638916,0.6833496,1584104991131,2986993121205,0.11019481,1,1
1584104992760,NaN,0.94246054,-0.16845703,-0.7426758,0.69091797,1584104991211,2986993121205,0.11652722,1,1
1584104992765,NaN,0.9531786,-0.1459961,-0.6984863,0.6748047,1584104991291,2986993121205,0.11652722,1,1
1584104992768,NaN,0.99237823,-0.16259766,-0.7138672,0.67626953,1584104991371,2986993121205,0.11652722,1,1
1584104992773,NaN,0.9170127,-0.13134766,-0.70166016,0.6904297,1584104991451,2986993121205,0.11652722,1,1
1584104992777,NaN,0.8816812,-0.092041016,-0.70947266,0.673584,1584104991531,2986993121205,0.11652722,1,1
1584104992780,NaN,0.80385953,-0.1237793,-0.7585449,0.6826172,1584104991611,2986993121205,0.11652722,1,1
1584104992783,NaN,0.7148857,-0.13110352,-0.6970215,0.66381836,1584104991691,2986993121205,0.11652722,1,1
1584104992787,NaN,0.6129077,-0.1586914,-0.70166016,0.6303711,1584104991771,2986993121205,0.11652722,1,1
1584104992790,NaN,0.4815102,-0.13427734,-0.6838379,0.701416,1584104991851,2986993121205,0.11652722,1,1
1584104992793,NaN,0.45530796,-0.10546875,-0.7324219,0.70874023,1584104991931,2986993121205,0.11652722,1,1
1584104992796,NaN,0.45706543,-0.107666016,-0.72680664,0.6828613,1584104992011,2986993121205,0.11652722,1,1
1584104992798,NaN,0.46973732,-0.08911133,-0.7338867,0.6982422,1584104992091,2986993121205,0.11652722,1,1
1584104992801,NaN,0.40490928,-0.095703125,-0.69262695,0.6611328,1584104992171,2986993121205,0.11652722,1,1
1584104992804,NaN,0.37581685,-0.11010742,-0.71850586,0.6645508,1584104992251,2986993121205,0.11652722,1,1
1584104992807,NaN,0.3083643,-0.12231445,-0.69921875,0.6843262,1584104992331,2986993121205,0.11652722,1,1
1584104992810,NaN,0.302191,-0.14233398,-0.7180176,0.68188477,1584104992411,2986993121205,0.11652722,1,1
1584104992813,NaN,0.23676765,-0.14428711,-0.7001953,0.67822266,1584104992491,2986993121205,0.11652722,1,1
1584104992819,NaN,0.21400918,-0.08300781,-0.72143555,0.64868164,1584104992571,2986993121205,0.11652722,1,1
1584104992822,NaN,0.3014734,-0.020019531,-0.7800293,0.62939453,1584104992651,2986993121205,0.11652722,1,1
1584104992825,NaN,0.34199604,-0.08325195,-0.7375488,0.6152344,1584104992731,2986993121205,0.11652722,1,1
1584104995092,NaN,0.4438312,-0.12158203,-0.74731445,0.6208496,1584104992811,-3209678491079,0.11652722,1,1
1584104995098,NaN,0.44537458,-0.1274414,-0.78686523,0.6599121,1584104992891,-3209678491079,0.11652722,1,1
1584104995105,NaN,0.41647887,-0.119140625,-0.7487793,0.64501953,1584104992971,-3209678491079,0.11652722,1,1
1584104995111,NaN,0.40334702,-0.1184082,-0.74316406,0.607666,1584104993051,-3209678491079,0.11652722,1,1
1584104995118,NaN,0.4367101,-0.107666016,-0.75097656,0.61816406,1584104993131,-3209678491079,0.11652722,1,1
1584104995121,NaN,0.4652191,-0.09667969,-0.76953125,0.6147461,1584104993211,-3209678491079,0.11652722,1,1
1584104995125,NaN,0.5360717,-0.114746094,-0.767334,0.61694336,1584104993291,-3209678491079,0.11652722,1,1
1584104995128,NaN,0.59206456,-0.11376953,-0.75927734,0.62231445,1584104993371,-3209678491079,0.11652722,1,1
1584104995133,NaN,0.6994547,-0.09887695,-0.76416016,0.62524414,1584104993451,-3209678491079,0.11652722,1,1
1584104995136,NaN,0.72467023,-0.07348633,-0.7578125,0.6203613,1584104993531,-3209678491079,0.11652722,1,1
1584104995141,NaN,0.61326724,-0.023925781,-0.76782227,0.6245117,1584104993611,-3209678491079,0.11652722,1,1
1584104995144,NaN,0.61062986,0.0107421875,-0.77001953,0.60302734,1584104993691,-3209678491079,0.11652722,1,1
1584104995147,NaN,0.64494306,0.068847656,-0.8095703,0.58203125,1584104993771,-3209678491079,0.08816317,1,1
1584104995151,NaN,0.73784757,0.07836914,-0.8227539,0.5654297,1584104993851,-3209678491079,0.08816317,1,1
1584104995155,NaN,0.9042457,0.12426758,-0.82592773,0.5168457,1584104993931,-3209678491079,0.08816317,1,1
1584104995158,NaN,0.9812271,0.096191406,-0.7937012,0.57055664,1584104994011,-3209678491079,0.08816317,1,1
1584104995161,NaN,1.0829705,0.09838867,-0.84594727,0.560791,1584104994091,-3209678491079,0.08816317,1,1
1584104995163,NaN,1.1278652,0.09326172,-0.8112793,0.58740234,1584104994171,-3209678491079,0.08816317,1,1
1584104995169,NaN,1.1936746,0.11743164,-0.82714844,0.5695801,1584104994251,-3209678491079,0.08816317,1,1
1584104995173,NaN,1.2592274,0.08520508,-0.8161621,0.5703125,1584104994331,-3209678491079,0.08816317,1,1
1584104995177,NaN,1.3122231,0.09423828,-0.8066406,0.5578613,1584104994411,-3209678491079,0.08816317,1,1
1584104995180,NaN,1.382691,0.07495117,-0.8076172,0.5690918,1584104994491,-3209678491079,0.08816317,1,1
1584104995183,NaN,1.4715966,0.068847656,-0.79541016,0.5632324,1584104994571,-3209678491079,0.08816317,1,1
1584104995187,NaN,1.4635739,0.109375,-0.7858887,0.60058594,1584104994651,-3209678491079,0.08816317,1,1
1584104995191,NaN,1.3097979,0.016113281,-0.8005371,0.60498047,1584104994731,-3209678491079,0.09450734,1,1
1584104995194,NaN,1.0983082,-0.0073242188,-0.78808594,0.6040039,1584104994811,-3209678491079,0.09450734,1,1
1584104995198,NaN,0.724309,-0.040039062,-0.7648926,0.66186523,1584104994891,-3209678491079,0.09450734,1,1
1584104995200,NaN,0.48923883,-0.055908203,-0.7529297,0.62475586,1584104994971,-3209678491079,0.09450734,1,1
1584104995203,NaN,0.15483104,-0.091552734,-0.74731445,0.65893555,1584104995051,-3209678491079,0.09450734,1,1
1584104995206,NaN,-0.13738632,-0.14233398,-0.7246094,0.6567383,1584104995131,-3209678491079,0.09450734,1,1
1584104995210,NaN,-0.5117392,-0.14453125,-0.7265625,0.6821289,1584104995211,-3209678491079,0.09450734,1,1
1584104995215,NaN,-0.84074163,-0.12939453,-0.69677734,0.6437988,1584104995291,-3209678491079,0.09450734,1,1
1584104997676,NaN,-1.2239107,-0.20214844,-0.70410156,0.66015625,1584104995371,9040675445321,0.09450734,1,1
1584104997684,NaN,-1.6401323,-0.26879883,-0.65649414,0.685791,1584104995451,9040675445321,0.09450734,1,1
1584104997691,NaN,-2.023771,-0.27978516,-0.6730957,0.6801758,1584104995531,9040675445321,0.09450734,1,1
1584104997696,NaN,-2.3802676,-0.2697754,-0.65356445,0.6879883,1584104995611,9040675445321,0.09450734,1,1
1584104997701,NaN,-2.6001654,-0.2763672,-0.6713867,0.68530273,1584104995691,9040675445321,0.09450734,1,1
1584104997708,NaN,-2.792321,-0.2998047,-0.6516113,0.6882324,1584104995771,9040675445321,0.09450734,1,1
1584104997709,NaN,-2.8179674,-0.29516602,-0.6459961,0.6660156,1584104995851,9040675445321,0.09450734,1,1
1584104997719,NaN,-2.9118302,-0.2932129,-0.64941406,0.68725586,1584104995931,9040675445321,0.09450734,1,1
1584104997720,NaN,-2.9365747,-0.31860352,-0.6320801,0.7145996,1584104996011,9040675445321,0.09450734,1,1
1584104997723,NaN,-2.8957179,-0.2944336,-0.6381836,0.70410156,1584104996091,9040675445321,0.09450734,1,1
1584104997725,NaN,-2.8113272,-0.3137207,-0.64086914,0.7036133,1584104996171,9040675445321,0.09450734,1,1
1584104997731,NaN,-2.7944613,-0.3293457,-0.6047363,0.7023926,1584104996251,9040675445321,0.09450734,1,1
1584104997735,NaN,-2.6777248,-0.3251953,-0.60961914,0.7026367,1584104996331,9040675445321,0.09450734,1,1
1584104997739,NaN,-2.4297292,-0.3317871,-0.6171875,0.69189453,1584104996411,9040675445321,0.09450734,1,1
1584104997743,NaN,-2.182453,-0.32714844,-0.6340332,0.6928711,1584104996491,9040675445321,0.09450734,1,1
1584104997746,NaN,-1.8981034,-0.30395508,-0.6455078,0.6940918,1584104996571,9040675445321,0.09450734,1,1
1584104997749,NaN,-1.6356887,-0.26123047,-0.65234375,0.6633301,1584104996651,9040675445321,0.09450734,1,1
1584104997752,NaN,-1.331827,-0.25927734,-0.67089844,0.6687012,1584104996731,9040675445321,0.09450734,1,1
1584104997755,NaN,-1.0642115,-0.2368164,-0.6899414,0.6538086,1584104996811,9040675445321,0.09450734,1,1
1584104997758,NaN,-0.7879133,-0.23730469,-0.71362305,0.6940918,1584104996891,9040675445321,0.09450734,1,1
1584104997762,NaN,-0.44037166,-0.21020508,-0.73950195,0.64697266,1584104996971,9040675445321,0.09450734,1,1
1584104997765,NaN,-0.15805732,-0.17749023,-0.73876953,0.6611328,1584104997051,9040675445321,0.09450734,1,1
1584104997769,NaN,0.14653023,-0.16430664,-0.7368164,0.64819336,1584104997131,9040675445321,0.09450734,1,1
1584104997775,NaN,0.49977413,-0.16333008,-0.72265625,0.6665039,1584104997211,9040675445321,0.09450734,1,1
1584104997777,NaN,0.80718464,-0.13793945,-0.7192383,0.69262695,1584104997291,9040675445321,0.08582472,1,1
1584104997780,NaN,1.0258847,-0.1340332,-0.6828613,0.68188477,1584104997371,9040675445321,0.08582472,1,1
1584104997783,NaN,1.2504882,-0.12402344,-0.7158203,0.6779785,1584104997451,9040675445321,0.08582472,1,1
1584104997787,NaN,1.3978282,-0.14648438,-0.69018555,0.6965332,1584104997531,9040675445321,0.08582472,1,1
1584104997790,NaN,1.4752526,-0.16503906,-0.70166016,0.6750488,1584104997611,9040675445321,0.08582472,1,1
1584104997793,NaN,1.5149473,-0.1484375,-0.6960449,0.6833496,1584104997691,9040675445321,0.08582472,1,1
1584104997795,NaN,1.5177355,-0.12817383,-0.69140625,0.6777344,1584104997771,9040675445321,0.08582472,1,1
1584104997798,NaN,1.5808922,-0.091796875,-0.76953125,0.6604004,1584104997851,9040675445321,0.08790486,1,1
1584105000258,NaN,1.528595,-0.107177734,-0.7597656,0.6125488,1584104997931,2844285308013,0.08790486,1,1
1584105000277,NaN,1.4392648,-0.14550781,-0.7404785,0.58496094,1584104998011,2844285308013,0.08790486,1,1
1584105000280,NaN,1.3261204,-0.14794922,-0.80249023,0.6340332,1584104998091,2844285308013,0.08790486,1,1
1584105000283,NaN,1.1456814,-0.18969727,-0.73291016,0.6513672,1584104998171,2844285308013,0.08790486,1,1
1584105000287,NaN,0.94445735,-0.20532227,-0.7219238,0.6398926,1584104998251,2844285308013,0.08790486,1,1
1584105000290,NaN,0.7232113,-0.25024414,-0.68725586,0.63720703,1584104998331,2844285308013,0.08790486,1,1
1584105000294,NaN,0.50002843,-0.23071289,-0.74194336,0.64819336,1584104998411,2844285308013,0.08790486,1,1
1584105000296,NaN,0.34820947,-0.21728516,-0.6899414,0.6418457,1584104998491,2844285308013,0.08790486,1,1
1584105000299,NaN,0.25876725,-0.22290039,-0.7546387,0.65063477,1584104998571,2844285308013,0.08790486,1,1
1584105000303,NaN,0.14542253,-0.22192383,-0.69140625,0.6315918,1584104998651,2844285308013,0.08790486,1,1
1584105000306,NaN,0.0491206,-0.21777344,-0.7102051,0.6184082,1584104998731,2844285308013,0.08790486,1,1
1584105000311,NaN,-0.17780165,-0.21655273,-0.720459,0.6418457,1584104998811,2844285308013,0.08790486,1,1
1584105000315,NaN,-0.3299492,-0.1899414,-0.75634766,0.64404297,1584104998891,2844285308013,0.08790486,1,1
1584105000318,NaN,-0.4219334,-0.19555664,-0.74121094,0.6340332,1584104998971,2844285308013,0.08790486,1,1
1584105000321,NaN,-0.4870449,-0.15625,-0.7519531,0.61743164,1584104999051,2844285308013,0.08790486,1,1
1584105000325,NaN,-0.42032376,-0.14208984,-0.7717285,0.61938477,1584104999131,2844285308013,0.08790486,1,1
1584105000328,NaN,-0.3128178,-0.1340332,-0.7763672,0.6098633,1584104999211,2844285308013,0.08790486,1,1
1584105000330,NaN,-0.08351282,-0.09887695,-0.8027344,0.5776367,1584104999291,2844285308013,0.08790486,1,1
1584105000333,NaN,0.10479655,-0.08544922,-0.79052734,0.579834,1584104999371,2844285308013,0.08790486,1,1
1584105000337,NaN,0.30519053,-0.072265625,-0.8161621,0.5727539,1584104999451,2844285308013,0.08790486,1,1
1584105000340,NaN,0.43875036,-0.09326172,-0.8027344,0.5895996,1584104999531,2844285308013,0.08790486,1,1
1584105000343,NaN,0.60020304,-0.12060547,-0.8071289,0.5888672,1584104999611,2844285308013,0.08790486,1,1
1584105000346,NaN,0.7228518,-0.1352539,-0.7770996,0.58813477,1584104999691,2844285308013,0.08790486,1,1
1584105000350,NaN,0.890388,-0.15527344,-0.7714844,0.6123047,1584104999771,2844285308013,0.08790486,1,1
1584105000353,NaN,0.9489369,-0.17578125,-0.71118164,0.64086914,1584104999851,2844285308013,0.08790486,1,1
1584105000356,NaN,0.9524656,-0.23095703,-0.7324219,0.68188477,1584104999931,2844285308013,0.08790486,1,1
1584105000360,NaN,0.89631635,-0.21923828,-0.70166016,0.6711426,1584105000011,2844285308013,0.08790486,1,1
1584105000364,NaN,0.65954065,-0.3010254,-0.63671875,0.6816406,1584105000091,2844285308013,0.1049606,1,1
1584105000367,NaN,0.40419754,-0.29492188,-0.66259766,0.6816406,1584105000171,2844285308013,0.1049606,1,1
1584105000369,NaN,-0.002022922,-0.3034668,-0.6369629,0.68847656,1584105000251,2844285308013,0.1049606,1,1
1584105000372,NaN,-0.39626804,-0.3178711,-0.6335449,0.69970703,1584105000331,2844285308013,0.1049606,1,1
1584105000376,NaN,-0.88253754,-0.3527832,-0.60302734,0.70288086,1584105000411,2844285308013,0.1049606,1,1
1584105002843,NaN,-1.3259615,-0.37768555,-0.57299805,0.68530273,1584105000491,-3352386304271,0.1049606,1,1
1584105002849,NaN,-1.7526575,-0.39013672,-0.5983887,0.68530273,1584105000571,-3352386304271,0.1049606,1,1
1584105002856,NaN,-2.077591,-0.35327148,-0.6279297,0.6738281,1584105000651,-3352386304271,0.1049606,1,1
1584105002862,NaN,-2.407939,-0.40820312,-0.60595703,0.6804199,1584105000731,-3352386304271,0.1049606,1,1
1584105002868,NaN,-2.5956283,-0.39160156,-0.6154785,0.68188477,1584105000811,-3352386304271,0.1049606,1,1
1584105002874,NaN,-2.6877673,-0.36157227,-0.6374512,0.69921875,1584105000891,-3352386304271,0.1049606,1,1
1584105002879,NaN,-2.7590048,-0.37939453,-0.6081543,0.673584,1584105000971,-3352386304271,0.1049606,1,1
1584105002885,NaN,-2.6549656,-0.39770508,-0.6086426,0.6796875,1584105001051,-3352386304271,0.1049606,1,1
1584105002890,NaN,-2.5929601,-0.40161133,-0.5817871,0.70532227,1584105001131,-3352386304271,0.1049606,1,1
1584105002896,NaN,-2.4556434,-0.4206543,-0.58081055,0.6777344,1584105001211,-3352386304271,0.1049606,1,1
1584105002899,NaN,-2.2788532,-0.41064453,-0.5888672,0.6862793,1584105001291,-3352386304271,0.1049606,1,1
1584105002903,NaN,-1.9995483,-0.40405273,-0.5876465,0.6809082,1584105001371,-3352386304271,0.1049606,1,1
1584105002906,NaN,-1.6830888,-0.4033203,-0.59765625,0.68310547,1584105001451,-3352386304271,0.1049606,1,1
1584105002909,NaN,-1.3822699,-0.38964844,-0.5998535,0.6845703,1584105001531,-3352386304271,0.1049606,1,1
1584105002912,NaN,-1.1856204,-0.39624023,-0.6113281,0.6887207,1584105001611,-3352386304271,0.1049606,1,1
1584105002917,NaN,-0.87938756,-0.3659668,-0.6369629,0.6586914,1584105001691,-3352386304271,0.1049606,1,1
1584105002921,NaN,-0.6388493,-0.35595703,-0.65356445,0.6567383,1584105001771,-3352386304271,0.1049606,1,1
1584105002926,NaN,-0.44786653,-0.30859375,-0.6677246,0.65478516,1584105001851,-3352386304271,0.1049606,1,1
1584105002931,NaN,-0.21306723,-0.32373047,-0.6911621,0.64331055,1584105001931,-3352386304271,0.1049606,1,1
1584105002936,NaN,-0.036401708,-0.32861328,-0.7067871,0.6437988,1584105002011,-3352386304271,0.1049606,1,1
1584105002939,NaN,0.21158803,-0.32128906,-0.7211914,0.64697266,1584105002091,-3352386304271,0.1049606,1,1
1584105002942,NaN,0.46890804,-0.28808594,-0.70410156,0.63427734,1584105002171,-3352386304271,0.1049606,1,1
1584105002946,NaN,0.70466185,-0.2722168,-0.7062988,0.6452637,1584105002251,-3352386304271,0.1049606,1,1
1584105002949,NaN,0.89070493,-0.27246094,-0.70751953,0.65844727,1584105002331,-3352386304271,0.1049606,1,1
1584105002952,NaN,1.020187,-0.2758789,-0.6838379,0.6682129,1584105002411,-3352386304271,0.1049606,1,1
1584105002955,NaN,1.1487461,-0.25463867,-0.67944336,0.6677246,1584105002491,-3352386304271,0.1049606,1,1
1584105002958,NaN,1.3179129,-0.24584961,-0.6765137,0.67871094,1584105002571,-3352386304271,0.1049606,1,1
1584105002961,NaN,1.3491625,-0.2626953,-0.6635742,0.6738281,1584105002651,-3352386304271,0.059529275,1,1
1584105002965,NaN,1.3610448,-0.25073242,-0.6401367,0.67626953,1584105002731,-3352386304271,0.059529275,1,1
1584105002968,NaN,1.3112253,-0.26538086,-0.64453125,0.7072754,1584105002811,-3352386304271,0.059529275,1,1
1584105002971,NaN,1.2449087,-0.24487305,-0.6594238,0.7248535,1584105002891,-3352386304271,0.059529275,1,1
1584105002973,NaN,1.1783859,-0.22802734,-0.66845703,0.6948242,1584105002971,-3352386304271,0.059529275,1,1
1584105005425,NaN,1.0996553,-0.21191406,-0.6916504,0.65405273,1584105003051,8897967632129,0.059529275,1,1
1584105005428,NaN,1.0392162,-0.17333984,-0.74560547,0.63427734,1584105003131,8897967632129,0.06921118,1,1
1584105005433,NaN,0.9798877,-0.16894531,-0.74780273,0.60839844,1584105003211,8897967632129,0.06921118,1,1
1584105005438,NaN,0.91164786,-0.2109375,-0.765625,0.60375977,1584105003291,8897967632129,0.06921118,1,1
1584105005441,NaN,0.8569679,-0.23242188,-0.74731445,0.6062012,1584105003371,8897967632129,0.06921118,1,1
1584105005445,NaN,0.7872471,-0.2409668,-0.76123047,0.6118164,1584105003451,8897967632129,0.06921118,1,1
1584105005448,NaN,0.73732275,-0.20898438,-0.7590332,0.5991211,1584105003531,8897967632129,0.06921118,1,1
1584105005452,NaN,0.7650278,-0.19946289,-0.75878906,0.5949707,1584105003611,8897967632129,0.06921118,1,1
1584105005455,NaN,0.81473714,-0.1965332,-0.7553711,0.59594727,1584105003691,8897967632129,0.06921118,1,1
1584105005458,NaN,0.90954447,-0.2121582,-0.74365234,0.6254883,1584105003771,8897967632129,0.06921118,1,1
1584105005461,NaN,0.9823353,-0.21655273,-0.74853516,0.60424805,1584105003851,8897967632129,0.06921118,1,1
1584105005465,NaN,1.0104029,-0.21240234,-0.7380371,0.6142578,1584105003931,8897967632129,0.06921118,1,1
1584105005468,NaN,1.0007738,-0.20288086,-0.7475586,0.5996094,1584105004011,8897967632129,0.06921118,1,1
1584105005472,NaN,0.88414216,-0.18579102,-0.7233887,0.6472168,1584105004091,8897967632129,0.06921118,1,1
1584105005475,NaN,0.69609433,-0.24194336,-0.70654297,0.6953125,1584105004171,8897967632129,0.07582915,1,1
1584105005482,NaN,0.5639912,-0.23535156,-0.734375,0.67700195,1584105004251,8897967632129,0.07582915,1,1
1584105005483,NaN,0.5023567,-0.18603516,-0.7211914,0.6303711,1584105004331,8897967632129,0.07582915,1,1
1584105005486,NaN,0.45701233,-0.17456055,-0.7253418,0.65234375,1584105004411,8897967632129,0.07582915,1,1
1584105005489,NaN,0.34789827,-0.18945312,-0.7138672,0.6628418,1584105004491,8897967632129,0.07582915,1,1
1584105005493,NaN,0.1982023,-0.19897461,-0.71240234,0.67211914,1584105004571,8897967632129,0.07582915,1,1
1584105005496,NaN,0.03475104,-0.22509766,-0.7138672,0.6550293,1584105004651,8897967632129,0.07582915,1,1
1584105005500,NaN,-0.09681666,-0.21118164,-0.6948242,0.654541,1584105004731,8897967632129,0.07582915,1,1
1584105005503,NaN,-0.25141725,-0.22753906,-0.67211914,0.67211914,1584105004811,8897967632129,0.07582915,1,1
1584105005506,NaN,-0.39311698,-0.2409668,-0.66748047,0.701416,1584105004891,8897967632129,0.07582915,1,1
1584105005509,NaN,-0.5664409,-0.28222656,-0.64941406,0.70166016,1584105004971,8897967632129,0.07582915,1,1
1584105005513,NaN,-0.6689949,-0.30664062,-0.65649414,0.7055664,1584105005051,8897967632129,0.07582915,1,1
1584105005516,NaN,-0.62251836,-0.28295898,-0.6645508,0.69384766,1584105005131,8897967632129,0.07582915,1,1
1584105005519,NaN,-0.6459814,-0.27734375,-0.64575195,0.69433594,1584105005211,8897967632129,0.07582915,1,1
1584105005522,NaN,-0.7834883,-0.27661133,-0.625,0.7072754,1584105005291,8897967632129,0.07582915,1,1
1584105005526,NaN,-0.9102628,-0.296875,-0.66552734,0.67993164,1584105005371,8897967632129,0.07582915,1,1
1584105005529,NaN,-0.98661333,-0.3083496,-0.6525879,0.6660156,1584105005451,8897967632129,0.07582915,1,1
1584105005532,NaN,-1.0454307,-0.2919922,-0.6315918,0.6928711,1584105005531,8897967632129,0.07582915,1,1
1584105008012,NaN,-1.1028167,-0.30639648,-0.6323242,0.732666,1584105005611,2629519900783,0.07582915,1,1
1584105008020,NaN,-1.208478,-0.3347168,-0.6027832,0.70947266,1584105005691,2629519900783,0.07582915,1,1
1584105008027,NaN,-1.2269452,-0.31298828,-0.63012695,0.7097168,1584105005771,2629519900783,0.07582915,1,1
1584105008033,NaN,-1.2162474,-0.31469727,-0.6154785,0.6904297,1584105005851,2629519900783,0.07582915,1,1
1584105008037,NaN,-1.1180011,-0.32080078,-0.62353516,0.67626953,1584105005931,2629519900783,0.07582915,1,1
1584105008041,NaN,-1.0442363,-0.3581543,-0.62597656,0.72143555,1584105006011,2629519900783,0.07582915,1,1
1584105008046,NaN,-1.0694969,-0.35009766,-0.60595703,0.6933594,1584105006091,2629519900783,0.07582915,1,1
1584105008051,NaN,-1.0599803,-0.35668945,-0.61279297,0.7043457,1584105006171,2629519900783,0.07582915,1,1
1584105008057,NaN,-0.9765062,-0.36572266,-0.626709,0.6911621,1584105006251,2629519900783,0.07582915,1,1
1584105008061,NaN,-0.9324887,-0.36254883,-0.6062012,0.67285156,1584105006331,2629519900783,0.07582915,1,1
1584105008065,NaN,-0.87561697,-0.3720703,-0.6328125,0.6706543,1584105006411,2629519900783,0.07582915,1,1
1584105008070,NaN,-0.7918672,-0.34985352,-0.6472168,0.6882324,1584105006491,2629519900783,0.07582915,1,1
1584105008073,NaN,-0.65584606,-0.31933594,-0.65185547,0.66674805,1584105006571,2629519900783,0.07582915,1,1
1584105008077,NaN,-0.42544258,-0.27978516,-0.689209,0.66064453,1584105006651,2629519900783,0.07582915,1,1
1584105008081,NaN,-0.2904342,-0.29956055,-0.673584,0.640625,1584105006731,2629519900783,0.06914009,1,1
1584105008085,NaN,-0.11028767,-0.26000977,-0.7331543,0.6411133,1584105006811,2629519900783,0.07150612,1,1
1584105008088,NaN,0.018660352,-0.2644043,-0.71240234,0.61572266,1584105006891,2629519900783,0.07150612,1,1
1584105008091,NaN,0.20725906,-0.24926758,-0.7092285,0.6159668,1584105006971,2629519900783,0.07150612,1,1
1584105008095,NaN,0.42556524,-0.2548828,-0.7504883,0.6464844,1584105007051,2629519900783,0.07150612,1,1
1584105008098,NaN,0.646317,-0.23217773,-0.74121094,0.6513672,1584105007131,2629519900783,0.07150612,1,1
1584105008101,NaN,0.8107721,-0.23950195,-0.7102051,0.66625977,1584105007211,2629519900783,0.07150612,1,1
1584105008104,NaN,1.0275812,-0.20043945,-0.70996094,0.6582031,1584105007291,2629519900783,0.07150612,1,1
1584105008107,NaN,1.215034,-0.1977539,-0.7150879,0.6652832,1584105007371,2629519900783,0.07150612,1,1
1584105008110,NaN,1.3492004,-0.19091797,-0.6870117,0.6706543,1584105007451,2629519900783,0.07150612,1,1
1584105008113,NaN,1.4161927,-0.19140625,-0.70166016,0.6838379,1584105007531,2629519900783,0.07150612,1,1
1584105008116,NaN,1.3548207,-0.20214844,-0.68896484,0.6862793,1584105007611,2629519900783,0.07150612,1,1
1584105008119,NaN,1.403221,-0.16259766,-0.72680664,0.64208984,1584105007691,2629519900783,0.07150612,1,1
1584105008123,NaN,1.3719721,-0.1303711,-0.74902344,0.63427734,1584105007771,2629519900783,0.07150612,1,1
1584105008126,NaN,1.4052978,-0.10229492,-0.7836914,0.5942383,1584105007851,2629519900783,0.07150612,1,1
1584105008129,NaN,1.372382,-0.12866211,-0.7697754,0.5942383,1584105007931,2629519900783,0.07150612,1,1
1584105008133,NaN,1.3073506,-0.14257812,-0.7624512,0.6113281,1584105008011,2629519900783,0.07150612,1,1
1584105008136,NaN,1.2200692,-0.15820312,-0.7729492,0.6230469,1584105008091,2629519900783,0.07150612,1,1
1584105010595,NaN,1.1739606,-0.15039062,-0.7363281,0.6340332,1584105008171,-3567151711501,0.07150612,1,1
1584105010601,NaN,1.0762807,-0.15478516,-0.74365234,0.63549805,1584105008251,-3567151711501,0.07150612,1,1
1584105010607,NaN,1.0102694,-0.12670898,-0.751709,0.6237793,1584105008331,-3567151711501,0.07150612,1,1
1584105010617,NaN,0.96462005,-0.12182617,-0.73168945,0.6503906,1584105008411,-3567151711501,0.07150612,1,1
1584105010621,NaN,0.91625863,-0.1430664,-0.70532227,0.65405273,1584105008491,-3567151711501,0.07150612,1,1
1584105010626,NaN,0.93710274,-0.13549805,-0.71875,0.68481445,1584105008571,-3567151711501,0.07150612,1,1
1584105010632,NaN,0.84202766,-0.10864258,-0.70825195,0.68530273,1584105008651,-3567151711501,0.07150612,1,1
1584105010637,NaN,0.7416809,-0.12963867,-0.72802734,0.6599121,1584105008731,-3567151711501,0.07150612,1,1
1584105010643,NaN,0.59952885,-0.07861328,-0.7692871,0.6364746,1584105008811,-3567151711501,0.07150612,1,1
1584105010649,NaN,0.5285565,-0.041503906,-0.7585449,0.625,1584105008891,-3567151711501,0.07150612,1,1
1584105010654,NaN,0.51291704,-0.030761719,-0.7746582,0.62280273,1584105008971,-3567151711501,0.07150612,1,1
1584105010660,NaN,0.5479255,-0.011474609,-0.79541016,0.607666,1584105009051,-3567151711501,0.07150612,1,1
1584105010664,NaN,0.58603114,-0.022460938,-0.80371094,0.6125488,1584105009131,-3567151711501,0.07150612,1,1
1584105010668,NaN,0.65204823,-0.01928711,-0.79345703,0.59887695,1584105009211,-3567151711501,0.07150612,1,1
1584105010673,NaN,0.65307647,-0.028076172,-0.77563477,0.60839844,1584105009291,-3567151711501,0.07150612,1,1
1584105010678,NaN,0.6851676,-0.021972656,-0.76220703,0.58325195,1584105009371,-3567151711501,0.07034894,1,1
1584105010681,NaN,0.7534625,-0.041015625,-0.77783203,0.6081543,1584105009451,-3567151711501,0.07034894,1,1
1584105010685,NaN,0.8161997,-0.06225586,-0.8183594,0.60839844,1584105009531,-3567151711501,0.07034894,1,1
1584105010688,NaN,0.8785453,-0.083984375,-0.7817383,0.6274414,1584105009611,-3567151711501,0.07034894,1,1
1584105010691,NaN,0.911149,-0.12548828,-0.7380371,0.6437988,1584105009691,-3567151711501,0.07034894,1,1
1584105010694,NaN,0.87517524,-0.12719727,-0.7475586,0.65405273,1584105009771,-3567151711501,0.07034894,1,1
1584105010698,NaN,0.74146146,-0.14794922,-0.717041,0.66967773,1584105009851,-3567151711501,0.07034894,1,1
1584105010703,NaN,0.53679216,-0.17773438,-0.69921875,0.66796875,1584105009931,-3567151711501,0.07034894,1,1
1584105010706,NaN,0.23257262,-0.20166016,-0.6616211,0.68359375,1584105010011,-3567151711501,0.07034894,1,1
1584105010709,NaN,-0.10254568,-0.2253418,-0.6550293,0.70043945,1584105010091,-3567151711501,0.07034894,1,1
1584105010713,NaN,-0.507571,-0.31176758,-0.6425781,0.71313477,1584105010171,-3567151711501,0.08823615,1,1
1584105010716,NaN,-0.92714876,-0.4165039,-0.6003418,0.68408203,1584105010251,-3567151711501,0.11660904,1,1
1584105010719,NaN,-1.3671843,-0.40673828,-0.6003418,0.66503906,1584105010331,-3567151711501,0.11660904,1,1
1584105010723,NaN,-1.8216826,-0.4111328,-0.5864258,0.6870117,1584105010411,-3567151711501,0.11660904,1,1
1584105010726,NaN,-2.280032,-0.39892578,-0.59277344,0.68652344,1584105010491,-3567151711501,0.11660904,1,1
1584105010729,NaN,-2.6633036,-0.41235352,-0.59350586,0.6921387,1584105010571,-3567151711501,0.11660904,1,1
1584105010732,NaN,-2.934695,-0.41967773,-0.59350586,0.65893555,1584105010651,-3567151711501,0.11660904,1,1
1584105013177,NaN,-3.1790931,-0.43286133,-0.56640625,0.6862793,1584105010731,8683202224899,0.11660904,1,1
1584105013197,NaN,-3.2943022,-0.4206543,-0.61938477,0.66381836,1584105010811,8683202224899,0.11660904,1,1
1584105013198,NaN,-3.3213408,-0.36108398,-0.5998535,0.66967773,1584105010891,8683202224899,0.11660904,1,1
1584105013200,NaN,-3.179374,-0.31225586,-0.657959,0.65063477,1584105010971,8683202224899,0.11660904,1,1
1584105013201,NaN,-3.0088742,-0.36938477,-0.67041016,0.5996094,1584105011051,8683202224899,0.11660904,1,1
1584105013205,NaN,-2.6423397,-0.33154297,-0.75097656,0.59765625,1584105011131,8683202224899,0.11660904,1,1
1584105013208,NaN,-2.0335305,-0.21142578,-0.77319336,0.47973633,1584105011211,8683202224899,0.16978467,1,1
1584105013215,NaN,-1.2763062,-0.15600586,-0.9831543,0.45288086,1584105011291,8683202224899,0.21880627,1,1
1584105013219,NaN,-0.3098049,-0.0703125,-1.1628418,0.31518555,1584105011371,8683202224899,0.24205567,1,1
1584105013222,NaN,0.7791543,0.13989258,-1.0715332,0.1418457,1584105011451,8683202224899,0.2873502,1,1
1584105013226,NaN,1.9072361,0.18920898,-0.9567871,-0.008544922,1584105011531,8683202224899,0.2873502,1,1
1584105013231,NaN,3.040207,0.22216797,-0.95947266,-0.05078125,1584105011611,8683202224899,0.2873502,1,1
1584105013236,NaN,4.3316183,0.34570312,-0.8630371,-0.10083008,1584105011691,8683202224899,0.2873502,1,1
1584105013241,NaN,5.522404,0.35083008,-0.73413086,-0.118652344,1584105011771,8683202224899,0.2873502,1,1
1584105013244,NaN,6.751943,0.35424805,-0.7763672,-0.23657227,1584105011851,8683202224899,0.2873502,1,1
1584105013250,NaN,7.8606067,0.44677734,-0.8210449,-0.17626953,1584105011931,8683202224899,0.2873502,1,1
1584105013255,NaN,8.93664,0.34570312,-0.8178711,-0.25097656,1584105012011,8683202224899,0.2873502,1,1
1584105013258,NaN,9.846955,0.40185547,-0.93408203,-0.23510742,1584105012091,8683202224899,0.2873502,1,1
1584105013262,NaN,10.260671,0.37597656,-1.2041016,-0.14404297,1584105012171,8683202224899,0.2873502,1,1
1584105013266,NaN,10.340056,0.27807617,-1.3051758,-0.068359375,1584105012251,8683202224899,0.2873502,1,1
1584105013269,NaN,NaN,0.014160156,-0.9873047,0.2788086,1584105012331,8683202224899,0.5396474,1,1
1584105013272,NaN,NaN,-0.015136719,-0.71313477,0.3227539,1584105012411,8683202224899,0.5396474,1,1
1584105013276,NaN,NaN,-0.011962891,-0.7910156,0.39331055,1584105012491,8683202224899,0.5396474,1,1
1584105013279,NaN,NaN,-0.103515625,-0.9172363,0.50341797,1584105012571,8683202224899,0.5396474,1,1
1584105013283,NaN,NaN,-0.17529297,-0.81518555,0.64160156,1584105012651,8683202224899,0.5396474,1,1
1584105013286,NaN,NaN,-0.22607422,-0.68652344,0.64746094,1584105012731,8683202224899,0.5396474,1,1
1584105013289,NaN,NaN,-0.22070312,-0.6489258,0.59643555,1584105012811,8683202224899,0.5396474,1,1
1584105013291,NaN,NaN,-0.29492188,-0.67993164,0.69091797,1584105012891,8683202224899,0.5396474,1,1
1584105013295,NaN,NaN,-0.27978516,-0.67749023,0.6772461,1584105012971,8683202224899,0.5396474,1,1
1584105013299,NaN,NaN,-0.34643555,-0.6047363,0.70336914,1584105013051,8683202224899,0.5396474,1,1
1584105013300,NaN,NaN,-0.38256836,-0.55737305,0.6855469,1584105013131,8683202224899,0.5396474,1,1
1584105013302,NaN,NaN,-0.35058594,-0.6152344,0.6911621,1584105013211,8683202224899,0.5396474,1,1
1584105015761,NaN,NaN,-0.3540039,-0.60791016,0.7307129,1584105013291,2486812087590,0.5396474,1,1
1584105015766,NaN,NaN,-0.3449707,-0.5871582,0.7260742,1584105013371,2486812087590,0.5396474,1,1
1584105015770,NaN,NaN,-0.36889648,-0.57592773,0.74072266,1584105013451,2486812087590,0.5396474,1,1
1584105015776,NaN,NaN,-0.3659668,-0.5390625,0.7260742,1584105013531,2486812087590,0.5396474,1,1
1584105015780,NaN,NaN,-0.359375,-0.5617676,0.748291,1584105013611,2486812087590,0.5396474,1,1
1584105015783,NaN,NaN,-0.37475586,-0.5463867,0.7265625,1584105013691,2486812087590,0.5396474,1,1
1584105015787,NaN,NaN,-0.359375,-0.58251953,0.71118164,1584105013771,2486812087590,0.5396474,1,1
1584105015791,NaN,NaN,-0.32788086,-0.6135254,0.6940918,1584105013851,2486812087590,0.5396474,1,1
1584105015795,NaN,NaN,-0.31274414,-0.6374512,0.6750488,1584105013931,2486812087590,0.5396474,1,1
1584105015798,NaN,NaN,-0.27905273,-0.6660156,0.67285156,1584105014011,2486812087590,0.5396474,1,1
1584105015803,NaN,NaN,-0.28051758,-0.6777344,0.6743164,1584105014091,2486812087590,0.5396474,1,1
1584105015806,NaN,NaN,-0.2939453,-0.67944336,0.6870117,1584105014171,2486812087590,0.5396474,1,1
1584105015810,NaN,NaN,-0.30981445,-0.6455078,0.66796875,1584105014251,2486812087590,0.5396474,1,1
1584105015813,NaN,NaN,-0.2788086,-0.6706543,0.67089844,1584105014331,2486812087590,0.5396474,1,1
1584105015816,NaN,NaN,-0.3022461,-0.66845703,0.66430664,1584105014411,2486812087590,0.5396474,1,1
1584105015819,NaN,NaN,-0.30078125,-0.69506836,0.65478516,1584105014491,2486812087590,0.5396474,1,1
1584105015823,NaN,NaN,-0.3010254,-0.670166,0.65966797,1584105014571,2486812087590,0.5396474,1,1
1584105015827,NaN,NaN,-0.29833984,-0.6828613,0.66503906,1584105014651,2486812087590,0.5396474,1,1
1584105015830,NaN,NaN,-0.3178711,-0.65844727,0.6694336,1584105014731,2486812087590,0.5396474,1,1
1584105015834,NaN,NaN,-0.30908203,-0.6477051,0.67407227,1584105014811,2486812087590,0.5396474,1,1
1584105015838,NaN,9.444932,-0.32006836,-0.63793945,0.69140625,1584105014891,2486812087590,0.27921075,1,1
1584105015842,NaN,8.144418,-0.32226562,-0.626709,0.6911621,1584105014971,2486812087590,0.19088534,1,1
1584105015846,NaN,6.566107,-0.32714844,-0.640625,0.6906738,1584105015051,2486812087590,0.19088534,1,1
1584105015848,NaN,4.807085,-0.32983398,-0.62402344,0.703125,1584105015131,2486812087590,0.1861748,1,1
1584105015851,NaN,2.7457638,-0.35668945,-0.6191406,0.6970215,1584105015211,2486812087590,0.13844496,1,1
1584105015855,NaN,0.6795237,-0.36669922,-0.6057129,0.7067871,1584105015291,2486812087590,0.1240835,1,1
1584105015857,NaN,-1.5640936,-0.37817383,-0.5908203,0.71875,1584105015371,2486812087590,0.1240835,1,1
1584105015860,NaN,-3.7898114,-0.38891602,-0.56274414,0.70874023,1584105015451,2486812087590,0.10206772,1,1
1584105015863,NaN,-5.9263043,-0.41088867,-0.5620117,0.7241211,1584105015531,2486812087590,0.10206772,1,1
1584105015867,NaN,-7.9990215,-0.38671875,-0.57421875,0.7180176,1584105015611,2486812087590,0.066350125,1,1
1584105015870,NaN,-9.7980795,-0.39282227,-0.5510254,0.7224121,1584105015691,2486812087590,0.066350125,1,1
1584105015873,NaN,-11.325935,-0.390625,-0.5698242,0.7055664,1584105015771,2486812087590,0.047384672,1,1
1584105018145,NaN,-11.163165,-0.4177246,-0.54345703,0.70947266,1584105015851,-3709859524694,0.047384672,1,1
1584105018236,NaN,-10.671441,-0.3930664,-0.5900879,0.71362305,1584105015931,-3709859524694,0.052912094,1,1
1584105018243,NaN,-10.034943,-0.40185547,-0.5148926,0.7385254,1584105016011,-3709859524694,0.07969761,1,1
1584105018249,NaN,-9.255468,-0.36987305,-0.5041504,0.7331543,1584105016091,-3709859524694,0.07969761,1,1
1584105018255,NaN,-8.266796,-0.37402344,-0.5437012,0.7458496,1584105016171,-3709859524694,0.07969761,1,1
1584105018258,NaN,-7.179974,-0.33251953,-0.5930176,0.74316406,1584105016251,-3709859524694,0.07969761,1,1
1584105018265,NaN,-5.994573,-0.31958008,-0.56469727,0.72558594,1584105016331,-3709859524694,0.07969761,1,1
1584105018269,NaN,-4.8181734,-0.3371582,-0.55029297,0.7607422,1584105016411,-3709859524694,0.07969761,1,1
1584105018274,NaN,-3.7147014,-0.35546875,-0.5336914,0.7729492,1584105016491,-3709859524694,0.07969761,1,1
1584105018279,NaN,-2.6264513,-0.32714844,-0.55029297,0.7397461,1584105016571,-3709859524694,0.07969761,1,1
1584105018283,NaN,-1.4756376,-0.32299805,-0.56152344,0.7495117,1584105016651,-3709859524694,0.07969761,1,1
1584105018287,NaN,-0.42510137,-0.32592773,-0.5722656,0.7421875,1584105016731,-3709859524694,0.07969761,1,1
1584105018292,NaN,-0.2904164,-0.32788086,-0.54296875,0.7626953,1584105016811,-3709859524694,0.07969761,1,1
1584105018297,NaN,-0.2517513,-0.34448242,-0.5444336,0.7663574,1584105016891,-3709859524694,0.07969761,1,1
1584105018303,NaN,-0.0702108,-0.31835938,-0.54467773,0.7507324,1584105016971,-3709859524694,0.07969761,1,1
1584105018306,NaN,0.08929515,-0.31835938,-0.5605469,0.75,1584105017051,-3709859524694,0.07969761,1,1
1584105018309,NaN,0.20913048,-0.3034668,-0.5751953,0.7561035,1584105017131,-3709859524694,0.07969761,1,1
1584105018312,NaN,0.21783698,-0.2841797,-0.57250977,0.7531738,1584105017211,-3709859524694,0.07969761,1,1
1584105018315,NaN,0.24260837,-0.30517578,-0.60180664,0.7216797,1584105017291,-3709859524694,0.07969761,1,1
1584105018319,NaN,0.32459122,-0.28515625,-0.6225586,0.7180176,1584105017371,-3709859524694,0.07969761,1,1
1584105018322,NaN,0.44602808,-0.28466797,-0.6320801,0.70996094,1584105017451,-3709859524694,0.07969761,1,1
1584105018325,NaN,0.5319693,-0.29101562,-0.6447754,0.6936035,1584105017531,-3709859524694,0.07969761,1,1
1584105018329,NaN,0.5979524,-0.2680664,-0.6530762,0.7060547,1584105017611,-3709859524694,0.07969761,1,1
1584105018333,NaN,0.65024406,-0.2770996,-0.62768555,0.6940918,1584105017691,-3709859524694,0.07969761,1,1
1584105018336,NaN,0.723964,-0.30566406,-0.6513672,0.6977539,1584105017771,-3709859524694,0.07969761,1,1
1584105018339,NaN,0.84171313,-0.31396484,-0.6369629,0.6953125,1584105017851,-3709859524694,0.07969761,1,1
1584105018342,NaN,0.85389334,-0.3330078,-0.6279297,0.6862793,1584105017931,-3709859524694,0.07969761,1,1
1584105018347,NaN,0.8424129,-0.34814453,-0.623291,0.69189453,1584105018011,-3709859524694,0.07969761,1,1
1584105018351,NaN,0.8329193,-0.3474121,-0.63842773,0.69091797,1584105018091,-3709859524694,0.07969761,1,1
1584105018353,NaN,0.834867,-0.35180664,-0.60498047,0.69555664,1584105018171,-3709859524694,0.07969761,1,1
1584105018356,NaN,0.8162374,-0.32763672,-0.6230469,0.6906738,1584105018251,-3709859524694,0.07969761,1,1
1584105018361,NaN,0.6902711,-0.3388672,-0.5817871,0.69921875,1584105018331,-3709859524694,0.07969761,1,1
1584105020728,NaN,0.53556234,-0.33789062,-0.60668945,0.7114258,1584105018411,8540494411706,0.07969761,1,1
1584105020735,NaN,0.38163987,-0.33789062,-0.592041,0.7211914,1584105018491,8540494411706,0.07969761,1,1
1584105020739,NaN,0.20182033,-0.3581543,-0.5917969,0.7175293,1584105018571,8540494411706,0.064512745,1,1
1584105020746,NaN,0.048097055,-0.3569336,-0.5732422,0.72680664,1584105018651,8540494411706,0.064512745,1,1
1584105020751,NaN,-0.1448613,-0.35302734,-0.560791,0.74853516,1584105018731,8540494411706,0.064512745,1,1
1584105020754,NaN,-0.32542697,-0.36669922,-0.5605469,0.7397461,1584105018811,8540494411706,0.04786464,1,1
1584105020758,NaN,-0.43065348,-0.35498047,-0.5942383,0.7141113,1584105018891,8540494411706,0.04786464,1,1
1584105020763,NaN,-0.5119057,-0.35668945,-0.58374023,0.7199707,1584105018971,8540494411706,0.04786464,1,1
1584105020767,NaN,-0.6249872,-0.38085938,-0.56469727,0.7277832,1584105019051,8540494411706,0.04786464,1,1
1584105020770,NaN,-0.688584,-0.37060547,-0.5559082,0.7487793,1584105019131,8540494411706,0.04786464,1,1
1584105020773,NaN,-0.7546232,-0.37548828,-0.58569336,0.71655273,1584105019211,8540494411706,0.04786464,1,1
1584105020778,NaN,-0.7108278,-0.3395996,-0.5805664,0.6948242,1584105019291,8540494411706,0.04786464,1,1
1584105020783,NaN,-0.6639797,-0.34350586,-0.6142578,0.69970703,1584105019371,8540494411706,0.04786464,1,1
1584105020786,NaN,-0.63444227,-0.34350586,-0.5678711,0.7746582,1584105019451,8540494411706,0.088144235,1,1
1584105020791,NaN,-0.5958372,-0.34033203,-0.5246582,0.74902344,1584105019531,8540494411706,0.088144235,1,1
1584105020795,NaN,-0.5401852,-0.3383789,-0.53466797,0.75683594,1584105019611,8540494411706,0.088144235,1,1
1584105020798,NaN,-0.40069127,-0.32250977,-0.6020508,0.73339844,1584105019691,8540494411706,0.088144235,1,1
1584105020801,NaN,-0.23980503,-0.3166504,-0.6213379,0.6958008,1584105019771,8540494411706,0.088144235,1,1
1584105020806,NaN,-0.19652565,-0.31958008,-0.58374023,0.73291016,1584105019851,8540494411706,0.088144235,1,1
1584105020809,NaN,-0.1913553,-0.35229492,-0.55200195,0.76660156,1584105019931,8540494411706,0.088144235,1,1
1584105020812,NaN,-0.1327438,-0.35083008,-0.53759766,0.7626953,1584105020011,8540494411706,0.088144235,1,1
1584105020815,NaN,-0.06916392,-0.3461914,-0.55078125,0.748291,1584105020091,8540494411706,0.088144235,1,1
1584105020818,NaN,-4.5016533E-4,-0.32543945,-0.5751953,0.7141113,1584105020171,8540494411706,0.088144235,1,1
1584105020821,NaN,-0.020149723,-0.34692383,-0.5812988,0.74975586,1584105020251,8540494411706,0.088144235,1,1
1584105020827,NaN,-0.09242534,-0.32617188,-0.52685547,0.75439453,1584105020331,8540494411706,0.088144235,1,1
1584105020829,NaN,-0.098933764,-0.37182617,-0.515625,0.75512695,1584105020411,8540494411706,0.088144235,1,1
1584105020833,NaN,-0.08529005,-0.37329102,-0.50634766,0.7663574,1584105020491,8540494411706,0.088144235,1,1
1584105020836,NaN,-0.06443337,-0.34643555,-0.52685547,0.7446289,1584105020571,8540494411706,0.088144235,1,1
1584105020839,NaN,-0.17236413,-0.34448242,-0.5229492,0.73828125,1584105020651,8540494411706,0.088144235,1,1
1584105020843,NaN,-0.3373666,-0.3671875,-0.5463867,0.7607422,1584105020731,8540494411706,0.088144235,1,1
1584105020848,NaN,-0.38944197,-0.3395996,-0.529541,0.7470703,1584105020811,8540494411706,0.088144235,1,1
1584105020852,NaN,-0.42429838,-0.37573242,-0.4567871,0.7438965,1584105020891,8540494411706,0.088144235,1,1
1584105023324,NaN,-0.44004977,-0.41503906,-0.5319824,0.7648926,1584105020971,2344104274398,0.088144235,1,1
1584105023329,NaN,-0.39447436,-0.37670898,-0.6335449,0.7167969,1584105021051,2344104274398,0.11873219,1,1
1584105023334,NaN,-0.3429582,-0.29052734,-0.6413574,0.6862793,1584105021131,2344104274398,0.11873219,1,1
1584105023340,NaN,-0.16182268,-0.2355957,-0.70532227,0.6425781,1584105021211,2344104274398,0.11873219,1,1
1584105023344,NaN,0.1373197,-0.20654297,-0.7409668,0.626709,1584105021291,2344104274398,0.11873219,1,1
1584105023348,NaN,0.56813663,-0.0703125,-0.8117676,0.55322266,1584105021371,2344104274398,0.17021084,1,1
1584105023352,NaN,1.1322548,0.040039062,-0.8937988,0.48291016,1584105021451,2344104274398,0.17021084,1,1
1584105023356,NaN,1.732349,0.087890625,-0.89624023,0.3251953,1584105021531,2344104274398,0.17021084,1,1
1584105023360,NaN,2.517205,0.1965332,-0.95166016,0.26391602,1584105021611,2344104274398,0.17021084,1,1
1584105023365,NaN,3.4187996,0.25146484,-0.9211426,0.1640625,1584105021691,2344104274398,0.17021084,1,1
1584105023370,NaN,4.3458977,0.3076172,-0.95336914,0.140625,1584105021771,2344104274398,0.17021084,1,1
1584105023374,NaN,5.4068236,0.35229492,-0.96118164,0.08276367,1584105021851,2344104274398,0.17021084,1,1
1584105023379,NaN,6.4504986,0.41357422,-0.9067383,0.080566406,1584105021931,2344104274398,0.17021084,1,1
1584105023385,NaN,7.3464603,0.4729004,-0.90478516,0.09667969,1584105022011,2344104274398,0.17021084,1,1
1584105023390,NaN,8.140547,0.44848633,-0.9001465,0.07543945,1584105022091,2344104274398,0.17021084,1,1
1584105023392,NaN,8.739926,0.49853516,-0.8635254,0.12963867,1584105022171,2344104274398,0.17021084,1,1
1584105023395,NaN,9.219916,0.5073242,-0.8874512,0.13452148,1584105022251,2344104274398,0.17021084,1,1
1584105023400,NaN,9.366964,0.47265625,-0.88623047,0.16137695,1584105022331,2344104274398,0.17021084,1,1
1584105023403,NaN,9.255696,0.4753418,-0.8588867,0.17919922,1584105022411,2344104274398,0.17021084,1,1
1584105023406,NaN,8.93558,0.46264648,-0.8684082,0.19189453,1584105022491,2344104274398,0.17021084,1,1
1584105023409,NaN,8.395402,0.4567871,-0.8757324,0.1940918,1584105022571,2344104274398,0.17021084,1,1
1584105023414,NaN,7.667133,0.46362305,-0.88378906,0.20117188,1584105022651,2344104274398,0.17021084,1,1
1584105023417,NaN,6.8216763,0.45288086,-0.8820801,0.21191406,1584105022731,2344104274398,0.17021084,1,1
1584105023421,NaN,5.7805085,0.43310547,-0.8762207,0.23461914,1584105022811,2344104274398,0.17021084,1,1
1584105023425,NaN,4.6708655,0.45214844,-0.8737793,0.2668457,1584105022891,2344104274398,0.17021084,1,1
1584105023427,NaN,3.5721264,0.4169922,-0.86694336,0.29760742,1584105022971,2344104274398,0.17021084,1,1
1584105023430,NaN,2.531392,0.3869629,-0.86938477,0.3166504,1584105023051,2344104274398,0.17021084,1,1
1584105023433,NaN,1.5716444,0.38476562,-0.84594727,0.36010742,1584105023131,2344104274398,0.17021084,1,1
1584105023437,NaN,0.64135545,0.34155273,-0.85498047,0.35620117,1584105023211,2344104274398,0.17021084,1,1
1584105023440,NaN,-0.15261686,0.26464844,-0.88427734,0.40820312,1584105023291,2344104274398,0.17021084,1,1
1584105023444,NaN,-0.8790204,0.17041016,-0.8720703,0.42578125,1584105023371,2344104274398,0.17021084,1,1
1584105023447,NaN,-1.5051843,0.12695312,-0.8654785,0.48413086,1584105023451,2344104274398,0.17021084,1,1
1584105025898,NaN,-2.0953624,0.030273438,-0.82250977,0.4975586,1584105023531,-3852567337886,0.17021084,1,1
1584105025902,NaN,-2.6741326,-0.05053711,-0.7844238,0.55444336,1584105023611,-3852567337886,0.17021084,1,1
1584105025907,NaN,-3.2859366,-0.1418457,-0.78637695,0.6154785,1584105023691,-3852567337886,0.17021084,1,1
1584105025913,NaN,-3.8436794,-0.1899414,-0.7824707,0.6442871,1584105023771,-3852567337886,0.17021084,1,1
1584105025916,NaN,-4.393184,-0.20336914,-0.6845703,0.6689453,1584105023851,-3852567337886,0.17021084,1,1
1584105025921,NaN,-4.9225535,-0.24414062,-0.6723633,0.73583984,1584105023931,-3852567337886,0.16483235,1,1
1584105025926,NaN,-5.3933697,-0.25390625,-0.6472168,0.7060547,1584105024011,-3852567337886,0.16483235,1,1
1584105025931,NaN,-5.8840547,-0.32128906,-0.57910156,0.72216797,1584105024091,-3852567337886,0.13649076,1,1
1584105025936,NaN,-6.3622074,-0.32885742,-0.55688477,0.7468262,1584105024171,-3852567337886,0.11798107,1,1
1584105025941,NaN,-6.7819047,-0.35083008,-0.5136719,0.75927734,1584105024251,-3852567337886,0.109847,1,1
1584105025944,NaN,-7.09726,-0.37109375,-0.5168457,0.767334,1584105024331,-3852567337886,0.109847,1,1
1584105025948,NaN,-7.3257995,-0.35961914,-0.4802246,0.7697754,1584105024411,-3852567337886,0.109847,1,1
1584105025953,NaN,-7.4137425,-0.36132812,-0.47094727,0.75439453,1584105024491,-3852567337886,0.109847,1,1
1584105025956,NaN,-7.298569,-0.34033203,-0.5048828,0.7590332,1584105024571,-3852567337886,0.109847,1,1
1584105025960,NaN,-7.0008492,-0.33520508,-0.54833984,0.7421875,1584105024651,-3852567337886,0.109847,1,1
1584105025965,NaN,-6.6324286,-0.3527832,-0.57470703,0.73657227,1584105024731,-3852567337886,0.109847,1,1
1584105025969,NaN,-6.1428394,-0.35791016,-0.579834,0.7253418,1584105024811,-3852567337886,0.109847,1,1
1584105025972,NaN,-5.5954604,-0.37670898,-0.56689453,0.7375488,1584105024891,-3852567337886,0.109847,1,1
1584105025977,NaN,-5.0641465,-0.3798828,-0.5671387,0.73413086,1584105024971,-3852567337886,0.109847,1,1
1584105025980,NaN,-4.4061418,-0.3942871,-0.58032227,0.7141113,1584105025051,-3852567337886,0.109847,1,1
1584105025984,NaN,-3.7025964,-0.37036133,-0.58032227,0.6989746,1584105025131,-3852567337886,0.109847,1,1
1584105025988,NaN,-2.9832332,-0.37963867,-0.58374023,0.71655273,1584105025211,-3852567337886,0.109847,1,1
1584105025992,NaN,-2.2861898,-0.35595703,-0.6035156,0.71484375,1584105025291,-3852567337886,0.109847,1,1
1584105025996,NaN,-1.6192418,-0.34692383,-0.58984375,0.72875977,1584105025371,-3852567337886,0.109847,1,1
1584105025999,NaN,-1.0473677,-0.34521484,-0.56640625,0.7297363,1584105025451,-3852567337886,0.109847,1,1
1584105026003,NaN,-0.6409126,-0.34692383,-0.5473633,0.751709,1584105025531,-3852567337886,0.109847,1,1
1584105026006,NaN,-0.40750238,-0.35595703,-0.5024414,0.77612305,1584105025611,-3852567337886,0.109847,1,1
1584105026009,NaN,-0.23537366,-0.35888672,-0.49316406,0.77612305,1584105025691,-3852567337886,0.109847,1,1
1584105026014,NaN,-0.15272635,-0.36791992,-0.49169922,0.7766113,1584105025771,-3852567337886,0.109847,1,1
1584105026016,NaN,-0.05341369,-0.35205078,-0.50805664,0.76464844,1584105025851,-3852567337886,0.109847,1,1
1584105026018,NaN,0.031002628,-0.3791504,-0.5241699,0.7648926,1584105025931,-3852567337886,0.109847,1,1
1584105026021,NaN,0.024795597,-0.35791016,-0.51293945,0.76586914,1584105026011,-3852567337886,0.109847,1,1
1584105028482,NaN,-0.050147723,-0.37426758,-0.5126953,0.7919922,1584105026091,8397786598514,0.109847,1,1
1584105028486,NaN,-0.14133267,-0.359375,-0.5124512,0.767334,1584105026171,8397786598514,0.109847,1,1
1584105028490,NaN,-0.30439952,-0.36108398,-0.49438477,0.7705078,1584105026251,8397786598514,0.10184703,1,1
1584105028496,NaN,-0.46347246,-0.3671875,-0.5107422,0.77490234,1584105026331,8397786598514,0.10184703,1,1
1584105028500,NaN,-0.5611,-0.35302734,-0.5402832,0.7368164,1584105026411,8397786598514,0.09715846,1,1
1584105028504,NaN,-0.57809716,-0.3623047,-0.5678711,0.73999023,1584105026491,8397786598514,0.09715846,1,1
1584105028506,NaN,-0.4562675,-0.34399414,-0.5842285,0.7097168,1584105026571,8397786598514,0.09715846,1,1
1584105028509,NaN,-0.29784894,-0.32299805,-0.5878906,0.71191406,1584105026651,8397786598514,0.05191936,1,1
1584105028513,NaN,-0.06212641,-0.27270508,-0.6398926,0.6921387,1584105026731,8397786598514,0.07499768,1,1
1584105028517,NaN,0.12769058,-0.2788086,-0.6672363,0.6843262,1584105026811,8397786598514,0.07499768,1,1
1584105028522,NaN,0.31618854,-0.29345703,-0.6652832,0.67749023,1584105026891,8397786598514,0.07499768,1,1
1584105028525,NaN,0.4962996,-0.2944336,-0.6591797,0.69262695,1584105026971,8397786598514,0.07499768,1,1
1584105028529,NaN,0.7048898,-0.3071289,-0.64624023,0.6994629,1584105027051,8397786598514,0.07499768,1,1
1584105028533,NaN,0.91539264,-0.27563477,-0.65893555,0.65966797,1584105027131,8397786598514,0.07499768,1,1
1584105028537,NaN,1.1831516,-0.2915039,-0.685791,0.6665039,1584105027211,8397786598514,0.07499768,1,1
1584105028540,NaN,1.4322351,-0.2927246,-0.6867676,0.6616211,1584105027291,8397786598514,0.07499768,1,1
1584105028544,NaN,1.5650402,-0.3137207,-0.6582031,0.670166,1584105027371,8397786598514,0.07499768,1,1
1584105028547,NaN,1.6499782,-0.3190918,-0.65844727,0.6813965,1584105027451,8397786598514,0.07499768,1,1
1584105028551,NaN,1.6403459,-0.32714844,-0.66625977,0.6838379,1584105027531,8397786598514,0.07499768,1,1
1584105028554,NaN,1.6034923,-0.30249023,-0.6491699,0.67822266,1584105027611,8397786598514,0.07499768,1,1
1584105028558,NaN,1.4258657,-0.2878418,-0.6413574,0.71899414,1584105027691,8397786598514,0.07499768,1,1
1584105028562,NaN,1.1945429,-0.30639648,-0.5827637,0.7192383,1584105027771,8397786598514,0.07499768,1,1
1584105028565,NaN,0.94341594,-0.31591797,-0.5727539,0.7783203,1584105027851,8397786598514,0.07499768,1,1
1584105028569,NaN,0.7095198,-0.31176758,-0.5402832,0.734375,1584105027931,8397786598514,0.07499768,1,1
1584105028572,NaN,0.52582276,-0.28686523,-0.5842285,0.7512207,1584105028011,8397786598514,0.07499768,1,1
1584105028575,NaN,0.2691659,-0.30249023,-0.5661621,0.7429199,1584105028091,8397786598514,0.07499768,1,1
1584105028577,NaN,-0.02702091,-0.31176758,-0.56030273,0.763916,1584105028171,8397786598514,0.07499768,1,1
1584105028581,NaN,-0.32319102,-0.3166504,-0.5541992,0.75219727,1584105028251,8397786598514,0.07499768,1,1
1584105028584,NaN,-0.5218379,-0.3310547,-0.5686035,0.7570801,1584105028331,8397786598514,0.07499768,1,1
1584105028587,NaN,-0.7002544,-0.3251953,-0.5612793,0.76000977,1584105028411,8397786598514,0.07499768,1,1
1584105028590,NaN,-0.8590235,-0.32543945,-0.54541016,0.7583008,1584105028491,8397786598514,0.07499768,1,1
1584105028592,NaN,-1.0045244,-0.3190918,-0.5534668,0.75512695,1584105028571,8397786598514,0.07499768,1,1
1584105031064,NaN,-1.0593992,-0.3149414,-0.5595703,0.7414551,1584105028651,2201396461206,0.07499768,1,1
1584105031070,NaN,-0.96442384,-0.31567383,-0.62353516,0.7194824,1584105028731,2201396461206,0.07499768,1,1
1584105031077,NaN,-0.81079787,-0.31201172,-0.62475586,0.69799805,1584105028811,2201396461206,0.07499768,1,1
1584105031081,NaN,-0.6539438,-0.30395508,-0.6166992,0.68481445,1584105028891,2201396461206,0.07499768,1,1
1584105031085,NaN,-0.53850925,-0.28833008,-0.67089844,0.68066406,1584105028971,2201396461206,0.07499768,1,1
1584105031088,NaN,-0.3567864,-0.28442383,-0.6569824,0.6657715,1584105029051,2201396461206,0.07499768,1,1
1584105031093,NaN,-0.10679412,-0.2668457,-0.6936035,0.65893555,1584105029131,2201396461206,0.07499768,1,1
1584105031096,NaN,0.11267952,-0.28442383,-0.6623535,0.6906738,1584105029211,2201396461206,0.07499768,1,1
1584105031099,NaN,0.25432482,-0.32226562,-0.6254883,0.70996094,1584105029291,2201396461206,0.067637525,1,1
1584105031104,NaN,0.39503667,-0.31201172,-0.62353516,0.7219238,1584105029371,2201396461206,0.067637525,1,1
1584105031107,NaN,0.59608257,-0.29052734,-0.6586914,0.69091797,1584105029451,2201396461206,0.067637525,1,1
1584105031110,NaN,0.7841356,-0.2919922,-0.6533203,0.673584,1584105029531,2201396461206,0.067637525,1,1
1584105031114,NaN,0.9314244,-0.31274414,-0.65844727,0.6887207,1584105029611,2201396461206,0.067637525,1,1
1584105031118,NaN,0.9467961,-0.29101562,-0.64697266,0.68847656,1584105029691,2201396461206,0.067637525,1,1
1584105031121,NaN,0.89152384,-0.3034668,-0.6218262,0.7023926,1584105029771,2201396461206,0.067637525,1,1
1584105031124,NaN,0.8438871,-0.27441406,-0.63964844,0.7163086,1584105029851,2201396461206,0.067637525,1,1
1584105031128,NaN,0.73253435,-0.2770996,-0.6147461,0.7138672,1584105029931,2201396461206,0.067637525,1,1
1584105031131,NaN,0.6147554,-0.28125,-0.63500977,0.7233887,1584105030011,2201396461206,0.067637525,1,1
1584105031134,NaN,0.36050522,-0.2980957,-0.5661621,0.7453613,1584105030091,2201396461206,0.0742063,1,1
1584105031138,NaN,0.17636539,-0.28588867,-0.5649414,0.76782227,1584105030171,2201396461206,0.0742063,1,1
1584105031141,NaN,0.07855688,-0.29907227,-0.55908203,0.7607422,1584105030251,2201396461206,0.0742063,1,1
1584105031145,NaN,-0.0066468865,-0.2836914,-0.5644531,0.74609375,1584105030331,2201396461206,0.0742063,1,1
1584105031148,NaN,-0.20063956,-0.30395508,-0.5612793,0.76000977,1584105030411,2201396461206,0.0742063,1,1
1584105031151,NaN,-0.40697646,-0.31103516,-0.5461426,0.7780762,1584105030491,2201396461206,0.0742063,1,1
1584105031155,NaN,-0.58400816,-0.31469727,-0.5378418,0.7717285,1584105030571,2201396461206,0.0742063,1,1
1584105031158,NaN,-0.7256325,-0.3178711,-0.53930664,0.7734375,1584105030651,2201396461206,0.0742063,1,1
1584105031162,NaN,-0.81898135,-0.32543945,-0.52734375,0.7792969,1584105030731,2201396461206,0.0742063,1,1
1584105031164,NaN,-0.9456654,-0.3215332,-0.5275879,0.77124023,1584105030811,2201396461206,0.0742063,1,1
1584105031166,NaN,-1.003518,-0.32836914,-0.52612305,0.7687988,1584105030891,2201396461206,0.0742063,1,1
1584105031169,NaN,-1.0745198,-0.33325195,-0.529541,0.7573242,1584105030971,2201396461206,0.0742063,1,1
1584105031171,NaN,-0.9561338,-0.32080078,-0.579834,0.74072266,1584105031051,2201396461206,0.0742063,1,1
1584105031173,NaN,-0.823617,-0.31811523,-0.6340332,0.6965332,1584105031131,2201396461206,0.0742063,1,1
1584105033846,NaN,-0.71832323,-0.29882812,-0.62280273,0.6894531,1584105031211,-3995275151078,0.0742063,1,1
1584105033851,NaN,-0.6124352,-0.2902832,-0.6569824,0.67333984,1584105031291,-3995275151078,0.0742063,1,1
1584105033856,NaN,-0.44182238,-0.30541992,-0.6574707,0.6813965,1584105031371,-3995275151078,0.0742063,1,1
1584105033860,NaN,-0.2503607,-0.3017578,-0.6269531,0.68066406,1584105031451,-3995275151078,0.0742063,1,1
1584105033865,NaN,-0.061109077,-0.3022461,-0.6374512,0.704834,1584105031531,-3995275151078,0.0742063,1,1
1584105033868,NaN,0.10214868,-0.32177734,-0.6152344,0.7331543,1584105031611,-3995275151078,0.0742063,1,1
1584105033876,NaN,0.2646415,-0.32373047,-0.6047363,0.71118164,1584105031691,-3995275151078,0.0742063,1,1
1584105033880,NaN,0.4574019,-0.32910156,-0.6335449,0.7023926,1584105031771,-3995275151078,0.0742063,1,1
1584105033886,NaN,0.65175515,-0.3239746,-0.6430664,0.6933594,1584105031851,-3995275151078,0.0742063,1,1
1584105033892,NaN,0.8326921,-0.31420898,-0.6123047,0.6965332,1584105031931,-3995275151078,0.0742063,1,1
1584105033896,NaN,0.8795707,-0.2919922,-0.6237793,0.7229004,1584105032011,-3995275151078,0.0742063,1,1
1584105033901,NaN,0.8148291,-0.29882812,-0.6123047,0.7314453,1584105032091,-3995275151078,0.0742063,1,1
1584105033906,NaN,0.7010283,-0.3046875,-0.5695801,0.7421875,1584105032171,-3995275151078,0.0742063,1,1
1584105033910,NaN,0.5248503,-0.30517578,-0.5500488,0.75268555,1584105032251,-3995275151078,0.0742063,1,1
1584105033914,NaN,0.32200179,-0.31860352,-0.52905273,0.78125,1584105032331,-3995275151078,0.0742063,1,1
1584105033918,NaN,0.13266207,-0.328125,-0.52685547,0.77075195,1584105032411,-3995275151078,0.0742063,1,1
1584105033921,NaN,-0.03735893,-0.33081055,-0.5527344,0.74902344,1584105032491,-3995275151078,0.0742063,1,1
1584105033925,NaN,-0.15108764,-0.31591797,-0.5407715,0.76342773,1584105032571,-3995275151078,0.0742063,1,1
1584105033928,26.785715,-0.3118909,-0.33422852,-0.5246582,0.8132324,1584105032651,-3995275151078,0.06998196,1,1
1584105033932,NaN,-0.54248947,-0.3395996,-0.45996094,0.7873535,1584105032731,-3995275151078,0.06998196,1,1
1584105033935,NaN,-0.79222274,-0.35498047,-0.48095703,0.78759766,1584105032811,-3995275151078,0.06998196,1,1
1584105033939,NaN,-0.97635907,-0.35058594,-0.513916,0.7722168,1584105032891,-3995275151078,0.06998196,1,1
1584105033942,NaN,-1.1446675,-0.35620117,-0.5107422,0.7885742,1584105032971,-3995275151078,0.06998196,1,1
1584105033945,NaN,-1.2555506,-0.36401367,-0.48291016,0.77441406,1584105033051,-3995275151078,0.06998196,1,1
1584105033948,NaN,-1.2851899,-0.35546875,-0.49145508,0.77368164,1584105033131,-3995275151078,0.06998196,1,1
1584105033952,NaN,-1.2158256,-0.34155273,-0.5280762,0.7558594,1584105033211,-3995275151078,0.06998196,1,1
1584105033956,NaN,-1.0521905,-0.32055664,-0.56689453,0.71655273,1584105033291,-3995275151078,0.06998196,1,1
1584105033958,NaN,-0.86599755,-0.31420898,-0.61328125,0.7155762,1584105033371,-3995275151078,0.06998196,1,1
1584105033963,NaN,-0.7174396,-0.31811523,-0.62939453,0.7163086,1584105033451,-3995275151078,0.06998196,1,1
1584105033966,NaN,-0.577742,-0.29541016,-0.62280273,0.6984863,1584105033531,-3995275151078,0.06998196,1,1
1584105033970,NaN,-0.33451077,-0.27734375,-0.6604004,0.6933594,1584105033611,-3995275151078,0.06998196,1,1
1584105033974,NaN,0.026571214,-0.28051758,-0.68359375,0.6665039,1584105033691,-3995275151078,0.06988779,1,1
1584105036232,NaN,0.37842098,-0.26708984,-0.6750488,0.68115234,1584105033771,8255078785322,0.06988779,1,1
1584105036238,NaN,0.6242783,-0.2788086,-0.64038086,0.68896484,1584105033851,8255078785322,0.06988779,1,1
1584105036245,NaN,0.88019437,-0.3046875,-0.64501953,0.71875,1584105033931,8255078785322,0.06988779,1,1
1584105036250,NaN,1.1954356,-0.27807617,-0.657959,0.66503906,1584105034011,8255078785322,0.06988779,1,1
1584105036259,NaN,1.460014,-0.30639648,-0.68188477,0.6726074,1584105034091,8255078785322,0.06988779,1,1
1584105036263,NaN,1.6129651,-0.31347656,-0.6340332,0.6513672,1584105034171,8255078785322,0.06988779,1,1
1584105036269,NaN,1.6764466,-0.27978516,-0.69750977,0.6899414,1584105034251,8255078785322,0.081561975,1,1
1584105036276,NaN,1.6254967,-0.29345703,-0.638916,0.69873047,1584105034331,8255078785322,0.081561975,1,1
1584105036279,NaN,1.553991,-0.3076172,-0.60131836,0.69433594,1584105034411,8255078785322,0.081561975,1,1
1584105036282,NaN,1.4525281,-0.30737305,-0.62890625,0.7355957,1584105034491,8255078785322,0.081561975,1,1
1584105036285,NaN,1.2283576,-0.31958008,-0.59521484,0.73339844,1584105034571,8255078785322,0.081561975,1,1
1584105036290,NaN,0.8787582,-0.31567383,-0.5578613,0.76123047,1584105034651,8255078785322,0.081561975,1,1
1584105036301,NaN,0.531332,-0.32958984,-0.53515625,0.7687988,1584105034731,8255078785322,0.081561975,1,1
1584105036302,NaN,0.2297482,-0.3762207,-0.4819336,0.7644043,1584105034811,8255078785322,0.081561975,1,1
1584105036304,NaN,-0.02781263,-0.35327148,-0.5253906,0.79125977,1584105034891,8255078785322,0.081561975,1,1
1584105036305,25.862068,-0.38722333,-0.35498047,-0.49829102,0.76953125,1584105034971,8255078785322,0.081561975,1,1
1584105036309,NaN,-0.7616485,-0.3708496,-0.48608398,0.7758789,1584105035051,8255078785322,0.081561975,1,1
1584105036312,NaN,-1.0619382,-0.37573242,-0.47583008,0.779541,1584105035131,8255078785322,0.081561975,1,1
1584105036315,NaN,-1.3705233,-0.38354492,-0.48706055,0.7758789,1584105035211,8255078785322,0.081561975,1,1
1584105036319,NaN,-1.5317373,-0.3564453,-0.50805664,0.76538086,1584105035291,8255078785322,0.081561975,1,1
1584105036321,NaN,-1.6243414,-0.37060547,-0.51660156,0.75756836,1584105035371,8255078785322,0.081561975,1,1
1584105036325,NaN,-1.6834778,-0.36523438,-0.5332031,0.73291016,1584105035451,8255078785322,0.081561975,1,1
1584105036326,NaN,-1.6363975,-0.32470703,-0.5578613,0.7253418,1584105035531,8255078785322,0.081561975,1,1
1584105036330,NaN,-1.4660835,-0.3383789,-0.59106445,0.7253418,1584105035611,8255078785322,0.081561975,1,1
1584105036333,NaN,-1.240882,-0.3400879,-0.6105957,0.7067871,1584105035691,8255078785322,0.081561975,1,1
1584105036336,NaN,-0.9387464,-0.3190918,-0.6364746,0.7109375,1584105035771,8255078785322,0.081561975,1,1
1584105036339,NaN,-0.6784645,-0.3059082,-0.65063477,0.69750977,1584105035851,8255078785322,0.081561975,1,1
1584105036344,NaN,-0.36318788,-0.31201172,-0.6386719,0.68115234,1584105035931,8255078785322,0.081561975,1,1
1584105036345,NaN,-0.03869118,-0.31201172,-0.6218262,0.71435547,1584105036011,8255078785322,0.081561975,1,1
1584105036348,NaN,0.24256893,-0.3503418,-0.58618164,0.72802734,1584105036091,8255078785322,0.081561975,1,1
1584105036351,NaN,0.5418809,-0.37353516,-0.58374023,0.70947266,1584105036171,8255078785322,0.081561975,1,1
1584105036353,NaN,0.77929324,-0.35131836,-0.5983887,0.670166,1584105036251,8255078785322,0.081561975,1,1
1584105038815,NaN,0.98927647,-0.35083008,-0.6323242,0.69018555,1584105036331,2058688648013,0.081561975,1,1
1584105038822,NaN,1.1912426,-0.31933594,-0.67822266,0.6906738,1584105036411,2058688648013,0.081561975,1,1
1584105038828,NaN,1.3329388,-0.2770996,-0.6672363,0.6508789,1584105036491,2058688648013,0.081561975,1,1
1584105038836,NaN,1.3912835,-0.25683594,-0.66430664,0.6665039,1584105036571,2058688648013,0.081561975,1,1
1584105038840,NaN,1.3817015,-0.3034668,-0.7080078,0.71069336,1584105036651,2058688648013,0.081561975,1,1
1584105038843,NaN,1.3053868,-0.32104492,-0.71435547,0.67822266,1584105036731,2058688648013,0.081561975,1,1
1584105038847,NaN,1.218954,-0.30322266,-0.6574707,0.60668945,1584105036811,2058688648013,0.09311557,1,1
1584105038853,NaN,1.1445678,-0.30371094,-0.7133789,0.63964844,1584105036891,2058688648013,0.09311557,1,1
1584105038857,NaN,1.1387488,-0.27172852,-0.7260742,0.6125488,1584105036971,2058688648013,0.09311557,1,1
1584105038861,NaN,1.2333499,-0.24072266,-0.7585449,0.5986328,1584105037051,2058688648013,0.09311557,1,1
1584105038865,NaN,1.3776855,-0.16333008,-0.7800293,0.56884766,1584105037131,2058688648013,0.09311557,1,1
1584105038870,NaN,1.4989138,-0.12939453,-0.7919922,0.5620117,1584105037211,2058688648013,0.09311557,1,1
1584105038873,NaN,1.6709584,-0.08300781,-0.8034668,0.47875977,1584105037291,2058688648013,0.09599105,1,1
1584105038878,NaN,1.8920549,7.324219E-4,-0.86279297,0.42016602,1584105037371,2058688648013,0.11817466,1,1
1584105038881,NaN,2.2296972,0.07348633,-0.9543457,0.31860352,1584105037451,2058688648013,0.15488698,1,1
1584105038884,NaN,2.6565084,0.18969727,-0.91186523,0.2553711,1584105037531,2058688648013,0.15488698,1,1
1584105038888,NaN,3.2610734,0.24291992,-0.9951172,0.16503906,1584105037611,2058688648013,0.15488698,1,1
1584105038891,NaN,3.991534,0.39282227,-0.99072266,0.06323242,1584105037691,2058688648013,0.18125843,1,1
1584105038895,NaN,4.8609624,0.48657227,-1.0212402,-0.07421875,1584105037771,2058688648013,0.18125843,1,1
1584105038898,NaN,5.7235904,0.5300293,-0.92163086,-0.08862305,1584105037851,2058688648013,0.18125843,1,1
1584105038901,NaN,6.43742,0.41748047,-0.82910156,-0.092285156,1584105037931,2058688648013,0.18125843,1,1
1584105038904,NaN,6.9474807,0.32666016,-0.8017578,-0.0048828125,1584105038011,2058688648013,0.18125843,1,1
1584105038908,NaN,7.3380985,0.28344727,-0.88671875,-0.0024414062,1584105038091,2058688648013,0.18125843,1,1
1584105038911,NaN,7.676273,0.35595703,-0.9838867,0.0859375,1584105038171,2058688648013,0.18125843,1,1
1584105038914,NaN,7.8218327,0.3737793,-1.043457,0.13769531,1584105038251,2058688648013,0.18125843,1,1
1584105038917,NaN,7.729801,0.29663086,-0.9255371,0.22827148,1584105038331,2058688648013,0.18125843,1,1
1584105038921,NaN,7.411484,0.30029297,-0.92211914,0.26245117,1584105038411,2058688648013,0.18125843,1,1
1584105038922,NaN,6.843687,0.22753906,-0.9614258,0.3400879,1584105038491,2058688648013,0.18125843,1,1
1584105038926,NaN,6.006977,0.18432617,-0.8671875,0.3815918,1584105038571,2058688648013,0.18125843,1,1
1584105038929,NaN,4.8461185,0.14819336,-0.8276367,0.45043945,1584105038651,2058688648013,0.18125843,1,1
1584105038932,NaN,3.3775704,0.15454102,-0.8803711,0.49951172,1584105038731,2058688648013,0.18125843,1,1
1584105038937,NaN,1.8351876,0.1965332,-0.84228516,0.55566406,1584105038811,2058688648013,0.18125843,1,1
1584105041202,NaN,0.4615216,0.10595703,-0.8129883,0.46362305,1584105038891,-4137982964271,0.18125843,1,1
1584105041209,NaN,-0.6728115,0.14672852,-0.842041,0.49975586,1584105038971,-4137982964271,0.18125843,1,1
1584105041216,NaN,-1.7134472,0.14624023,-0.8203125,0.49267578,1584105039051,-4137982964271,0.18125843,1,1
1584105041221,NaN,-2.6827662,0.1418457,-0.83325195,0.5065918,1584105039131,-4137982964271,0.18125843,1,1
1584105041224,NaN,-3.479511,0.13354492,-0.8815918,0.47753906,1584105039211,-4137982964271,0.18125843,1,1
1584105041229,NaN,-3.9699059,0.16723633,-0.8491211,0.47338867,1584105039291,-4137982964271,0.18125843,1,1
1584105041233,NaN,-4.3062687,0.1665039,-0.87768555,0.46240234,1584105039371,-4137982964271,0.18125843,1,1
1584105041238,NaN,-4.3887653,0.15356445,-0.8664551,0.45166016,1584105039451,-4137982964271,0.18125843,1,1
1584105041243,NaN,-4.261406,0.1850586,-0.8684082,0.43920898,1584105039531,-4137982964271,0.18125843,1,1
1584105041247,NaN,-3.854768,0.1965332,-0.86938477,0.43652344,1584105039611,-4137982964271,0.18125843,1,1
1584105041252,NaN,-3.2378514,0.1899414,-0.89404297,0.4230957,1584105039691,-4137982964271,0.18125843,1,1
1584105041256,NaN,-2.5357692,0.16625977,-0.89282227,0.41210938,1584105039771,-4137982964271,0.18125843,1,1
1584105041261,NaN,-1.926624,0.16870117,-0.8769531,0.41552734,1584105039851,-4137982964271,0.18125843,1,1
1584105041263,NaN,-1.4319315,0.18432617,-0.8833008,0.43530273,1584105039931,-4137982964271,0.18125843,1,1
1584105041266,NaN,-0.95964915,0.19262695,-0.8688965,0.4428711,1584105040011,-4137982964271,0.18125843,1,1
1584105041269,NaN,-0.49087527,0.20141602,-0.8654785,0.4584961,1584105040091,-4137982964271,0.18125843,1,1
1584105041273,NaN,-0.111649364,0.20361328,-0.84033203,0.4892578,1584105040171,-4137982964271,0.18125843,1,1
1584105041276,NaN,0.115832396,0.19873047,-0.85839844,0.51123047,1584105040251,-4137982964271,0.16915439,1,1
1584105041279,NaN,0.3023141,0.18676758,-0.8376465,0.48168945,1584105040331,-4137982964271,0.16751428,1,1
1584105041282,NaN,0.4302896,0.18920898,-0.84472656,0.47094727,1584105040411,-4137982964271,0.16751428,1,1
1584105041286,NaN,0.4365822,0.19311523,-0.8532715,0.48510742,1584105040491,-4137982964271,0.16751428,1,1
1584105041289,NaN,0.34027576,0.19189453,-0.8300781,0.5029297,1584105040571,-4137982964271,0.16751428,1,1
1584105041293,NaN,0.20968352,0.21386719,-0.8178711,0.50683594,1584105040651,-4137982964271,0.16751428,1,1
1584105041296,NaN,0.071839385,0.22314453,-0.80981445,0.48828125,1584105040731,-4137982964271,0.16751428,1,1
1584105041299,NaN,-0.014129404,0.24853516,-0.84716797,0.47387695,1584105040811,-4137982964271,0.16751428,1,1
1584105041302,NaN,-0.08705453,0.26757812,-0.826416,0.47485352,1584105040891,-4137982964271,0.13241562,1,1
1584105041307,NaN,-0.13854147,0.2956543,-0.8391113,0.4790039,1584105040971,-4137982964271,0.13241562,1,1
1584105041310,NaN,-0.1698248,0.29711914,-0.83325195,0.4560547,1584105041051,-4137982964271,0.13241562,1,1
1584105041313,NaN,-0.10285246,0.32958984,-0.83032227,0.4440918,1584105041131,-4137982964271,0.13241562,1,1
1584105041318,NaN,0.005352507,0.35058594,-0.828125,0.44604492,1584105041211,-4137982964271,0.13241562,1,1
1584105041321,NaN,0.12570904,0.36547852,-0.829834,0.43237305,1584105041291,-4137982964271,0.13241562,1,1
1584105041325,NaN,0.21894218,0.36499023,-0.8215332,0.44018555,1584105041371,-4137982964271,0.13241562,1,1
1584105043784,NaN,0.35348973,0.36865234,-0.8215332,0.43115234,1584105041451,8112370972130,0.061741035,1,1
1584105043788,NaN,0.50826603,0.32348633,-0.829834,0.43652344,1584105041531,8112370972130,0.057006184,1,1
1584105043794,NaN,0.63721293,0.2902832,-0.8232422,0.4572754,1584105041611,8112370972130,0.057006184,1,1
1584105043799,NaN,0.72434807,0.24609375,-0.8532715,0.45141602,1584105041691,8112370972130,0.057006184,1,1
1584105043803,NaN,0.7451422,0.26000977,-0.8618164,0.46972656,1584105041771,8112370972130,0.053747546,1,1
1584105043807,NaN,0.7180192,0.22485352,-0.82714844,0.49438477,1584105041851,8112370972130,0.05518928,1,1
1584105043816,NaN,0.63058037,0.20141602,-0.8100586,0.52075195,1584105041931,8112370972130,0.05518928,1,1
1584105043820,NaN,0.4690089,0.18017578,-0.81030273,0.5666504,1584105042011,8112370972130,0.05518928,1,1
1584105043825,NaN,0.21963704,0.17504883,-0.79589844,0.5891113,1584105042091,8112370972130,0.05518928,1,1
1584105043828,NaN,-0.059896994,0.19042969,-0.7661133,0.59375,1584105042171,8112370972130,0.05518928,1,1
1584105043831,NaN,-0.35072136,0.20996094,-0.7697754,0.58935547,1584105042251,8112370972130,0.05518928,1,1
1584105043834,NaN,-0.61079454,0.22021484,-0.77001953,0.5839844,1584105042331,8112370972130,0.05518928,1,1
1584105043837,NaN,-0.88916016,0.22363281,-0.77612305,0.5847168,1584105042411,8112370972130,0.05518928,1,1
1584105043840,NaN,-1.15164,0.21850586,-0.7644043,0.59350586,1584105042491,8112370972130,0.05518928,1,1
1584105043843,NaN,-1.3681921,0.21264648,-0.7504883,0.6123047,1584105042571,8112370972130,0.05518928,1,1
1584105043847,NaN,-1.5464368,0.21044922,-0.75097656,0.6020508,1584105042651,8112370972130,0.05518928,1,1
1584105043850,NaN,-1.7079244,0.19506836,-0.7351074,0.60839844,1584105042731,8112370972130,0.05518928,1,1
1584105043854,NaN,-1.7914263,0.20214844,-0.7426758,0.62646484,1584105042811,8112370972130,0.05518928,1,1
1584105043858,NaN,-1.807262,0.17822266,-0.7453613,0.6208496,1584105042891,8112370972130,0.05518928,1,1
1584105043860,NaN,-1.7284619,0.19140625,-0.7585449,0.63061523,1584105042971,8112370972130,0.05518928,1,1
1584105043863,NaN,-1.5730633,0.19238281,-0.76342773,0.6081543,1584105043051,8112370972130,0.05518928,1,1
1584105043866,NaN,-1.4160757,0.18286133,-0.7495117,0.6176758,1584105043131,8112370972130,0.05518928,1,1
1584105043869,NaN,-1.2732352,0.17504883,-0.7602539,0.626709,1584105043211,8112370972130,0.05518928,1,1
1584105043872,NaN,-1.1468433,0.16381836,-0.76831055,0.6113281,1584105043291,8112370972130,0.05518928,1,1
1584105043876,NaN,-1.0105175,0.17822266,-0.75927734,0.6027832,1584105043371,8112370972130,0.05518928,1,1
1584105043880,NaN,-0.8538614,0.1850586,-0.78637695,0.5891113,1584105043451,8112370972130,0.05518928,1,1
1584105043884,NaN,-0.6916643,0.19213867,-0.7753906,0.58935547,1584105043531,8112370972130,0.05518928,1,1
1584105043887,NaN,-0.55041987,0.18432617,-0.7800293,0.58984375,1584105043611,8112370972130,0.05518928,1,1
1584105043890,NaN,-0.3737128,0.18530273,-0.78930664,0.58813477,1584105043691,8112370972130,0.05518928,1,1
1584105043892,NaN,-0.24413681,0.1784668,-0.7722168,0.59887695,1584105043771,8112370972130,0.05518928,1,1
1584105043895,NaN,-0.13606866,0.18432617,-0.7788086,0.6140137,1584105043851,8112370972130,0.05518928,1,1
1584105043898,NaN,-0.09038366,0.17382812,-0.7531738,0.6184082,1584105043931,8112370972130,0.05518928,1,1
1584105046370,NaN,-0.09237909,0.18945312,-0.74316406,0.62109375,1584105044011,1915980834821,0.05518928,1,1
1584105046376,NaN,-0.09415084,0.17578125,-0.74121094,0.64990234,1584105044091,1915980834821,0.05518928,1,1
1584105046380,NaN,-0.06786141,0.17749023,-0.7375488,0.640625,1584105044171,1915980834821,0.05518928,1,1
1584105046385,NaN,-0.042798195,0.17529297,-0.73950195,0.6340332,1584105044251,1915980834821,0.05518928,1,1
1584105046390,NaN,-0.0270223,0.18603516,-0.73217773,0.63061523,1584105044331,1915980834821,0.05518928,1,1
1584105046395,NaN,-0.07741148,0.16772461,-0.7416992,0.6459961,1584105044411,1915980834821,0.050575428,1,1
1584105046399,NaN,-0.14349358,0.17919922,-0.7246094,0.6425781,1584105044491,1915980834821,0.050575428,1,1
1584105046403,NaN,-0.19906603,0.16967773,-0.7097168,0.623291,1584105044571,1915980834821,0.03384145,1,1
1584105046408,NaN,-0.28938577,0.17529297,-0.7277832,0.65527344,1584105044651,1915980834821,0.037159134,1,1
1584105046411,NaN,-0.34470272,0.1940918,-0.7375488,0.6616211,1584105044731,1915980834821,0.037159134,1,1
1584105046416,NaN,-0.38455307,0.20996094,-0.7297363,0.6418457,1584105044811,1915980834821,0.037159134,1,1
1584105046420,NaN,-0.42315266,0.14550781,-0.73535156,0.65771484,1584105044891,1915980834821,0.06661506,1,1
1584105046423,NaN,-0.42914772,0.17358398,-0.7524414,0.6530762,1584105044971,1915980834821,0.06661506,1,1
1584105046426,NaN,-0.39408264,0.17211914,-0.73950195,0.626709,1584105045051,1915980834821,0.06661506,1,1
1584105046429,NaN,-0.3801055,0.16455078,-0.75,0.63916016,1584105045131,1915980834821,0.06661506,1,1
1584105046433,NaN,-0.35377204,0.18701172,-0.7409668,0.62890625,1584105045211,1915980834821,0.06661506,1,1
1584105046436,NaN,-0.3224499,0.18041992,-0.75805664,0.6254883,1584105045291,1915980834821,0.06661506,1,1
1584105046439,NaN,-0.2391262,0.17871094,-0.75341797,0.61376953,1584105045371,1915980834821,0.06661506,1,1
1584105046442,NaN,-0.16288507,0.17456055,-0.7602539,0.62231445,1584105045451,1915980834821,0.06661506,1,1
1584105046445,NaN,-0.102180146,0.17797852,-0.74609375,0.6364746,1584105045531,1915980834821,0.06661506,1,1
1584105046449,NaN,-0.009268229,0.18554688,-0.748291,0.626709,1584105045611,1915980834821,0.06661506,1,1
1584105046452,NaN,0.049558323,0.18554688,-0.74072266,0.6237793,1584105045691,1915980834821,0.06661506,1,1
1584105046457,NaN,0.07875658,0.19091797,-0.7529297,0.62768555,1584105045771,1915980834821,0.06661506,1,1
1584105046461,NaN,0.14102346,0.15527344,-0.7492676,0.6381836,1584105045851,1915980834821,0.06661506,1,1
1584105046464,NaN,0.16418429,0.17285156,-0.74121094,0.6425781,1584105045931,1915980834821,0.06661506,1,1
1584105046468,NaN,0.1610428,0.20263672,-0.73950195,0.63916016,1584105046011,1915980834821,0.06661506,1,1
1584105046471,NaN,0.1531576,0.1887207,-0.7182617,0.65405273,1584105046091,1915980834821,0.06661506,1,1
1584105046476,NaN,0.124294914,0.18969727,-0.72314453,0.65527344,1584105046171,1915980834821,0.06661506,1,1
1584105046479,NaN,0.08985845,0.18774414,-0.72753906,0.6557617,1584105046251,1915980834821,0.06661506,1,1
1584105046482,NaN,0.025524735,0.18115234,-0.71533203,0.6569824,1584105046331,1915980834821,0.06661506,1,1
1584105046487,NaN,-0.027389856,0.18530273,-0.71606445,0.65722656,1584105046411,1915980834821,0.06661506,1,1
1584105046491,NaN,-0.06151216,0.18603516,-0.7026367,0.657959,1584105046491,1915980834821,0.06661506,1,1
1584105048953,NaN,-0.123951875,0.18359375,-0.70288086,0.65625,1584105046571,-4280690777463,0.06661506,1,1
1584105048960,NaN,-0.1736543,0.18408203,-0.7080078,0.6569824,1584105046651,-4280690777463,0.06661506,1,1
1584105048965,NaN,-0.21736495,0.1875,-0.70532227,0.65771484,1584105046731,-4280690777463,0.06661506,1,1
1584105048972,27.777779,-0.24640037,0.19311523,-0.72265625,0.6672363,1584105046811,-4280690777463,0.06661506,1,1
1584105048976,NaN,-0.258178,0.20043945,-0.720459,0.670166,1584105046891,-4280690777463,0.06661506,1,1
1584105048980,NaN,-0.2912073,0.19262695,-0.7180176,0.6623535,1584105046971,-4280690777463,0.06661506,1,1
1584105048983,NaN,-0.27442783,0.20483398,-0.7258301,0.657959,1584105047051,-4280690777463,0.06661506,1,1
1584105048988,NaN,-0.25731173,0.19799805,-0.71313477,0.66064453,1584105047131,-4280690777463,0.06661506,1,1
1584105048991,NaN,-0.23221548,0.20336914,-0.7133789,0.65844727,1584105047211,-4280690777463,0.06661506,1,1
1584105048995,NaN,-0.19486403,0.19726562,-0.7077637,0.6647949,1584105047291,-4280690777463,0.06661506,1,1
1584105048998,NaN,-0.16415957,0.19995117,-0.7104492,0.6657715,1584105047371,-4280690777463,0.06661506,1,1
1584105049001,NaN,-0.14193262,0.19580078,-0.70410156,0.67089844,1584105047451,-4280690777463,0.037338354,1,1
1584105049005,NaN,-0.10633948,0.203125,-0.70288086,0.670166,1584105047531,-4280690777463,0.037338354,1,1
1584105049010,NaN,-0.08009316,0.1977539,-0.7043457,0.6750488,1584105047611,-4280690777463,0.037338354,1,1
1584105049013,NaN,-0.047425687,0.19995117,-0.7023926,0.6723633,1584105047691,-4280690777463,0.037338354,1,1
1584105049016,NaN,-0.046684112,0.19946289,-0.7026367,0.67211914,1584105047771,-4280690777463,0.037338354,1,1
1584105049020,NaN,-0.0493966,0.20043945,-0.703125,0.68115234,1584105047851,-4280690777463,0.037338354,1,1
1584105049023,NaN,-0.03570007,0.2006836,-0.6982422,0.67578125,1584105047931,-4280690777463,0.037338354,1,1
1584105049026,NaN,-0.06087278,0.20336914,-0.7138672,0.6779785,1584105048011,-4280690777463,0.037338354,1,1
1584105049029,NaN,-0.06542348,0.19750977,-0.69970703,0.6633301,1584105048091,-4280690777463,0.037338354,1,1
1584105049033,NaN,-0.07307899,0.20166016,-0.7097168,0.6669922,1584105048171,-4280690777463,0.037338354,1,1
1584105049037,NaN,-0.07584052,0.19140625,-0.7133789,0.66918945,1584105048251,-4280690777463,0.037338354,1,1
1584105049041,NaN,-0.0728269,0.19091797,-0.71606445,0.65893555,1584105048331,-4280690777463,0.037338354,1,1
1584105049044,NaN,-0.060475945,0.1899414,-0.71655273,0.6591797,1584105048411,-4280690777463,0.030029297,1,1
1584105049049,NaN,-0.05077973,0.19042969,-0.72021484,0.65722656,1584105048491,-4280690777463,0.030029297,1,1
1584105049051,NaN,-0.026936987,0.19165039,-0.7150879,0.6484375,1584105048571,-4280690777463,0.029437933,1,1
1584105049052,NaN,-0.004847231,0.18896484,-0.70947266,0.64086914,1584105048651,-4280690777463,0.021199506,1,1
1584105049055,NaN,0.015387163,0.18774414,-0.7331543,0.66845703,1584105048731,-4280690777463,0.036378592,1,1
1584105049059,NaN,0.050007135,0.19262695,-0.7290039,0.6608887,1584105048811,-4280690777463,0.036378592,1,1
1584105049062,NaN,0.078791216,0.20361328,-0.7055664,0.65527344,1584105048891,-4280690777463,0.036378592,1,1
1584105049066,NaN,0.094866924,0.20214844,-0.7080078,0.67407227,1584105048971,-4280690777463,0.036378592,1,1
1584105049069,NaN,0.1034615,0.20361328,-0.7077637,0.67089844,1584105049051,-4280690777463,0.036378592,1,1
1584105051537,NaN,0.11157671,0.18603516,-0.71899414,0.66503906,1584105049131,7969663158937,0.036378592,1,1
1584105051544,NaN,0.12074896,0.18286133,-0.7211914,0.66015625,1584105049211,7969663158937,0.036378592,1,1
1584105051549,NaN,0.112343214,0.18945312,-0.7126465,0.66430664,1584105049291,7969663158937,0.036378592,1,1
1584105051553,NaN,0.08178842,0.17333984,-0.7067871,0.6765137,1584105049371,7969663158937,0.036378592,1,1
1584105051558,NaN,0.040705852,0.19018555,-0.6867676,0.6789551,1584105049451,7969663158937,0.036378592,1,1
1584105051562,NaN,-0.008964077,0.18432617,-0.69677734,0.68066406,1584105049531,7969663158937,0.036378592,1,1
1584105051565,NaN,-0.04957323,0.19091797,-0.7092285,0.67749023,1584105049611,7969663158937,0.036378592,1,1
1584105051571,20.833334,-0.06798912,0.18554688,-0.7138672,0.6611328,1584105049691,7969663158937,0.036378592,1,1
1584105051575,NaN,-0.11041647,0.18334961,-0.7175293,0.6813965,1584105049771,7969663158937,0.036378592,1,1
1584105051578,NaN,-0.15540983,0.17138672,-0.6970215,0.68066406,1584105049851,7969663158937,0.036378592,1,1
1584105051581,NaN,-0.15986358,0.18188477,-0.7060547,0.6726074,1584105049931,7969663158937,0.036378592,1,1
1584105051585,NaN,-0.15889253,0.17919922,-0.7248535,0.6713867,1584105050011,7969663158937,0.036378592,1,1
1584105051588,NaN,-0.16061467,0.17626953,-0.7109375,0.6555176,1584105050091,7969663158937,0.036378592,1,1
1584105051592,NaN,-0.18208106,0.16625977,-0.7182617,0.6748047,1584105050171,7969663158937,0.036378592,1,1
1584105051595,NaN,-0.18386365,0.1628418,-0.70947266,0.66259766,1584105050251,7969663158937,0.036378592,1,1
1584105051598,NaN,-0.15385948,0.15771484,-0.70458984,0.6525879,1584105050331,7969663158937,0.036378592,1,1
1584105051601,NaN,-0.09304002,0.16455078,-0.7194824,0.64624023,1584105050411,7969663158937,0.036378592,1,1
1584105051604,NaN,-0.041967764,0.16259766,-0.71777344,0.6569824,1584105050491,7969663158937,0.036378592,1,1
1584105051608,NaN,-0.0038049445,0.17675781,-0.72265625,0.6569824,1584105050571,7969663158937,0.036378592,1,1
1584105051611,NaN,-0.0026145673,0.18139648,-0.72143555,0.67333984,1584105050651,7969663158937,0.036378592,1,1
1584105051615,NaN,0.019314302,0.17260742,-0.71655273,0.6743164,1584105050731,7969663158937,0.036378592,1,1
1584105051619,NaN,0.064806886,0.17944336,-0.7109375,0.66748047,1584105050811,7969663158937,0.036378592,1,1
1584105051621,NaN,0.08340961,0.1887207,-0.71875,0.66430664,1584105050891,7969663158937,0.036378592,1,1
1584105051624,NaN,0.07849673,0.17700195,-0.71875,0.6699219,1584105050971,7969663158937,0.036378592,1,1
1584105051627,NaN,0.07551345,0.18188477,-0.7072754,0.66137695,1584105051051,7969663158937,0.036378592,1,1
1584105051630,NaN,0.095905,0.1809082,-0.71484375,0.6699219,1584105051131,7969663158937,0.036378592,1,1
1584105051633,NaN,0.10835734,0.18359375,-0.7126465,0.6672363,1584105051211,7969663158937,0.036378592,1,1
1584105051636,NaN,0.098827444,0.18408203,-0.71118164,0.67163086,1584105051291,7969663158937,0.026486726,1,1
1584105051639,NaN,0.0528715,0.17578125,-0.7104492,0.66967773,1584105051371,7969663158937,0.026486726,1,1
1584105051642,NaN,0.022936279,0.1809082,-0.701416,0.6682129,1584105051451,7969663158937,0.026277743,1,1
1584105051645,NaN,-0.016029244,0.17114258,-0.70581055,0.6779785,1584105051531,7969663158937,0.026277743,1,1
1584105051648,NaN,-0.026804073,0.17651367,-0.70166016,0.67993164,1584105051611,7969663158937,0.026277743,1,1
1584105054125,NaN,-0.03614683,0.17749023,-0.7011719,0.6760254,1584105051691,1773273021629,0.026277743,1,1
1584105054130,NaN,-0.06423303,0.17773438,-0.7080078,0.68188477,1584105051771,1773273021629,0.026277743,1,1
1584105054136,NaN,-0.100680344,0.17895508,-0.70092773,0.6833496,1584105051851,1773273021629,0.026277743,1,1
1584105054139,NaN,-0.09714214,0.1850586,-0.70874023,0.6621094,1584105051931,1773273021629,0.026277743,1,1
1584105054142,NaN,-0.09032916,0.18457031,-0.7233887,0.6713867,1584105052011,1773273021629,0.023753265,1,1
1584105054145,NaN,-0.08875469,0.17675781,-0.71484375,0.6569824,1584105052091,1773273021629,0.023753265,1,1
1584105054150,NaN,-0.092258565,0.16015625,-0.72753906,0.67211914,1584105052171,1773273021629,0.025805099,1,1
1584105054154,NaN,-0.07856499,0.17797852,-0.71484375,0.65112305,1584105052251,1773273021629,0.030325567,1,1
1584105054157,NaN,-0.039686408,0.17382812,-0.73535156,0.65356445,1584105052331,1773273021629,0.030325567,1,1
1584105054160,NaN,-0.0029581066,0.16967773,-0.72314453,0.64331055,1584105052411,1773273021629,0.030325567,1,1
1584105054164,NaN,0.053390574,0.16918945,-0.72875977,0.6447754,1584105052491,1773273021629,0.030325567,1,1
1584105054168,NaN,0.11166034,0.16870117,-0.7265625,0.6335449,1584105052571,1773273021629,0.030325567,1,1
1584105054173,NaN,0.15888973,0.17651367,-0.7307129,0.6401367,1584105052651,1773273021629,0.030325567,1,1
1584105054177,NaN,0.20039149,0.17382812,-0.73828125,0.6604004,1584105052731,1773273021629,0.030325567,1,1
1584105054182,NaN,0.25575045,0.1821289,-0.72753906,0.6550293,1584105052811,1773273021629,0.030325567,1,1
1584105054185,NaN,0.26590505,0.18261719,-0.7246094,0.6594238,1584105052891,1773273021629,0.030325567,1,1
1584105054189,NaN,0.26931247,0.18701172,-0.7216797,0.6586914,1584105052971,1773273021629,0.030325567,1,1
1584105054193,NaN,0.26178515,0.1628418,-0.72265625,0.66748047,1584105053051,1773273021629,0.030325567,1,1
1584105054196,NaN,0.26876923,0.18017578,-0.73461914,0.66015625,1584105053131,1773273021629,0.030325567,1,1
1584105054200,NaN,0.2586725,0.18041992,-0.72314453,0.6520996,1584105053211,1773273021629,0.030325567,1,1
1584105054203,NaN,0.22646244,0.16723633,-0.72680664,0.6608887,1584105053291,1773273021629,0.030325567,1,1
1584105054207,NaN,0.17315777,0.17041016,-0.7084961,0.6730957,1584105053371,1773273021629,0.030325567,1,1
1584105054211,NaN,0.11615348,0.16259766,-0.71655273,0.6738281,1584105053451,1773273021629,0.030325567,1,1
1584105054214,NaN,0.03598965,0.1665039,-0.7043457,0.6755371,1584105053531,1773273021629,0.030325567,1,1
1584105054217,NaN,-0.039682403,0.17700195,-0.70410156,0.67626953,1584105053611,1773273021629,0.030325567,1,1
1584105054220,NaN,-0.10542739,0.16894531,-0.701416,0.68481445,1584105053691,1773273021629,0.030325567,1,1
1584105054223,NaN,-0.16943032,0.17700195,-0.69921875,0.6821289,1584105053771,1773273021629,0.030325567,1,1
1584105054226,NaN,-0.2066238,0.16040039,-0.6970215,0.68115234,1584105053851,1773273021629,0.030325567,1,1
1584105054229,NaN,-0.24382019,0.15991211,-0.70336914,0.69750977,1584105053931,1773273021629,0.030325567,1,1
1584105054232,NaN,-0.2688953,0.17456055,-0.6936035,0.67944336,1584105054011,1773273021629,0.030325567,1,1
1584105054235,NaN,-0.30247337,0.16992188,-0.71240234,0.68188477,1584105054091,1773273021629,0.030325567,1,1
1584105054238,NaN,-0.32810894,0.16894531,-0.7019043,0.66967773,1584105054171,1773273021629,0.030325567,1,1
1584105056703,NaN,-0.33235946,0.16210938,-0.7175293,0.67407227,1584105054251,-4423398590655,0.030325567,1,1
1584105056721,NaN,-0.29557073,0.16137695,-0.7207031,0.66918945,1584105054331,-4423398590655,0.030325567,1,1
1584105056722,NaN,-0.2565438,0.1586914,-0.72314453,0.65478516,1584105054411,-4423398590655,0.030325567,1,1
1584105056728,NaN,-0.19886732,0.15332031,-0.7175293,0.65649414,1584105054491,-4423398590655,0.030325567,1,1
1584105056736,NaN,-0.13547267,0.14990234,-0.7248535,0.65649414,1584105054571,-4423398590655,0.030325567,1,1
1584105056744,NaN,-0.067978024,0.16064453,-0.71875,0.64868164,1584105054651,-4423398590655,0.030325567,1,1
1584105056750,NaN,-0.006108381,0.16333008,-0.7207031,0.65527344,1584105054731,-4423398590655,0.030325567,1,1
1584105056759,NaN,0.04573818,0.16699219,-0.7331543,0.67211914,1584105054811,-4423398590655,0.025736868,1,1
1584105056766,25.0,0.09751016,0.17236328,-0.71240234,0.6682129,1584105054891,-4423398590655,0.025736868,1,1
1584105056776,NaN,0.15089293,0.18139648,-0.7285156,0.6647949,1584105054971,-4423398590655,0.025736868,1,1
1584105056780,NaN,0.19587125,0.17163086,-0.7229004,0.657959,1584105055051,-4423398590655,0.025736868,1,1
1584105056782,NaN,0.23718248,0.17114258,-0.72436523,0.6582031,1584105055131,-4423398590655,0.025736868,1,1
1584105056786,NaN,0.26173094,0.16992188,-0.7246094,0.6594238,1584105055211,-4423398590655,0.025736868,1,1
1584105056789,NaN,0.2594209,0.17138672,-0.7258301,0.65844727,1584105055291,-4423398590655,0.025736868,1,1
1584105056792,NaN,0.23633333,0.17578125,-0.72265625,0.6633301,1584105055371,-4423398590655,0.025736868,1,1
1584105056796,NaN,0.21500091,0.16699219,-0.7258301,0.66308594,1584105055451,-4423398590655,0.025736868,1,1
1584105056799,NaN,0.17769976,0.17358398,-0.7155762,0.65966797,1584105055531,-4423398590655,0.025736868,1,1
1584105056804,NaN,0.13050404,0.16870117,-0.71777344,0.6706543,1584105055611,-4423398590655,0.025225764,1,1
1584105056808,NaN,0.08328303,0.16699219,-0.7102051,0.6730957,1584105055691,-4423398590655,0.025225764,1,1
1584105056811,NaN,0.04769246,0.16552734,-0.7109375,0.6677246,1584105055771,-4423398590655,0.025225764,1,1
1584105056815,NaN,0.025646558,0.16796875,-0.70947266,0.6682129,1584105055851,-4423398590655,0.025225764,1,1
1584105056818,NaN,-0.018377738,0.16308594,-0.71850586,0.68652344,1584105055931,-4423398590655,0.025225764,1,1
1584105056822,NaN,-0.049895823,0.16845703,-0.70825195,0.6635742,1584105056011,-4423398590655,0.025703266,1,1
1584105056825,NaN,-0.0729137,0.16625977,-0.72631836,0.6672363,1584105056091,-4423398590655,0.025703266,1,1
1584105056828,NaN,-0.0779474,0.1652832,-0.734375,0.6586914,1584105056171,-4423398590655,0.025703266,1,1
1584105056831,NaN,-0.079371594,0.1665039,-0.73095703,0.6533203,1584105056251,-4423398590655,0.025703266,1,1
1584105056834,NaN,-0.048937067,0.16479492,-0.7434082,0.64746094,1584105056331,-4423398590655,0.025703266,1,1
1584105056840,NaN,-0.030106032,0.16088867,-0.73950195,0.6477051,1584105056411,-4423398590655,0.025703266,1,1
1584105056841,NaN,0.0067807697,0.15966797,-0.72753906,0.63012695,1584105056491,-4423398590655,0.025703266,1,1
1584105056844,35.714287,0.06628947,0.17333984,-0.7458496,0.62158203,1584105056571,-4423398590655,0.025703266,1,1
1584105056846,NaN,0.13643233,0.17382812,-0.73950195,0.6113281,1584105056651,-4423398590655,0.025703266,1,1
1584105056849,NaN,0.18549906,0.17358398,-0.748291,0.63671875,1584105056731,-4423398590655,0.026869891,1,1
1584105059289,NaN,0.21877676,0.17382812,-0.74438477,0.6464844,1584105056811,7826955345745,0.026869891,1,1
1584105059295,NaN,0.26129764,0.17236328,-0.7282715,0.6501465,1584105056891,7826955345745,0.026869891,1,1
1584105059300,NaN,0.30158857,0.17651367,-0.7468262,0.6501465,1584105056971,7826955345745,0.026869891,1,1
1584105059304,NaN,0.3247095,0.17553711,-0.73413086,0.64086914,1584105057051,7826955345745,0.026869891,1,1
1584105059309,NaN,0.32859465,0.17114258,-0.7390137,0.6447754,1584105057131,7826955345745,0.026869891,1,1
1584105059315,NaN,0.32762113,0.17456055,-0.73876953,0.64990234,1584105057211,7826955345745,0.026869891,1,1
1584105059319,NaN,0.29263848,0.17114258,-0.7282715,0.65234375,1584105057291,7826955345745,0.026869891,1,1
1584105059323,NaN,0.26473692,0.17700195,-0.7355957,0.65771484,1584105057371,7826955345745,0.026869891,1,1
1584105059327,NaN,0.22934806,0.1796875,-0.7331543,0.6464844,1584105057451,7826955345745,0.026869891,1,1
1584105059332,NaN,0.16803984,0.16357422,-0.74121094,0.64575195,1584105057531,7826955345745,0.026869891,1,1
1584105059336,NaN,0.09236163,0.1809082,-0.7404785,0.6479492,1584105057611,7826955345745,0.026869891,1,1
1584105059339,NaN,0.06530443,0.18847656,-0.7426758,0.6101074,1584105057691,7826955345745,0.038653713,1,1
1584105059343,NaN,0.091321744,0.17089844,-0.76831055,0.5744629,1584105057771,7826955345745,0.047293384,1,1
1584105059350,NaN,0.13708448,0.1652832,-0.78344727,0.5842285,1584105057851,7826955345745,0.047293384,1,1
1584105059352,NaN,0.1721899,0.18701172,-0.7844238,0.58032227,1584105057931,7826955345745,0.047293384,1,1
1584105059357,NaN,0.21420813,0.16259766,-0.78466797,0.58862305,1584105058011,7826955345745,0.047293384,1,1
1584105059359,NaN,0.25396398,0.16333008,-0.7922363,0.6118164,1584105058091,7826955345745,0.047293384,1,1
1584105059362,NaN,0.2953164,0.15283203,-0.78027344,0.61376953,1584105058171,7826955345745,0.047293384,1,1
1584105059365,NaN,0.3563834,0.15625,-0.76049805,0.6047363,1584105058251,7826955345745,0.047293384,1,1
1584105059369,NaN,0.41560283,0.16064453,-0.75927734,0.60302734,1584105058331,7826955345745,0.047293384,1,1
1584105059372,NaN,0.46052453,0.16186523,-0.7541504,0.6105957,1584105058411,7826955345745,0.047293384,1,1
1584105059376,NaN,0.5080107,0.16455078,-0.74780273,0.6032715,1584105058491,7826955345745,0.047293384,1,1
1584105059378,NaN,0.5678266,0.17333984,-0.75097656,0.6003418,1584105058571,7826955345745,0.047293384,1,1
1584105059381,NaN,0.55900747,0.17041016,-0.7680664,0.6281738,1584105058651,7826955345745,0.047293384,1,1
1584105059384,NaN,0.46387777,0.17602539,-0.76000977,0.6237793,1584105058731,7826955345745,0.047293384,1,1
1584105059388,NaN,0.3689479,0.17236328,-0.7717285,0.6086426,1584105058811,7826955345745,0.047293384,1,1
1584105059391,NaN,0.28811863,0.16967773,-0.77563477,0.6010742,1584105058891,7826955345745,0.047293384,1,1
1584105059395,NaN,0.21355163,0.16967773,-0.77197266,0.5974121,1584105058971,7826955345745,0.047293384,1,1
1584105059398,NaN,0.16572417,0.16748047,-0.78149414,0.5986328,1584105059051,7826955345745,0.047293384,1,1
1584105059402,NaN,0.12268334,0.16088867,-0.7753906,0.6027832,1584105059131,7826955345745,0.047293384,1,1
1584105059406,NaN,0.08513998,0.16210938,-0.77612305,0.59936523,1584105059211,7826955345745,0.047293384,1,1
1584105059408,NaN,0.047748018,0.16210938,-0.7741699,0.5969238,1584105059291,7826955345745,0.047293384,1,1
1584105061872,NaN,0.03824952,0.16601562,-0.7817383,0.592041,1584105059371,1630565208437,0.047293384,1,1
1584105061891,NaN,0.021965697,0.16186523,-0.77124023,0.5998535,1584105059451,1630565208437,0.047293384,1,1
1584105061898,NaN,-0.0053773313,0.15307617,-0.7727051,0.6047363,1584105059531,1630565208437,0.047293384,1,1
1584105061900,NaN,4.8241453E-4,0.15405273,-0.7614746,0.61083984,1584105059611,1630565208437,0.047293384,1,1
1584105061904,NaN,0.044704925,0.14428711,-0.76538086,0.6208496,1584105059691,1630565208437,0.047293384,1,1
1584105061909,NaN,0.053327452,0.14160156,-0.76416016,0.62768555,1584105059771,1630565208437,0.047293384,1,1
1584105061911,NaN,0.037538663,0.14013672,-0.7504883,0.6340332,1584105059851,1630565208437,0.047293384,1,1
1584105061914,NaN,0.033674013,0.16015625,-0.76660156,0.61987305,1584105059931,1630565208437,0.047293384,1,1
1584105061917,NaN,0.00581448,0.14819336,-0.7597656,0.6218262,1584105060011,1630565208437,0.047293384,1,1
1584105061920,NaN,-0.011193399,0.16015625,-0.7602539,0.6105957,1584105060091,1630565208437,0.047293384,1,1
1584105061926,NaN,-0.035561297,0.15209961,-0.76831055,0.6140137,1584105060171,1630565208437,0.047293384,1,1
1584105061929,NaN,-0.06173162,0.15039062,-0.7648926,0.6125488,1584105060251,1630565208437,0.047293384,1,1
1584105061933,NaN,-0.10978371,0.14770508,-0.76464844,0.61279297,1584105060331,1630565208437,0.032791276,1,1
1584105061937,NaN,-0.13093765,0.15185547,-0.75756836,0.59936523,1584105060411,1630565208437,0.032791276,1,1
1584105061940,NaN,-0.1392894,0.15405273,-0.7663574,0.59716797,1584105060491,1630565208437,0.032791276,1,1
1584105061944,NaN,-0.1405435,0.1538086,-0.748291,0.58813477,1584105060571,1630565208437,0.032791276,1,1
1584105061948,NaN,-0.13135982,0.15698242,-0.79663086,0.6203613,1584105060651,1630565208437,0.05818389,1,1
1584105061951,NaN,-0.111269146,0.16577148,-0.76586914,0.6191406,1584105060731,1630565208437,0.05818389,1,1
1584105061954,NaN,-0.046973098,0.17089844,-0.7741699,0.6044922,1584105060811,1630565208437,0.05818389,1,1
1584105061958,NaN,-0.014233393,0.16625977,-0.7661133,0.59521484,1584105060891,1630565208437,0.05818389,1,1
1584105061961,NaN,0.038218554,0.1730957,-0.78222656,0.5986328,1584105060971,1630565208437,0.05818389,1,1
1584105061963,NaN,0.063233145,0.16870117,-0.7727051,0.6022949,1584105061051,1630565208437,0.05818389,1,1
1584105061966,13.157895,0.08336183,0.16357422,-0.7697754,0.6044922,1584105061131,1630565208437,0.05818389,1,1
1584105061969,NaN,0.10067094,0.16308594,-0.76708984,0.6101074,1584105061211,1630565208437,0.05818389,1,1
1584105061972,NaN,0.123371966,0.16552734,-0.76293945,0.6101074,1584105061291,1630565208437,0.05818389,1,1
1584105061976,NaN,0.1262374,0.1628418,-0.76538086,0.611084,1584105061371,1630565208437,0.05818389,1,1
1584105061979,NaN,0.11321909,0.16015625,-0.76171875,0.611084,1584105061451,1630565208437,0.05818389,1,1
1584105061982,NaN,0.09505198,0.16235352,-0.76342773,0.6159668,1584105061531,1630565208437,0.05818389,1,1
1584105061984,NaN,0.05780551,0.15209961,-0.75927734,0.62231445,1584105061611,1630565208437,0.05818389,1,1
1584105061987,NaN,0.047811672,0.1616211,-0.7548828,0.61621094,1584105061691,1630565208437,0.05818389,1,1
1584105061990,NaN,-0.004332283,0.15649414,-0.7607422,0.6242676,1584105061771,1630565208437,0.05818389,1,1
1584105061993,NaN,-0.046136964,0.15405273,-0.75268555,0.623291,1584105061851,1630565208437,0.05818389,1,1
1584105064255,NaN,-0.10100913,0.15600586,-0.7583008,0.6208496,1584105061931,-4566106403848,0.05818389,1,1
1584105064259,NaN,-0.14109643,0.15698242,-0.75512695,0.6303711,1584105062011,-4566106403848,0.05818389,1,1
1584105064263,NaN,-0.16485147,0.15673828,-0.7578125,0.61987305,1584105062091,-4566106403848,0.05818389,1,1
1584105064268,NaN,-0.17138724,0.15576172,-0.7644043,0.6130371,1584105062171,-4566106403848,0.05818389,1,1
1584105064273,NaN,-0.17210166,0.1574707,-0.76782227,0.6130371,1584105062251,-4566106403848,0.05818389,1,1
1584105064277,NaN,-0.16911823,0.15283203,-0.77197266,0.6166992,1584105062331,-4566106403848,0.05818389,1,1
1584105064281,NaN,-0.15576911,0.15625,-0.76342773,0.609375,1584105062411,-4566106403848,0.05818389,1,1
1584105064285,NaN,-0.13582061,0.15698242,-0.7702637,0.6064453,1584105062491,-4566106403848,0.05818389,1,1
1584105064289,NaN,-0.10387189,0.1550293,-0.77075195,0.61450195,1584105062571,-4566106403848,0.05818389,1,1
1584105064293,NaN,-0.08396044,0.1472168,-0.7697754,0.60253906,1584105062651,-4566106403848,0.05818389,1,1
1584105064297,NaN,-0.04460984,0.15332031,-0.7644043,0.59814453,1584105062731,-4566106403848,0.05818389,1,1
1584105064300,NaN,0.020966237,0.15039062,-0.77685547,0.5817871,1584105062811,-4566106403848,0.05818389,1,1
1584105064305,NaN,0.07125636,0.16137695,-0.7780762,0.60253906,1584105062891,-4566106403848,0.05818389,1,1
1584105064309,32.608696,0.111879684,0.15966797,-0.7685547,0.6220703,1584105062971,-4566106403848,0.05818389,1,1
1584105064313,NaN,0.12376522,0.13842773,-0.75878906,0.6262207,1584105063051,-4566106403848,0.05818389,1,1
1584105064316,NaN,0.11171552,0.14501953,-0.7624512,0.63427734,1584105063131,-4566106403848,0.05818389,1,1
1584105064319,NaN,0.08846942,0.15112305,-0.7402344,0.6257324,1584105063211,-4566106403848,0.03201595,1,1
1584105064322,NaN,0.05999436,0.15014648,-0.7446289,0.63916016,1584105063291,-4566106403848,0.024573455,1,1
1584105064324,NaN,0.008485451,0.1394043,-0.7314453,0.6582031,1584105063371,-4566106403848,0.025531087,1,1
1584105064327,NaN,-0.061142262,0.14233398,-0.7282715,0.6633301,1584105063451,-4566106403848,0.025531087,1,1
1584105064330,NaN,-0.1359602,0.14526367,-0.72094727,0.67089844,1584105063531,-4566106403848,0.025531087,1,1
1584105064333,NaN,-0.2175417,0.1418457,-0.7211914,0.6633301,1584105063611,-4566106403848,0.025531087,1,1
1584105064336,NaN,-0.30707896,0.16674805,-0.7145996,0.66748047,1584105063691,-4566106403848,0.026092226,1,1
1584105064339,NaN,-0.43302527,0.1574707,-0.7163086,0.6660156,1584105063771,-4566106403848,0.026092226,1,1
1584105064342,NaN,-0.5355304,0.1809082,-0.70751953,0.66918945,1584105063851,-4566106403848,0.026092226,1,1
1584105064345,NaN,-0.60656303,0.18237305,-0.7180176,0.67211914,1584105063931,-4566106403848,0.026092226,1,1
1584105064348,NaN,-0.653634,0.17675781,-0.7145996,0.67163086,1584105064011,-4566106403848,0.026092226,1,1
1584105064351,NaN,-0.6818158,0.15771484,-0.7297363,0.67578125,1584105064091,-4566106403848,0.026092226,1,1
1584105064354,NaN,-0.7180464,0.15893555,-0.69677734,0.68188477,1584105064171,-4566106403848,0.033541583,1,1
1584105064358,NaN,-0.7138374,0.14282227,-0.72387695,0.66015625,1584105064251,-4566106403848,0.038290404,1,1
1584105064361,NaN,-0.65791464,0.16064453,-0.73535156,0.6525879,1584105064331,-4566106403848,0.038290404,1,1
1584105064364,NaN,-0.584151,0.15917969,-0.73217773,0.6455078,1584105064411,-4566106403848,0.038290404,1,1
1584105066848,NaN,-0.50743943,0.14355469,-0.734375,0.66186523,1584105064491,7612189938515,0.038290404,1,1
1584105066857,NaN,-0.4429144,0.14379883,-0.71850586,0.66259766,1584105064571,7612189938515,0.038290404,1,1
1584105066861,NaN,-0.36937058,0.1184082,-0.71435547,0.6611328,1584105064651,7612189938515,0.038290404,1,1
1584105066865,NaN,-0.26680282,0.14916992,-0.736084,0.6574707,1584105064731,7612189938515,0.038290404,1,1
1584105066869,NaN,-0.14463782,0.16992188,-0.7182617,0.6105957,1584105064811,7612189938515,0.05427285,1,1
1584105066873,NaN,-0.031834498,0.18945312,-0.75561523,0.61938477,1584105064891,7612189938515,0.05427285,1,1
1584105066876,30.0,0.067872785,0.20385742,-0.75561523,0.6333008,1584105064971,7612189938515,0.05427285,1,1
1584105066881,NaN,0.15265255,0.20092773,-0.7475586,0.6296387,1584105065051,7612189938515,0.05427285,1,1
1584105066882,NaN,0.25854313,0.20751953,-0.7233887,0.6352539,1584105065131,7612189938515,0.05427285,1,1
1584105066886,NaN,0.30057335,0.21142578,-0.7363281,0.6508789,1584105065211,7612189938515,0.05427285,1,1
1584105066889,NaN,0.30538028,0.21166992,-0.72753906,0.6347656,1584105065291,7612189938515,0.05427285,1,1
1584105066894,NaN,0.28718936,0.2121582,-0.72680664,0.6533203,1584105065371,7612189938515,0.05427285,1,1
1584105066905,NaN,0.2828656,0.21459961,-0.7207031,0.6413574,1584105065451,7612189938515,0.05427285,1,1
1584105066906,NaN,0.29439327,0.20678711,-0.72143555,0.6542969,1584105065531,7612189938515,0.05427285,1,1
1584105066906,NaN,0.30216822,0.20751953,-0.7167969,0.6520996,1584105065611,7612189938515,0.05427285,1,1
1584105066907,NaN,0.2899634,0.2055664,-0.7312012,0.64941406,1584105065691,7612189938515,0.05427285,1,1
1584105066911,NaN,0.22596113,0.20043945,-0.71899414,0.64697266,1584105065771,7612189938515,0.05427285,1,1
1584105066914,NaN,0.13396724,0.2043457,-0.72631836,0.6542969,1584105065851,7612189938515,0.05427285,1,1
1584105066917,NaN,0.04334492,0.20581055,-0.7133789,0.66430664,1584105065931,7612189938515,0.05427285,1,1
1584105066921,NaN,-0.038142305,0.21118164,-0.720459,0.67089844,1584105066011,7612189938515,0.05427285,1,1
1584105066929,NaN,-0.11755801,0.20117188,-0.70214844,0.66845703,1584105066091,7612189938515,0.05427285,1,1
1584105066933,NaN,-0.14816332,0.20898438,-0.720459,0.6582031,1584105066171,7612189938515,0.05427285,1,1
1584105066936,NaN,-0.17596589,0.18847656,-0.7199707,0.6538086,1584105066251,7612189938515,0.05427285,1,1
1584105066940,NaN,-0.17229743,0.19458008,-0.7285156,0.6555176,1584105066331,7612189938515,0.05427285,1,1
1584105066943,NaN,-0.18931268,0.17871094,-0.7163086,0.64868164,1584105066411,7612189938515,0.05427285,1,1
1584105066946,NaN,-0.18907692,0.1875,-0.7297363,0.6435547,1584105066491,7612189938515,0.05427285,1,1
1584105066950,NaN,-0.19797756,0.18066406,-0.7128906,0.64453125,1584105066571,7612189938515,0.05427285,1,1
1584105066955,NaN,-0.19494753,0.18701172,-0.72143555,0.62841797,1584105066651,7612189938515,0.05427285,1,1
1584105066959,NaN,-0.16489072,0.18701172,-0.7368164,0.6491699,1584105066731,7612189938515,0.05427285,1,1
1584105066962,NaN,-0.11147123,0.18652344,-0.7397461,0.640625,1584105066811,7612189938515,0.05427285,1,1
1584105066967,NaN,-0.040073585,0.1784668,-0.74731445,0.6484375,1584105066891,7612189938515,0.05427285,1,1
1584105066971,NaN,0.037936024,0.19384766,-0.74072266,0.6291504,1584105066971,7612189938515,0.05427285,1,1
1584105069620,28.846153,0.102659166,0.21020508,-0.7336426,0.6455078,1584105067051,1415799801206,0.05427285,1,1
1584105069628,NaN,0.113115616,0.20532227,-0.7216797,0.6640625,1584105067131,1415799801206,0.05427285,1,1
1584105069635,NaN,0.12416502,0.20605469,-0.70654297,0.6508789,1584105067211,1415799801206,0.05427285,1,1
1584105069640,NaN,0.113655925,0.21191406,-0.7077637,0.65478516,1584105067291,1415799801206,0.05427285,1,1
1584105069643,NaN,0.11009803,0.19213867,-0.7155762,0.6665039,1584105067371,1415799801206,0.04305813,1,1
1584105069648,NaN,0.08248118,0.19873047,-0.7233887,0.6645508,1584105067451,1415799801206,0.025830494,1,1
1584105069652,NaN,0.0863672,0.20507812,-0.72216797,0.64331055,1584105067531,1415799801206,0.025830494,1,1
1584105069657,NaN,0.04336898,0.18481445,-0.70874023,0.67456055,1584105067611,1415799801206,0.03959145,1,1
1584105069660,NaN,0.010994665,0.18261719,-0.7163086,0.6694336,1584105067691,1415799801206,0.03959145,1,1
1584105069665,NaN,-0.02640917,0.18383789,-0.7192383,0.6569824,1584105067771,1415799801206,0.03959145,1,1
1584105069669,NaN,-0.085820876,0.18139648,-0.7236328,0.6765137,1584105067851,1415799801206,0.03959145,1,1
1584105069674,NaN,-0.15631644,0.17700195,-0.71362305,0.657959,1584105067931,1415799801206,0.03959145,1,1
1584105069679,NaN,-0.20502584,0.16186523,-0.7272949,0.6660156,1584105068011,1415799801206,0.03959145,1,1
1584105069681,NaN,-0.19894646,0.16381836,-0.7224121,0.65966797,1584105068091,1415799801206,0.03959145,1,1
1584105069685,NaN,-0.17965536,0.15112305,-0.7351074,0.6567383,1584105068171,1415799801206,0.03959145,1,1
