local_ts,breathing_rate,breathing_signal,accel_x,accel_y,accel_z,bs_timestamp,rs_ts,activity_level,current_exercise,pred_exercise
1584105307734,NaN,-1.6489168,0.19555664,-0.8605957,0.45654297,1584105305050,-3224595565333,0.11716054,8,1
1584105307735,NaN,-1.8188483,0.20092773,-0.8625488,0.46899414,1584105305130,-3224595565333,0.11716054,8,1
1584105307737,NaN,-1.8763014,0.18701172,-0.84277344,0.4885254,1584105305210,-3224595565333,0.11716054,8,1
1584105307747,NaN,-1.8977176,0.17919922,-0.83325195,0.50219727,1584105305290,-3224595565333,0.11716054,8,1
1584105307748,NaN,-1.918712,0.17138672,-0.8232422,0.5061035,1584105305370,-3224595565333,0.086480245,8,1
1584105307769,NaN,-1.8894793,0.17675781,-0.829834,0.50561523,1584105305450,-3224595565333,0.086480245,8,1
1584105307769,NaN,-1.8317928,0.17700195,-0.82592773,0.50878906,1584105305530,-3224595565333,0.086480245,8,1
1584105307770,NaN,-1.7557759,0.18188477,-0.8347168,0.5007324,1584105305610,-3224595565333,0.086480245,8,1
1584105307771,NaN,-1.6358739,0.18530273,-0.83740234,0.50561523,1584105305690,-3224595565333,0.086480245,8,1
1584105307772,NaN,-1.5384531,0.17700195,-0.8364258,0.5136719,1584105305770,-3224595565333,0.086480245,8,1
1584105307789,NaN,-1.4345585,0.18432617,-0.8400879,0.5053711,1584105305850,-3224595565333,0.086480245,8,1
1584105307790,NaN,-1.3282113,0.18139648,-0.8400879,0.4970703,1584105305930,-3224595565333,0.086480245,8,1
1584105307790,NaN,-1.188746,0.1694336,-0.84765625,0.49902344,1584105306010,-3224595565333,0.086480245,8,1
1584105307791,NaN,-1.035582,0.18115234,-0.8540039,0.49682617,1584105306090,-3224595565333,0.086480245,8,1
1584105307792,NaN,-0.9015581,0.17944336,-0.84472656,0.49438477,1584105306170,-3224595565333,0.086480245,8,1
1584105307793,NaN,-0.75914973,0.1809082,-0.8413086,0.49267578,1584105306250,-3224595565333,0.086480245,8,1
1584105307795,NaN,-0.61911196,0.17700195,-0.8432617,0.49926758,1584105306330,-3224595565333,0.086480245,8,1
1584105307797,NaN,-0.50750947,0.17553711,-0.8371582,0.5019531,1584105306410,-3224595565333,0.086480245,8,1
1584105307801,NaN,-0.39602566,0.17456055,-0.8469238,0.5012207,1584105306490,-3224595565333,0.086480245,8,1
1584105307803,NaN,-0.31202117,0.17773438,-0.84228516,0.5083008,1584105306570,-3224595565333,0.086480245,8,1
1584105307807,NaN,-0.23740925,0.17822266,-0.8364258,0.5024414,1584105306650,-3224595565333,0.086480245,8,1
1584105307809,NaN,-0.15785225,0.17358398,-0.84155273,0.517334,1584105306730,-3224595565333,0.086480245,8,1
1584105307812,NaN,-0.1041225,0.17626953,-0.82910156,0.5136719,1584105306810,-3224595565333,0.034805242,8,1
1584105307815,NaN,-0.058718454,0.18286133,-0.8334961,0.515625,1584105306890,-3224595565333,0.031083617,8,1
1584105307818,NaN,-0.03801994,0.17260742,-0.8322754,0.51782227,1584105306970,-3224595565333,0.031083617,8,1
1584105307821,NaN,-0.04462899,0.17016602,-0.82666016,0.5253906,1584105307050,-3224595565333,0.031083617,8,1
1584105307824,NaN,-0.07018415,0.16772461,-0.82910156,0.5251465,1584105307130,-3224595565333,0.031083617,8,1
1584105307827,NaN,-0.112668216,0.16967773,-0.8198242,0.5229492,1584105307210,-3224595565333,0.031083617,8,1
1584105307831,NaN,-0.14932622,0.16723633,-0.82470703,0.5185547,1584105307290,-3224595565333,0.031083617,8,1
1584105307835,NaN,-0.16923463,0.1730957,-0.8183594,0.5109863,1584105307370,-3224595565333,0.031083617,8,1
1584105307838,NaN,-0.21071406,0.16601562,-0.83203125,0.5300293,1584105307450,-3224595565333,0.031083617,8,1
1584105307841,NaN,-0.23340397,0.16723633,-0.8251953,0.53222656,1584105307530,-3224595565333,0.031083617,8,1
1584105310308,NaN,-0.25879124,0.1706543,-0.82788086,0.53027344,1584105307610,9025758371067,0.031083617,8,1
1584105310313,NaN,-0.26406595,0.17749023,-0.8300781,0.5205078,1584105307690,9025758371067,0.031083617,8,1
1584105310318,NaN,-0.25910214,0.17236328,-0.8293457,0.5222168,1584105307770,9025758371067,0.024488412,8,1
1584105310326,NaN,-0.24960588,0.171875,-0.8310547,0.5205078,1584105307850,9025758371067,0.024488412,8,1
1584105310329,NaN,-0.23560679,0.17138672,-0.8273926,0.52197266,1584105307930,9025758371067,0.024488412,8,1
1584105310336,NaN,-0.2019396,0.17407227,-0.8288574,0.52685547,1584105308010,9025758371067,0.024488412,8,1
1584105310340,NaN,-0.16672899,0.17382812,-0.8288574,0.5192871,1584105308090,9025758371067,0.024488412,8,1
1584105310344,NaN,-0.1297945,0.17138672,-0.8244629,0.5192871,1584105308170,9025758371067,0.024488412,8,1
1584105310348,NaN,-0.1080545,0.1665039,-0.8293457,0.5227051,1584105308250,9025758371067,0.024488412,8,1
1584105310352,NaN,-0.100152135,0.17553711,-0.8239746,0.5241699,1584105308330,9025758371067,0.024488412,8,1
1584105310357,NaN,-0.068495475,0.17260742,-0.8286133,0.52441406,1584105308410,9025758371067,0.024488412,8,1
1584105310360,NaN,-0.04533114,0.17089844,-0.82250977,0.53515625,1584105308490,9025758371067,0.024488412,8,1
1584105310363,NaN,-0.020519592,0.17260742,-0.8269043,0.52978516,1584105308570,9025758371067,0.024488412,8,1
1584105310366,NaN,-0.022142151,0.17211914,-0.8249512,0.5275879,1584105308650,9025758371067,0.024488412,8,1
1584105310370,NaN,-0.024429418,0.1743164,-0.8288574,0.5349121,1584105308730,9025758371067,0.024488412,8,1
1584105310374,NaN,-0.033472363,0.16918945,-0.8173828,0.53344727,1584105308810,9025758371067,0.024488412,8,1
1584105310376,NaN,-0.032609116,0.17114258,-0.83081055,0.5300293,1584105308890,9025758371067,0.024488412,8,1
1584105310380,NaN,-0.036901142,0.17163086,-0.829834,0.53222656,1584105308970,9025758371067,0.024488412,8,1
1584105310384,NaN,-0.05281189,0.17163086,-0.8144531,0.52563477,1584105309050,9025758371067,0.024488412,8,1
1584105310388,NaN,-0.058776822,0.17333984,-0.82958984,0.52441406,1584105309130,9025758371067,0.024488412,8,1
1584105310391,NaN,-0.058093596,0.17407227,-0.8195801,0.5192871,1584105309210,9025758371067,0.024488412,8,1
1584105310395,NaN,-0.04217927,0.17138672,-0.81762695,0.50634766,1584105309290,9025758371067,0.024488412,8,1
1584105310399,NaN,-0.020350596,0.18579102,-0.8442383,0.5007324,1584105309370,9025758371067,0.030776247,8,1
1584105310403,NaN,0.021663034,0.18652344,-0.84155273,0.49438477,1584105309450,9025758371067,0.030776247,8,1
1584105310406,NaN,0.06638425,0.19970703,-0.8557129,0.48950195,1584105309530,9025758371067,0.030776247,8,1
1584105310409,NaN,0.123608194,0.20751953,-0.8479004,0.47998047,1584105309610,9025758371067,0.030776247,8,1
1584105310412,NaN,0.1871415,0.1977539,-0.84887695,0.4753418,1584105309690,9025758371067,0.030776247,8,1
1584105310425,NaN,0.26673293,0.20825195,-0.8520508,0.4724121,1584105309770,9025758371067,0.030776247,8,1
1584105310426,NaN,0.329516,0.19750977,-0.85302734,0.46728516,1584105309850,9025758371067,0.030776247,8,1
1584105310427,NaN,0.38838515,0.19750977,-0.85375977,0.47509766,1584105309930,9025758371067,0.030776247,8,1
1584105310427,NaN,0.45937213,0.19824219,-0.8562012,0.4711914,1584105310010,9025758371067,0.030776247,8,1
1584105310428,NaN,0.5202381,0.19970703,-0.8552246,0.46191406,1584105310090,9025758371067,0.030776247,8,1
1584105312696,NaN,0.58269095,0.19921875,-0.86035156,0.46118164,1584105310170,2829368233759,0.030776247,8,1
1584105312703,NaN,0.6237413,0.19848633,-0.85668945,0.46362305,1584105310250,2829368233759,0.030776247,8,1
1584105312707,NaN,0.6342427,0.19897461,-0.8630371,0.46411133,1584105310330,2829368233759,0.030776247,8,1
1584105312716,NaN,0.6217881,0.19091797,-0.85302734,0.46435547,1584105310410,2829368233759,0.030776247,8,1
1584105312722,NaN,0.59792346,0.19946289,-0.857666,0.46166992,1584105310490,2829368233759,0.030776247,8,1
1584105312726,NaN,0.5574473,0.19555664,-0.8527832,0.46777344,1584105310570,2829368233759,0.030776247,8,1
1584105312731,NaN,0.5127876,0.19702148,-0.8564453,0.46533203,1584105310650,2829368233759,0.030776247,8,1
1584105312733,NaN,0.44849214,0.19555664,-0.85595703,0.47143555,1584105310730,2829368233759,0.030776247,8,1
1584105312736,NaN,0.3866842,0.1965332,-0.8581543,0.4741211,1584105310810,2829368233759,0.030776247,8,1
1584105312740,NaN,0.326949,0.19604492,-0.85546875,0.4819336,1584105310890,2829368233759,0.030776247,8,1
1584105312743,NaN,0.25768724,0.20336914,-0.8425293,0.47802734,1584105310970,2829368233759,0.030776247,8,1
1584105312747,NaN,0.17978235,0.19970703,-0.84814453,0.4831543,1584105311050,2829368233759,0.030776247,8,1
1584105312751,NaN,0.08764718,0.19848633,-0.8444824,0.49414062,1584105311130,2829368233759,0.030776247,8,1
1584105312755,NaN,0.0139545305,0.19799805,-0.8483887,0.49121094,1584105311210,2829368233759,0.030776247,8,1
1584105312758,NaN,-0.05291142,0.19921875,-0.8354492,0.49243164,1584105311290,2829368233759,0.030776247,8,1
1584105312762,NaN,-0.10257863,0.20166016,-0.83813477,0.49023438,1584105311370,2829368233759,0.030776247,8,1
1584105312764,NaN,-0.15727828,0.20019531,-0.83813477,0.49780273,1584105311450,2829368233759,0.030776247,8,1
1584105312767,NaN,-0.18249942,0.20092773,-0.8378906,0.48388672,1584105311530,2829368233759,0.030776247,8,1
1584105312770,NaN,-0.20925294,0.20288086,-0.83740234,0.47973633,1584105311610,2829368233759,0.030776247,8,1
1584105312773,NaN,-0.22900434,0.19873047,-0.84521484,0.49365234,1584105311690,2829368233759,0.030776247,8,1
1584105312777,NaN,-0.24325633,0.20361328,-0.8444824,0.49267578,1584105311770,2829368233759,0.030776247,8,1
1584105312780,NaN,-0.24467207,0.20800781,-0.84716797,0.4885254,1584105311850,2829368233759,0.030776247,8,1
1584105312783,NaN,-0.23979403,0.19750977,-0.8527832,0.4880371,1584105311930,2829368233759,0.019953923,8,1
1584105312786,NaN,-0.2230321,0.20458984,-0.8400879,0.4819336,1584105312010,2829368233759,0.019953923,8,1
1584105312789,NaN,-0.1915173,0.1953125,-0.84521484,0.49194336,1584105312090,2829368233759,0.016489888,8,1
1584105312793,NaN,-0.17425941,0.19335938,-0.83813477,0.49316406,1584105312170,2829368233759,0.016489888,8,1
1584105312797,NaN,-0.13972758,0.20117188,-0.8408203,0.49072266,1584105312250,2829368233759,0.016489888,8,1
1584105312801,NaN,-0.116565906,0.19897461,-0.8417969,0.4909668,1584105312330,2829368233759,0.016489888,8,1
1584105312803,NaN,-0.074614406,0.20166016,-0.8408203,0.4880371,1584105312410,2829368233759,0.016489888,8,1
1584105312805,NaN,-0.055295717,0.20117188,-0.8442383,0.48339844,1584105312490,2829368233759,0.016489888,8,1
1584105312808,NaN,-0.04516447,0.19628906,-0.84277344,0.49023438,1584105312570,2829368233759,0.016489888,8,1
1584105312813,NaN,-0.023089992,0.19165039,-0.845459,0.48901367,1584105312650,2829368233759,0.016489888,8,1
1584105315278,NaN,-0.0026295704,0.2019043,-0.842041,0.48706055,1584105312730,-3367303378525,0.016489888,8,1
1584105315285,NaN,0.0040508513,0.19628906,-0.86621094,0.4951172,1584105312810,-3367303378525,0.026088798,8,1
1584105315289,NaN,-4.5374097E-4,0.1953125,-0.8395996,0.49267578,1584105312890,-3367303378525,0.026740922,8,1
1584105315295,NaN,-0.0070629674,0.22583008,-0.8461914,0.50097656,1584105312970,-3367303378525,0.032305997,8,1
1584105315299,NaN,-0.011297718,0.19189453,-0.8701172,0.5083008,1584105313050,-3367303378525,0.04216288,8,1
1584105315302,NaN,-0.070607245,0.15063477,-0.7973633,0.5522461,1584105313130,-3367303378525,0.09448116,8,1
1584105315306,NaN,-0.138189,0.14672852,-0.79711914,0.54296875,1584105313210,-3367303378525,0.09448116,8,1
1584105315310,NaN,-0.18490793,0.18701172,-0.8144531,0.53759766,1584105313290,-3367303378525,0.09448116,8,1
1584105315313,NaN,-0.26161453,0.17333984,-0.8178711,0.56396484,1584105313370,-3367303378525,0.09448116,8,1
1584105315317,NaN,-0.3743104,0.12670898,-0.7668457,0.5751953,1584105313450,-3367303378525,0.09448116,8,1
1584105315320,NaN,-0.49332082,0.10595703,-0.77734375,0.60595703,1584105313530,-3367303378525,0.09448116,8,1
1584105315324,NaN,-0.6400951,0.072021484,-0.7609863,0.61083984,1584105313610,-3367303378525,0.09448116,8,1
1584105315327,NaN,-0.7921067,0.08544922,-0.7871094,0.6328125,1584105313690,-3367303378525,0.09448116,8,1
1584105315330,NaN,-0.9186001,0.061035156,-0.77783203,0.57836914,1584105313770,-3367303378525,0.09448116,8,1
1584105315334,NaN,-1.0188571,0.07495117,-0.77319336,0.56762695,1584105313850,-3367303378525,0.09448116,8,1
1584105315338,NaN,-1.1171769,0.05444336,-0.798584,0.5625,1584105313930,-3367303378525,0.09448116,8,1
1584105315341,NaN,-1.172129,0.05883789,-0.83569336,0.51831055,1584105314010,-3367303378525,0.09448116,8,1
1584105315345,NaN,-1.0190184,0.12597656,-0.87109375,0.46118164,1584105314090,-3367303378525,0.094997376,8,1
1584105315348,NaN,-0.7852654,0.13647461,-0.9008789,0.35668945,1584105314170,-3367303378525,0.10916035,8,1
1584105315352,NaN,-0.546999,0.16430664,-0.92407227,0.32055664,1584105314250,-3367303378525,0.10916035,8,1
1584105315355,NaN,-0.20483667,0.23217773,-0.9445801,0.27001953,1584105314330,-3367303378525,0.10916035,8,1
1584105315358,12.295082,0.25135008,0.2512207,-0.9445801,0.2319336,1584105314410,-3367303378525,0.10916035,8,1
1584105315360,NaN,0.78419477,0.30541992,-0.9313965,0.19384766,1584105314490,-3367303378525,0.10916035,8,1
1584105315363,NaN,1.3765577,0.30419922,-0.9421387,0.17016602,1584105314570,-3367303378525,0.10916035,8,1
1584105315366,NaN,1.9966555,0.30126953,-0.9538574,0.15185547,1584105314650,-3367303378525,0.10916035,8,1
1584105315369,NaN,2.566077,0.3232422,-0.9453125,0.14746094,1584105314730,-3367303378525,0.10916035,8,1
1584105315372,NaN,3.1190586,0.29467773,-0.95288086,0.12133789,1584105314810,-3367303378525,0.10916035,8,1
1584105315375,NaN,3.657032,0.29907227,-0.95336914,0.1274414,1584105314890,-3367303378525,0.10916035,8,1
1584105315378,NaN,4.097978,0.29711914,-0.9523926,0.12939453,1584105314970,-3367303378525,0.10916035,8,1
1584105315383,NaN,4.33189,0.2919922,-0.9482422,0.11743164,1584105315050,-3367303378525,0.10916035,8,1
1584105315385,NaN,4.3991947,0.28100586,-0.9470215,0.107421875,1584105315130,-3367303378525,0.10916035,8,1
1584105315389,NaN,4.40482,0.28149414,-0.9470215,0.10961914,1584105315210,-3367303378525,0.10916035,8,1
1584105318058,NaN,4.273369,0.27563477,-0.9584961,0.10473633,1584105315290,8883050557875,0.10916035,8,1
1584105318064,NaN,4.0542755,0.30444336,-0.97509766,0.08935547,1584105315370,8883050557875,0.10916035,8,1
1584105318068,NaN,3.7094955,0.32250977,-0.9680176,0.12158203,1584105315450,8883050557875,0.10916035,8,1
1584105318074,NaN,3.29433,0.32495117,-0.93603516,0.13500977,1584105315530,8883050557875,0.10916035,8,1
1584105318078,NaN,2.828544,0.35229492,-0.9465332,0.16088867,1584105315610,8883050557875,0.10916035,8,1
1584105318083,NaN,2.3348813,0.32495117,-0.9428711,0.21142578,1584105315690,8883050557875,0.10916035,8,1
1584105318088,NaN,1.7828312,0.29956055,-0.9265137,0.25878906,1584105315770,8883050557875,0.10916035,8,1
1584105318092,NaN,1.2018744,0.2783203,-0.8937988,0.30688477,1584105315850,8883050557875,0.10916035,8,1
1584105318096,NaN,0.61795145,0.21704102,-0.9135742,0.35546875,1584105315930,8883050557875,0.10916035,8,1
1584105318100,NaN,0.12908046,0.15820312,-0.92285156,0.28295898,1584105316010,8883050557875,0.10916035,8,1
1584105318105,NaN,-0.39275947,0.15283203,-0.8376465,0.41333008,1584105316090,8883050557875,0.15583766,8,1
1584105318110,NaN,-0.8801338,0.19433594,-0.8874512,0.4399414,1584105316170,8883050557875,0.15583766,8,1
1584105318115,NaN,-1.3024157,0.21948242,-0.8000488,0.41479492,1584105316250,8883050557875,0.15583766,8,1
1584105318118,NaN,-1.7413777,0.19848633,-0.7895508,0.41064453,1584105316330,8883050557875,0.15583766,8,1
1584105318121,NaN,-2.0497296,0.24145508,-0.9003906,0.390625,1584105316410,8883050557875,0.15583766,8,1
1584105318124,NaN,-2.153021,0.328125,-1.1386719,0.27929688,1584105316490,8883050557875,0.276918,8,1
1584105318127,NaN,-2.0903964,0.39697266,-1.0673828,0.118896484,1584105316570,8883050557875,0.276918,8,1
1584105318130,NaN,-1.8740789,0.39038086,-1.079834,0.048583984,1584105316650,8883050557875,0.276918,8,1
1584105318133,NaN,-1.50495,0.4074707,-1.043457,-0.021972656,1584105316730,8883050557875,0.276918,8,1
1584105318136,NaN,-1.0444304,0.40795898,-0.93603516,-0.048339844,1584105316810,8883050557875,0.276918,8,1
1584105318140,NaN,-0.5070167,0.29833984,-0.9086914,-0.05419922,1584105316890,8883050557875,0.276918,8,1
1584105318143,NaN,-0.1075474,0.34326172,-1.0102539,0.055908203,1584105316970,8883050557875,0.276918,8,1
1584105318146,NaN,0.468291,0.35766602,-0.86157227,0.107421875,1584105317050,8883050557875,0.276918,8,1
1584105318150,NaN,1.0319439,0.35913086,-0.82470703,0.13769531,1584105317130,8883050557875,0.276918,8,1
1584105318152,NaN,1.4826217,0.3251953,-0.79785156,0.23022461,1584105317210,8883050557875,0.276918,8,1
1584105318156,NaN,1.9137744,0.30151367,-0.7944336,0.29101562,1584105317290,8883050557875,0.276918,8,1
1584105318158,NaN,2.1827066,0.21313477,-0.8654785,0.3515625,1584105317370,8883050557875,0.276918,8,1
1584105318162,NaN,2.0932407,0.083740234,-0.8479004,0.3947754,1584105317450,8883050557875,0.276918,8,1
1584105318165,NaN,1.7139379,0.100097656,-0.8911133,0.39501953,1584105317530,8883050557875,0.276918,8,1
1584105318168,NaN,1.1445642,0.019042969,-0.8947754,0.39208984,1584105317610,8883050557875,0.276918,8,1
1584105318170,NaN,0.37659276,-0.013183594,-0.90527344,0.41357422,1584105317690,8883050557875,0.276918,8,1
1584105318174,NaN,-0.47208133,-0.095458984,-0.8754883,0.3840332,1584105317770,8883050557875,0.276918,8,1
1584105320446,NaN,-1.3236431,-0.10595703,-0.907959,0.40405273,1584105317850,2686660420567,0.276918,8,1
1584105320452,NaN,-2.1008828,-0.14404297,-0.8342285,0.46142578,1584105317930,2686660420567,0.276918,8,1
1584105320457,NaN,-2.8481553,-0.07373047,-0.85009766,0.4716797,1584105318010,2686660420567,0.276918,8,1
1584105320461,NaN,-3.567154,-0.12402344,-0.87475586,0.48657227,1584105318090,2686660420567,0.276918,8,1
1584105320465,NaN,-4.0997176,-0.14111328,-0.9038086,0.5053711,1584105318170,2686660420567,0.276918,8,1
1584105320469,NaN,-4.4367113,0.0715332,-1.0148926,0.578125,1584105318250,2686660420567,0.276918,8,1
1584105320473,NaN,NaN,0.16625977,-0.88183594,0.27270508,1584105318330,2686660420567,0.34635028,8,1
1584105320478,NaN,NaN,0.15209961,-0.7265625,0.5214844,1584105318410,2686660420567,0.34635028,8,1
1584105320483,NaN,NaN,0.12988281,-0.8959961,0.4892578,1584105318490,2686660420567,0.34635028,8,1
1584105320488,NaN,NaN,0.03173828,-0.7788086,0.5163574,1584105318570,2686660420567,0.34635028,8,1
1584105320492,NaN,NaN,0.07397461,-0.7529297,0.57250977,1584105318650,2686660420567,0.34635028,8,1
1584105320495,NaN,NaN,0.068603516,-0.77978516,0.5695801,1584105318730,2686660420567,0.34635028,8,1
1584105320498,NaN,NaN,0.02734375,-0.9609375,0.5656738,1584105318810,2686660420567,0.34635028,8,1
1584105320501,NaN,NaN,0.028564453,-1.0388184,0.42895508,1584105318890,2686660420567,0.34635028,8,1
1584105320505,NaN,NaN,-0.008300781,-0.8635254,0.33276367,1584105318970,2686660420567,0.34635028,8,1
1584105320508,NaN,NaN,-0.032226562,-0.9440918,0.41723633,1584105319050,2686660420567,0.34635028,8,1
1584105320511,NaN,NaN,-0.096191406,-0.8144531,0.41674805,1584105319130,2686660420567,0.34635028,8,1
1584105320515,NaN,NaN,-0.12182617,-0.8491211,0.44995117,1584105319210,2686660420567,0.34635028,8,1
1584105320517,NaN,NaN,-0.15698242,-0.8239746,0.4873047,1584105319290,2686660420567,0.34635028,8,1
1584105320521,NaN,NaN,-0.17822266,-0.79467773,0.5085449,1584105319370,2686660420567,0.34635028,8,1
1584105320524,NaN,NaN,-0.24902344,-0.798584,0.51953125,1584105319450,2686660420567,0.34635028,8,1
1584105320527,NaN,NaN,-0.16870117,-0.99072266,0.61499023,1584105319530,2686660420567,0.34635028,8,1
1584105320531,NaN,NaN,0.056884766,-0.8820801,0.546875,1584105319610,2686660420567,0.34635028,8,1
1584105320534,NaN,NaN,0.21679688,-0.7631836,0.43164062,1584105319690,2686660420567,0.34635028,8,1
1584105320537,NaN,NaN,0.19628906,-0.85131836,0.5817871,1584105319770,2686660420567,0.34635028,8,1
1584105320540,NaN,NaN,0.17285156,-0.8769531,0.4584961,1584105319850,2686660420567,0.34635028,8,1
1584105320543,NaN,NaN,0.16845703,-0.7902832,0.49560547,1584105319930,2686660420567,0.34635028,8,1
1584105320545,NaN,NaN,0.09667969,-0.8178711,0.4428711,1584105320010,2686660420567,0.34635028,8,1
1584105320549,NaN,NaN,0.13354492,-0.9367676,0.46533203,1584105320090,2686660420567,0.34635028,8,1
1584105320553,NaN,NaN,0.14404297,-0.9807129,0.38305664,1584105320170,2686660420567,0.34635028,8,1
1584105320558,NaN,NaN,0.091552734,-0.8442383,0.48120117,1584105320250,2686660420567,0.34635028,8,1
1584105320561,NaN,NaN,0.01171875,-0.87524414,0.40551758,1584105320330,2686660420567,0.34635028,8,1
1584105323028,NaN,NaN,-0.034423828,-0.88305664,0.42749023,1584105320410,-3510011191718,0.34635028,8,1
1584105323034,NaN,NaN,-0.014404297,-0.86376953,0.4597168,1584105320490,-3510011191718,0.34635028,8,1
1584105323039,NaN,NaN,-0.079589844,-0.88549805,0.5024414,1584105320570,-3510011191718,0.34635028,8,1
1584105323043,NaN,NaN,-0.13183594,-0.85717773,0.5007324,1584105320650,-3510011191718,0.34635028,8,1
1584105323049,NaN,NaN,-0.12915039,-0.8400879,0.51538086,1584105320730,-3510011191718,0.34635028,8,1
1584105323053,NaN,NaN,-0.15771484,-0.83862305,0.50756836,1584105320810,-3510011191718,0.34635028,8,1
1584105323058,NaN,-4.7269955,-0.11254883,-0.82543945,0.5288086,1584105320890,-3510011191718,0.2936009,8,1
1584105323063,NaN,-4.748675,-0.107666016,-0.8227539,0.54003906,1584105320970,-3510011191718,0.25948393,8,1
1584105323068,NaN,-4.6229777,-0.09008789,-0.8220215,0.5239258,1584105321050,-3510011191718,0.25948393,8,1
1584105323072,NaN,-4.3799214,-0.11767578,-0.84765625,0.53222656,1584105321130,-3510011191718,0.25948393,8,1
1584105323077,NaN,-4.0006433,-0.10253906,-0.8322754,0.5185547,1584105321210,-3510011191718,0.25948393,8,1
1584105323081,NaN,-3.5726502,-0.080566406,-0.8120117,0.5444336,1584105321290,-3510011191718,0.25948393,8,1
1584105323085,NaN,-3.178219,-0.13330078,-0.81347656,0.52978516,1584105321370,-3510011191718,0.25948393,8,1
1584105323088,NaN,-2.6937342,-0.18017578,-0.80200195,0.5175781,1584105321450,-3510011191718,0.25948393,8,1
1584105323092,NaN,-2.294574,-0.15332031,-0.85180664,0.5114746,1584105321530,-3510011191718,0.25948393,8,1
1584105323096,NaN,-1.923255,-0.19848633,-0.83618164,0.5317383,1584105321610,-3510011191718,0.25948393,8,1
1584105323101,NaN,-1.6291112,-0.24609375,-0.8430176,0.49780273,1584105321690,-3510011191718,0.25948393,8,1
1584105323106,NaN,-1.5695167,-0.23291016,-0.8137207,0.46777344,1584105321770,-3510011191718,0.25948393,8,1
1584105323110,NaN,-1.3407787,-0.26049805,-0.8156738,0.47338867,1584105321850,-3510011191718,0.25948393,8,1
1584105323115,NaN,-1.1610609,-0.25927734,-0.8449707,0.4428711,1584105321930,-3510011191718,0.25948393,8,1
1584105323119,NaN,-0.96926326,-0.2163086,-0.8664551,0.45092773,1584105322010,-3510011191718,0.25948393,8,1
1584105323122,NaN,-0.79005736,-0.22680664,-0.8845215,0.44433594,1584105322090,-3510011191718,0.25948393,8,1
1584105323125,NaN,-0.604451,-0.080078125,-0.9326172,0.5078125,1584105322170,-3510011191718,0.23018953,8,1
1584105323128,NaN,-0.28901812,-9.765625E-4,-1.017334,0.3876953,1584105322250,-3510011191718,0.17610478,8,1
1584105323132,NaN,0.020206114,0.1887207,-0.8041992,0.43139648,1584105322330,-3510011191718,0.28865424,8,1
1584105323135,NaN,0.303255,0.27905273,-0.77246094,0.46362305,1584105322410,-3510011191718,0.28865424,8,1
1584105323138,NaN,0.5174461,0.05053711,-0.9423828,0.45825195,1584105322490,-3510011191718,0.28865424,8,1
1584105323141,NaN,0.6487351,-0.053955078,-0.75390625,0.49267578,1584105322570,-3510011191718,0.28865424,8,1
1584105323144,NaN,0.85174793,-0.0014648438,-0.7932129,0.42944336,1584105322650,-3510011191718,0.28865424,8,1
1584105323147,NaN,NaN,0.018066406,-1.2429199,0.40625,1584105322730,-3510011191718,0.4507281,8,1
1584105323151,NaN,NaN,-0.05834961,-0.8835449,0.4189453,1584105322810,-3510011191718,0.4507281,8,1
1584105323155,NaN,NaN,0.06738281,-0.94433594,0.29589844,1584105322890,-3510011191718,0.4507281,8,1
1584105325611,NaN,NaN,-0.16137695,-0.8786621,0.35864258,1584105322970,8740342744683,0.4507281,8,1
1584105325618,NaN,NaN,-0.103027344,-0.8522949,0.36328125,1584105323050,8740342744683,0.4507281,8,1
1584105325624,NaN,NaN,-0.14648438,-0.9025879,0.41992188,1584105323130,8740342744683,0.4507281,8,1
1584105325629,NaN,NaN,-0.23779297,-0.9020996,0.39990234,1584105323210,8740342744683,0.4507281,8,1
1584105325633,NaN,NaN,0.010498047,-1.0388184,0.51782227,1584105323290,8740342744683,0.4507281,8,1
1584105325637,NaN,NaN,0.015136719,-0.95166016,0.3371582,1584105323370,8740342744683,0.4507281,8,1
1584105325642,NaN,NaN,0.17626953,-0.7241211,0.38891602,1584105323450,8740342744683,0.4507281,8,1
1584105325646,NaN,NaN,0.035888672,-0.90185547,0.5185547,1584105323530,8740342744683,0.4507281,8,1
1584105325652,NaN,NaN,-0.08154297,-0.8342285,0.4494629,1584105323610,8740342744683,0.4507281,8,1
1584105325656,NaN,NaN,-0.09277344,-0.7626953,0.546875,1584105323690,8740342744683,0.4507281,8,1
1584105325661,NaN,NaN,-0.095458984,-0.7265625,0.5114746,1584105323770,8740342744683,0.4507281,8,1
1584105325665,NaN,NaN,-0.050048828,-1.046875,0.56152344,1584105323850,8740342744683,0.4507281,8,1
1584105325668,NaN,NaN,-0.030761719,-0.99487305,0.4489746,1584105323930,8740342744683,0.4507281,8,1
1584105325671,NaN,NaN,-0.016601562,-0.8588867,0.4321289,1584105324010,8740342744683,0.4507281,8,1
1584105325673,NaN,NaN,-0.13208008,-0.87353516,0.44628906,1584105324090,8740342744683,0.4507281,8,1
1584105325677,NaN,NaN,-0.15307617,-0.80078125,0.42211914,1584105324170,8740342744683,0.4507281,8,1
1584105325680,NaN,NaN,-0.122802734,-0.82592773,0.5227051,1584105324250,8740342744683,0.4507281,8,1
1584105325683,NaN,NaN,-0.16186523,-0.87890625,0.44189453,1584105324330,8740342744683,0.4507281,8,1
1584105325686,NaN,NaN,0.0546875,-1.0036621,0.6623535,1584105324410,8740342744683,0.4507281,8,1
1584105325689,NaN,NaN,0.14013672,-0.8552246,0.28198242,1584105324490,8740342744683,0.4507281,8,1
1584105325697,NaN,NaN,0.015380859,-0.748291,0.63720703,1584105324570,8740342744683,0.4507281,8,1
1584105325698,NaN,NaN,0.0014648438,-0.8352051,0.45385742,1584105324650,8740342744683,0.4507281,8,1
1584105325699,NaN,NaN,-0.041992188,-0.7385254,0.5654297,1584105324730,8740342744683,0.4507281,8,1
1584105325702,NaN,NaN,-0.048095703,-0.73291016,0.5588379,1584105324810,8740342744683,0.4507281,8,1
1584105325706,NaN,NaN,-0.016845703,-0.8017578,0.55029297,1584105324890,8740342744683,0.4507281,8,1
1584105325708,NaN,NaN,-0.08154297,-1.1047363,0.57128906,1584105324970,8740342744683,0.4507281,8,1
1584105325711,NaN,NaN,-0.1459961,-0.8588867,0.5761719,1584105325050,8740342744683,0.4507281,8,1
1584105325715,NaN,NaN,-0.0715332,-0.77905273,0.2775879,1584105325130,8740342744683,0.4507281,8,1
1584105325718,NaN,NaN,-0.26391602,-0.8684082,0.54345703,1584105325210,8740342744683,0.4507281,8,1
1584105325722,NaN,NaN,-0.16674805,-0.79956055,0.4975586,1584105325290,8740342744683,0.41715395,8,1
1584105325725,NaN,NaN,-0.19970703,-0.8054199,0.5217285,1584105325370,8740342744683,0.41715395,8,1
1584105325728,NaN,NaN,-0.2836914,-0.8522949,0.42895508,1584105325450,8740342744683,0.41715395,8,1
1584105328197,NaN,NaN,0.030761719,-1.0583496,0.69506836,1584105325530,2543952607374,0.4606035,8,1
1584105328201,NaN,NaN,0.08105469,-0.8022461,0.24511719,1584105325610,2543952607374,0.5201677,8,1
1584105328208,NaN,NaN,-0.049560547,-0.8276367,0.55810547,1584105325690,2543952607374,0.5201677,8,1
1584105328212,NaN,NaN,-0.022460938,-0.8642578,0.45214844,1584105325770,2543952607374,0.5201677,8,1
1584105328217,NaN,NaN,-0.0075683594,-0.79125977,0.5336914,1584105325850,2543952607374,0.5201677,8,1
1584105328222,NaN,NaN,-0.04663086,-0.7832031,0.55322266,1584105325930,2543952607374,0.5201677,8,1
1584105328227,NaN,NaN,-0.0234375,-0.85839844,0.5432129,1584105326010,2543952607374,0.5201677,8,1
1584105328232,NaN,NaN,-0.018554688,-0.90356445,0.65600586,1584105326090,2543952607374,0.5201677,8,1
1584105328239,NaN,NaN,-0.02758789,-1.0087891,0.29638672,1584105326170,2543952607374,0.5201677,8,1
1584105328245,NaN,NaN,-0.07104492,-0.75,0.32495117,1584105326250,2543952607374,0.5201677,8,1
1584105328249,NaN,NaN,-0.06225586,-1.019043,0.3071289,1584105326330,2543952607374,0.5201677,8,1
1584105328255,NaN,NaN,-0.09008789,-0.8754883,0.48876953,1584105326410,2543952607374,0.5201677,8,1
1584105328258,NaN,NaN,-0.064208984,-0.892334,0.42211914,1584105326490,2543952607374,0.5201677,8,1
1584105328261,NaN,NaN,-0.078125,-0.8652344,0.42651367,1584105326570,2543952607374,0.5201677,8,1
1584105328264,NaN,NaN,0.118652344,-1.098877,0.5500488,1584105326650,2543952607374,0.5201677,8,1
1584105328267,NaN,NaN,-0.0012207031,-0.8322754,0.18823242,1584105326730,2543952607374,0.5201677,8,1
1584105328270,NaN,NaN,0.02709961,-0.7832031,0.5266113,1584105326810,2543952607374,0.5201677,8,1
1584105328274,NaN,NaN,-0.026855469,-0.93530273,0.42260742,1584105326890,2543952607374,0.5201677,8,1
1584105328278,NaN,NaN,-0.010986328,-0.7854004,0.5114746,1584105326970,2543952607374,0.5201677,8,1
1584105328281,NaN,NaN,0.048583984,-0.8444824,0.4958496,1584105327050,2543952607374,0.5201677,8,1
1584105328284,NaN,NaN,0.07104492,-0.90893555,0.5498047,1584105327130,2543952607374,0.5201677,8,1
1584105328287,NaN,NaN,-0.06933594,-1.0187988,0.29223633,1584105327210,2543952607374,0.5201677,8,1
1584105328290,NaN,NaN,-0.14648438,-0.88916016,0.35717773,1584105327290,2543952607374,0.5201677,8,1
1584105328292,NaN,NaN,-0.1081543,-0.88183594,0.2163086,1584105327370,2543952607374,0.5201677,8,1
1584105328296,NaN,NaN,-0.06713867,-0.96435547,0.35961914,1584105327450,2543952607374,0.5201677,8,1
1584105328298,NaN,NaN,-0.048339844,-0.9265137,0.3696289,1584105327530,2543952607374,0.5201677,8,1
1584105328301,NaN,NaN,0.022949219,-0.96728516,0.36254883,1584105327610,2543952607374,0.5201677,8,1
1584105328304,NaN,NaN,0.059814453,-1.032959,0.36865234,1584105327690,2543952607374,0.5201677,8,1
1584105328307,NaN,NaN,0.125,-0.9609375,0.43432617,1584105327770,2543952607374,0.5201677,8,1
1584105328309,NaN,NaN,0.018066406,-0.88305664,0.17260742,1584105327850,2543952607374,0.5201677,8,1
1584105328312,NaN,NaN,0.08544922,-0.84643555,0.45776367,1584105327930,2543952607374,0.5201677,8,1
1584105328315,NaN,NaN,0.079833984,-0.9436035,0.38256836,1584105328010,2543952607374,0.5201677,8,1
1584105330779,NaN,NaN,0.06274414,-0.8442383,0.45166016,1584105328090,-3652719004910,0.5201677,8,1
1584105330786,NaN,NaN,0.088134766,-0.8691406,0.42797852,1584105328170,-3652719004910,0.46514198,8,1
1584105330792,NaN,NaN,0.012451172,-0.9785156,0.5126953,1584105328250,-3652719004910,0.46514198,8,1
1584105330798,NaN,NaN,0.0012207031,-0.9453125,0.31591797,1584105328330,-3652719004910,0.46514198,8,1
1584105330802,NaN,NaN,0.032714844,-0.89331055,0.4050293,1584105328410,-3652719004910,0.46514198,8,1
1584105330807,NaN,NaN,-0.0925293,-0.8781738,0.3076172,1584105328490,-3652719004910,0.46514198,8,1
1584105330810,NaN,NaN,-0.076660156,-0.9140625,0.42456055,1584105328570,-3652719004910,0.46514198,8,1
1584105330816,NaN,NaN,0.01586914,-0.8547363,0.42578125,1584105328650,-3652719004910,0.46514198,8,1
1584105330820,NaN,NaN,0.029052734,-0.88964844,0.42749023,1584105328730,-3652719004910,0.46514198,8,1
1584105330823,NaN,NaN,-0.041015625,-0.90722656,0.44140625,1584105328810,-3652719004910,0.46514198,8,1
1584105330827,NaN,NaN,-0.059570312,-0.9025879,0.43969727,1584105328890,-3652719004910,0.46514198,8,1
1584105330831,NaN,NaN,-0.026855469,-0.8918457,0.39331055,1584105328970,-3652719004910,0.46514198,8,1
1584105330834,NaN,NaN,0.02709961,-0.9421387,0.42236328,1584105329050,-3652719004910,0.46514198,8,1
1584105330837,NaN,NaN,0.0078125,-0.89086914,0.42871094,1584105329130,-3652719004910,0.46514198,8,1
1584105330840,NaN,NaN,-0.036376953,-0.90356445,0.39575195,1584105329210,-3652719004910,0.46514198,8,1
1584105330842,NaN,NaN,0.01171875,-0.8937988,0.43481445,1584105329290,-3652719004910,0.34308952,8,1
1584105330845,NaN,NaN,-0.013183594,-0.8955078,0.44189453,1584105329370,-3652719004910,0.31323823,8,1
1584105330849,NaN,NaN,-0.028320312,-0.8828125,0.43017578,1584105329450,-3652719004910,0.31323823,8,1
1584105330853,NaN,NaN,-0.04736328,-0.8757324,0.43017578,1584105329530,-3652719004910,0.31323823,8,1
1584105330856,NaN,NaN,-0.024658203,-0.8671875,0.43237305,1584105329610,-3652719004910,0.31323823,8,1
1584105330859,NaN,NaN,0.004638672,-0.8781738,0.4182129,1584105329690,-3652719004910,0.31323823,8,1
1584105330863,NaN,1.2256104,0.010253906,-1.0378418,0.42797852,1584105329770,-3652719004910,0.29528907,8,1
1584105330866,NaN,1.5514833,0.017822266,-1.1635742,0.3984375,1584105329850,-3652719004910,0.29528907,8,1
1584105330871,NaN,1.9430618,0.125,-1.2441406,0.28149414,1584105329930,-3652719004910,0.29528907,8,1
1584105330874,NaN,NaN,0.22485352,-0.935791,0.22387695,1584105330010,-3652719004910,0.32919592,8,1
1584105330879,NaN,NaN,0.22827148,-0.7385254,0.16723633,1584105330090,-3652719004910,0.32919592,8,1
1584105330883,NaN,NaN,0.14111328,-0.9265137,0.2578125,1584105330170,-3652719004910,0.32919592,8,1
1584105330886,NaN,NaN,0.14282227,-0.91137695,0.3425293,1584105330250,-3652719004910,0.32919592,8,1
1584105330889,NaN,NaN,0.16552734,-0.8828125,0.38183594,1584105330330,-3652719004910,0.32919592,8,1
1584105330892,NaN,NaN,0.13793945,-0.86572266,0.38916016,1584105330410,-3652719004910,0.32919592,8,1
1584105330895,NaN,NaN,0.095703125,-0.7998047,0.38452148,1584105330490,-3652719004910,0.32919592,8,1
1584105330899,NaN,NaN,0.13208008,-0.8273926,0.4333496,1584105330570,-3652719004910,0.32919592,8,1
1584105333365,NaN,NaN,0.10229492,-0.9484863,0.4230957,1584105330650,8597634931490,0.32919592,8,1
1584105333372,NaN,NaN,0.024169922,-0.8156738,0.42138672,1584105330730,8597634931490,0.32919592,8,1
1584105333377,NaN,NaN,-0.0126953125,-0.81640625,0.41064453,1584105330810,8597634931490,0.32919592,8,1
1584105333381,NaN,NaN,-0.072265625,-0.8059082,0.3461914,1584105330890,8597634931490,0.32919592,8,1
1584105333385,NaN,NaN,0.043945312,-0.90600586,0.3408203,1584105330970,8597634931490,0.32919592,8,1
1584105333388,NaN,NaN,-0.06958008,-0.96435547,0.43676758,1584105331050,8597634931490,0.32919592,8,1
1584105333392,NaN,NaN,-0.026123047,-0.9133301,0.4008789,1584105331130,8597634931490,0.32919592,8,1
1584105333396,NaN,NaN,0.035888672,-0.8359375,0.3503418,1584105331210,8597634931490,0.32919592,8,1
1584105333400,NaN,NaN,0.00390625,-0.8623047,0.27954102,1584105331290,8597634931490,0.32919592,8,1
1584105333407,NaN,NaN,0.04663086,-0.7475586,0.24658203,1584105331370,8597634931490,0.32919592,8,1
1584105333412,NaN,NaN,0.05810547,-0.8417969,0.21826172,1584105331450,8597634931490,0.32919592,8,1
1584105333417,NaN,NaN,0.076416016,-1.0539551,0.5319824,1584105331530,8597634931490,0.37916628,8,1
1584105333421,NaN,NaN,0.04321289,-1.1379395,0.63183594,1584105331610,8597634931490,0.37916628,8,1
1584105333424,NaN,NaN,-0.015625,-1.0693359,0.6723633,1584105331690,8597634931490,0.37916628,8,1
1584105333427,NaN,NaN,-0.09399414,-0.82836914,0.48461914,1584105331770,8597634931490,0.37916628,8,1
1584105333431,NaN,NaN,0.0234375,-0.7902832,0.4753418,1584105331850,8597634931490,0.37916628,8,1
1584105333434,NaN,NaN,-0.0043945312,-0.8312988,0.515625,1584105331930,8597634931490,0.37916628,8,1
1584105333438,NaN,NaN,0.07519531,-0.8249512,0.49291992,1584105332010,8597634931490,0.37916628,8,1
1584105333442,NaN,NaN,0.09838867,-0.83984375,0.5283203,1584105332090,8597634931490,0.37916628,8,1
1584105333445,NaN,NaN,0.060302734,-0.8371582,0.4885254,1584105332170,8597634931490,0.37916628,8,1
1584105333450,NaN,NaN,0.06640625,-1.0024414,0.44628906,1584105332250,8597634931490,0.37916628,8,1
1584105333454,NaN,NaN,-0.04711914,-0.85131836,0.5107422,1584105332330,8597634931490,0.37916628,8,1
1584105333458,NaN,NaN,-0.15332031,-0.8234863,0.32788086,1584105332410,8597634931490,0.37916628,8,1
1584105333461,NaN,NaN,-0.16333008,-0.90185547,0.43652344,1584105332490,8597634931490,0.37916628,8,1
1584105333465,NaN,NaN,-0.15405273,-0.9116211,0.43847656,1584105332570,8597634931490,0.37916628,8,1
1584105333469,NaN,NaN,-0.12597656,-0.8796387,0.47216797,1584105332650,8597634931490,0.37916628,8,1
1584105333472,NaN,NaN,-0.114746094,-0.8605957,0.4387207,1584105332730,8597634931490,0.37916628,8,1
1584105333476,NaN,NaN,-0.07495117,-0.84594727,0.45483398,1584105332810,8597634931490,0.37916628,8,1
1584105333479,NaN,NaN,-0.12646484,-0.8491211,0.4855957,1584105332890,8597634931490,0.37916628,8,1
1584105333481,NaN,NaN,-0.14428711,-0.8132324,0.45898438,1584105332970,8597634931490,0.37916628,8,1
1584105333484,NaN,NaN,-0.13012695,-0.8317871,0.44189453,1584105333050,8597634931490,0.37916628,8,1
1584105333487,NaN,NaN,-0.10620117,-1.0080566,0.44873047,1584105333130,8597634931490,0.37916628,8,1
1584105335749,NaN,NaN,-0.095703125,-1.1340332,0.4519043,1584105333210,2401244794182,0.37916628,8,1
1584105335803,NaN,NaN,0.099121094,-1.348877,0.38354492,1584105333290,2401244794182,0.37916628,8,1
1584105335808,NaN,NaN,0.17529297,-1.0039062,0.22924805,1584105333370,2401244794182,0.38550547,8,1
1584105335812,NaN,NaN,0.11254883,-0.7573242,0.15356445,1584105333450,2401244794182,0.38550547,8,1
1584105335816,NaN,NaN,0.17871094,-0.83325195,0.17749023,1584105333530,2401244794182,0.38550547,8,1
1584105335820,NaN,NaN,0.14111328,-0.8894043,0.30444336,1584105333610,2401244794182,0.38550547,8,1
1584105335828,NaN,NaN,0.08105469,-0.95654297,0.34399414,1584105333690,2401244794182,0.38550547,8,1
1584105335831,NaN,NaN,0.07519531,-0.89575195,0.34375,1584105333770,2401244794182,0.38550547,8,1
1584105335835,NaN,NaN,0.033691406,-0.82543945,0.35791016,1584105333850,2401244794182,0.38550547,8,1
1584105335841,NaN,NaN,0.04711914,-0.80981445,0.33813477,1584105333930,2401244794182,0.38550547,8,1
1584105335848,NaN,NaN,0.0390625,-0.8835449,0.4506836,1584105334010,2401244794182,0.38550547,8,1
1584105335854,NaN,NaN,0.07714844,-0.94799805,0.44311523,1584105334090,2401244794182,0.38550547,8,1
1584105335858,NaN,NaN,7.324219E-4,-0.82177734,0.43286133,1584105334170,2401244794182,0.38550547,8,1
1584105335863,NaN,NaN,-0.057617188,-0.8664551,0.4169922,1584105334250,2401244794182,0.38550547,8,1
1584105335866,NaN,NaN,-0.07763672,-0.8647461,0.47436523,1584105334330,2401244794182,0.38550547,8,1
1584105335870,NaN,NaN,-0.07763672,-0.8745117,0.484375,1584105334410,2401244794182,0.38550547,8,1
1584105335874,NaN,NaN,-0.095703125,-0.8527832,0.48266602,1584105334490,2401244794182,0.38550547,8,1
1584105335877,NaN,NaN,-0.08496094,-0.85717773,0.48217773,1584105334570,2401244794182,0.38550547,8,1
1584105335881,NaN,NaN,-0.05102539,-0.8527832,0.49194336,1584105334650,2401244794182,0.38550547,8,1
1584105335887,NaN,NaN,-0.06323242,-0.8547363,0.50024414,1584105334730,2401244794182,0.38550547,8,1
1584105335889,NaN,NaN,-0.053466797,-0.8469238,0.49316406,1584105334810,2401244794182,0.38550547,8,1
1584105335892,NaN,NaN,-0.049804688,-0.84814453,0.5114746,1584105334890,2401244794182,0.38550547,8,1
1584105335895,NaN,NaN,-0.04272461,-0.8388672,0.5065918,1584105334970,2401244794182,0.38550547,8,1
1584105335898,NaN,NaN,-0.029541016,-0.8378906,0.4934082,1584105335050,2401244794182,0.38550547,8,1
1584105335902,NaN,NaN,-0.05493164,-0.8378906,0.46826172,1584105335130,2401244794182,0.38550547,8,1
1584105335906,NaN,NaN,-0.061279297,-0.85253906,0.42626953,1584105335210,2401244794182,0.38550547,8,1
1584105335910,NaN,NaN,-0.026367188,-0.87646484,0.38793945,1584105335290,2401244794182,0.38550547,8,1
1584105335914,NaN,NaN,-0.029296875,-0.95532227,0.44628906,1584105335370,2401244794182,0.38550547,8,1
1584105335916,NaN,NaN,-0.015380859,-0.8708496,0.41674805,1584105335450,2401244794182,0.38550547,8,1
1584105335919,NaN,NaN,-0.0107421875,-0.87939453,0.37597656,1584105335530,2401244794182,0.38550547,8,1
1584105335923,NaN,NaN,0.020019531,-0.81689453,0.33374023,1584105335610,2401244794182,0.38550547,8,1
1584105335927,NaN,NaN,0.036132812,-0.8391113,0.30273438,1584105335690,2401244794182,0.38550547,8,1
1584105338531,NaN,NaN,0.045166016,-0.8408203,0.26123047,1584105335770,-3795426818102,0.38550547,8,1
1584105338536,NaN,NaN,0.06542969,-0.80029297,0.23632812,1584105335850,-3795426818102,0.38550547,8,1
1584105338540,NaN,NaN,0.103515625,-1.1276855,0.5744629,1584105335930,-3795426818102,0.47219864,8,1
1584105338543,NaN,NaN,-0.010253906,-1.1269531,0.6171875,1584105336010,-3795426818102,0.47219864,8,1
1584105338546,NaN,NaN,0.020507812,-1.048584,0.6879883,1584105336090,-3795426818102,0.47219864,8,1
1584105338551,NaN,NaN,-0.122558594,-0.7949219,0.5126953,1584105336170,-3795426818102,0.47219864,8,1
1584105338555,NaN,NaN,-0.080322266,-0.79248047,0.57958984,1584105336250,-3795426818102,0.47219864,8,1
1584105338560,NaN,NaN,-0.02734375,-0.8051758,0.50268555,1584105336330,-3795426818102,0.47219864,8,1
1584105338563,NaN,NaN,-0.04296875,-0.7258301,0.4807129,1584105336410,-3795426818102,0.47219864,8,1
1584105338566,NaN,NaN,0.044433594,-0.98876953,0.5739746,1584105336490,-3795426818102,0.47219864,8,1
1584105338569,NaN,NaN,0.03881836,-0.95092773,0.32299805,1584105336570,-3795426818102,0.47219864,8,1
1584105338572,NaN,NaN,-0.15161133,-0.8762207,0.49560547,1584105336650,-3795426818102,0.47219864,8,1
1584105338576,NaN,NaN,-0.12817383,-0.84521484,0.41308594,1584105336730,-3795426818102,0.47219864,8,1
1584105338581,NaN,NaN,-0.10253906,-0.8417969,0.47607422,1584105336810,-3795426818102,0.47219864,8,1
1584105338585,NaN,NaN,-0.11791992,-0.8286133,0.46533203,1584105336890,-3795426818102,0.47219864,8,1
1584105338590,NaN,NaN,-0.114746094,-0.8515625,0.51904297,1584105336970,-3795426818102,0.47219864,8,1
1584105338592,NaN,NaN,-0.099853516,-0.8376465,0.50561523,1584105337050,-3795426818102,0.47219864,8,1
1584105338596,NaN,NaN,-0.07763672,-0.8261719,0.53686523,1584105337130,-3795426818102,0.47219864,8,1
1584105338598,NaN,NaN,-0.05419922,-0.82128906,0.50512695,1584105337210,-3795426818102,0.47219864,8,1
1584105338600,NaN,NaN,-0.060546875,-0.8479004,0.5192871,1584105337290,-3795426818102,0.47219864,8,1
1584105338603,NaN,NaN,-0.068359375,-0.87402344,0.48901367,1584105337370,-3795426818102,0.47219864,8,1
1584105338606,NaN,NaN,-0.10473633,-0.8886719,0.43774414,1584105337450,-3795426818102,0.47219864,8,1
1584105338608,NaN,NaN,-0.10522461,-0.8679199,0.39746094,1584105337530,-3795426818102,0.47219864,8,1
1584105338611,NaN,NaN,-0.12426758,-0.9375,0.47851562,1584105337610,-3795426818102,0.47219864,8,1
1584105338613,NaN,NaN,-0.11254883,-0.88500977,0.4711914,1584105337690,-3795426818102,0.47219864,8,1
1584105338616,NaN,NaN,-0.08691406,-0.8457031,0.41308594,1584105337770,-3795426818102,0.47219864,8,1
1584105338619,NaN,NaN,-0.099853516,-0.87768555,0.43725586,1584105337850,-3795426818102,0.47219864,8,1
1584105338621,NaN,NaN,-0.122558594,-0.8498535,0.39941406,1584105337930,-3795426818102,0.47219864,8,1
1584105338624,NaN,NaN,-0.12158203,-0.88916016,0.4182129,1584105338010,-3795426818102,0.47219864,8,1
1584105338628,NaN,NaN,-0.13793945,-0.9641113,0.42260742,1584105338090,-3795426818102,0.47219864,8,1
1584105338629,NaN,NaN,-0.103271484,-1.0327148,0.4255371,1584105338170,-3795426818102,0.47219864,8,1
1584105338632,NaN,NaN,-0.020019531,-1.2651367,0.44262695,1584105338250,-3795426818102,0.47219864,8,1
1584105341315,NaN,NaN,0.020263672,-1.1525879,0.38061523,1584105338330,8454927118298,0.47219864,8,1
1584105341319,NaN,NaN,0.13842773,-0.88183594,0.28930664,1584105338423,8454927118298,0.47219864,8,1
1584105341324,NaN,NaN,0.09423828,-0.73876953,0.19482422,1584105338516,8454927118298,0.33991188,8,1
1584105341331,NaN,NaN,0.13745117,-0.87060547,0.3088379,1584105338609,8454927118298,0.33991188,8,1
1584105341337,NaN,NaN,0.05517578,-0.9121094,0.38232422,1584105338702,8454927118298,0.33991188,8,1
1584105341341,NaN,NaN,0.016845703,-0.861084,0.42163086,1584105338795,8454927118298,0.3092032,8,1
1584105341345,NaN,NaN,-0.013183594,-0.82006836,0.41918945,1584105338888,8454927118298,0.3092032,8,1
1584105341351,NaN,NaN,-0.042236328,-0.763916,0.4309082,1584105338981,8454927118298,0.3092032,8,1
1584105341355,NaN,NaN,-0.02368164,-0.77441406,0.4506836,1584105339075,8454927118298,0.3092032,8,1
1584105341361,NaN,NaN,-0.059326172,-0.9472656,0.45507812,1584105339168,8454927118298,0.3092032,8,1
1584105341365,NaN,NaN,-0.06689453,-0.8515625,0.49829102,1584105339261,8454927118298,0.3092032,8,1
1584105341370,NaN,NaN,-0.103271484,-0.8652344,0.4650879,1584105339354,8454927118298,0.3092032,8,1
1584105341375,NaN,NaN,-0.106933594,-0.8574219,0.4645996,1584105339447,8454927118298,0.3092032,8,1
1584105341377,NaN,NaN,-0.10424805,-0.8305664,0.49560547,1584105339540,8454927118298,0.3092032,8,1
1584105341381,NaN,NaN,-0.087890625,-0.8310547,0.5073242,1584105339633,8454927118298,0.3092032,8,1
1584105341385,NaN,NaN,-0.115478516,-0.8391113,0.5202637,1584105339726,8454927118298,0.3092032,8,1
1584105341389,NaN,NaN,-0.107910156,-0.8125,0.52612305,1584105339820,8454927118298,0.3092032,8,1
1584105341393,NaN,NaN,-0.11279297,-0.82958984,0.5324707,1584105339913,8454927118298,0.3092032,8,1
1584105341397,NaN,NaN,-0.109375,-0.82910156,0.5332031,1584105340006,8454927118298,0.3092032,8,1
1584105341400,NaN,NaN,-0.11352539,-0.8378906,0.53637695,1584105340099,8454927118298,0.3092032,8,1
1584105341403,NaN,NaN,-0.10058594,-0.8288574,0.5305176,1584105340192,8454927118298,0.3092032,8,1
1584105341406,NaN,NaN,-0.11035156,-0.8300781,0.5280762,1584105340285,8454927118298,0.3092032,8,1
1584105341408,NaN,NaN,-0.09448242,-0.8376465,0.53100586,1584105340378,8454927118298,0.3092032,8,1
1584105341412,NaN,NaN,-0.087402344,-0.8215332,0.5222168,1584105340471,8454927118298,0.3092032,8,1
1584105341415,NaN,NaN,-0.10205078,-0.8273926,0.52246094,1584105340565,8454927118298,0.3092032,8,1
1584105341418,NaN,NaN,-0.084472656,-0.82714844,0.50634766,1584105340658,8454927118298,0.3092032,8,1
1584105341422,NaN,NaN,-0.09277344,-0.82910156,0.47753906,1584105340751,8454927118298,0.3092032,8,1
1584105341426,NaN,NaN,-0.07885742,-0.8498535,0.44018555,1584105340844,8454927118298,0.3092032,8,1
1584105341429,NaN,NaN,-0.064941406,-0.9086914,0.44140625,1584105340937,8454927118298,0.3092032,8,1
1584105341432,NaN,NaN,-0.059814453,-0.87841797,0.42382812,1584105341030,8454927118298,0.3092032,8,1
1584105341435,NaN,NaN,-0.057861328,-0.8664551,0.4284668,1584105341123,8454927118298,0.3092032,8,1
1584105341440,NaN,NaN,-0.043945312,-0.90527344,0.37158203,1584105341216,8454927118298,0.3092032,8,1
1584105343697,NaN,NaN,-0.03930664,-0.80566406,0.3581543,1584105341310,2258536980990,0.3092032,8,1
1584105343705,NaN,2.1244013,0.02368164,-0.82421875,0.30322266,1584105341390,2258536980990,0.17957501,8,1
1584105343712,NaN,2.315611,0.056396484,-0.86865234,0.30810547,1584105341470,2258536980990,0.17957501,8,1
1584105343717,NaN,2.432153,0.053955078,-0.86279297,0.3034668,1584105341550,2258536980990,0.17654322,8,1
1584105343722,NaN,2.2148716,0.06518555,-0.9875488,0.44140625,1584105341630,2258536980990,0.18632616,8,1
1584105343725,NaN,1.9170265,0.036132812,-1.1848145,0.6398926,1584105341710,2258536980990,0.2813443,8,1
1584105343729,NaN,1.5972052,-0.010986328,-0.94189453,0.4819336,1584105341790,2258536980990,0.29356658,8,1
1584105343734,NaN,1.3526624,0.021484375,-0.77978516,0.5136719,1584105341870,2258536980990,0.29356658,8,1
1584105343738,NaN,NaN,-0.122802734,-0.93481445,0.80322266,1584105341950,2258536980990,0.35873738,8,1
1584105343743,NaN,NaN,-0.12792969,-0.79296875,0.48706055,1584105342030,2258536980990,0.35873738,8,1
1584105343746,NaN,NaN,-0.029541016,-0.732666,0.60546875,1584105342110,2258536980990,0.35873738,8,1
1584105343750,NaN,NaN,0.03540039,-0.7858887,0.5336914,1584105342190,2258536980990,0.35873738,8,1
1584105343754,NaN,NaN,0.015380859,-0.77441406,0.54052734,1584105342270,2258536980990,0.35873738,8,1
1584105343759,NaN,NaN,0.051757812,-0.8195801,0.5727539,1584105342350,2258536980990,0.35873738,8,1
1584105343761,NaN,NaN,0.033447266,-0.8378906,0.5246582,1584105342430,2258536980990,0.35873738,8,1
1584105343765,NaN,NaN,0.07446289,-0.97436523,0.5654297,1584105342510,2258536980990,0.35873738,8,1
1584105343768,NaN,NaN,-0.01977539,-0.7841797,0.48657227,1584105342590,2258536980990,0.35873738,8,1
1584105343771,NaN,NaN,-0.015136719,-0.8359375,0.55029297,1584105342670,2258536980990,0.35873738,8,1
1584105343775,NaN,NaN,-0.0625,-0.8400879,0.5126953,1584105342750,2258536980990,0.35873738,8,1
1584105343777,NaN,NaN,-0.033203125,-0.82373047,0.54711914,1584105342830,2258536980990,0.35873738,8,1
1584105343780,NaN,NaN,-0.029052734,-0.83813477,0.54174805,1584105342910,2258536980990,0.35873738,8,1
1584105343784,NaN,NaN,-0.072265625,-0.84521484,0.5378418,1584105342990,2258536980990,0.35873738,8,1
1584105343789,NaN,NaN,-0.04321289,-0.81396484,0.5476074,1584105343070,2258536980990,0.35873738,8,1
1584105343792,NaN,NaN,-0.05859375,-0.8312988,0.5407715,1584105343150,2258536980990,0.35873738,8,1
1584105343797,NaN,NaN,-0.055664062,-0.8239746,0.53637695,1584105343230,2258536980990,0.35873738,8,1
1584105343801,NaN,NaN,-0.01977539,-0.82788086,0.5415039,1584105343310,2258536980990,0.35873738,8,1
1584105343805,NaN,NaN,-0.021972656,-0.8269043,0.5280762,1584105343390,2258536980990,0.35873738,8,1
1584105343808,NaN,NaN,-0.0024414062,-0.814209,0.529541,1584105343470,2258536980990,0.35873738,8,1
1584105343810,NaN,NaN,0.0043945312,-0.8305664,0.5317383,1584105343550,2258536980990,0.35873738,8,1
1584105343815,NaN,NaN,-0.007080078,-0.8276367,0.52441406,1584105343630,2258536980990,0.35873738,8,1
1584105343819,NaN,NaN,0.00390625,-0.84106445,0.5456543,1584105343710,2258536980990,0.35873738,8,1
1584105343822,NaN,NaN,-0.0063476562,-0.8327637,0.5383301,1584105343790,2258536980990,0.35873738,8,1
1584105346482,NaN,NaN,-0.0043945312,-0.8508301,0.5517578,1584105343870,-3938134631294,0.35873738,8,1
1584105346486,NaN,NaN,-0.016357422,-0.842041,0.5061035,1584105343950,-3938134631294,0.35873738,8,1
1584105346490,NaN,NaN,-0.045654297,-0.8395996,0.47705078,1584105344030,-3938134631294,0.35873738,8,1
1584105346498,NaN,NaN,-0.10473633,-0.8652344,0.45092773,1584105344110,-3938134631294,0.35873738,8,1
1584105346499,NaN,NaN,-0.12158203,-0.8754883,0.4831543,1584105344190,-3938134631294,0.35873738,8,1
1584105346503,NaN,NaN,-0.14526367,-0.90844727,0.5090332,1584105344270,-3938134631294,0.35873738,8,1
1584105346506,NaN,NaN,-0.10253906,-0.85717773,0.49853516,1584105344350,-3938134631294,0.35873738,8,1
1584105346509,NaN,NaN,-0.040283203,-0.8261719,0.44726562,1584105344430,-3938134631294,0.35873738,8,1
1584105346513,NaN,NaN,-0.08544922,-0.84350586,0.44726562,1584105344510,-3938134631294,0.34656164,8,1
1584105346517,NaN,1.3328413,-0.115234375,-0.8352051,0.42114258,1584105344590,-3938134631294,0.22642855,8,1
1584105346520,NaN,1.1625175,-0.118652344,-0.88500977,0.44189453,1584105344670,-3938134631294,0.22642855,8,1
1584105346523,NaN,0.87776655,-0.08862305,-0.9995117,0.45483398,1584105344750,-3938134631294,0.22642855,8,1
1584105346526,NaN,0.4875199,-0.103515625,-1.092041,0.4501953,1584105344830,-3938134631294,0.22642855,8,1
1584105346529,NaN,-0.058817755,-0.01586914,-1.2563477,0.44628906,1584105344910,-3938134631294,0.22642855,8,1
1584105346533,NaN,-0.14150172,0.15820312,-1.0871582,0.34472656,1584105344990,-3938134631294,0.26313716,8,1
1584105346536,NaN,NaN,0.17871094,-0.8034668,0.22485352,1584105345070,-3938134631294,0.3086599,8,1
1584105346542,NaN,NaN,0.16918945,-0.84106445,0.24316406,1584105345150,-3938134631294,0.3086599,8,1
1584105346545,NaN,NaN,0.091308594,-0.9121094,0.33203125,1584105345230,-3938134631294,0.3086599,8,1
1584105346549,NaN,NaN,0.087402344,-0.86694336,0.37182617,1584105345310,-3938134631294,0.3086599,8,1
1584105346552,NaN,NaN,0.037109375,-0.8078613,0.35791016,1584105345390,-3938134631294,0.3086599,8,1
1584105346555,NaN,NaN,0.0036621094,-0.7897949,0.41455078,1584105345470,-3938134631294,0.3086599,8,1
1584105346558,NaN,NaN,-0.03491211,-0.81396484,0.46557617,1584105345550,-3938134631294,0.3086599,8,1
1584105346561,NaN,NaN,-0.010986328,-0.8408203,0.49169922,1584105345630,-3938134631294,0.3086599,8,1
1584105346564,NaN,NaN,0.030517578,-0.9020996,0.48754883,1584105345710,-3938134631294,0.3086599,8,1
1584105346568,NaN,NaN,0.0056152344,-0.81225586,0.49804688,1584105345790,-3938134631294,0.3086599,8,1
1584105346571,NaN,NaN,-0.008300781,-0.8378906,0.4970703,1584105345870,-3938134631294,0.3086599,8,1
1584105346575,NaN,NaN,-0.04272461,-0.8144531,0.51416016,1584105345950,-3938134631294,0.3086599,8,1
1584105346579,NaN,NaN,-0.048339844,-0.81396484,0.5151367,1584105346030,-3938134631294,0.3086599,8,1
1584105346581,NaN,NaN,-0.0690918,-0.828125,0.5175781,1584105346110,-3938134631294,0.3086599,8,1
1584105346585,NaN,NaN,-0.072265625,-0.8762207,0.52856445,1584105346190,-3938134631294,0.3086599,8,1
1584105346588,NaN,NaN,-0.056640625,-0.8586426,0.5217285,1584105346270,-3938134631294,0.3086599,8,1
1584105346591,NaN,NaN,-0.068603516,-0.84033203,0.5187988,1584105346350,-3938134631294,0.3086599,8,1
1584105348668,NaN,NaN,-0.09082031,-0.8376465,0.5205078,1584105346430,8312219305106,0.3086599,8,1
1584105348673,NaN,NaN,-0.10058594,-0.8408203,0.5163574,1584105346510,8312219305106,0.3086599,8,1
1584105348678,NaN,NaN,-0.09350586,-0.8366699,0.50756836,1584105346590,8312219305106,0.3086599,8,1
1584105348681,NaN,NaN,-0.09838867,-0.8430176,0.52197266,1584105346670,8312219305106,0.3086599,8,1
1584105348685,NaN,NaN,-0.0859375,-0.8417969,0.51464844,1584105346750,8312219305106,0.3086599,8,1
1584105348692,NaN,NaN,-0.079833984,-0.8305664,0.5275879,1584105346830,8312219305106,0.3086599,8,1
1584105348694,NaN,NaN,-0.06665039,-0.829834,0.53100586,1584105346910,8312219305106,0.3086599,8,1
1584105348697,NaN,NaN,-0.076660156,-0.8293457,0.501709,1584105346990,8312219305106,0.3086599,8,1
1584105348701,NaN,NaN,-0.09326172,-0.83691406,0.47998047,1584105347070,8312219305106,0.3086599,8,1
1584105348704,NaN,NaN,-0.09863281,-0.85498047,0.44995117,1584105347150,8312219305106,0.3086599,8,1
1584105348709,NaN,NaN,-0.09399414,-0.88427734,0.38916016,1584105347230,8312219305106,0.3086599,8,1
1584105348712,NaN,NaN,-0.06933594,-0.93481445,0.44018555,1584105347310,8312219305106,0.3086599,8,1
1584105348717,NaN,NaN,-0.083984375,-0.90478516,0.41625977,1584105347390,8312219305106,0.3086599,8,1
1584105348721,NaN,NaN,-0.050048828,-0.8483887,0.37231445,1584105347470,8312219305106,0.3086599,8,1
1584105348725,NaN,NaN,-0.03125,-0.8652344,0.3305664,1584105347550,8312219305106,0.3086599,8,1
1584105348729,NaN,-0.39997545,-0.045654297,-0.9042969,0.33129883,1584105347630,8312219305106,0.13787743,8,1
1584105348733,NaN,-0.5900728,0.007080078,-0.9243164,0.32373047,1584105347710,8312219305106,0.13787743,8,1
1584105348738,NaN,-0.5253829,0.052490234,-0.8378906,0.27197266,1584105347790,8312219305106,0.11050054,8,1
1584105348741,NaN,-0.26140064,0.06738281,-0.82836914,0.24829102,1584105347870,8312219305106,0.11050054,8,1
1584105348745,NaN,0.028917551,0.12036133,-0.88183594,0.24169922,1584105347950,8312219305106,0.11050054,8,1
1584105348749,NaN,0.31431425,0.12792969,-0.9458008,0.3395996,1584105348030,8312219305106,0.11718903,8,1
1584105348752,NaN,NaN,0.12182617,-1.192627,0.5493164,1584105348110,8312219305106,0.32394683,8,1
1584105348756,NaN,NaN,0.07128906,-0.99194336,0.36645508,1584105348190,8312219305106,0.32394683,8,1
1584105348760,NaN,NaN,0.07885742,-1.0664062,0.70410156,1584105348270,8312219305106,0.34584266,8,1
1584105348763,NaN,NaN,-0.09716797,-0.85131836,0.390625,1584105348350,8312219305106,0.41894546,8,1
1584105348767,NaN,NaN,-0.057617188,-0.78637695,0.60058594,1584105348430,8312219305106,0.41894546,8,1
1584105348770,NaN,NaN,-0.03491211,-0.8276367,0.4633789,1584105348510,8312219305106,0.41894546,8,1
1584105348775,NaN,NaN,-0.03173828,-0.7937012,0.48461914,1584105348590,8312219305106,0.41894546,8,1
1584105348777,NaN,NaN,0.017333984,-0.81591797,0.41088867,1584105348670,8312219305106,0.41894546,8,1
1584105348781,NaN,NaN,-0.07055664,-0.7241211,0.40454102,1584105348750,8312219305106,0.41894546,8,1
1584105348784,NaN,NaN,0.083740234,-1.2402344,0.22265625,1584105348830,8312219305106,0.5685618,8,1
1584105348787,NaN,NaN,-0.10839844,-1.0039062,0.41723633,1584105348910,8312219305106,0.5685618,8,1
1584105351249,NaN,NaN,-0.10253906,-0.9326172,0.26098633,1584105348990,2115829167797,0.5685618,8,1
1584105351252,NaN,NaN,-0.1484375,-0.9802246,0.21704102,1584105349070,2115829167797,0.5685618,8,1
1584105351257,NaN,NaN,-0.2055664,-1.0036621,0.22924805,1584105349150,2115829167797,0.5685618,8,1
1584105351263,NaN,NaN,-0.24658203,-0.96069336,0.20117188,1584105349230,2115829167797,0.5685618,8,1
1584105351269,NaN,NaN,-0.23583984,-0.8967285,0.20751953,1584105349310,2115829167797,0.5685618,8,1
1584105351273,NaN,NaN,-0.30664062,-0.8852539,0.23144531,1584105349390,2115829167797,0.5685618,8,1
1584105351276,NaN,NaN,-0.26708984,-0.8581543,0.25756836,1584105349470,2115829167797,0.5685618,8,1
1584105351281,NaN,NaN,-0.09326172,-1.0302734,0.47460938,1584105349550,2115829167797,0.5685618,8,1
1584105351285,NaN,NaN,-0.03564453,-0.9001465,0.33520508,1584105349630,2115829167797,0.5685618,8,1
1584105351289,NaN,NaN,0.07519531,-0.7844238,0.4572754,1584105349710,2115829167797,0.5685618,8,1
1584105351293,NaN,NaN,0.23779297,-0.8898926,0.5361328,1584105349790,2115829167797,0.5685618,8,1
1584105351297,NaN,NaN,0.1862793,-0.88671875,0.44970703,1584105349870,2115829167797,0.5685618,8,1
1584105351300,NaN,NaN,0.12939453,-0.8334961,0.45751953,1584105349950,2115829167797,0.5685618,8,1
1584105351305,NaN,NaN,0.08154297,-0.86572266,0.45043945,1584105350030,2115829167797,0.5685618,8,1
1584105351309,NaN,NaN,0.0021972656,-0.8339844,0.5083008,1584105350110,2115829167797,0.5685618,8,1
1584105351312,NaN,NaN,-0.0107421875,-0.81396484,0.48413086,1584105350190,2115829167797,0.5685618,8,1
1584105351317,NaN,NaN,0.057373047,-1.2685547,0.40454102,1584105350270,2115829167797,0.5685618,8,1
1584105351321,NaN,NaN,0.0041503906,-0.82250977,0.42797852,1584105350350,2115829167797,0.5685618,8,1
1584105351325,NaN,NaN,0.1586914,-0.9345703,0.31591797,1584105350430,2115829167797,0.5685618,8,1
1584105351328,NaN,NaN,-0.12792969,-0.8769531,0.39013672,1584105350510,2115829167797,0.5685618,8,1
1584105351332,NaN,NaN,-0.115478516,-0.8552246,0.36279297,1584105350590,2115829167797,0.5685618,8,1
1584105351335,NaN,NaN,-0.13793945,-0.8388672,0.45092773,1584105350670,2115829167797,0.5685618,8,1
1584105351338,NaN,NaN,-0.15307617,-0.88964844,0.49145508,1584105350750,2115829167797,0.5685618,8,1
1584105351342,NaN,NaN,-0.21044922,-0.8532715,0.45483398,1584105350830,2115829167797,0.5685618,8,1
1584105351344,NaN,NaN,-0.10620117,-1.074707,0.5827637,1584105350910,2115829167797,0.5685618,8,1
1584105351347,NaN,NaN,0.02758789,-0.8498535,0.25585938,1584105350990,2115829167797,0.5685618,8,1
1584105351350,NaN,NaN,0.12866211,-0.7702637,0.39501953,1584105351070,2115829167797,0.5685618,8,1
1584105351354,NaN,NaN,0.1105957,-0.99658203,0.39624023,1584105351150,2115829167797,0.5685618,8,1
1584105351356,NaN,NaN,0.08300781,-0.8996582,0.43725586,1584105351230,2115829167797,0.5685618,8,1
1584105351360,NaN,NaN,0.07543945,-0.89038086,0.4165039,1584105351310,2115829167797,0.5685618,8,1
1584105351362,NaN,NaN,0.06762695,-0.8684082,0.46069336,1584105351390,2115829167797,0.4665042,8,1
1584105351366,NaN,NaN,0.12841797,-0.84155273,0.5085449,1584105351470,2115829167797,0.4665042,8,1
1584105353836,NaN,NaN,0.14868164,-0.8466797,0.5307617,1584105351550,-4080842444487,0.4665042,8,1
1584105353841,NaN,NaN,0.14526367,-0.86035156,0.5698242,1584105351630,-4080842444487,0.4665042,8,1
1584105353846,NaN,NaN,0.008056641,-1.0163574,0.29760742,1584105351710,-4080842444487,0.4665042,8,1
1584105353851,NaN,NaN,-0.06347656,-0.78759766,0.49291992,1584105351790,-4080842444487,0.4665042,8,1
1584105353855,NaN,NaN,-0.118652344,-0.8532715,0.21118164,1584105351870,-4080842444487,0.4665042,8,1
1584105353859,NaN,NaN,-0.14135742,-0.94433594,0.4038086,1584105351950,-4080842444487,0.4665042,8,1
1584105353862,NaN,NaN,-0.11376953,-0.8730469,0.4423828,1584105352030,-4080842444487,0.4665042,8,1
1584105353865,NaN,NaN,-0.0925293,-0.88305664,0.43554688,1584105352110,-4080842444487,0.4665042,8,1
1584105353868,NaN,NaN,-0.043701172,-0.91186523,0.49560547,1584105352190,-4080842444487,0.4665042,8,1
1584105353872,NaN,NaN,-0.07885742,-0.9001465,0.44018555,1584105352270,-4080842444487,0.4665042,8,1
1584105353875,NaN,NaN,0.08984375,-1.1096191,0.5239258,1584105352350,-4080842444487,0.4665042,8,1
1584105353879,NaN,NaN,0.2006836,-0.8005371,0.25830078,1584105352430,-4080842444487,0.4665042,8,1
1584105353882,NaN,NaN,0.095947266,-0.8083496,0.45654297,1584105352510,-4080842444487,0.4665042,8,1
1584105353885,NaN,NaN,0.026611328,-0.9316406,0.4033203,1584105352590,-4080842444487,0.4665042,8,1
1584105353888,NaN,NaN,-0.009521484,-0.7583008,0.5510254,1584105352670,-4080842444487,0.4665042,8,1
1584105353892,NaN,NaN,-0.026855469,-0.9367676,0.4765625,1584105352750,-4080842444487,0.4665042,8,1
1584105353896,NaN,NaN,-0.015136719,-1.1357422,0.26416016,1584105352830,-4080842444487,0.44982,8,1
1584105353899,NaN,NaN,-0.119628906,-0.8635254,0.49682617,1584105352910,-4080842444487,0.42234325,8,1
1584105353902,NaN,NaN,-0.055419922,-0.91308594,0.1928711,1584105352990,-4080842444487,0.42234325,8,1
1584105353905,NaN,NaN,-0.16845703,-0.85009766,0.39697266,1584105353070,-4080842444487,0.42234325,8,1
1584105353908,NaN,NaN,-0.08300781,-0.83081055,0.3461914,1584105353150,-4080842444487,0.42234325,8,1
1584105353910,NaN,NaN,-0.18237305,-0.907959,0.43164062,1584105353230,-4080842444487,0.42234325,8,1
1584105353914,NaN,NaN,-0.1381836,-0.8857422,0.4309082,1584105353310,-4080842444487,0.42234325,8,1
1584105353917,NaN,NaN,-0.1899414,-0.8461914,0.42626953,1584105353390,-4080842444487,0.42234325,8,1
1584105353920,NaN,NaN,-0.068115234,-1.1230469,0.529541,1584105353470,-4080842444487,0.42234325,8,1
1584105353923,NaN,NaN,0.1184082,-0.8911133,0.40649414,1584105353550,-4080842444487,0.42234325,8,1
1584105353926,NaN,NaN,0.15991211,-0.7597656,0.42651367,1584105353630,-4080842444487,0.42234325,8,1
1584105353929,NaN,NaN,0.049316406,-0.90722656,0.49291992,1584105353710,-4080842444487,0.42234325,8,1
1584105353932,NaN,NaN,0.051513672,-0.8076172,0.48999023,1584105353790,-4080842444487,0.42234325,8,1
1584105353936,NaN,NaN,0.060791016,-0.7675781,0.5205078,1584105353870,-4080842444487,0.42234325,8,1
1584105353938,NaN,NaN,-0.067871094,-0.80810547,0.53271484,1584105353950,-4080842444487,0.42234325,8,1
1584105353942,NaN,NaN,0.0107421875,-0.8156738,0.5373535,1584105354030,-4080842444487,0.42234325,8,1
1584105356421,NaN,NaN,0.050048828,-1.0957031,0.5722656,1584105354110,8169511491913,0.42234325,8,1
1584105356426,NaN,NaN,-0.02709961,-0.8029785,0.4321289,1584105354190,8169511491913,0.42234325,8,1
1584105356432,NaN,NaN,0.12402344,-0.8774414,0.40185547,1584105354270,8169511491913,0.42234325,8,1
1584105356438,NaN,NaN,-0.087402344,-0.859375,0.53344727,1584105354350,8169511491913,0.42234325,8,1
1584105356442,NaN,NaN,-0.056884766,-0.89282227,0.501709,1584105354430,8169511491913,0.42234325,8,1
1584105356447,NaN,NaN,-0.08227539,-0.81762695,0.49682617,1584105354510,8169511491913,0.42234325,8,1
1584105356450,NaN,NaN,-0.10107422,-0.81689453,0.5041504,1584105354590,8169511491913,0.42234325,8,1
1584105356455,NaN,NaN,-0.10620117,-0.9494629,0.6086426,1584105354670,8169511491913,0.42234325,8,1
1584105356459,NaN,NaN,0.07324219,-0.80859375,0.48168945,1584105354750,8169511491913,0.42234325,8,1
1584105356463,NaN,NaN,0.06201172,-0.7270508,0.47680664,1584105354830,8169511491913,0.42234325,8,1
1584105356467,NaN,NaN,-0.012939453,-0.8022461,0.6074219,1584105354910,8169511491913,0.42234325,8,1
1584105356470,NaN,NaN,-0.013671875,-0.828125,0.5126953,1584105354990,8169511491913,0.3730336,8,1
1584105356475,NaN,NaN,-0.030273438,-0.8154297,0.5695801,1584105355070,8169511491913,0.3730336,8,1
1584105356479,NaN,NaN,-0.057617188,-0.79467773,0.5744629,1584105355150,8169511491913,0.3730336,8,1
1584105356483,NaN,NaN,-0.044677734,-0.7770996,0.5854492,1584105355230,8169511491913,0.3730336,8,1
1584105356486,NaN,NaN,-0.008056641,-0.80078125,0.59350586,1584105355310,8169511491913,0.3730336,8,1
1584105356489,NaN,NaN,-9.765625E-4,-0.8845215,0.6779785,1584105355390,8169511491913,0.3730336,8,1
1584105356493,NaN,NaN,-0.041015625,-0.904541,0.53222656,1584105355470,8169511491913,0.33358338,8,1
1584105356496,NaN,NaN,0.007080078,-0.78149414,0.5180664,1584105355550,8169511491913,0.33358338,8,1
1584105356499,NaN,NaN,-0.03466797,-0.8183594,0.3005371,1584105355630,8169511491913,0.33358338,8,1
1584105356502,NaN,NaN,-0.030029297,-0.95825195,0.4230957,1584105355710,8169511491913,0.33358338,8,1
1584105356505,NaN,NaN,0.032470703,-0.8781738,0.50927734,1584105355790,8169511491913,0.33358338,8,1
1584105356509,NaN,NaN,0.039794922,-0.85253906,0.47851562,1584105355870,8169511491913,0.33358338,8,1
1584105356511,NaN,NaN,-0.0546875,-0.89501953,0.4633789,1584105355950,8169511491913,0.33358338,8,1
1584105356514,NaN,NaN,-0.11425781,-0.85717773,0.46142578,1584105356030,8169511491913,0.33358338,8,1
1584105356517,NaN,NaN,0.07104492,-1.0405273,0.6171875,1584105356110,8169511491913,0.33358338,8,1
1584105356521,NaN,NaN,0.08935547,-0.8547363,0.26904297,1584105356190,8169511491913,0.395042,8,1
1584105356525,NaN,NaN,0.095947266,-0.7980957,0.37426758,1584105356270,8169511491913,0.395042,8,1
1584105356529,NaN,NaN,0.107666016,-0.9580078,0.48461914,1584105356350,8169511491913,0.395042,8,1
1584105356532,NaN,NaN,0.072021484,-0.8486328,0.4897461,1584105356430,8169511491913,0.395042,8,1
1584105356535,NaN,NaN,-0.03466797,-0.78759766,0.5048828,1584105356510,8169511491913,0.395042,8,1
1584105356538,NaN,NaN,-0.039794922,-0.8195801,0.5432129,1584105356590,8169511491913,0.395042,8,1
1584105358805,NaN,NaN,0.049560547,-0.9133301,0.5595703,1584105356670,1973121354605,0.395042,8,1
1584105358810,NaN,NaN,-0.013183594,-1.0029297,0.49975586,1584105356736,1973121354605,0.395042,8,1
1584105358817,NaN,NaN,-0.06298828,-0.6940918,0.44384766,1584105356803,1973121354605,0.395042,8,1
1584105358821,NaN,NaN,-0.0087890625,-0.9042969,0.30126953,1584105356869,1973121354605,0.395042,8,1
1584105358828,NaN,NaN,-0.095458984,-0.9003906,0.5563965,1584105356936,1973121354605,0.395042,8,1
1584105358911,NaN,NaN,-0.018554688,-0.84033203,0.4699707,1584105357002,1973121354605,0.395042,8,1
1584105358918,NaN,NaN,-0.030517578,-0.8203125,0.47070312,1584105357069,1973121354605,0.395042,8,1
1584105358923,NaN,NaN,-0.1784668,-0.89990234,0.48950195,1584105357135,1973121354605,0.395042,8,1
1584105358928,NaN,NaN,-0.0031738281,-0.98535156,0.59350586,1584105357202,1973121354605,0.395042,8,1
1584105358936,NaN,NaN,0.13549805,-0.89453125,0.36108398,1584105357269,1973121354605,0.395042,8,1
1584105358938,NaN,NaN,0.1586914,-0.71313477,0.49121094,1584105357335,1973121354605,0.395042,8,1
1584105358942,NaN,NaN,0.10888672,-0.8796387,0.5422363,1584105357402,1973121354605,0.395042,8,1
1584105358946,NaN,NaN,0.024414062,-0.8395996,0.46850586,1584105357468,1973121354605,0.395042,8,1
1584105358950,NaN,NaN,0.010986328,-0.7932129,0.55859375,1584105357535,1973121354605,0.395042,8,1
1584105358953,NaN,NaN,-0.016845703,-0.80249023,0.5275879,1584105357601,1973121354605,0.395042,8,1
1584105358958,NaN,NaN,0.05859375,-0.87353516,0.5366211,1584105357668,1973121354605,0.395042,8,1
1584105358962,NaN,NaN,-0.0068359375,-1.0717773,0.43920898,1584105357735,1973121354605,0.395042,8,1
1584105358968,NaN,NaN,-0.016845703,-0.720459,0.47070312,1584105357801,1973121354605,0.395042,8,1
1584105358970,NaN,NaN,0.06713867,-0.9736328,0.3112793,1584105357868,1973121354605,0.395042,8,1
1584105358973,NaN,NaN,-0.07495117,-0.9152832,0.4309082,1584105357934,1973121354605,0.395042,8,1
1584105358977,NaN,NaN,-0.017578125,-0.86621094,0.29541016,1584105358001,1973121354605,0.395042,8,1
1584105358982,NaN,NaN,0.032470703,-0.92211914,0.36938477,1584105358067,1973121354605,0.395042,8,1
1584105358985,NaN,NaN,0.16772461,-0.9394531,0.2109375,1584105358134,1973121354605,0.395042,8,1
1584105358988,NaN,NaN,0.16845703,-0.98413086,0.4345703,1584105358200,1973121354605,0.395042,8,1
1584105358991,NaN,NaN,0.3059082,-0.86694336,0.29663086,1584105358267,1973121354605,0.395042,8,1
1584105358994,NaN,NaN,0.32910156,-0.8078613,0.34399414,1584105358334,1973121354605,0.395042,8,1
1584105358999,NaN,NaN,0.31518555,-0.8684082,0.27807617,1584105358400,1973121354605,0.35286918,8,1
1584105359004,NaN,NaN,0.3791504,-0.92822266,0.16088867,1584105358467,1973121354605,0.35286918,8,1
1584105359009,NaN,NaN,0.31445312,-0.86035156,0.16674805,1584105358533,1973121354605,0.35286918,8,1
1584105359012,NaN,NaN,0.34106445,-0.91015625,0.056152344,1584105358600,1973121354605,0.35286918,8,1
1584105359016,NaN,NaN,0.34594727,-0.93066406,0.0048828125,1584105358666,1973121354605,0.35286918,8,1
1584105359019,NaN,NaN,0.3466797,-0.8845215,-0.07836914,1584105358733,1973121354605,0.35286918,8,1
1584105361386,NaN,NaN,0.39770508,-0.8942871,-0.14941406,1584105358800,-4223550257679,0.35286918,8,1
1584105361409,NaN,NaN,0.39990234,-0.89746094,-0.19677734,1584105358880,-4223550257679,0.35286918,8,1
1584105361415,NaN,NaN,0.39697266,-0.9008789,-0.28637695,1584105358960,-4223550257679,0.35286918,8,1
1584105361419,NaN,NaN,0.40942383,-0.90063477,-0.32250977,1584105359040,-4223550257679,0.35286918,8,1
1584105361423,NaN,NaN,0.40966797,-0.8676758,-0.3701172,1584105359120,-4223550257679,0.35286918,8,1
1584105361426,NaN,NaN,0.41088867,-0.8708496,-0.38476562,1584105359200,-4223550257679,0.35286918,8,1
1584105361429,NaN,NaN,0.3942871,-0.888916,-0.4033203,1584105359280,-4223550257679,0.35286918,8,1
1584105361432,NaN,NaN,0.3972168,-0.8588867,-0.39404297,1584105359360,-4223550257679,0.35286918,8,1
1584105361436,NaN,NaN,0.40429688,-0.85180664,-0.3803711,1584105359440,-4223550257679,0.35286918,8,1
1584105361441,NaN,NaN,0.40698242,-0.84594727,-0.39086914,1584105359520,-4223550257679,0.35286918,8,1
1584105361455,NaN,NaN,0.39624023,-0.8364258,-0.36743164,1584105359600,-4223550257679,0.35286918,8,1
1584105361456,NaN,NaN,0.36621094,-0.8220215,-0.35009766,1584105359680,-4223550257679,0.35286918,8,1
1584105361456,NaN,NaN,0.34814453,-0.81640625,-0.30029297,1584105359760,-4223550257679,0.35286918,8,1
1584105361461,NaN,NaN,0.3540039,-0.9416504,-0.22290039,1584105359840,-4223550257679,0.35286918,8,1
1584105361465,NaN,NaN,0.43286133,-1.2507324,-0.14770508,1584105359920,-4223550257679,0.35286918,8,1
1584105361469,NaN,NaN,0.20605469,-1.032959,0.012451172,1584105360000,-4223550257679,0.35286918,8,1
1584105361473,NaN,NaN,0.20532227,-0.82543945,0.036132812,1584105360080,-4223550257679,0.35286918,8,1
1584105361477,NaN,NaN,0.35473633,-0.95751953,-0.029296875,1584105360160,-4223550257679,0.35286903,8,1
1584105361480,NaN,NaN,0.31030273,-0.97143555,0.02758789,1584105360240,-4223550257679,0.35286903,8,1
1584105361485,NaN,NaN,0.27368164,-0.95043945,0.0769043,1584105360320,-4223550257679,0.35286903,8,1
1584105361488,NaN,NaN,0.30908203,-0.9543457,0.09277344,1584105360400,-4223550257679,0.35286903,8,1
1584105361492,NaN,NaN,0.27392578,-0.954834,0.10888672,1584105360480,-4223550257679,0.35286903,8,1
1584105361495,NaN,NaN,0.22387695,-1.020752,0.14770508,1584105360560,-4223550257679,0.35286903,8,1
1584105361499,NaN,NaN,0.21435547,-0.9741211,0.16210938,1584105360640,-4223550257679,0.35286903,8,1
1584105361502,NaN,NaN,0.18554688,-0.9753418,0.18481445,1584105360720,-4223550257679,0.35286903,8,1
1584105361505,NaN,NaN,0.15844727,-0.93530273,0.2097168,1584105360800,-4223550257679,0.35286903,8,1
1584105361508,NaN,NaN,0.1328125,-0.94384766,0.25634766,1584105360880,-4223550257679,0.35286903,8,1
1584105361511,NaN,NaN,0.08178711,-0.93310547,0.29296875,1584105360960,-4223550257679,0.35286903,8,1
1584105361514,NaN,NaN,0.07128906,-0.9135742,0.35375977,1584105361040,-4223550257679,0.35286903,8,1
1584105361517,NaN,NaN,0.09423828,-0.87768555,0.41088867,1584105361120,-4223550257679,0.35286903,8,1
1584105361520,NaN,NaN,0.114746094,-0.87231445,0.4506836,1584105361200,-4223550257679,0.35286903,8,1
1584105361522,NaN,NaN,0.09057617,-0.82714844,0.5192871,1584105361280,-4223550257679,0.35286903,8,1
1584105363985,NaN,NaN,0.035888672,-0.79785156,0.6179199,1584105361360,8026803678721,0.35286903,8,1
1584105363994,NaN,NaN,0.08129883,-0.78149414,0.6447754,1584105361440,8026803678721,0.35286903,8,1
1584105364001,NaN,NaN,0.12695312,-0.7404785,0.59765625,1584105361520,8026803678721,0.35286903,8,1
1584105364007,NaN,NaN,0.13867188,-0.71655273,0.64453125,1584105361600,8026803678721,0.35286903,8,1
1584105364010,NaN,NaN,0.095458984,-0.7468262,0.6213379,1584105361680,8026803678721,0.35286903,8,1
1584105364016,NaN,NaN,0.10839844,-0.7324219,0.64575195,1584105361760,8026803678721,0.35286903,8,1
1584105364021,NaN,NaN,0.103759766,-0.7265625,0.642334,1584105361840,8026803678721,0.35286903,8,1
1584105364025,NaN,NaN,0.107177734,-0.7312012,0.6166992,1584105361920,8026803678721,0.35286903,8,1
1584105364028,NaN,NaN,0.111816406,-0.7583008,0.61206055,1584105362000,8026803678721,0.35286903,8,1
1584105364032,NaN,NaN,0.11035156,-0.7858887,0.6513672,1584105362080,8026803678721,0.35286903,8,1
1584105364036,NaN,NaN,0.12548828,-0.7788086,0.6269531,1584105362160,8026803678721,0.35286903,8,1
1584105364039,NaN,NaN,0.10644531,-0.76220703,0.6147461,1584105362240,8026803678721,0.35286903,8,1
1584105364042,NaN,NaN,0.12402344,-0.77319336,0.60498047,1584105362320,8026803678721,0.35286903,8,1
1584105364045,NaN,NaN,0.13354492,-0.7861328,0.6123047,1584105362400,8026803678721,0.35286903,8,1
1584105364048,NaN,NaN,0.1184082,-0.76123047,0.60253906,1584105362480,8026803678721,0.35286903,8,1
1584105364051,NaN,0.22019368,0.08276367,-0.77734375,0.625,1584105362560,8026803678721,0.2098827,8,1
1584105364055,NaN,0.22088413,0.10864258,-0.7980957,0.6159668,1584105362640,8026803678721,0.2098827,8,1
1584105364058,NaN,0.19207542,0.080322266,-0.7597656,0.6237793,1584105362720,8026803678721,0.116522364,8,1
1584105364063,NaN,0.17396176,0.07348633,-0.78344727,0.6230469,1584105362800,8026803678721,0.116522364,8,1
1584105364067,NaN,0.113813974,0.076171875,-0.7775879,0.62060547,1584105362880,8026803678721,0.116522364,8,1
1584105364071,NaN,-0.32859161,0.06616211,-0.7529297,0.625,1584105362960,8026803678721,0.116522364,8,1
1584105364075,NaN,-0.48953176,0.05859375,-0.7624512,0.6357422,1584105363040,8026803678721,0.116522364,8,1
1584105364078,NaN,-0.73442346,0.05859375,-0.7307129,0.64160156,1584105363120,8026803678721,0.116522364,8,1
1584105364082,NaN,-1.0513864,0.06347656,-0.74731445,0.6296387,1584105363200,8026803678721,0.116522364,8,1
1584105364085,NaN,-1.4797803,0.07006836,-0.7446289,0.62841797,1584105363280,8026803678721,0.116522364,8,1
1584105364088,NaN,-1.9815474,0.072509766,-0.7470703,0.62109375,1584105363360,8026803678721,0.116522364,8,1
1584105364092,NaN,-2.456704,0.076416016,-0.77197266,0.6425781,1584105363440,8026803678721,0.116522364,8,1
1584105364095,NaN,-2.4186976,0.0847168,-0.76000977,0.64453125,1584105363520,8026803678721,0.116522364,8,1
1584105364098,NaN,-2.4228377,0.095214844,-0.75878906,0.642334,1584105363600,8026803678721,0.116522364,8,1
1584105364101,NaN,-2.3227508,0.09033203,-0.76293945,0.62890625,1584105363680,8026803678721,0.116522364,8,1
1584105364105,NaN,-2.21652,0.08569336,-0.75756836,0.63671875,1584105363760,8026803678721,0.116522364,8,1
1584105364108,NaN,-2.0061345,0.092285156,-0.7651367,0.63305664,1584105363840,8026803678721,0.116522364,8,1
1584105366553,NaN,-1.6592842,0.08496094,-0.7631836,0.63012695,1584105363920,1758355947375,0.07737448,8,1
1584105366561,NaN,-1.436193,0.0859375,-0.7585449,0.6274414,1584105364000,1758355947375,0.07737448,8,1
1584105366567,NaN,-1.1475874,0.087402344,-0.767334,0.6411133,1584105364080,1758355947375,0.05763477,8,1
1584105366573,NaN,-0.8826568,0.080322266,-0.76538086,0.6525879,1584105364160,1758355947375,0.05763477,8,1
1584105366579,NaN,-0.6212619,0.063964844,-0.75634766,0.65405273,1584105364240,1758355947375,0.048293583,8,1
1584105366584,NaN,-0.31874076,0.0769043,-0.7441406,0.63256836,1584105364320,1758355947375,0.048293583,8,1
1584105366589,NaN,-0.05556354,0.0637207,-0.7626953,0.6508789,1584105364400,1758355947375,0.048293583,8,1
1584105366594,NaN,-0.06370491,0.057861328,-0.7290039,0.64819336,1584105364480,1758355947375,0.048293583,8,1
1584105366599,NaN,-0.0597578,0.056396484,-0.72753906,0.65112305,1584105364560,1758355947375,0.048293583,8,1
1584105366602,NaN,-0.08931941,0.055908203,-0.7338867,0.6296387,1584105364640,1758355947375,0.048293583,8,1
1584105366607,NaN,-0.09108565,0.064208984,-0.7385254,0.6357422,1584105364720,1758355947375,0.048293583,8,1
1584105366610,NaN,-0.09019986,0.088378906,-0.7602539,0.63623047,1584105364800,1758355947375,0.048293583,8,1
1584105366614,NaN,-0.10117689,0.08666992,-0.78637695,0.65283203,1584105364880,1758355947375,0.048293583,8,1
1584105366618,NaN,-0.12102609,0.084472656,-0.75561523,0.63427734,1584105364960,1758355947375,0.048293583,8,1
1584105366622,NaN,-0.14805068,0.08203125,-0.765625,0.63427734,1584105365040,1758355947375,0.048293583,8,1
1584105366625,NaN,-0.14094156,0.0949707,-0.7578125,0.64208984,1584105365120,1758355947375,0.048293583,8,1
1584105366628,NaN,-0.102309845,0.09008789,-0.7565918,0.62646484,1584105365200,1758355947375,0.048293583,8,1
1584105366632,NaN,-0.08253253,0.099121094,-0.76000977,0.6369629,1584105365280,1758355947375,0.035991494,8,1
1584105366635,NaN,-0.046789706,0.1003418,-0.75512695,0.6328125,1584105365360,1758355947375,0.035991494,8,1
1584105366638,NaN,0.0106191635,0.092285156,-0.75268555,0.63720703,1584105365440,1758355947375,0.035991494,8,1
1584105366641,NaN,0.070484206,0.07299805,-0.763916,0.6467285,1584105365520,1758355947375,0.035991494,8,1
1584105366644,NaN,0.09474987,0.064941406,-0.75683594,0.65844727,1584105365600,1758355947375,0.035991494,8,1
1584105366647,NaN,0.090189464,0.06665039,-0.73657227,0.6726074,1584105365680,1758355947375,0.035991494,8,1
1584105366651,NaN,0.05165246,0.06689453,-0.72216797,0.6687012,1584105365760,1758355947375,0.035991494,8,1
1584105366653,NaN,-0.012422577,0.04638672,-0.7089844,0.6791992,1584105365840,1758355947375,0.035991494,8,1
1584105366656,NaN,-0.061031457,0.051757812,-0.7307129,0.6870117,1584105365920,1758355947375,0.035991494,8,1
1584105366660,NaN,-0.0948491,0.07543945,-0.7319336,0.66015625,1584105366000,1758355947375,0.035991494,8,1
1584105366662,NaN,-0.15788822,0.044921875,-0.7272949,0.6784668,1584105366080,1758355947375,0.035991494,8,1
1584105366665,NaN,-0.26006973,0.023925781,-0.71191406,0.67700195,1584105366160,1758355947375,0.035991494,8,1
1584105366668,NaN,-0.35084477,0.016357422,-0.7080078,0.671875,1584105366240,1758355947375,0.035991494,8,1
1584105366672,NaN,-0.44908425,0.018310547,-0.7077637,0.670166,1584105366320,1758355947375,0.035991494,8,1
1584105366675,NaN,-0.56186646,-0.010498047,-0.6984863,0.66259766,1584105366400,1758355947375,0.035991494,8,1
1584105369139,NaN,-0.6603205,-0.021240234,-0.74609375,0.6936035,1584105366480,-4438315664909,0.057820622,8,1
1584105369146,NaN,-0.68954873,0.024169922,-0.7434082,0.67456055,1584105366560,-4438315664909,0.057820622,8,1
1584105369152,NaN,-0.6819763,0.0234375,-0.74243164,0.6699219,1584105366640,-4438315664909,0.057820622,8,1
1584105369159,NaN,-0.6508598,0.024414062,-0.72094727,0.6591797,1584105366720,-4438315664909,0.057820622,8,1
1584105369163,NaN,-0.56418264,0.064208984,-0.7314453,0.6748047,1584105366800,-4438315664909,0.057820622,8,1
1584105369169,NaN,-0.5102653,0.042236328,-0.7272949,0.6777344,1584105366880,-4438315664909,0.057820622,8,1
1584105369173,NaN,-0.46371058,0.096191406,-0.7404785,0.6582031,1584105366960,-4438315664909,0.058876373,8,1
1584105369177,NaN,-0.35444298,0.12084961,-0.7451172,0.6520996,1584105367040,-4438315664909,0.058876373,8,1
1584105369180,NaN,-0.18317628,0.14208984,-0.7531738,0.62939453,1584105367120,-4438315664909,0.058876373,8,1
1584105369184,NaN,-0.009654909,0.14501953,-0.75024414,0.6328125,1584105367200,-4438315664909,0.058876373,8,1
1584105369187,34.090908,0.15438847,0.15698242,-0.73876953,0.64624023,1584105367280,-4438315664909,0.058876373,8,1
1584105369190,NaN,0.32978725,0.1394043,-0.7434082,0.6484375,1584105367360,-4438315664909,0.058876373,8,1
1584105369194,NaN,0.47901854,0.13378906,-0.73461914,0.6682129,1584105367440,-4438315664909,0.058876373,8,1
1584105369197,NaN,0.5651991,0.14257812,-0.74438477,0.6699219,1584105367520,-4438315664909,0.058876373,8,1
1584105369200,NaN,0.62441236,0.14648438,-0.7180176,0.6635742,1584105367600,-4438315664909,0.058876373,8,1
1584105369204,NaN,0.662452,0.11621094,-0.72094727,0.6843262,1584105367680,-4438315664909,0.058876373,8,1
1584105369207,NaN,0.6359411,0.1015625,-0.7038574,0.69262695,1584105367760,-4438315664909,0.058876373,8,1
1584105369210,NaN,0.631423,0.07836914,-0.6970215,0.69091797,1584105367840,-4438315664909,0.058876373,8,1
1584105369213,NaN,0.54556316,0.06201172,-0.6706543,0.7077637,1584105367920,-4438315664909,0.058876373,8,1
1584105369216,NaN,0.39264107,0.041015625,-0.6748047,0.71362305,1584105368000,-4438315664909,0.058876373,8,1
1584105369219,NaN,0.16413586,0.026367188,-0.66186523,0.70874023,1584105368080,-4438315664909,0.058876373,8,1
1584105369222,NaN,-0.034241587,0.04296875,-0.6760254,0.6791992,1584105368160,-4438315664909,0.058876373,8,1
1584105369224,NaN,-0.22113521,0.03564453,-0.68969727,0.69262695,1584105368240,-4438315664909,0.058876373,8,1
1584105369228,NaN,-0.39956748,0.040283203,-0.7312012,0.7180176,1584105368320,-4438315664909,0.058876373,8,1
1584105369231,NaN,-0.522216,0.06542969,-0.73168945,0.69873047,1584105368400,-4438315664909,0.058876373,8,1
1584105369234,NaN,-0.63184434,0.07446289,-0.6972656,0.6779785,1584105368480,-4438315664909,0.058876373,8,1
1584105369237,NaN,-0.72286385,0.091552734,-0.70654297,0.69555664,1584105368560,-4438315664909,0.058876373,8,1
1584105369240,NaN,-0.7583656,0.09277344,-0.7211914,0.68652344,1584105368640,-4438315664909,0.058876373,8,1
1584105369243,NaN,-0.7505398,0.0859375,-0.70996094,0.68310547,1584105368720,-4438315664909,0.058876373,8,1
1584105369246,NaN,-0.7194539,0.109375,-0.7084961,0.6755371,1584105368800,-4438315664909,0.058876373,8,1
1584105369249,NaN,-0.58754134,0.1171875,-0.72143555,0.6828613,1584105368880,-4438315664909,0.058876373,8,1
1584105369253,NaN,-0.4096106,0.13647461,-0.7180176,0.67089844,1584105368960,-4438315664909,0.058876373,8,1
1584105371919,NaN,-0.1806212,0.14672852,-0.72387695,0.66674805,1584105369040,7812038271491,0.058876373,8,1
1584105371925,NaN,-0.013467312,0.15795898,-0.71362305,0.6657715,1584105369120,7812038271491,0.058876373,8,1
1584105371931,31.25,0.14811046,0.1472168,-0.7182617,0.6723633,1584105369200,7812038271491,0.058876373,8,1
1584105371937,NaN,0.2887339,0.16381836,-0.73217773,0.69189453,1584105369280,7812038271491,0.058876373,8,1
1584105371941,NaN,0.3578377,0.15820312,-0.69555664,0.67822266,1584105369360,7812038271491,0.058876373,8,1
1584105371945,NaN,0.44462928,0.1652832,-0.70825195,0.68066406,1584105369440,7812038271491,0.058876373,8,1
1584105371950,NaN,0.51360685,0.14990234,-0.69970703,0.67944336,1584105369520,7812038271491,0.0488751,8,1
1584105371956,NaN,0.5260053,0.14013672,-0.703125,0.6923828,1584105369600,7812038271491,0.0488751,8,1
1584105371966,NaN,0.5434672,0.16748047,-0.6977539,0.68115234,1584105369680,7812038271491,0.0488751,8,1
1584105371967,NaN,0.51260847,0.14746094,-0.6826172,0.6809082,1584105369760,7812038271491,0.0488751,8,1
1584105371968,NaN,0.44330502,0.15258789,-0.6813965,0.68188477,1584105369840,7812038271491,0.0488751,8,1
1584105371969,NaN,0.33690143,0.1459961,-0.6706543,0.67993164,1584105369920,7812038271491,0.0488751,8,1
1584105371971,NaN,0.22376044,0.15429688,-0.7062988,0.6838379,1584105370000,7812038271491,0.0488751,8,1
1584105371975,NaN,0.13681917,0.16015625,-0.71069336,0.70166016,1584105370080,7812038271491,0.0488751,8,1
1584105371978,NaN,0.07495684,0.18457031,-0.7060547,0.68066406,1584105370160,7812038271491,0.0488751,8,1
1584105371982,NaN,0.019813297,0.17358398,-0.71069336,0.6779785,1584105370240,7812038271491,0.0488751,8,1
1584105371986,NaN,0.00868525,0.18530273,-0.7019043,0.6791992,1584105370320,7812038271491,0.0488751,8,1
1584105371989,NaN,-0.020219611,0.17919922,-0.7036133,0.6809082,1584105370400,7812038271491,0.0488751,8,1
1584105371993,NaN,-0.02832108,0.18115234,-0.7080078,0.6779785,1584105370480,7812038271491,0.0488751,8,1
1584105371997,NaN,-0.018318437,0.1772461,-0.6921387,0.6843262,1584105370560,7812038271491,0.0488751,8,1
1584105372000,NaN,-0.03487883,0.1743164,-0.7006836,0.68237305,1584105370640,7812038271491,0.0488751,8,1
1584105372003,NaN,-0.022472648,0.1730957,-0.6928711,0.6894531,1584105370720,7812038271491,0.0488751,8,1
1584105372006,NaN,0.0038990986,0.17797852,-0.69970703,0.6809082,1584105370800,7812038271491,0.0488751,8,1
1584105372009,NaN,0.049346596,0.17602539,-0.69921875,0.68725586,1584105370880,7812038271491,0.0411976,8,1
1584105372014,NaN,0.06546194,0.17871094,-0.69189453,0.68408203,1584105370960,7812038271491,0.0411976,8,1
1584105372017,NaN,0.0846684,0.17553711,-0.7067871,0.7092285,1584105371040,7812038271491,0.039491206,8,1
1584105372020,NaN,0.07134239,0.17578125,-0.68481445,0.6801758,1584105371120,7812038271491,0.039491206,8,1
1584105372023,NaN,0.0475748,0.17456055,-0.6928711,0.7011719,1584105371200,7812038271491,0.039491206,8,1
1584105372026,NaN,0.01673868,0.16918945,-0.6833496,0.6894531,1584105371280,7812038271491,0.039491206,8,1
1584105372031,NaN,-0.0042602816,0.15576172,-0.6882324,0.6911621,1584105371360,7812038271491,0.039491206,8,1
1584105372033,NaN,-0.036093872,0.15698242,-0.69555664,0.6870117,1584105371440,7812038271491,0.039491206,8,1
1584105372037,NaN,-0.05551691,0.14794922,-0.6906738,0.68725586,1584105371520,7812038271491,0.039491206,8,1
1584105374308,NaN,-0.07527719,0.13867188,-0.6813965,0.68310547,1584105371600,1615648134182,0.039491206,8,1
1584105374314,NaN,-0.093890645,0.11767578,-0.6894531,0.6882324,1584105371680,1615648134182,0.039491206,8,1
1584105374320,NaN,-0.1271718,0.1274414,-0.67700195,0.67163086,1584105371760,1615648134182,0.039491206,8,1
1584105374324,NaN,-0.159263,0.13085938,-0.7121582,0.70751953,1584105371840,1615648134182,0.05035515,8,1
1584105374330,NaN,-0.17145391,0.12231445,-0.70874023,0.7036133,1584105371920,1615648134182,0.05035515,8,1
1584105374335,NaN,-0.16461761,0.1328125,-0.70751953,0.69018555,1584105372000,1615648134182,0.05035515,8,1
1584105374338,NaN,-0.14055638,0.12866211,-0.70947266,0.671875,1584105372080,1615648134182,0.05035515,8,1
1584105374342,NaN,-0.08504505,0.1262207,-0.7241211,0.6652832,1584105372160,1615648134182,0.05035515,8,1
1584105374346,NaN,-0.029267877,0.13598633,-0.732666,0.66845703,1584105372240,1615648134182,0.05035515,8,1
1584105374350,NaN,0.024409518,0.11230469,-0.7363281,0.67041016,1584105372320,1615648134182,0.05035515,8,1
1584105374356,NaN,0.05362953,0.12109375,-0.7080078,0.6706543,1584105372400,1615648134182,0.05035515,8,1
1584105374360,NaN,0.0820177,0.14501953,-0.71655273,0.6765137,1584105372480,1615648134182,0.05035515,8,1
1584105374364,17.857143,0.11354631,0.13745117,-0.7055664,0.68115234,1584105372560,1615648134182,0.05035515,8,1
1584105374368,NaN,0.15666257,0.14916992,-0.7224121,0.671875,1584105372640,1615648134182,0.05035515,8,1
1584105374371,NaN,0.18693428,0.14892578,-0.7001953,0.6738281,1584105372720,1615648134182,0.05035515,8,1
1584105374376,NaN,0.22549094,0.14111328,-0.73217773,0.6867676,1584105372800,1615648134182,0.05035515,8,1
1584105374378,NaN,0.25059977,0.14624023,-0.7077637,0.6894531,1584105372880,1615648134182,0.05035515,8,1
1584105374382,NaN,0.26137337,0.15429688,-0.70336914,0.6687012,1584105372960,1615648134182,0.05035515,8,1
1584105374385,NaN,0.24866587,0.15307617,-0.7089844,0.6826172,1584105373040,1615648134182,0.05035515,8,1
1584105374388,NaN,0.19971295,0.15454102,-0.7006836,0.68359375,1584105373120,1615648134182,0.05035515,8,1
1584105374391,NaN,0.14495789,0.140625,-0.71118164,0.68188477,1584105373200,1615648134182,0.05035515,8,1
1584105374394,NaN,0.09471,0.16333008,-0.69555664,0.6826172,1584105373280,1615648134182,0.05035515,8,1
1584105374397,NaN,0.08089518,0.15576172,-0.689209,0.6723633,1584105373360,1615648134182,0.05035515,8,1
1584105374400,NaN,0.04071149,0.14501953,-0.6672363,0.66674805,1584105373440,1615648134182,0.05035515,8,1
1584105374403,NaN,0.022375038,0.14404297,-0.68896484,0.6767578,1584105373520,1615648134182,0.05035515,8,1
1584105374406,NaN,-0.041423682,0.14355469,-0.7062988,0.7089844,1584105373600,1615648134182,0.05035515,8,1
1584105374408,NaN,-0.05419196,0.15844727,-0.71972656,0.6940918,1584105373680,1615648134182,0.05035515,8,1
1584105374411,NaN,-0.09190657,0.16381836,-0.6882324,0.68481445,1584105373760,1615648134182,0.05035515,8,1
1584105374414,NaN,-0.0989621,0.17285156,-0.6970215,0.68774414,1584105373840,1615648134182,0.05035515,8,1
1584105374417,NaN,-0.12038908,0.17529297,-0.6999512,0.689209,1584105373920,1615648134182,0.05035515,8,1
1584105374422,NaN,-0.10603183,0.17285156,-0.7072754,0.6711426,1584105374000,1615648134182,0.05035515,8,1
1584105374426,NaN,-0.08294781,0.16674805,-0.7050781,0.6838379,1584105374080,1615648134182,0.05035515,8,1
1584105376889,NaN,-0.07112634,0.15917969,-0.69555664,0.69091797,1584105374160,-4581023478102,0.05035515,8,1
1584105376896,NaN,-0.064442135,0.16625977,-0.6875,0.6921387,1584105374240,-4581023478102,0.05035515,8,1
1584105376903,NaN,-0.07052401,0.15917969,-0.69262695,0.689209,1584105374320,-4581023478102,0.05035515,8,1
1584105376909,NaN,-0.055522714,0.16333008,-0.68652344,0.7011719,1584105374400,-4581023478102,0.03659586,8,1
1584105376914,NaN,-0.050609782,0.16333008,-0.6958008,0.69140625,1584105374480,-4581023478102,0.03659586,8,1
1584105376919,NaN,-0.017308252,0.1616211,-0.67871094,0.6928711,1584105374560,-4581023478102,0.03659586,8,1
1584105376923,NaN,-0.03247916,0.16894531,-0.6948242,0.7023926,1584105374640,-4581023478102,0.03659586,8,1
1584105376927,NaN,-0.039778817,0.15112305,-0.6838379,0.7080078,1584105374720,-4581023478102,0.03659586,8,1
1584105376929,NaN,-0.05197321,0.17553711,-0.69140625,0.69677734,1584105374800,-4581023478102,0.03659586,8,1
1584105376934,NaN,-0.06672173,0.15234375,-0.67993164,0.6958008,1584105374880,-4581023478102,0.03659586,8,1
1584105376938,NaN,-0.11482399,0.15771484,-0.68847656,0.70703125,1584105374960,-4581023478102,0.03659586,8,1
1584105376942,NaN,-0.15110321,0.1352539,-0.68408203,0.69970703,1584105375040,-4581023478102,0.03659586,8,1
1584105376945,NaN,-0.15992449,0.13012695,-0.6862793,0.69311523,1584105375120,-4581023478102,0.03659586,8,1
1584105376948,NaN,-0.16406646,0.12231445,-0.68847656,0.69140625,1584105375200,-4581023478102,0.03659586,8,1
1584105376951,NaN,-0.1681145,0.12060547,-0.6906738,0.6862793,1584105375280,-4581023478102,0.03659586,8,1
1584105376956,NaN,-0.18239357,0.09790039,-0.6765137,0.6916504,1584105375360,-4581023478102,0.03659586,8,1
1584105376959,NaN,-0.19639827,0.09033203,-0.6879883,0.6726074,1584105375440,-4581023478102,0.03659586,8,1
1584105376964,NaN,-0.2231701,0.084228516,-0.70532227,0.7282715,1584105375520,-4581023478102,0.058619175,8,1
1584105376967,NaN,-0.23350494,0.092041016,-0.6911621,0.7116699,1584105375600,-4581023478102,0.058619175,8,1
1584105376971,NaN,-0.21062404,0.0925293,-0.6977539,0.69677734,1584105375680,-4581023478102,0.058619175,8,1
1584105376974,NaN,-0.19874614,0.10571289,-0.71069336,0.6870117,1584105375760,-4581023478102,0.058619175,8,1
1584105376977,NaN,-0.13505016,0.119628906,-0.736084,0.6694336,1584105375840,-4581023478102,0.058619175,8,1
1584105376980,NaN,-0.057959855,0.111328125,-0.7285156,0.66381836,1584105375920,-4581023478102,0.058619175,8,1
1584105376984,NaN,0.014428176,0.09838867,-0.7390137,0.6730957,1584105376000,-4581023478102,0.058619175,8,1
1584105376987,17.045454,0.06324742,0.11694336,-0.7138672,0.6611328,1584105376080,-4581023478102,0.058619175,8,1
1584105376990,NaN,0.09896613,0.11206055,-0.72216797,0.6833496,1584105376160,-4581023478102,0.058619175,8,1
1584105376994,NaN,0.12662101,0.10546875,-0.7155762,0.6796875,1584105376240,-4581023478102,0.058619175,8,1
1584105376997,NaN,0.17951463,0.11010742,-0.7229004,0.68066406,1584105376320,-4581023478102,0.058619175,8,1
1584105377000,NaN,0.20651789,0.104003906,-0.7128906,0.6743164,1584105376400,-4581023478102,0.058619175,8,1
1584105377002,NaN,0.27168056,0.115722656,-0.7248535,0.6845703,1584105376480,-4581023478102,0.058619175,8,1
1584105377006,NaN,0.3017886,0.10888672,-0.6958008,0.7080078,1584105376560,-4581023478102,0.058619175,8,1
1584105377010,NaN,0.30223125,0.118652344,-0.69873047,0.6933594,1584105376640,-4581023478102,0.058619175,8,1
1584105379472,NaN,0.2792884,0.10473633,-0.6906738,0.6982422,1584105376720,7669330458299,0.058619175,8,1
1584105379481,NaN,0.19743909,0.092285156,-0.69921875,0.69921875,1584105376800,7669330458299,0.058619175,8,1
1584105379485,NaN,0.10689368,0.0793457,-0.68896484,0.70532227,1584105376880,7669330458299,0.058619175,8,1
1584105379490,NaN,0.027466232,0.0925293,-0.69384766,0.6904297,1584105376960,7669330458299,0.058619175,8,1
1584105379497,NaN,-0.041671988,0.088134766,-0.68774414,0.69311523,1584105377040,7669330458299,0.058619175,8,1
1584105379501,NaN,-0.075303555,0.095947266,-0.6911621,0.66967773,1584105377120,7669330458299,0.058619175,8,1
1584105379506,NaN,-0.109150626,0.09301758,-0.6923828,0.68481445,1584105377200,7669330458299,0.058619175,8,1
1584105379510,NaN,-0.161245,0.099121094,-0.71435547,0.701416,1584105377280,7669330458299,0.058619175,8,1
1584105379514,NaN,-0.20807278,0.09375,-0.6953125,0.7114258,1584105377360,7669330458299,0.058619175,8,1
1584105379517,NaN,-0.26995084,0.099853516,-0.70336914,0.70092773,1584105377440,7669330458299,0.058619175,8,1
1584105379521,NaN,-0.2653152,0.08886719,-0.69799805,0.6953125,1584105377520,7669330458299,0.058619175,8,1
1584105379527,NaN,-0.25589266,0.09472656,-0.70703125,0.6850586,1584105377600,7669330458299,0.058619175,8,1
1584105379531,NaN,-0.22339971,0.08959961,-0.70532227,0.69140625,1584105377680,7669330458299,0.058619175,8,1
1584105379537,NaN,-0.1858427,0.08569336,-0.6904297,0.6940918,1584105377760,7669330458299,0.058619175,8,1
1584105379542,NaN,-0.12347937,0.08227539,-0.70825195,0.70166016,1584105377840,7669330458299,0.058619175,8,1
1584105379546,NaN,-0.08294186,0.10522461,-0.69750977,0.6882324,1584105377920,7669330458299,0.058619175,8,1
1584105379550,NaN,-0.04998064,0.107177734,-0.6911621,0.701416,1584105378000,7669330458299,0.058619175,8,1
1584105379553,NaN,-0.06640261,0.083740234,-0.6867676,0.70996094,1584105378080,7669330458299,0.037948754,8,1
1584105379557,NaN,-0.061953574,0.072509766,-0.69433594,0.7072754,1584105378160,7669330458299,0.037948754,8,1
1584105379560,NaN,-0.060849622,0.08154297,-0.69750977,0.71240234,1584105378240,7669330458299,0.037948754,8,1
1584105379564,NaN,-8.7428343E-4,0.09765625,-0.7158203,0.6855469,1584105378320,7669330458299,0.037948754,8,1
1584105379566,NaN,0.03297931,0.10668945,-0.7121582,0.68896484,1584105378400,7669330458299,0.037948754,8,1
1584105379569,NaN,0.031314835,0.09448242,-0.7104492,0.6921387,1584105378480,7669330458299,0.037948754,8,1
1584105379572,NaN,0.015893448,0.09765625,-0.70458984,0.6862793,1584105378560,7669330458299,0.037948754,8,1
1584105379575,NaN,-0.0019711724,0.08129883,-0.69262695,0.6870117,1584105378640,7669330458299,0.037948754,8,1
1584105379577,NaN,5.212905E-4,0.06323242,-0.68115234,0.6899414,1584105378720,7669330458299,0.037948754,8,1
1584105379580,NaN,-0.020344576,0.083740234,-0.6936035,0.69873047,1584105378800,7669330458299,0.037948754,8,1
1584105379583,NaN,-0.016710214,0.07470703,-0.68115234,0.6687012,1584105378880,7669330458299,0.037948754,8,1
1584105379585,NaN,0.015094223,0.07788086,-0.72314453,0.6933594,1584105378960,7669330458299,0.04880004,8,1
1584105379588,20.27027,0.053167064,0.07446289,-0.70654297,0.71435547,1584105379040,7669330458299,0.04880004,8,1
1584105379591,NaN,0.088471256,0.068359375,-0.71533203,0.6906738,1584105379120,7669330458299,0.04880004,8,1
1584105379593,NaN,0.12129434,0.08203125,-0.70410156,0.6899414,1584105379200,7669330458299,0.04880004,8,1
1584105381857,NaN,0.10425204,0.08276367,-0.72021484,0.67944336,1584105379280,1472940320990,0.04880004,8,1
1584105381864,NaN,0.10200992,0.0715332,-0.7084961,0.6904297,1584105379360,1472940320990,0.04880004,8,1
1584105381869,NaN,0.10981963,0.07421875,-0.72143555,0.6870117,1584105379440,1472940320990,0.04880004,8,1
1584105381876,NaN,0.13083278,0.076660156,-0.71606445,0.67944336,1584105379520,1472940320990,0.04880004,8,1
1584105381879,NaN,0.15766759,0.09057617,-0.7265625,0.670166,1584105379600,1472940320990,0.04880004,8,1
1584105381883,NaN,0.17521495,0.09741211,-0.72021484,0.6723633,1584105379680,1472940320990,0.04880004,8,1
1584105381887,NaN,0.21595226,0.09057617,-0.7348633,0.6726074,1584105379760,1472940320990,0.04880004,8,1
1584105381890,NaN,0.22373094,0.076416016,-0.7150879,0.67407227,1584105379840,1472940320990,0.04880004,8,1
1584105381893,NaN,0.1936707,0.076171875,-0.7285156,0.70166016,1584105379920,1472940320990,0.04880004,8,1
1584105381899,NaN,0.19256872,0.096191406,-0.71118164,0.6879883,1584105380000,1472940320990,0.04880004,8,1
1584105381903,NaN,0.16674341,0.10253906,-0.7092285,0.671875,1584105380080,1472940320990,0.04880004,8,1
1584105381908,NaN,0.14480811,0.08300781,-0.7036133,0.6994629,1584105380160,1472940320990,0.04880004,8,1
1584105381913,NaN,0.128968,0.072753906,-0.70874023,0.68310547,1584105380240,1472940320990,0.04880004,8,1
1584105381917,NaN,0.119994916,0.05810547,-0.70410156,0.69189453,1584105380320,1472940320990,0.04880004,8,1
1584105381922,NaN,0.09494668,0.071777344,-0.70410156,0.68603516,1584105380400,1472940320990,0.04880004,8,1
1584105381927,NaN,0.06716846,0.0769043,-0.69873047,0.6784668,1584105380480,1472940320990,0.04880004,8,1
1584105381931,NaN,0.031798456,0.08569336,-0.6999512,0.6677246,1584105380560,1472940320990,0.04880004,8,1
1584105381934,NaN,0.008099441,0.078125,-0.71875,0.69018555,1584105380640,1472940320990,0.04880004,8,1
1584105381939,NaN,-0.048753276,0.07910156,-0.717041,0.70214844,1584105380720,1472940320990,0.04880004,8,1
1584105381941,NaN,-0.0739437,0.07861328,-0.71069336,0.6867676,1584105380800,1472940320990,0.04880004,8,1
1584105381944,NaN,-0.07004505,0.08520508,-0.7175293,0.6809082,1584105380880,1472940320990,0.04880004,8,1
1584105381947,NaN,-0.077155255,0.08935547,-0.70825195,0.68310547,1584105380960,1472940320990,0.04880004,8,1
1584105381952,NaN,-0.06518003,0.079833984,-0.7241211,0.6826172,1584105381040,1472940320990,0.04880004,8,1
1584105381955,NaN,-0.045958113,0.08129883,-0.7089844,0.6816406,1584105381120,1472940320990,0.04880004,8,1
1584105381958,NaN,-0.033200774,0.09106445,-0.7233887,0.67626953,1584105381200,1472940320990,0.04880004,8,1
1584105381963,NaN,-0.0070086024,0.08251953,-0.7414551,0.6711426,1584105381280,1472940320990,0.04880004,8,1
1584105381964,NaN,0.023446938,0.0793457,-0.72753906,0.66748047,1584105381360,1472940320990,0.04880004,8,1
1584105381967,25.0,0.045143664,0.08496094,-0.7241211,0.6784668,1584105381440,1472940320990,0.04880004,8,1
1584105381970,NaN,0.05802175,0.08105469,-0.71191406,0.68066406,1584105381520,1472940320990,0.03426503,8,1
1584105381972,NaN,0.06692582,0.06323242,-0.72094727,0.6933594,1584105381600,1472940320990,0.03426503,8,1
1584105381975,NaN,0.09279004,0.059570312,-0.7084961,0.6984863,1584105381680,1472940320990,0.03426503,8,1
1584105381981,NaN,0.09503189,0.083740234,-0.70166016,0.6894531,1584105381760,1472940320990,0.03426503,8,1
1584105384442,NaN,0.08230922,0.08984375,-0.7104492,0.68896484,1584105381840,-4723731291294,0.03426503,8,1
1584105384448,NaN,0.06387633,0.07421875,-0.6906738,0.69970703,1584105381920,-4723731291294,0.03426503,8,1
1584105384456,NaN,0.03655756,0.08276367,-0.7072754,0.69750977,1584105382000,-4723731291294,0.03426503,8,1
1584105384461,NaN,0.018265648,0.072753906,-0.69970703,0.6845703,1584105382080,-4723731291294,0.03426503,8,1
1584105384464,NaN,-0.0035748358,0.078125,-0.69921875,0.68237305,1584105382160,-4723731291294,0.03426503,8,1
1584105384468,NaN,-0.057630908,0.08300781,-0.704834,0.6813965,1584105382240,-4723731291294,0.03426503,8,1
1584105384472,NaN,-0.10639805,0.084472656,-0.69018555,0.67456055,1584105382320,-4723731291294,0.03426503,8,1
1584105384477,NaN,-0.13147828,0.095214844,-0.7114258,0.6843262,1584105382400,-4723731291294,0.03426503,8,1
1584105384481,NaN,-0.1543449,0.091796875,-0.7089844,0.7128906,1584105382480,-4723731291294,0.03426503,8,1
1584105384485,NaN,-0.18270665,0.09057617,-0.69384766,0.70092773,1584105382560,-4723731291294,0.03426503,8,1
1584105384489,NaN,-0.20055015,0.1003418,-0.69677734,0.70092773,1584105382640,-4723731291294,0.03426503,8,1
1584105384492,NaN,-0.20396762,0.10449219,-0.6977539,0.69873047,1584105382720,-4723731291294,0.030251771,8,1
1584105384496,NaN,-0.21132863,0.09790039,-0.6953125,0.7006836,1584105382800,-4723731291294,0.030251771,8,1
1584105384499,NaN,-0.1976562,0.087890625,-0.6940918,0.7019043,1584105382880,-4723731291294,0.030251771,8,1
1584105384502,NaN,-0.18926601,0.09692383,-0.6899414,0.6923828,1584105382960,-4723731291294,0.030251771,8,1
1584105384505,NaN,-0.2024001,0.09008789,-0.6977539,0.7077637,1584105383040,-4723731291294,0.030251771,8,1
1584105384510,NaN,-0.20954394,0.09033203,-0.6870117,0.70336914,1584105383120,-4723731291294,0.030251771,8,1
1584105384513,NaN,-0.20332377,0.0871582,-0.6904297,0.70214844,1584105383200,-4723731291294,0.02887163,8,1
1584105384517,NaN,-0.18686618,0.088378906,-0.6989746,0.70092773,1584105383280,-4723731291294,0.02887163,8,1
1584105384519,NaN,-0.18384683,0.08691406,-0.7011719,0.6940918,1584105383360,-4723731291294,0.02887163,8,1
1584105384523,NaN,-0.16605794,0.08935547,-0.6936035,0.7055664,1584105383440,-4723731291294,0.02887163,8,1
1584105384527,NaN,-0.15099627,0.076416016,-0.6916504,0.7211914,1584105383520,-4723731291294,0.02887163,8,1
1584105384530,NaN,-0.14553595,0.096191406,-0.68188477,0.70410156,1584105383600,-4723731291294,0.02887163,8,1
1584105384533,NaN,-0.1386144,0.08251953,-0.69384766,0.7092285,1584105383680,-4723731291294,0.02887163,8,1
1584105384537,NaN,-0.12827946,0.08251953,-0.689209,0.71069336,1584105383760,-4723731291294,0.02887163,8,1
1584105384540,NaN,-0.12790902,0.07788086,-0.6875,0.7006836,1584105383840,-4723731291294,0.02887163,8,1
1584105384544,NaN,-0.12148536,0.078125,-0.6894531,0.7038574,1584105383920,-4723731291294,0.02887163,8,1
1584105384547,NaN,-0.10423291,0.07397461,-0.68774414,0.7026367,1584105384000,-4723731291294,0.02887163,8,1
1584105384550,NaN,-0.075756714,0.09057617,-0.6906738,0.6953125,1584105384080,-4723731291294,0.02887163,8,1
1584105384553,NaN,-0.044136878,0.076171875,-0.6948242,0.6906738,1584105384160,-4723731291294,0.02887163,8,1
1584105384556,NaN,-0.02488351,0.080322266,-0.6899414,0.6779785,1584105384240,-4723731291294,0.02887163,8,1
1584105384558,NaN,-0.012713754,0.0793457,-0.7109375,0.7019043,1584105384320,-4723731291294,0.03184702,8,1
1584105387025,NaN,-0.01813589,0.07861328,-0.68774414,0.7192383,1584105384400,7526622645106,0.03184702,8,1
1584105387030,NaN,-0.007903301,0.08105469,-0.6855469,0.71313477,1584105384480,7526622645106,0.03184702,8,1
1584105387039,NaN,0.004474417,0.088134766,-0.685791,0.70581055,1584105384560,7526622645106,0.03184702,8,1
1584105387041,NaN,0.010094193,0.096191406,-0.6940918,0.7043457,1584105384640,7526622645106,0.03184702,8,1
1584105387045,NaN,0.023622781,0.09643555,-0.6916504,0.69873047,1584105384720,7526622645106,0.03184702,8,1
1584105387049,17.857143,0.024549946,0.09399414,-0.69140625,0.7026367,1584105384800,7526622645106,0.03184702,8,1
1584105387055,NaN,0.023602186,0.09399414,-0.6855469,0.704834,1584105384880,7526622645106,0.03184702,8,1
1584105387059,NaN,0.021476926,0.08691406,-0.6904297,0.70751953,1584105384960,7526622645106,0.03184702,8,1
1584105387062,NaN,0.0050946274,0.083984375,-0.6845703,0.70703125,1584105385040,7526622645106,0.03184702,8,1
1584105387068,NaN,-0.016701763,0.08911133,-0.6916504,0.7036133,1584105385120,7526622645106,0.03184702,8,1
1584105387071,NaN,-0.042078685,0.083984375,-0.69189453,0.7080078,1584105385200,7526622645106,0.03184702,8,1
1584105387075,NaN,-0.055378813,0.09033203,-0.69433594,0.7001953,1584105385280,7526622645106,0.03184702,8,1
1584105387078,NaN,-0.054606702,0.080078125,-0.6821289,0.7290039,1584105385360,7526622645106,0.032925513,8,1
1584105387082,NaN,-0.04975744,0.078125,-0.6940918,0.7138672,1584105385440,7526622645106,0.032925513,8,1
1584105387085,NaN,-0.047879815,0.084472656,-0.6796875,0.69262695,1584105385520,7526622645106,0.032925513,8,1
1584105387088,NaN,-0.04913221,0.07299805,-0.6994629,0.7145996,1584105385600,7526622645106,0.032925513,8,1
1584105387091,NaN,-0.059049815,0.08886719,-0.6875,0.70092773,1584105385680,7526622645106,0.032925513,8,1
1584105387094,NaN,-0.054970548,0.09008789,-0.6899414,0.69555664,1584105385760,7526622645106,0.032925513,8,1
1584105387098,NaN,-0.036317628,0.080566406,-0.7001953,0.69677734,1584105385840,7526622645106,0.032925513,8,1
1584105387101,NaN,-0.021122143,0.08203125,-0.6862793,0.68237305,1584105385920,7526622645106,0.032925513,8,1
1584105387103,NaN,0.003164069,0.0703125,-0.6977539,0.69506836,1584105386000,7526622645106,0.032925513,8,1
1584105387106,NaN,0.032015007,0.0715332,-0.6904297,0.67163086,1584105386080,7526622645106,0.032925513,8,1
1584105387109,NaN,0.06242523,0.076416016,-0.7141113,0.7062988,1584105386160,7526622645106,0.042267364,8,1
1584105387112,NaN,0.07081311,0.08691406,-0.6989746,0.7084961,1584105386240,7526622645106,0.042267364,8,1
1584105387117,NaN,0.1049591,0.099365234,-0.6948242,0.70214844,1584105386320,7526622645106,0.042267364,8,1
1584105387119,NaN,0.12022569,0.12011719,-0.69873047,0.69140625,1584105386400,7526622645106,0.042267364,8,1
1584105387121,NaN,0.13837083,0.11401367,-0.70288086,0.68359375,1584105386480,7526622645106,0.042267364,8,1
1584105387125,NaN,0.16094708,0.103271484,-0.7084961,0.6923828,1584105386560,7526622645106,0.042267364,8,1
1584105387127,NaN,0.17609143,0.095458984,-0.701416,0.6958008,1584105386640,7526622645106,0.042267364,8,1
1584105387132,NaN,0.17973667,0.08569336,-0.6989746,0.6916504,1584105386720,7526622645106,0.042267364,8,1
1584105387136,NaN,0.1626106,0.09423828,-0.6984863,0.70288086,1584105386800,7526622645106,0.042267364,8,1
1584105387138,NaN,0.15270413,0.10473633,-0.69750977,0.6923828,1584105386880,7526622645106,0.042267364,8,1
1584105389610,NaN,0.12646797,0.07128906,-0.6821289,0.69921875,1584105386960,1330232507798,0.042267364,8,1
1584105389615,NaN,0.08820043,0.0793457,-0.70874023,0.7248535,1584105387040,1330232507798,0.042267364,8,1
1584105389622,NaN,0.117024384,0.09399414,-0.72387695,0.64624023,1584105387120,1330232507798,0.081386395,8,1
1584105389628,NaN,0.1981026,0.07543945,-0.7602539,0.63623047,1584105387200,1330232507798,0.081386395,8,1
1584105389633,NaN,0.23663478,0.087890625,-0.74780273,0.64746094,1584105387280,1330232507798,0.081386395,8,1
1584105389638,NaN,0.28485408,0.046142578,-0.7492676,0.6269531,1584105387360,1330232507798,0.081386395,8,1
1584105389644,NaN,0.26753297,-0.0126953125,-0.7023926,0.6870117,1584105387440,1330232507798,0.09626109,8,1
1584105389650,NaN,0.2965481,0.018554688,-0.75341797,0.6640625,1584105387520,1330232507798,0.09626109,8,1
1584105389654,NaN,0.35264644,0.043701172,-0.75341797,0.6430664,1584105387600,1330232507798,0.09626109,8,1
1584105389658,NaN,0.4301232,0.056884766,-0.77075195,0.62597656,1584105387680,1330232507798,0.09626109,8,1
1584105389661,NaN,0.523359,0.05908203,-0.7583008,0.61865234,1584105387760,1330232507798,0.09626109,8,1
1584105389665,NaN,0.6208981,0.09326172,-0.77001953,0.5986328,1584105387840,1330232507798,0.09626109,8,1
1584105389668,NaN,0.75401276,0.09692383,-0.77075195,0.5793457,1584105387920,1330232507798,0.09626109,8,1
1584105389672,NaN,0.94407326,0.14282227,-0.82910156,0.55444336,1584105388000,1330232507798,0.09626109,8,1
1584105389676,NaN,1.0481876,0.15966797,-0.8378906,0.5085449,1584105388080,1330232507798,0.09626109,8,1
1584105389679,NaN,1.141914,0.24926758,-0.82470703,0.4255371,1584105388160,1330232507798,0.12285029,8,1
1584105389683,NaN,1.3353257,0.2783203,-0.85058594,0.36035156,1584105388240,1330232507798,0.12285029,8,1
1584105389687,NaN,1.6713854,0.42578125,-0.9562988,0.25610352,1584105388320,1330232507798,0.20925486,8,1
1584105389691,NaN,2.1168602,0.29760742,-0.89038086,0.24438477,1584105388400,1330232507798,0.20925486,8,1
1584105389695,NaN,2.5393133,0.30786133,-0.97680664,0.21435547,1584105388480,1330232507798,0.20925486,8,1
1584105389698,NaN,2.918537,0.30541992,-0.93969727,0.20727539,1584105388560,1330232507798,0.20925486,8,1
1584105389701,NaN,3.302971,0.24267578,-0.9519043,0.13867188,1584105388640,1330232507798,0.20925486,8,1
1584105389704,NaN,3.681939,0.26782227,-0.95336914,0.14233398,1584105388720,1330232507798,0.20925486,8,1
1584105389707,NaN,4.034374,0.2692871,-0.9602051,0.12841797,1584105388800,1330232507798,0.20925486,8,1
1584105389710,NaN,4.3425083,0.27270508,-0.9633789,0.13183594,1584105388880,1330232507798,0.20925486,8,1
1584105389713,NaN,4.538607,0.27929688,-0.9453125,0.15454102,1584105388960,1330232507798,0.20925486,8,1
1584105389717,NaN,4.6925783,0.29736328,-0.9379883,0.18383789,1584105389040,1330232507798,0.20925486,8,1
1584105389720,NaN,4.703817,0.27246094,-0.9458008,0.21948242,1584105389120,1330232507798,0.20925486,8,1
1584105389725,NaN,4.53458,0.26293945,-0.92529297,0.25708008,1584105389200,1330232507798,0.20925486,8,1
1584105389731,NaN,4.0543923,0.23950195,-0.92871094,0.3005371,1584105389280,1330232507798,0.20925486,8,1
1584105389736,NaN,3.5335057,0.24560547,-0.89868164,0.32006836,1584105389360,1330232507798,0.20925486,8,1
1584105389740,NaN,2.9357662,0.24682617,-0.8811035,0.3395996,1584105389440,1330232507798,0.20925486,8,1
