local_ts,breathing_rate,breathing_signal,accel_x,accel_y,accel_z,bs_timestamp,rs_ts,activity_level,current_exercise,pred_exercise
1584450720410,NaN,0.011705835,-0.21142578,-0.95166016,0.17749023,1584450718010,-8600930331048,0.038027205,0,1
1584450720421,NaN,0.026410813,-0.21264648,-0.95043945,0.18701172,1584450718090,-8600930331048,0.038027205,0,1
1584450720424,NaN,0.04579879,-0.21484375,-0.95092773,0.18676758,1584450718170,-8600930331048,0.038027205,0,1
1584450720446,NaN,0.058623467,-0.21826172,-0.95703125,0.18261719,1584450718250,-8600930331048,0.038027205,0,1
1584450720451,NaN,0.066526435,-0.2133789,-0.95458984,0.17993164,1584450718330,-8600930331048,0.038027205,0,1
1584450720453,NaN,0.076390155,-0.22094727,-0.951416,0.19165039,1584450718410,-8600930331048,0.038027205,0,1
1584450720454,NaN,0.07766539,-0.2097168,-0.95458984,0.18432617,1584450718490,-8600930331048,0.038027205,0,1
1584450720456,NaN,0.05922714,-0.21264648,-0.95410156,0.20385742,1584450718570,-8600930331048,0.038027205,0,1
1584450720457,NaN,0.04420951,-0.21411133,-0.94799805,0.1875,1584450718650,-8600930331048,0.038027205,0,1
1584450720475,NaN,0.03901424,-0.2006836,-0.9436035,0.18359375,1584450718730,-8600930331048,0.038027205,0,1
1584450720476,NaN,0.035341162,-0.19555664,-0.9494629,0.18017578,1584450718810,-8600930331048,0.038027205,0,1
1584450720478,NaN,0.022487594,-0.19677734,-0.9445801,0.19116211,1584450718890,-8600930331048,0.038027205,0,1
1584450720479,NaN,0.0024296355,-0.18847656,-0.94091797,0.17895508,1584450718970,-8600930331048,0.038027205,0,1
1584450720480,NaN,-0.0059329704,-0.20898438,-0.95703125,0.18896484,1584450719050,-8600930331048,0.038027205,0,1
1584450720481,NaN,-0.0133029595,-0.21582031,-0.9526367,0.18017578,1584450719130,-8600930331048,0.038027205,0,1
1584450720483,NaN,-0.03361815,-0.22973633,-0.953125,0.1965332,1584450719210,-8600930331048,0.038027205,0,1
1584450720488,NaN,-0.05531804,-0.23461914,-0.94873047,0.19970703,1584450719290,-8600930331048,0.038027205,0,1
1584450720492,NaN,-0.06391072,-0.21850586,-0.9453125,0.20019531,1584450719370,-8600930331048,0.038027205,0,1
1584450720496,NaN,-0.08033898,-0.2211914,-0.9472656,0.19677734,1584450719450,-8600930331048,0.038027205,0,1
1584450720502,NaN,-0.08015897,-0.2368164,-0.95092773,0.2097168,1584450719530,-8600930331048,0.038027205,0,1
1584450720507,NaN,-0.08675143,-0.2211914,-0.9445801,0.1940918,1584450719610,-8600930331048,0.038027205,0,1
1584450720510,NaN,-0.09299654,-0.21606445,-0.94970703,0.1875,1584450719690,-8600930331048,0.038027205,0,1
1584450720513,NaN,-0.11415309,-0.22753906,-0.9470215,0.19140625,1584450719770,-8600930331048,0.038027205,0,1
1584450720517,NaN,-0.1195626,-0.22485352,-0.94555664,0.20336914,1584450719850,-8600930331048,0.027935704,0,1
1584450720521,NaN,-0.13496141,-0.23364258,-0.9511719,0.19677734,1584450719930,-8600930331048,0.027935704,0,1
1584450720524,NaN,-0.14415222,-0.2331543,-0.9484863,0.19213867,1584450720010,-8600930331048,0.027935704,0,1
1584450720526,NaN,-0.18142247,-0.23632812,-0.9460449,0.21264648,1584450720090,-8600930331048,0.027935704,0,1
1584450720529,NaN,-0.17932831,-0.22314453,-0.94873047,0.21142578,1584450720170,-8600930331048,0.027935704,0,1
1584450720532,NaN,-0.15181038,-0.22070312,-0.9501953,0.19580078,1584450720250,-8600930331048,0.027935704,0,1
1584450720538,NaN,-0.13155214,-0.21166992,-0.9465332,0.1862793,1584450720330,-8600930331048,0.027935704,0,1
1584450720539,NaN,-0.10661342,-0.20581055,-0.9484863,0.18798828,1584450720410,-8600930331048,0.027935704,0,1
1584450720541,NaN,-0.07207627,-0.20458984,-0.94873047,0.18920898,1584450720490,-8600930331048,0.027935704,0,1
1584450722971,NaN,-0.06314197,-0.20458984,-0.9477539,0.19897461,1584450720570,3649423605353,0.027935704,0,1
1584450722976,NaN,-0.057523694,-0.19384766,-0.93896484,0.19238281,1584450720650,3649423605353,0.027935704,0,1
1584450722982,NaN,-0.036823183,-0.19995117,-0.94555664,0.19726562,1584450720730,3649423605353,0.027935704,0,1
1584450722987,NaN,-0.011364759,-0.22363281,-0.9499512,0.19433594,1584450720810,3649423605353,0.027935704,0,1
1584450722992,NaN,0.009090342,-0.2290039,-0.95581055,0.2043457,1584450720890,3649423605353,0.027935704,0,1
1584450722994,21.428572,0.020841578,-0.22680664,-0.9494629,0.19335938,1584450720970,3649423605353,0.027935704,0,1
1584450722998,NaN,0.06877799,-0.2097168,-0.9501953,0.20263672,1584450721050,3649423605353,0.027935704,0,1
1584450723001,NaN,0.09417214,-0.21386719,-0.9519043,0.1965332,1584450721130,3649423605353,0.027935704,0,1
1584450723005,NaN,0.07839463,-0.23413086,-0.9543457,0.20288086,1584450721210,3649423605353,0.027935704,0,1
1584450723010,NaN,0.062283326,-0.20922852,-0.9382324,0.18945312,1584450721290,3649423605353,0.032558694,0,1
1584450723013,NaN,0.05673626,-0.22607422,-0.9536133,0.17211914,1584450721370,3649423605353,0.032558694,0,1
1584450723018,NaN,0.027211078,-0.29345703,-0.93969727,0.15356445,1584450721450,3649423605353,0.07126272,0,1
1584450723022,NaN,-0.05178219,-0.31396484,-0.9123535,0.23828125,1584450721530,3649423605353,0.09135199,0,1
1584450723026,NaN,-0.15171774,-0.35913086,-0.9003906,0.22070312,1584450721610,3649423605353,0.09135199,0,1
1584450723029,NaN,-0.22113752,-0.32836914,-0.9362793,0.20288086,1584450721690,3649423605353,0.09135199,0,1
1584450723033,NaN,-0.24992049,-0.26904297,-0.9301758,0.18432617,1584450721770,3649423605353,0.09135199,0,1
1584450723035,NaN,-0.30105183,-0.3088379,-0.93847656,0.22094727,1584450721850,3649423605353,0.09135199,0,1
1584450723038,NaN,-0.39490965,-0.3413086,-0.95654297,0.2548828,1584450721930,3649423605353,0.09135199,0,1
1584450723043,NaN,-0.54813725,-0.35229492,-0.8688965,0.27172852,1584450722010,3649423605353,0.09135199,0,1
1584450723046,NaN,-0.6982755,-0.33789062,-0.8876953,0.2866211,1584450722090,3649423605353,0.09135199,0,1
1584450723050,NaN,-0.8321524,-0.3083496,-0.8696289,0.33642578,1584450722170,3649423605353,0.09135199,0,1
1584450723054,NaN,-0.9814115,-0.3317871,-0.85913086,0.30126953,1584450722250,3649423605353,0.09135199,0,1
1584450723057,NaN,-1.1840782,-0.34570312,-0.86279297,0.3557129,1584450722330,3649423605353,0.09135199,0,1
1584450723060,NaN,-1.3462726,-0.33740234,-0.8413086,0.34716797,1584450722410,3649423605353,0.09135199,0,1
1584450723064,NaN,-1.3817886,-0.4248047,-0.8791504,0.31860352,1584450722490,3649423605353,0.09943389,0,1
1584450723067,NaN,-1.3769616,-0.39233398,-0.8520508,0.32983398,1584450722570,3649423605353,0.09943389,0,1
1584450723069,NaN,-1.4721375,-0.42041016,-0.83496094,0.34301758,1584450722650,3649423605353,0.09943389,0,1
1584450723072,NaN,-1.6615458,-0.43041992,-0.85961914,0.37036133,1584450722730,3649423605353,0.09943389,0,1
1584450723076,NaN,-1.7759752,-0.42211914,-0.8405762,0.3569336,1584450722810,3649423605353,0.09943389,0,1
1584450723078,NaN,-1.8324949,-0.4387207,-0.80200195,0.32373047,1584450722890,3649423605353,0.09943389,0,1
1584450723081,NaN,-1.7786978,-0.4416504,-0.8208008,0.30615234,1584450722970,3649423605353,0.09943389,0,1
1584450723084,NaN,-1.7185718,-0.42993164,-0.8574219,0.31811523,1584450723050,3649423605353,0.09943389,0,1
1584450725555,NaN,-1.6406454,-0.38378906,-0.85253906,0.37475586,1584450723130,-2547248006931,0.09943389,0,1
1584450725560,NaN,-1.5863789,-0.38842773,-0.8300781,0.41333008,1584450723210,-2547248006931,0.09943389,0,1
1584450725567,NaN,-1.4706193,-0.35961914,-0.80322266,0.44750977,1584450723290,-2547248006931,0.09943389,0,1
1584450725571,NaN,-1.3620571,-0.30566406,-0.8137207,0.46118164,1584450723370,-2547248006931,0.09943389,0,1
1584450725575,NaN,-1.2831372,-0.265625,-0.8400879,0.4663086,1584450723450,-2547248006931,0.09943389,0,1
1584450725578,NaN,-1.2051183,-0.24194336,-0.8574219,0.46313477,1584450723530,-2547248006931,0.09943389,0,1
1584450725582,NaN,-1.0453702,-0.2084961,-0.8312988,0.4650879,1584450723610,-2547248006931,0.09943389,0,1
1584450725586,NaN,-0.8390186,-0.18774414,-0.8388672,0.4777832,1584450723690,-2547248006931,0.09943389,0,1
1584450725590,NaN,-0.6251209,-0.12817383,-0.9140625,0.4489746,1584450723770,-2547248006931,0.100164324,0,1
1584450725594,NaN,-0.40140772,0.009765625,-0.9194336,0.3955078,1584450723850,-2547248006931,0.14803661,0,1
1584450725597,NaN,-0.3304164,-0.06689453,-0.8898926,0.40600586,1584450723930,-2547248006931,0.14803661,0,1
1584450725601,NaN,-0.28748778,-0.01586914,-0.9160156,0.3894043,1584450724010,-2547248006931,0.14803661,0,1
1584450725603,NaN,-0.27119958,0.020263672,-0.90185547,0.41235352,1584450724090,-2547248006931,0.14803661,0,1
1584450725607,NaN,-0.2895812,0.09814453,-0.82055664,0.43896484,1584450724170,-2547248006931,0.14803661,0,1
1584450725610,NaN,-0.33239117,0.13500977,-0.8544922,0.44506836,1584450724250,-2547248006931,0.14803661,0,1
1584450725614,NaN,-0.44326153,0.16455078,-0.85961914,0.47802734,1584450724330,-2547248006931,0.14803661,0,1
1584450725618,NaN,-0.5719394,0.14624023,-0.87109375,0.45532227,1584450724410,-2547248006931,0.14803661,0,1
1584450725620,NaN,-0.6037009,0.0017089844,-0.9658203,0.44189453,1584450724490,-2547248006931,0.17332833,0,1
1584450725624,NaN,-0.5969238,0.008056641,-0.90625,0.37475586,1584450724570,-2547248006931,0.17332833,0,1
1584450725627,NaN,-0.5752567,0.018798828,-0.8691406,0.36523438,1584450724650,-2547248006931,0.17332833,0,1
1584450725631,NaN,-0.62385434,0.09008789,-0.8989258,0.35766602,1584450724730,-2547248006931,0.17332833,0,1
1584450725634,NaN,-0.6872762,0.125,-0.95874023,0.35473633,1584450724810,-2547248006931,0.17332833,0,1
1584450725637,NaN,-0.6537451,0.1628418,-0.91918945,0.31713867,1584450724890,-2547248006931,0.17332833,0,1
1584450725640,NaN,-0.61138654,0.18261719,-0.8967285,0.31396484,1584450724970,-2547248006931,0.17332833,0,1
1584450725643,NaN,-0.47154233,0.19433594,-0.9260254,0.2524414,1584450725050,-2547248006931,0.17332833,0,1
1584450725648,NaN,-0.20605536,0.22705078,-0.9301758,0.2487793,1584450725130,-2547248006931,0.17332833,0,1
1584450725649,14.150944,0.105151,0.2541504,-0.91967773,0.1887207,1584450725210,-2547248006931,0.17332833,0,1
1584450725652,NaN,0.52552843,0.32080078,-0.9206543,0.140625,1584450725290,-2547248006931,0.17332833,0,1
1584450725656,NaN,0.96644074,0.3779297,-0.890625,0.08105469,1584450725370,-2547248006931,0.17332833,0,1
1584450725659,NaN,1.358297,0.4489746,-0.8820801,0.0031738281,1584450725450,-2547248006931,0.17332833,0,1
1584450725662,NaN,1.7798687,0.56396484,-0.91918945,-0.08105469,1584450725530,-2547248006931,0.17332833,0,1
1584450725666,NaN,2.3923876,0.67626953,-0.9711914,-0.2849121,1584450725610,-2547248006931,0.23848353,0,1
1584450728138,NaN,3.0197544,0.68725586,-0.8991699,-0.28979492,1584450725690,-8743638144240,0.23848353,0,1
1584450728145,NaN,3.6472418,0.6870117,-0.89282227,-0.31225586,1584450725770,-8743638144240,0.23848353,0,1
1584450728153,NaN,4.186356,0.6464844,-0.8984375,-0.27978516,1584450725850,-8743638144240,0.23848353,0,1
1584450728159,NaN,4.6851153,0.63500977,-0.88671875,-0.23657227,1584450725930,-8743638144240,0.23848353,0,1
1584450728163,NaN,5.0059776,0.5307617,-0.87841797,-0.20825195,1584450726010,-8743638144240,0.23848353,0,1
1584450728169,NaN,5.1969113,0.42504883,-0.8647461,-0.16259766,1584450726090,-8743638144240,0.23848353,0,1
1584450728174,NaN,5.2226405,0.3371582,-0.8618164,-0.08178711,1584450726170,-8743638144240,0.23848353,0,1
1584450728179,NaN,5.0405726,0.28710938,-0.8811035,0.038330078,1584450726250,-8743638144240,0.23848353,0,1
1584450728183,NaN,4.697183,0.23632812,-0.8874512,0.123291016,1584450726330,-8743638144240,0.23848353,0,1
1584450728186,NaN,4.159348,0.15771484,-0.83862305,0.18969727,1584450726410,-8743638144240,0.23848353,0,1
1584450728190,NaN,3.3689785,0.13232422,-0.8864746,0.27148438,1584450726490,-8743638144240,0.23848353,0,1
1584450728193,NaN,2.1057825,0.07373047,-0.8659668,0.35302734,1584450726570,-8743638144240,0.23848353,0,1
1584450728197,NaN,0.73353845,0.020263672,-0.86035156,0.39160156,1584450726650,-8743638144240,0.23848353,0,1
1584450728200,NaN,-0.7433441,0.032714844,-0.8100586,0.44335938,1584450726730,-8743638144240,0.23848353,0,1
1584450728202,NaN,-2.164897,-0.010253906,-0.8300781,0.45336914,1584450726810,-8743638144240,0.23848353,0,1
1584450728206,NaN,-3.5660353,-0.027832031,-0.84814453,0.5046387,1584450726890,-8743638144240,0.23848353,0,1
1584450728209,NaN,-4.7993617,-0.026611328,-0.84716797,0.50268555,1584450726970,-8743638144240,0.23848353,0,1
1584450728212,NaN,-5.8742995,-0.06298828,-0.84399414,0.4963379,1584450727050,-8743638144240,0.23848353,0,1
1584450728215,NaN,-6.710852,-0.067871094,-0.85717773,0.5090332,1584450727130,-8743638144240,0.23848353,0,1
1584450728218,NaN,-7.271921,-0.051513672,-0.85375977,0.50390625,1584450727210,-8743638144240,0.23848353,0,1
1584450728222,NaN,-7.6072826,-0.05102539,-0.8574219,0.50390625,1584450727290,-8743638144240,0.23848353,0,1
1584450728225,NaN,-7.7071605,-0.048339844,-0.85668945,0.50561523,1584450727370,-8743638144240,0.23848353,0,1
1584450728228,NaN,-7.5657353,-0.036132812,-0.8339844,0.4716797,1584450727450,-8743638144240,0.23848353,0,1
1584450728231,NaN,-7.081539,-0.032226562,-0.8208008,0.48632812,1584450727530,-8743638144240,0.23848353,0,1
1584450728233,NaN,-6.398693,-0.0068359375,-0.79541016,0.43847656,1584450727610,-8743638144240,0.23848353,0,1
1584450728237,NaN,-5.538527,0.021240234,-0.8083496,0.3984375,1584450727690,-8743638144240,0.23848353,0,1
1584450728240,NaN,-4.5867224,0.06640625,-0.81640625,0.35668945,1584450727770,-8743638144240,0.23848353,0,1
1584450728242,NaN,-3.4448583,0.11254883,-0.92749023,0.25976562,1584450727850,-8743638144240,0.23848353,0,1
1584450728245,NaN,-2.273195,0.22143555,-0.904541,0.17358398,1584450727930,-8743638144240,0.23848353,0,1
1584450728248,NaN,-1.0653543,0.2770996,-0.92578125,0.072509766,1584450728010,-8743638144240,0.23848353,0,1
1584450728251,NaN,0.15529585,0.34570312,-0.94750977,-0.026855469,1584450728090,-8743638144240,0.23848353,0,1
1584450728253,NaN,1.343445,0.4177246,-0.9326172,-0.119384766,1584450728170,-8743638144240,0.1544766,0,1
1584450730722,NaN,2.5535562,0.48388672,-0.95825195,-0.21386719,1584450728250,3506715792160,0.1544766,0,1
1584450730728,NaN,3.7000434,0.5180664,-0.8276367,-0.25390625,1584450728330,3506715792160,0.1544766,0,1
1584450730733,NaN,4.8113303,0.5344238,-0.8132324,-0.32373047,1584450728410,3506715792160,0.1544766,0,1
1584450730740,NaN,5.860005,0.5397949,-0.8239746,-0.33666992,1584450728490,3506715792160,0.1544766,0,1
1584450730746,NaN,6.800709,0.5756836,-0.74902344,-0.36450195,1584450728570,3506715792160,0.1544766,0,1
1584450730750,NaN,7.639927,0.6401367,-0.7507324,-0.40234375,1584450728650,3506715792160,0.1544766,0,1
1584450730756,NaN,8.318065,0.61865234,-0.76293945,-0.4074707,1584450728730,3506715792160,0.1544766,0,1
1584450730761,NaN,8.754154,0.626709,-0.7741699,-0.40527344,1584450728810,3506715792160,0.1544766,0,1
1584450730767,NaN,8.939601,0.5949707,-0.8190918,-0.41259766,1584450728890,3506715792160,0.1544766,0,1
1584450730771,NaN,8.859499,0.5612793,-0.8161621,-0.34350586,1584450728970,3506715792160,0.1544766,0,1
1584450730781,NaN,8.497208,0.5251465,-0.845459,-0.2541504,1584450729050,3506715792160,0.1544766,0,1
1584450730786,NaN,7.8393483,0.46166992,-0.90722656,-0.1418457,1584450729130,3506715792160,0.1544766,0,1
1584450730789,NaN,6.8827205,0.40405273,-0.9345703,0.0061035156,1584450729210,3506715792160,0.16110988,0,1
1584450730793,NaN,5.644034,0.29956055,-0.96606445,0.16967773,1584450729290,3506715792160,0.19663933,0,1
1584450730796,NaN,4.219829,0.2265625,-0.95751953,0.26831055,1584450729370,3506715792160,0.19663933,0,1
1584450730800,NaN,2.661802,0.13769531,-0.9326172,0.3803711,1584450729450,3506715792160,0.19663933,0,1
1584450730803,NaN,1.0085393,0.047851562,-0.8312988,0.42871094,1584450729530,3506715792160,0.19663933,0,1
1584450730807,NaN,-0.7308901,0.045654297,-0.8503418,0.43896484,1584450729610,3506715792160,0.19663933,0,1
1584450730812,NaN,-2.4334745,0.022216797,-0.85253906,0.47338867,1584450729690,3506715792160,0.19663933,0,1
1584450730814,NaN,-4.1089845,0.0031738281,-0.86328125,0.5161133,1584450729770,3506715792160,0.19663933,0,1
1584450730818,NaN,-5.6123104,0.0068359375,-0.8520508,0.5046387,1584450729850,3506715792160,0.19663933,0,1
1584450730821,NaN,-6.875206,0.015136719,-0.8479004,0.4868164,1584450729930,3506715792160,0.19663933,0,1
1584450730826,NaN,-7.8624587,0.036132812,-0.8388672,0.47070312,1584450730010,3506715792160,0.19663933,0,1
1584450730829,NaN,-8.550242,0.034179688,-0.8671875,0.4963379,1584450730090,3506715792160,0.19663933,0,1
1584450730831,NaN,-8.923522,0.037109375,-0.8652344,0.50219727,1584450730170,3506715792160,0.19663933,0,1
1584450730834,NaN,-8.895942,0.045410156,-0.86206055,0.49609375,1584450730250,3506715792160,0.19663933,0,1
1584450730837,NaN,-8.595578,0.059814453,-0.86279297,0.47070312,1584450730330,3506715792160,0.19663933,0,1
1584450730839,NaN,-8.053735,0.055908203,-0.85839844,0.46557617,1584450730410,3506715792160,0.19663933,0,1
1584450730846,NaN,-7.2631526,0.075683594,-0.87939453,0.45654297,1584450730490,3506715792160,0.19663933,0,1
1584450730848,NaN,-6.3753147,0.08178711,-0.86206055,0.45922852,1584450730570,3506715792160,0.19663933,0,1
1584450730851,NaN,-5.386074,0.10205078,-0.8774414,0.4597168,1584450730650,3506715792160,0.19663933,0,1
1584450730853,NaN,-4.3035135,0.109375,-0.8688965,0.453125,1584450730730,3506715792160,0.19663933,0,1
1584450733307,NaN,-3.1952283,0.1496582,-0.8730469,0.40039062,1584450730810,-2762013414162,0.19663933,0,1
1584450733313,NaN,-2.1709921,0.1730957,-0.8630371,0.3725586,1584450730890,-2762013414162,0.19663933,0,1
1584450733319,NaN,-1.2330674,0.19897461,-0.87841797,0.32177734,1584450730970,-2762013414162,0.19663933,0,1
1584450733325,NaN,-0.32044938,0.27172852,-0.89160156,0.28100586,1584450731050,-2762013414162,0.19663933,0,1
1584450733330,NaN,0.61459917,0.3935547,-0.94799805,0.16748047,1584450731130,-2762013414162,0.19663933,0,1
1584450733334,NaN,1.5328484,0.51342773,-0.9428711,0.030029297,1584450731210,-2762013414162,0.19663933,0,1
1584450733337,NaN,2.4838982,0.63500977,-0.9538574,-0.14404297,1584450731290,-2762013414162,0.21261242,0,1
1584450733340,NaN,3.3765762,0.65356445,-0.9199219,-0.2277832,1584450731370,-2762013414162,0.21261242,0,1
1584450733345,NaN,4.147164,0.6801758,-0.9362793,-0.24975586,1584450731450,-2762013414162,0.21261242,0,1
1584450733349,NaN,4.877192,0.65478516,-0.85375977,-0.21875,1584450731530,-2762013414162,0.21261242,0,1
1584450733353,NaN,5.540518,0.6359863,-0.83813477,-0.22680664,1584450731610,-2762013414162,0.21261242,0,1
1584450733357,NaN,6.0981946,0.5678711,-0.8376465,-0.20263672,1584450731690,-2762013414162,0.21261242,0,1
1584450733360,NaN,6.5037103,0.50390625,-0.8557129,-0.19067383,1584450731770,-2762013414162,0.21261242,0,1
1584450733363,NaN,6.803415,0.421875,-0.8520508,-0.15991211,1584450731850,-2762013414162,0.21261242,0,1
1584450733366,NaN,6.986832,0.39941406,-0.8703613,-0.12402344,1584450731930,-2762013414162,0.21261242,0,1
1584450733369,NaN,6.9685135,0.38671875,-0.8979492,-0.034423828,1584450732010,-2762013414162,0.21261242,0,1
1584450733373,NaN,6.61015,0.3293457,-0.9152832,0.0637207,1584450732090,-2762013414162,0.21261242,0,1
1584450733376,NaN,5.919941,0.24707031,-0.86816406,0.12719727,1584450732170,-2762013414162,0.21261242,0,1
1584450733379,NaN,4.8526077,0.20458984,-0.8540039,0.19213867,1584450732250,-2762013414162,0.21261242,0,1
1584450733383,NaN,3.5427744,0.16870117,-0.88671875,0.28125,1584450732330,-2762013414162,0.21261242,0,1
1584450733385,NaN,2.0823934,0.11645508,-0.89697266,0.37670898,1584450732410,-2762013414162,0.21261242,0,1
1584450733389,NaN,0.624631,0.0793457,-0.8898926,0.39648438,1584450732490,-2762013414162,0.21261242,0,1
1584450733393,NaN,-0.8697111,0.036865234,-0.8486328,0.42626953,1584450732570,-2762013414162,0.21261242,0,1
1584450733396,NaN,-2.2820053,0.02758789,-0.8378906,0.45214844,1584450732650,-2762013414162,0.21261242,0,1
1584450733399,NaN,-3.6052284,-0.011962891,-0.845459,0.49414062,1584450732730,-2762013414162,0.21261242,0,1
1584450733401,NaN,-4.787044,-0.030029297,-0.8444824,0.5119629,1584450732810,-2762013414162,0.21261242,0,1
1584450733404,NaN,-5.8347793,-0.04663086,-0.84106445,0.49487305,1584450732890,-2762013414162,0.21261242,0,1
1584450733407,NaN,-6.7094173,-0.046142578,-0.8405762,0.53515625,1584450732970,-2762013414162,0.21261242,0,1
1584450733409,NaN,-7.2954135,-0.060791016,-0.8249512,0.5185547,1584450733050,-2762013414162,0.21261242,0,1
1584450733412,NaN,-7.5886645,-0.057617188,-0.8305664,0.5251465,1584450733130,-2762013414162,0.21261242,0,1
1584450733415,NaN,-7.5887375,-0.055419922,-0.8359375,0.5344238,1584450733210,-2762013414162,0.21261242,0,1
1584450733418,NaN,-7.363873,-0.06225586,-0.826416,0.56396484,1584450733290,-2762013414162,0.21261242,0,1
1584450735691,NaN,-6.910471,-0.079589844,-0.8276367,0.54541016,1584450733370,-8958403551470,0.21261242,0,1
1584450735696,NaN,-6.3822474,-0.07080078,-0.81689453,0.54711914,1584450733450,-8958403551470,0.21261242,0,1
1584450735701,NaN,-5.7430077,-0.07006836,-0.814209,0.5476074,1584450733530,-8958403551470,0.21261242,0,1
1584450735708,NaN,-5.0856705,-0.06933594,-0.8249512,0.5419922,1584450733610,-8958403551470,0.21261242,0,1
1584450735711,NaN,-4.3783107,-0.06298828,-0.8015137,0.54174805,1584450733690,-8958403551470,0.21261242,0,1
1584450735715,NaN,-3.6790638,-0.049072266,-0.80908203,0.52197266,1584450733770,-8958403551470,0.21261242,0,1
1584450735719,NaN,-3.0052574,-0.029785156,-0.7961426,0.48876953,1584450733850,-8958403551470,0.11499775,0,1
1584450735722,NaN,-2.31586,-0.0031738281,-0.8054199,0.44433594,1584450733930,-8958403551470,0.11499775,0,1
1584450735725,NaN,-1.6830841,0.0048828125,-0.84643555,0.4099121,1584450734010,-8958403551470,0.11499775,0,1
1584450735728,NaN,-1.0679907,0.092285156,-0.8457031,0.3400879,1584450734090,-8958403551470,0.11499775,0,1
1584450735732,NaN,-0.4585732,0.14550781,-0.8251953,0.27075195,1584450734170,-8958403551470,0.11499775,0,1
1584450735735,NaN,0.24796337,0.20581055,-0.89208984,0.18066406,1584450734250,-8958403551470,0.12738574,0,1
1584450735739,NaN,0.9899361,0.30786133,-0.89575195,0.096191406,1584450734330,-8958403551470,0.132527,0,1
1584450735743,NaN,1.7996655,0.34765625,-0.97216797,0.018554688,1584450734410,-8958403551470,0.132527,0,1
1584450735747,NaN,2.6278343,0.41503906,-0.9355469,-0.034179688,1584450734490,-8958403551470,0.132527,0,1
1584450735751,NaN,3.496227,0.46899414,-0.9355469,-0.095214844,1584450734570,-8958403551470,0.132527,0,1
1584450735755,NaN,4.411447,0.548584,-0.9555664,-0.15332031,1584450734650,-8958403551470,0.132527,0,1
1584450735759,NaN,5.2990303,0.57592773,-0.9194336,-0.20507812,1584450734730,-8958403551470,0.132527,0,1
1584450735762,NaN,6.1483455,0.6171875,-0.8442383,-0.22729492,1584450734810,-8958403551470,0.132527,0,1
1584450735765,NaN,6.865597,0.5805664,-0.88061523,-0.2626953,1584450734890,-8958403551470,0.132527,0,1
1584450735769,NaN,7.4645057,0.6008301,-0.845459,-0.20776367,1584450734970,-8958403551470,0.132527,0,1
1584450735772,NaN,7.810468,0.6081543,-0.861084,-0.12988281,1584450735050,-8958403551470,0.132527,0,1
1584450735775,NaN,7.911999,0.55493164,-0.85058594,-0.031982422,1584450735130,-8958403551470,0.132527,0,1
1584450735779,NaN,7.70056,0.49609375,-0.89160156,0.06591797,1584450735210,-8958403551470,0.132527,0,1
1584450735782,NaN,7.1394925,0.43969727,-0.9304199,0.22509766,1584450735290,-8958403551470,0.17327897,0,1
1584450735785,NaN,6.3257256,0.35961914,-0.92578125,0.34570312,1584450735370,-8958403551470,0.17327897,0,1
1584450735788,NaN,5.3107705,0.26245117,-0.8935547,0.38549805,1584450735450,-8958403551470,0.17327897,0,1
1584450735790,NaN,4.1029234,0.1875,-0.8522949,0.42919922,1584450735530,-8958403551470,0.17327897,0,1
1584450735793,NaN,2.6864643,0.12133789,-0.8215332,0.45239258,1584450735610,-8958403551470,0.17327897,0,1
1584450735796,NaN,1.122357,0.09082031,-0.8640137,0.5019531,1584450735690,-8958403551470,0.17327897,0,1
1584450735799,NaN,-0.50585324,0.060058594,-0.8469238,0.5065918,1584450735770,-8958403551470,0.17327897,0,1
1584450735801,NaN,-2.1150634,0.012207031,-0.84375,0.5222168,1584450735850,-8958403551470,0.17327897,0,1
1584450738277,NaN,-3.620329,0.0063476562,-0.8251953,0.5095215,1584450735930,3291950384930,0.17327897,0,1
1584450738283,NaN,-4.9213014,0.0053710938,-0.8347168,0.5300293,1584450736010,3291950384930,0.17327897,0,1
1584450738290,NaN,-5.9501743,2.4414062E-4,-0.8273926,0.5373535,1584450736090,3291950384930,0.17327897,0,1
1584450738298,NaN,-6.7159085,0.0078125,-0.826416,0.55029297,1584450736170,3291950384930,0.17327897,0,1
1584450738299,NaN,-7.1242485,0.02368164,-0.8120117,0.54907227,1584450736250,3291950384930,0.17327897,0,1
1584450738304,NaN,-7.2640204,0.020019531,-0.8190918,0.54467773,1584450736330,3291950384930,0.17327897,0,1
1584450738308,NaN,-7.1776066,0.038330078,-0.8244629,0.5456543,1584450736410,3291950384930,0.17327897,0,1
1584450738313,NaN,-6.8950253,0.04663086,-0.81347656,0.5566406,1584450736490,3291950384930,0.17327897,0,1
1584450738318,NaN,-6.420208,0.04663086,-0.8173828,0.54907227,1584450736570,3291950384930,0.17327897,0,1
1584450738323,NaN,-5.7904763,0.04321289,-0.81884766,0.5656738,1584450736650,3291950384930,0.17327897,0,1
1584450738328,NaN,-4.9954886,0.099365234,-0.84350586,0.52490234,1584450736730,3291950384930,0.17327897,0,1
1584450738332,NaN,-4.0971837,0.110839844,-0.81274414,0.48535156,1584450736810,3291950384930,0.17327897,0,1
1584450738335,NaN,-3.1858432,0.12915039,-0.84106445,0.44726562,1584450736890,3291950384930,0.17327897,0,1
1584450738340,NaN,-2.280345,0.15625,-0.85961914,0.44311523,1584450736970,3291950384930,0.17327897,0,1
1584450738344,NaN,-1.3759111,0.19921875,-0.8688965,0.3413086,1584450737050,3291950384930,0.17327897,0,1
1584450738348,NaN,-0.45292178,0.2939453,-0.92211914,0.2788086,1584450737130,3291950384930,0.17327897,0,1
1584450738352,NaN,0.5540961,0.45385742,-1.0354004,0.111572266,1584450737210,3291950384930,0.25762865,0,1
1584450738355,NaN,1.6213154,0.5749512,-1.0539551,-0.07421875,1584450737290,3291950384930,0.25762865,0,1
1584450738358,NaN,2.6290176,0.5625,-0.9995117,-0.17944336,1584450737370,3291950384930,0.25762865,0,1
1584450738361,NaN,3.5652199,0.53222656,-0.9343262,-0.2133789,1584450737450,3291950384930,0.25762865,0,1
1584450738365,NaN,4.446411,0.5578613,-0.84350586,-0.22143555,1584450737530,3291950384930,0.25762865,0,1
1584450738368,NaN,5.294307,0.52734375,-0.84814453,-0.2084961,1584450737610,3291950384930,0.25762865,0,1
1584450738371,NaN,5.939066,0.4453125,-0.95458984,-0.20263672,1584450737690,3291950384930,0.25762865,0,1
1584450738374,NaN,6.4266224,0.41845703,-0.8857422,-0.13256836,1584450737770,3291950384930,0.25762865,0,1
1584450738378,NaN,6.784054,0.40307617,-0.9289551,-0.08911133,1584450737850,3291950384930,0.25762865,0,1
1584450738381,NaN,6.9958897,0.3474121,-0.9465332,0.0063476562,1584450737930,3291950384930,0.25762865,0,1
1584450738384,NaN,7.0111403,0.28198242,-0.84350586,0.02368164,1584450738010,3291950384930,0.25762865,0,1
1584450738386,NaN,6.788482,0.23339844,-0.85302734,0.087646484,1584450738090,3291950384930,0.25762865,0,1
1584450738389,NaN,6.127007,0.1694336,-0.8823242,0.16235352,1584450738170,3291950384930,0.25762865,0,1
1584450738392,NaN,5.024924,0.13769531,-0.9086914,0.2529297,1584450738250,3291950384930,0.25762865,0,1
1584450738395,NaN,3.7191124,0.1027832,-0.9230957,0.3166504,1584450738330,3291950384930,0.25762865,0,1
1584450738397,NaN,2.3174703,0.05908203,-0.88964844,0.36254883,1584450738410,3291950384930,0.25762865,0,1
1584450740859,NaN,0.82540417,0.014892578,-0.87158203,0.38012695,1584450738490,-2904721227354,0.25762865,0,1
1584450740863,NaN,-0.6822338,-0.010986328,-0.87280273,0.42382812,1584450738570,-2904721227354,0.25762865,0,1
1584450740868,NaN,-2.0414417,-0.016845703,-0.8635254,0.43359375,1584450738650,-2904721227354,0.25762865,0,1
1584450740872,NaN,-3.2440264,-0.021728516,-0.86865234,0.44604492,1584450738730,-2904721227354,0.25762865,0,1
1584450740877,NaN,-4.3300714,-0.025146484,-0.8828125,0.45996094,1584450738810,-2904721227354,0.25762865,0,1
1584450740882,NaN,-5.196858,0.006591797,-0.86572266,0.47045898,1584450738890,-2904721227354,0.25762865,0,1
1584450740886,NaN,-5.883684,0.0034179688,-0.8737793,0.46826172,1584450738970,-2904721227354,0.25762865,0,1
1584450740891,NaN,-6.368798,0.0061035156,-0.8713379,0.4753418,1584450739050,-2904721227354,0.25762865,0,1
1584450740901,NaN,-6.549526,0.0,-0.8708496,0.47753906,1584450739130,-2904721227354,0.25762865,0,1
1584450740903,NaN,-6.40039,-0.0012207031,-0.86499023,0.47558594,1584450739210,-2904721227354,0.25762865,0,1
1584450740904,NaN,-6.0483346,-0.01586914,-0.8625488,0.48901367,1584450739290,-2904721227354,0.25762865,0,1
1584450740905,NaN,-5.539045,-0.015380859,-0.8642578,0.48364258,1584450739370,-2904721227354,0.25762865,0,1
1584450740909,NaN,-4.915117,-0.014160156,-0.859375,0.49194336,1584450739450,-2904721227354,0.25762865,0,1
1584450740912,NaN,-4.2224073,-0.0107421875,-0.8569336,0.4921875,1584450739530,-2904721227354,0.25762865,0,1
1584450740915,NaN,-3.5517395,-0.020263672,-0.8588867,0.4868164,1584450739610,-2904721227354,0.25762865,0,1
1584450740919,NaN,-2.9285228,-0.013916016,-0.8544922,0.49487305,1584450739690,-2904721227354,0.25762865,0,1
1584450740923,NaN,-2.3321502,-0.024414062,-0.857666,0.49072266,1584450739770,-2904721227354,0.222545,0,1
1584450740926,NaN,-1.8330897,-0.020263672,-0.83935547,0.4567871,1584450739850,-2904721227354,0.13451417,0,1
1584450740929,NaN,-1.3909322,0.0036621094,-0.8232422,0.4309082,1584450739930,-2904721227354,0.13451417,0,1
1584450740933,NaN,-0.98545474,0.035888672,-0.83203125,0.40795898,1584450740010,-2904721227354,0.13451417,0,1
1584450740935,NaN,-0.59768444,0.06567383,-0.8466797,0.3503418,1584450740090,-2904721227354,0.13451417,0,1
1584450740938,NaN,-0.18945117,0.15112305,-0.86450195,0.29711914,1584450740170,-2904721227354,0.13451417,0,1
1584450740942,NaN,0.26684144,0.19921875,-0.8811035,0.24121094,1584450740250,-2904721227354,0.12327264,0,1
1584450740945,NaN,0.7327214,0.2529297,-0.90893555,0.1821289,1584450740330,-2904721227354,0.12327264,0,1
1584450740949,NaN,1.2668363,0.3413086,-0.93408203,0.12402344,1584450740410,-2904721227354,0.12327264,0,1
1584450740952,NaN,1.8575083,0.41186523,-0.91186523,0.035888672,1584450740490,-2904721227354,0.12327264,0,1
1584450740955,NaN,2.5103242,0.44799805,-0.95336914,-0.021972656,1584450740570,-2904721227354,0.115063295,0,1
1584450740958,NaN,3.257577,0.5046387,-0.96313477,-0.118652344,1584450740650,-2904721227354,0.115063295,0,1
1584450740961,NaN,4.0536375,0.5390625,-0.9226074,-0.17211914,1584450740730,-2904721227354,0.115063295,0,1
1584450740964,NaN,4.8754387,0.57788086,-0.8676758,-0.24145508,1584450740810,-2904721227354,0.115063295,0,1
1584450740968,NaN,5.649812,0.57250977,-0.80615234,-0.26416016,1584450740890,-2904721227354,0.115063295,0,1
1584450740971,NaN,6.3602595,0.60668945,-0.7919922,-0.26757812,1584450740970,-2904721227354,0.115063295,0,1
1584450743639,NaN,6.946401,0.59277344,-0.7685547,-0.2783203,1584450741050,-9101111364662,0.115063295,0,1
1584450743645,NaN,7.360148,0.6088867,-0.751709,-0.26367188,1584450741130,-9101111364662,0.115063295,0,1
1584450743651,NaN,7.625976,0.60253906,-0.76586914,-0.2788086,1584450741210,-9101111364662,0.115063295,0,1
1584450743657,NaN,7.7459455,0.58935547,-0.80981445,-0.29467773,1584450741290,-9101111364662,0.115063295,0,1
1584450743661,NaN,7.648355,0.59350586,-0.84033203,-0.23999023,1584450741370,-9101111364662,0.115063295,0,1
1584450743666,NaN,7.308888,0.52563477,-0.9003906,-0.22583008,1584450741450,-9101111364662,0.115063295,0,1
1584450743670,NaN,6.759009,0.4970703,-0.93530273,-0.09765625,1584450741530,-9101111364662,0.13587977,0,1
1584450743674,NaN,5.952334,0.44628906,-0.9536133,-0.0056152344,1584450741610,-9101111364662,0.13587977,0,1
1584450743678,NaN,4.92777,0.32495117,-0.9658203,0.08984375,1584450741690,-9101111364662,0.15486869,0,1
1584450743681,NaN,3.7321997,0.27612305,-0.93237305,0.1616211,1584450741770,-9101111364662,0.15486869,0,1
1584450743685,NaN,2.4482965,0.21069336,-0.92333984,0.23608398,1584450741850,-9101111364662,0.15486869,0,1
1584450743689,NaN,1.0786821,0.17285156,-0.8972168,0.34155273,1584450741930,-9101111364662,0.15486869,0,1
1584450743692,NaN,-0.3514011,0.11376953,-0.8869629,0.4543457,1584450742010,-9101111364662,0.15486869,0,1
1584450743697,NaN,-1.7650112,0.056396484,-0.842041,0.5046387,1584450742090,-9101111364662,0.15486869,0,1
1584450743698,NaN,-3.1766207,0.035888672,-0.8215332,0.5527344,1584450742170,-9101111364662,0.15486869,0,1
1584450743705,NaN,-4.5480785,0.0068359375,-0.8078613,0.56396484,1584450742250,-9101111364662,0.15486869,0,1
1584450743709,NaN,-5.800894,-0.028808594,-0.7927246,0.5776367,1584450742330,-9101111364662,0.15486869,0,1
1584450743712,NaN,-6.871668,-0.02758789,-0.80444336,0.5932617,1584450742410,-9101111364662,0.15486869,0,1
1584450743715,NaN,-7.7195125,-0.053710938,-0.78271484,0.592041,1584450742490,-9101111364662,0.15486869,0,1
1584450743719,NaN,-8.320762,-0.044921875,-0.76123047,0.58813477,1584450742570,-9101111364662,0.15486869,0,1
1584450743723,NaN,-8.622479,-0.03173828,-0.7609863,0.58935547,1584450742650,-9101111364662,0.15486869,0,1
1584450743726,NaN,-8.709521,-0.030029297,-0.7487793,0.5925293,1584450742730,-9101111364662,0.15486869,0,1
1584450743730,NaN,-8.6008415,-0.057617188,-0.81274414,0.6147461,1584450742810,-9101111364662,0.15486869,0,1
1584450743732,NaN,-8.263991,-0.021484375,-0.79418945,0.59643555,1584450742890,-9101111364662,0.15486869,0,1
1584450743735,NaN,-7.693422,-0.0014648438,-0.78393555,0.58813477,1584450742970,-9101111364662,0.15486869,0,1
1584450743738,NaN,-6.9734187,0.0078125,-0.79052734,0.5913086,1584450743050,-9101111364662,0.15486869,0,1
1584450743741,NaN,-6.122315,0.021484375,-0.81347656,0.5720215,1584450743130,-9101111364662,0.15486869,0,1
1584450743744,NaN,-5.181336,0.039794922,-0.82592773,0.5395508,1584450743210,-9101111364662,0.15486869,0,1
1584450743747,NaN,-4.175501,0.080322266,-0.82788086,0.5131836,1584450743290,-9101111364662,0.15486869,0,1
1584450743750,NaN,-3.129039,0.13964844,-0.857666,0.45629883,1584450743370,-9101111364662,0.15486869,0,1
1584450743752,NaN,-2.083365,0.18579102,-0.8696289,0.3984375,1584450743450,-9101111364662,0.15486869,0,1
1584450743755,NaN,-1.0405391,0.20581055,-0.8898926,0.27661133,1584450743530,-9101111364662,0.15486869,0,1
1584450746028,NaN,-0.049003363,0.2800293,-0.89453125,0.20336914,1584450743610,3149242571738,0.15486869,0,1
1584450746034,NaN,1.010702,0.3930664,-0.9003906,0.08325195,1584450743690,3149242571738,0.16504502,0,1
1584450746040,NaN,2.204879,0.5163574,-0.9550781,-0.0925293,1584450743770,3149242571738,0.22156364,0,1
1584450746048,NaN,3.446512,0.6105957,-0.97021484,-0.28393555,1584450743850,3149242571738,0.22156364,0,1
1584450746050,NaN,4.622533,0.6779785,-0.9140625,-0.32055664,1584450743930,3149242571738,0.22156364,0,1
1584450746053,NaN,5.709375,0.6904297,-0.8474121,-0.3173828,1584450744010,3149242571738,0.22156364,0,1
1584450746058,NaN,6.635517,0.63842773,-0.81469727,-0.27246094,1584450744090,3149242571738,0.22156364,0,1
1584450746062,NaN,7.4404855,0.64282227,-0.8156738,-0.2553711,1584450744170,3149242571738,0.22156364,0,1
1584450746066,NaN,8.109364,0.62158203,-0.7866211,-0.2553711,1584450744250,3149242571738,0.22156364,0,1
1584450746069,NaN,8.548898,0.5209961,-0.8383789,-0.2277832,1584450744330,3149242571738,0.22156364,0,1
1584450746075,NaN,8.766576,0.50268555,-0.87475586,-0.15698242,1584450744410,3149242571738,0.22156364,0,1
1584450746078,NaN,8.770235,0.44311523,-0.84814453,-0.12719727,1584450744490,3149242571738,0.22156364,0,1
1584450746082,NaN,8.5684805,0.40063477,-0.8708496,-0.0871582,1584450744570,3149242571738,0.22156364,0,1
1584450746086,NaN,8.02624,0.33129883,-0.9003906,-0.009521484,1584450744650,3149242571738,0.22156364,0,1
1584450746089,NaN,7.1109734,0.2998047,-0.88378906,0.020507812,1584450744730,3149242571738,0.22156364,0,1
1584450746093,NaN,5.7740536,0.25610352,-0.93603516,0.12036133,1584450744810,3149242571738,0.22156364,0,1
1584450746097,NaN,4.267767,0.20605469,-0.88671875,0.17578125,1584450744890,3149242571738,0.22156364,0,1
1584450746100,NaN,2.6725829,0.18115234,-0.89453125,0.2290039,1584450744970,3149242571738,0.22156364,0,1
1584450746102,NaN,1.1212536,0.15307617,-0.8984375,0.30932617,1584450745050,3149242571738,0.22156364,0,1
1584450746107,NaN,-0.40714502,0.12817383,-0.90356445,0.34057617,1584450745130,3149242571738,0.22156364,0,1
1584450746110,NaN,-1.9258441,0.09277344,-0.8996582,0.39160156,1584450745210,3149242571738,0.22156364,0,1
1584450746114,NaN,-3.2362626,0.08227539,-0.8913574,0.40722656,1584450745290,3149242571738,0.22156364,0,1
1584450746116,NaN,-4.3796525,0.060302734,-0.8527832,0.4362793,1584450745370,3149242571738,0.22156364,0,1
1584450746119,NaN,-5.364266,0.03173828,-0.8725586,0.4477539,1584450745450,3149242571738,0.22156364,0,1
1584450746123,NaN,-6.1993637,0.009277344,-0.86987305,0.47460938,1584450745530,3149242571738,0.22156364,0,1
1584450746126,NaN,-6.7443066,0.016357422,-0.857666,0.47558594,1584450745610,3149242571738,0.22156364,0,1
1584450746128,NaN,-7.1043477,0.0024414062,-0.84887695,0.49243164,1584450745690,3149242571738,0.22156364,0,1
1584450746131,NaN,-7.123758,-0.011230469,-0.8635254,0.48779297,1584450745770,3149242571738,0.22156364,0,1
1584450746135,NaN,-6.935719,-0.0087890625,-0.85498047,0.4814453,1584450745850,3149242571738,0.22156364,0,1
1584450746137,NaN,-6.6156125,-0.01586914,-0.85839844,0.49804688,1584450745930,3149242571738,0.22156364,0,1
1584450746141,NaN,-6.192879,-0.020751953,-0.857666,0.50756836,1584450746010,3149242571738,0.22156364,0,1
1584450746144,NaN,-5.699822,-0.030761719,-0.8713379,0.5070801,1584450746090,3149242571738,0.22156364,0,1
1584450748610,NaN,-5.1080694,-0.04248047,-0.85302734,0.50219727,1584450746170,-3047429040546,0.22156364,0,1
1584450748617,NaN,-4.5685945,-0.045410156,-0.83862305,0.515625,1584450746250,-3047429040546,0.22156364,0,1
1584450748624,NaN,-4.0260186,-0.048095703,-0.83569336,0.5270996,1584450746330,-3047429040546,0.2138839,0,1
1584450748627,NaN,-3.4920623,-0.033691406,-0.8359375,0.5280762,1584450746410,-3047429040546,0.12087254,0,1
1584450748634,NaN,-2.9669278,-0.048095703,-0.8413086,0.53686523,1584450746490,-3047429040546,0.12087254,0,1
1584450748637,NaN,-2.5296278,-0.041992188,-0.85058594,0.5354004,1584450746570,-3047429040546,0.12087254,0,1
1584450748640,NaN,-2.0964952,-0.029785156,-0.82543945,0.5266113,1584450746650,-3047429040546,0.12087254,0,1
1584450748644,NaN,-1.742859,-0.031982422,-0.81274414,0.51123047,1584450746730,-3047429040546,0.12087254,0,1
1584450748648,NaN,-1.4750589,-0.032958984,-0.80688477,0.51220703,1584450746810,-3047429040546,0.12087254,0,1
1584450748653,NaN,-1.2337729,-0.053710938,-0.8244629,0.5083008,1584450746890,-3047429040546,0.12087254,0,1
1584450748657,NaN,-1.028162,-0.030273438,-0.8208008,0.50634766,1584450746970,-3047429040546,0.12087254,0,1
1584450748661,NaN,-0.80950934,-0.0017089844,-0.8251953,0.45776367,1584450747050,-3047429040546,0.12087254,0,1
1584450748665,NaN,-0.57876545,0.021972656,-0.8210449,0.40063477,1584450747130,-3047429040546,0.12087254,0,1
1584450748668,NaN,-0.25832334,0.09423828,-0.8203125,0.33276367,1584450747210,-3047429040546,0.12087254,0,1
1584450748671,NaN,0.12580594,0.15283203,-0.88256836,0.28173828,1584450747290,-3047429040546,0.12087254,0,1
1584450748675,NaN,0.5617723,0.21875,-0.8540039,0.19750977,1584450747370,-3047429040546,0.11070479,0,1
1584450748679,NaN,1.1187787,0.31152344,-0.92089844,0.12402344,1584450747450,-3047429040546,0.13594863,0,1
1584450748683,NaN,1.6716474,0.30688477,-0.87231445,0.09790039,1584450747530,-3047429040546,0.13594863,0,1
1584450748687,NaN,2.3531227,0.45410156,-0.9379883,0.022460938,1584450747610,-3047429040546,0.17798018,0,1
1584450748691,NaN,3.0760834,0.51660156,-0.9345703,4.8828125E-4,1584450747690,-3047429040546,0.17798018,0,1
1584450748694,NaN,3.8553836,0.545166,-0.939209,-0.055908203,1584450747770,-3047429040546,0.17798018,0,1
1584450748697,NaN,4.7017136,0.6369629,-0.91064453,-0.10253906,1584450747850,-3047429040546,0.17798018,0,1
1584450748700,NaN,5.5431314,0.6972656,-0.91503906,-0.13134766,1584450747930,-3047429040546,0.17798018,0,1
1584450748704,NaN,6.2251296,0.6567383,-0.90600586,-0.10644531,1584450748010,-3047429040546,0.17798018,0,1
1584450748707,NaN,6.6972904,0.5842285,-0.86621094,-0.03540039,1584450748090,-3047429040546,0.17798018,0,1
1584450748710,NaN,6.8732853,0.5085449,-0.86157227,0.07299805,1584450748170,-3047429040546,0.17798018,0,1
1584450748713,NaN,6.773857,0.41455078,-0.9416504,0.17504883,1584450748250,-3047429040546,0.17798018,0,1
1584450748715,NaN,6.3761272,0.34716797,-1.0649414,0.29492188,1584450748330,-3047429040546,0.18469073,0,1
1584450748719,NaN,5.678009,0.17480469,-0.91064453,0.3725586,1584450748410,-3047429040546,0.24401657,0,1
1584450748723,NaN,4.9326477,0.10864258,-0.83935547,0.37451172,1584450748490,-3047429040546,0.24401657,0,1
1584450748725,NaN,3.8972518,0.109375,-0.8352051,0.4189453,1584450748570,-3047429040546,0.24401657,0,1
1584450748728,NaN,2.7041547,0.060791016,-0.8713379,0.46240234,1584450748650,-3047429040546,0.24401657,0,1
1584450751393,NaN,1.3285128,0.016845703,-0.8469238,0.52734375,1584450748730,9202924895854,0.24401657,0,1
1584450751401,NaN,-0.23056205,0.008300781,-0.81640625,0.53686523,1584450748810,9202924895854,0.24401657,0,1
1584450751407,NaN,-1.9021775,-0.016845703,-0.79907227,0.5578613,1584450748890,9202924895854,0.24401657,0,1
1584450751413,NaN,-3.443924,-0.025390625,-0.7907715,0.5720215,1584450748970,9202924895854,0.24401657,0,1
1584450751417,NaN,-4.7346153,-0.034423828,-0.8041992,0.56762695,1584450749050,9202924895854,0.24401657,0,1
1584450751421,NaN,-5.6890244,-0.009277344,-0.7861328,0.56274414,1584450749130,9202924895854,0.24401657,0,1
1584450751426,NaN,-6.3404946,0.026611328,-0.798584,0.5620117,1584450749210,9202924895854,0.24401657,0,1
1584450751430,NaN,-6.686051,0.037841797,-0.8203125,0.5612793,1584450749290,9202924895854,0.24401657,0,1
1584450751435,NaN,-6.6617284,0.052001953,-0.82006836,0.5397949,1584450749370,9202924895854,0.24401657,0,1
1584450751439,NaN,-6.5237927,0.055664062,-0.8249512,0.53344727,1584450749450,9202924895854,0.24401657,0,1
1584450751443,NaN,-6.189553,0.08959961,-0.8432617,0.5222168,1584450749530,9202924895854,0.24401657,0,1
1584450751447,NaN,-5.6751785,0.099121094,-0.82788086,0.47094727,1584450749610,9202924895854,0.24401657,0,1
1584450751450,NaN,-4.90461,0.13574219,-0.86450195,0.42700195,1584450749690,9202924895854,0.24401657,0,1
1584450751453,NaN,-3.9227238,0.21972656,-0.8742676,0.3696289,1584450749770,9202924895854,0.24401657,0,1
1584450751458,NaN,-2.7378986,0.26220703,-0.8664551,0.27905273,1584450749850,9202924895854,0.24401657,0,1
1584450751466,NaN,-1.3686899,0.40625,-1.0014648,0.1730957,1584450749930,9202924895854,0.24401657,0,1
1584450751467,NaN,0.15133786,0.62524414,-1.0344238,-0.0234375,1584450750010,9202924895854,0.29609126,0,1
1584450751472,NaN,1.5946445,0.68359375,-0.9831543,-0.10913086,1584450750090,9202924895854,0.29609126,0,1
1584450751475,NaN,2.8775356,0.6477051,-0.94799805,-0.13476562,1584450750170,9202924895854,0.29609126,0,1
1584450751479,NaN,4.0062237,0.5866699,-0.9375,-0.1027832,1584450750250,9202924895854,0.29609126,0,1
1584450751481,NaN,4.9257536,0.51538086,-0.9094238,-0.20385742,1584450750330,9202924895854,0.29609126,0,1
1584450751484,NaN,5.7211614,0.44482422,-0.8613281,-0.1928711,1584450750410,9202924895854,0.29609126,0,1
1584450751487,NaN,6.395174,0.4091797,-0.8613281,-0.16625977,1584450750490,9202924895854,0.29609126,0,1
1584450751491,NaN,6.918772,0.40039062,-0.84399414,-0.1184082,1584450750570,9202924895854,0.29609126,0,1
1584450751494,NaN,7.159989,0.34570312,-0.8937988,-0.0024414062,1584450750650,9202924895854,0.29609126,0,1
1584450751496,NaN,7.1448903,0.26635742,-0.91259766,0.060546875,1584450750730,9202924895854,0.29609126,0,1
1584450751500,NaN,6.884835,0.2368164,-0.8852539,0.1418457,1584450750810,9202924895854,0.29609126,0,1
1584450751502,NaN,6.2634664,0.1887207,-0.8757324,0.21728516,1584450750890,9202924895854,0.29609126,0,1
1584450751505,NaN,5.1034718,0.13745117,-0.8989258,0.27954102,1584450750970,9202924895854,0.29609126,0,1
1584450751508,NaN,3.7222774,0.1081543,-0.8659668,0.33276367,1584450751050,9202924895854,0.29609126,0,1
1584450751511,NaN,2.3001013,0.08300781,-0.87939453,0.37036133,1584450751130,9202924895854,0.29609126,0,1
1584450751514,NaN,0.93489677,0.055908203,-0.87841797,0.41088867,1584450751210,9202924895854,0.29609126,0,1
1584450753779,NaN,-0.5157086,0.025146484,-0.88183594,0.43408203,1584450751290,3006534758546,0.29609126,0,1
1584450753785,NaN,-1.8863474,0.02758789,-0.87353516,0.45947266,1584450751370,3006534758546,0.29609126,0,1
1584450753789,NaN,-3.173505,-0.0036621094,-0.86987305,0.4729004,1584450751450,3006534758546,0.29609126,0,1
1584450753796,NaN,-4.340908,-0.012451172,-0.8520508,0.48706055,1584450751530,3006534758546,0.29609126,0,1
1584450753802,NaN,-5.2571893,-0.028808594,-0.85058594,0.50024414,1584450751610,3006534758546,0.29609126,0,1
1584450753807,NaN,-5.955151,-0.05078125,-0.8376465,0.5148926,1584450751690,3006534758546,0.29609126,0,1
1584450753811,NaN,-6.4389496,-0.03881836,-0.8227539,0.5280762,1584450751770,3006534758546,0.29609126,0,1
1584450753815,NaN,-6.6665416,-0.032958984,-0.8366699,0.5180664,1584450751850,3006534758546,0.29609126,0,1
1584450753818,NaN,-6.5677266,-0.060302734,-0.82714844,0.5366211,1584450751930,3006534758546,0.29609126,0,1
1584450753822,NaN,-6.249626,-0.07104492,-0.82958984,0.5344238,1584450752010,3006534758546,0.29609126,0,1
1584450753826,NaN,-5.8128085,-0.068847656,-0.8322754,0.5234375,1584450752090,3006534758546,0.29609126,0,1
1584450753830,NaN,-5.353869,-0.11645508,-0.81518555,0.5197754,1584450752170,3006534758546,0.29609126,0,1
1584450753835,NaN,-4.8039556,-0.15551758,-0.82836914,0.5332031,1584450752250,3006534758546,0.29609126,0,1
1584450753840,NaN,-4.2698135,-0.17578125,-0.8261719,0.5180664,1584450752330,3006534758546,0.29609126,0,1
1584450753844,NaN,-3.7296846,-0.1730957,-0.8210449,0.51782227,1584450752410,3006534758546,0.29609126,0,1
1584450753849,NaN,-3.1923294,-0.17236328,-0.8339844,0.49975586,1584450752490,3006534758546,0.29609126,0,1
1584450753854,NaN,-2.7414439,-0.1940918,-0.8354492,0.4951172,1584450752570,3006534758546,0.13754827,0,1
1584450753858,NaN,-2.3040926,-0.1640625,-0.8366699,0.4753418,1584450752650,3006534758546,0.13754827,0,1
1584450753861,NaN,-1.9269633,-0.171875,-0.8588867,0.46533203,1584450752730,3006534758546,0.13754827,0,1
1584450753865,NaN,-1.6299254,-0.15991211,-0.87475586,0.43725586,1584450752810,3006534758546,0.13754827,0,1
1584450753869,NaN,-1.3131403,-0.1315918,-0.8828125,0.42504883,1584450752890,3006534758546,0.13754827,0,1
1584450753871,NaN,-1.0402844,-0.12060547,-0.89160156,0.43017578,1584450752970,3006534758546,0.13754827,0,1
1584450753874,NaN,-0.77184373,-0.07519531,-0.88793945,0.38989258,1584450753050,3006534758546,0.13754827,0,1
1584450753879,NaN,-0.46326482,-0.06591797,-0.93115234,0.39916992,1584450753130,3006534758546,0.13754827,0,1
1584450753882,NaN,-0.10932747,-0.03100586,-0.89453125,0.36010742,1584450753210,3006534758546,0.10303718,0,1
1584450753885,NaN,0.27086276,0.0126953125,-0.8720703,0.3322754,1584450753290,3006534758546,0.09071853,0,1
1584450753888,NaN,0.63030833,0.02734375,-0.8613281,0.33691406,1584450753370,3006534758546,0.089972034,0,1
1584450753892,NaN,1.0156716,0.09667969,-0.8430176,0.27026367,1584450753450,3006534758546,0.09790313,0,1
1584450753896,NaN,1.4603177,0.15039062,-0.8791504,0.25268555,1584450753530,3006534758546,0.09790313,0,1
1584450753901,NaN,1.9331245,0.23144531,-0.93603516,0.1796875,1584450753610,3006534758546,0.12302217,0,1
1584450753904,NaN,2.4577944,0.33203125,-0.9577637,0.1665039,1584450753690,3006534758546,0.12302217,0,1
1584450753907,NaN,3.0060625,0.3540039,-0.89697266,0.068847656,1584450753770,3006534758546,0.12302217,0,1
1584450756371,NaN,3.5588753,0.44506836,-0.96069336,0.043701172,1584450753850,-3190136853739,0.12302217,0,1
1584450756373,NaN,4.1439023,0.46069336,-0.888916,-0.025390625,1584450753930,-3190136853739,0.12302217,0,1
1584450756377,NaN,4.7153544,0.54125977,-0.8911133,-0.06689453,1584450754010,-3190136853739,0.12302217,0,1
1584450756384,NaN,5.3050303,0.5866699,-0.9008789,-0.13012695,1584450754090,-3190136853739,0.12302217,0,1
1584450756389,NaN,5.78919,0.5566406,-0.87768555,-0.15063477,1584450754170,-3190136853739,0.12302217,0,1
1584450756392,NaN,6.166323,0.54956055,-0.8786621,-0.13745117,1584450754250,-3190136853739,0.12302217,0,1
1584450756395,NaN,6.4447455,0.515625,-0.89819336,-0.061279297,1584450754330,-3190136853739,0.12302217,0,1
1584450756400,NaN,6.4175086,0.42797852,-0.97875977,0.080078125,1584450754410,-3190136853739,0.1848101,0,1
1584450756405,NaN,6.144954,0.3684082,-1.0866699,0.22290039,1584450754490,-3190136853739,0.1886569,0,1
1584450756408,NaN,5.6103,0.24536133,-1.0036621,0.33447266,1584450754570,-3190136853739,0.1886569,0,1
1584450756411,NaN,4.939705,0.17651367,-0.8474121,0.3630371,1584450754650,-3190136853739,0.1886569,0,1
1584450756415,NaN,4.1272364,0.17211914,-0.810791,0.3935547,1584450754730,-3190136853739,0.1886569,0,1
1584450756419,NaN,3.1622999,0.15014648,-0.84399414,0.42578125,1584450754810,-3190136853739,0.1886569,0,1
1584450756422,NaN,1.9978533,0.076171875,-0.8791504,0.48901367,1584450754890,-3190136853739,0.1886569,0,1
1584450756425,NaN,0.70865136,0.026855469,-0.8623047,0.48950195,1584450754970,-3190136853739,0.1886569,0,1
1584450756428,NaN,-0.7187171,0.019042969,-0.8400879,0.47753906,1584450755050,-3190136853739,0.1886569,0,1
1584450756430,NaN,-2.1366608,-0.020751953,-0.8442383,0.5124512,1584450755130,-3190136853739,0.1886569,0,1
1584450756433,NaN,-3.5064678,-0.043701172,-0.82910156,0.5515137,1584450755210,-3190136853739,0.1886569,0,1
1584450756437,NaN,-4.679799,-0.016845703,-0.8508301,0.53466797,1584450755290,-3190136853739,0.1886569,0,1
1584450756440,NaN,-5.4986567,-0.032226562,-0.82006836,0.5395508,1584450755370,-3190136853739,0.1886569,0,1
1584450756443,NaN,-6.039182,-0.032958984,-0.83154297,0.52124023,1584450755450,-3190136853739,0.1886569,0,1
1584450756446,NaN,-6.2578015,-0.03491211,-0.8203125,0.53149414,1584450755530,-3190136853739,0.1886569,0,1
1584450756449,NaN,-6.265841,-0.018798828,-0.8352051,0.48168945,1584450755610,-3190136853739,0.1886569,0,1
1584450756452,NaN,-6.1008205,0.015136719,-0.8522949,0.45996094,1584450755690,-3190136853739,0.1886569,0,1
1584450756455,NaN,-5.7676015,0.053466797,-0.8828125,0.42041016,1584450755770,-3190136853739,0.1886569,0,1
1584450756457,NaN,-5.150981,0.11669922,-0.8654785,0.36547852,1584450755850,-3190136853739,0.1886569,0,1
1584450756460,NaN,-4.2435784,0.19506836,-0.9321289,0.20581055,1584450755930,-3190136853739,0.18994172,0,1
1584450756463,NaN,-3.084891,0.30249023,-0.9729004,0.034179688,1584450756010,-3190136853739,0.20654038,0,1
1584450756466,NaN,-1.595713,0.48120117,-1.0854492,-0.14257812,1584450756090,-3190136853739,0.27540544,0,1
1584450756469,NaN,0.119306244,0.59887695,-1.0119629,-0.3125,1584450756170,-3190136853739,0.27540544,0,1
1584450756472,NaN,1.7120093,0.5773926,-0.90478516,-0.34765625,1584450756250,-3190136853739,0.27540544,0,1
1584450756475,NaN,3.2321951,0.6113281,-0.8322754,-0.3413086,1584450756330,-3190136853739,0.27540544,0,1
1584450758942,NaN,4.6257777,0.6188965,-0.8503418,-0.3215332,1584450756410,9060217082662,0.27540544,0,1
1584450758947,NaN,5.827781,0.5437012,-0.7895508,-0.30810547,1584450756490,9060217082662,0.27540544,0,1
1584450758951,NaN,6.7860794,0.48217773,-0.77978516,-0.28564453,1584450756570,9060217082662,0.27540544,0,1
1584450758954,NaN,7.579584,0.45898438,-0.81884766,-0.24291992,1584450756650,9060217082662,0.27540544,0,1
1584450758958,NaN,8.165421,0.44262695,-0.8676758,-0.15698242,1584450756730,9060217082662,0.27540544,0,1
1584450758961,NaN,8.47099,0.39111328,-0.8894043,-0.09106445,1584450756810,9060217082662,0.27540544,0,1
1584450758965,NaN,8.405662,0.33032227,-0.8942871,-0.025634766,1584450756890,9060217082662,0.27540544,0,1
1584450758968,NaN,7.978617,0.30493164,-0.8779297,0.046875,1584450756970,9060217082662,0.27540544,0,1
1584450758972,NaN,7.059881,0.24609375,-0.9074707,0.1027832,1584450757050,9060217082662,0.27540544,0,1
1584450758975,NaN,5.670759,0.2097168,-0.92529297,0.17822266,1584450757130,9060217082662,0.27540544,0,1
1584450758980,NaN,4.169039,0.14990234,-0.9248047,0.22827148,1584450757210,9060217082662,0.27540544,0,1
1584450758983,NaN,2.5359633,0.1303711,-0.93310547,0.27612305,1584450757290,9060217082662,0.27540544,0,1
1584450758987,NaN,0.8790634,0.09863281,-0.91503906,0.328125,1584450757370,9060217082662,0.27540544,0,1
1584450758990,NaN,-0.7322151,0.080078125,-0.8901367,0.36523438,1584450757450,9060217082662,0.27540544,0,1
1584450758993,NaN,-2.2510808,0.049072266,-0.8857422,0.42504883,1584450757530,9060217082662,0.27540544,0,1
1584450758997,NaN,-3.6567624,0.008300781,-0.8781738,0.4440918,1584450757610,9060217082662,0.27540544,0,1
1584450759000,NaN,-4.8774915,-0.024414062,-0.86694336,0.45092773,1584450757690,9060217082662,0.27540544,0,1
1584450759004,NaN,-5.9013863,-0.02709961,-0.828125,0.49365234,1584450757770,9060217082662,0.27540544,0,1
1584450759007,NaN,-6.6639514,-0.03466797,-0.8510742,0.4970703,1584450757850,9060217082662,0.27540544,0,1
1584450759009,NaN,-7.176611,-0.037597656,-0.8444824,0.49902344,1584450757930,9060217082662,0.27540544,0,1
1584450759013,NaN,-7.408157,-0.044433594,-0.86621094,0.4946289,1584450758010,9060217082662,0.27540544,0,1
1584450759016,NaN,-7.267962,-0.009521484,-0.8720703,0.4663086,1584450758090,9060217082662,0.27540544,0,1
1584450759018,NaN,-6.911328,0.010986328,-0.86083984,0.45043945,1584450758170,9060217082662,0.27540544,0,1
1584450759022,NaN,-6.4074855,0.036621094,-0.8586426,0.4506836,1584450758250,9060217082662,0.27540544,0,1
1584450759026,NaN,-5.8097425,0.020507812,-0.88378906,0.4650879,1584450758330,9060217082662,0.27540544,0,1
1584450759029,NaN,-5.1480403,0.03955078,-0.8774414,0.4477539,1584450758410,9060217082662,0.27540544,0,1
1584450759032,NaN,-4.407504,0.04736328,-0.88427734,0.42944336,1584450758490,9060217082662,0.27540544,0,1
1584450759035,NaN,-3.6359482,0.059326172,-0.8742676,0.41552734,1584450758570,9060217082662,0.27540544,0,1
1584450759038,NaN,-2.861721,0.07080078,-0.85961914,0.37060547,1584450758650,9060217082662,0.21936561,0,1
1584450759041,NaN,-2.0591938,0.09716797,-0.86694336,0.34033203,1584450758730,9060217082662,0.11482424,0,1
1584450759043,NaN,-1.2648505,0.15234375,-0.88256836,0.28198242,1584450758810,9060217082662,0.10018485,0,1
1584450759046,NaN,-0.46869436,0.18774414,-0.8742676,0.20874023,1584450758890,9060217082662,0.10018485,0,1
1584450761330,NaN,0.33283067,0.23730469,-0.9123535,0.14257812,1584450758970,2863826945353,0.10018485,0,1
1584450761336,NaN,1.004908,0.23999023,-0.9667969,0.14501953,1584450759050,2863826945353,0.10018485,0,1
1584450761341,NaN,1.6972374,0.3684082,-1.0021973,0.07324219,1584450759130,2863826945353,0.15131539,0,1
1584450761345,NaN,2.347998,0.38623047,-0.8918457,0.028076172,1584450759210,2863826945353,0.15131539,0,1
1584450761350,NaN,3.0391884,0.45458984,-0.96899414,-0.0031738281,1584450759290,2863826945353,0.15131539,0,1
1584450761356,NaN,3.619922,0.4255371,-0.83740234,0.008300781,1584450759370,2863826945353,0.15131539,0,1
1584450761361,NaN,4.1674886,0.4951172,-0.88916016,-0.010986328,1584450759450,2863826945353,0.15131539,0,1
1584450761366,NaN,4.6225295,0.49560547,-0.8598633,0.026367188,1584450759530,2863826945353,0.15131539,0,1
1584450761370,NaN,4.973221,0.55493164,-0.91064453,0.07128906,1584450759610,2863826945353,0.15131539,0,1
1584450761375,NaN,5.1784782,0.5090332,-0.8691406,0.088134766,1584450759690,2863826945353,0.15131539,0,1
1584450761379,NaN,5.217021,0.4711914,-0.80200195,0.11401367,1584450759770,2863826945353,0.15131539,0,1
1584450761383,NaN,4.9847155,0.4169922,-1.026123,0.21875,1584450759850,2863826945353,0.25325385,0,1
1584450761387,NaN,NaN,0.44384766,-1.3654785,0.22729492,1584450759930,2863826945353,0.34052366,0,1
1584450761394,NaN,NaN,0.19750977,-0.9020996,0.2998047,1584450760010,2863826945353,0.5297736,0,1
1584450761397,NaN,NaN,0.12182617,-0.7512207,0.2866211,1584450760090,2863826945353,0.5297736,0,1
1584450761401,NaN,NaN,0.095947266,-0.8901367,0.34545898,1584450760170,2863826945353,0.5297736,0,1
1584450761404,NaN,NaN,0.02319336,-0.99072266,0.41723633,1584450760250,2863826945353,0.5297736,0,1
1584450761408,NaN,NaN,-0.018554688,-0.87475586,0.4230957,1584450760330,2863826945353,0.5297736,0,1
1584450761411,NaN,NaN,-0.079589844,-0.8183594,0.4169922,1584450760410,2863826945353,0.5297736,0,1
1584450761416,NaN,NaN,-0.10424805,-0.9069824,0.43579102,1584450760490,2863826945353,0.5297736,0,1
1584450761421,NaN,NaN,-0.17211914,-0.90234375,0.4375,1584450760570,2863826945353,0.5297736,0,1
1584450761424,NaN,NaN,-0.21289062,-0.8547363,0.43408203,1584450760650,2863826945353,0.5297736,0,1
1584450761429,NaN,NaN,-0.24780273,-0.83569336,0.4169922,1584450760730,2863826945353,0.5297736,0,1
1584450761432,NaN,NaN,-0.25805664,-0.8708496,0.42163086,1584450760810,2863826945353,0.5297736,0,1
1584450761436,NaN,NaN,-0.2368164,-0.8774414,0.43798828,1584450760890,2863826945353,0.5297736,0,1
1584450761439,NaN,NaN,-0.23510742,-0.8664551,0.41601562,1584450760970,2863826945353,0.5297736,0,1
1584450761443,NaN,NaN,-0.21118164,-0.8679199,0.3947754,1584450761050,2863826945353,0.5297736,0,1
1584450761447,NaN,NaN,-0.17358398,-0.8852539,0.4165039,1584450761130,2863826945353,0.5297736,0,1
1584450761450,NaN,NaN,-0.23583984,-0.8996582,0.43896484,1584450761210,2863826945353,0.5297736,0,1
1584450761454,NaN,NaN,-0.2890625,-0.85913086,0.4658203,1584450761290,2863826945353,0.5297736,0,1
1584450761456,NaN,NaN,-0.29956055,-0.85424805,0.47729492,1584450761370,2863826945353,0.5297736,0,1
1584450761460,NaN,NaN,-0.23022461,-0.7961426,0.48632812,1584450761450,2863826945353,0.5297736,0,1
1584450763914,NaN,NaN,-0.23046875,-0.80322266,0.532959,1584450761530,-3332844666931,0.5297736,0,1
1584450763921,NaN,NaN,-0.23510742,-0.78759766,0.5373535,1584450761610,-3332844666931,0.5297736,0,1
1584450763929,NaN,NaN,-0.2524414,-0.7597656,0.5151367,1584450761690,-3332844666931,0.5297736,0,1
1584450763936,NaN,NaN,-0.25219727,-0.80078125,0.52783203,1584450761770,-3332844666931,0.5297736,0,1
1584450763944,NaN,NaN,-0.24926758,-0.79418945,0.5083008,1584450761850,-3332844666931,0.5297736,0,1
1584450763950,NaN,NaN,-0.30322266,-0.8222656,0.5292969,1584450761930,-3332844666931,0.5297736,0,1
1584450763953,NaN,NaN,-0.26391602,-0.8046875,0.5461426,1584450762010,-3332844666931,0.5297736,0,1
1584450763959,NaN,NaN,-0.24023438,-0.81396484,0.5241699,1584450762090,-3332844666931,0.5297736,0,1
1584450763964,NaN,NaN,-0.21923828,-0.8149414,0.54833984,1584450762170,-3332844666931,0.5297736,0,1
1584450763967,NaN,NaN,-0.22949219,-0.7956543,0.5505371,1584450762250,-3332844666931,0.5297736,0,1
1584450763971,NaN,NaN,-0.23657227,-0.7800293,0.54589844,1584450762330,-3332844666931,0.5297736,0,1
1584450763974,NaN,NaN,-0.25756836,-0.7717285,0.55078125,1584450762410,-3332844666931,0.5297736,0,1
1584450763978,NaN,NaN,-0.2919922,-0.7536621,0.54907227,1584450762490,-3332844666931,0.5297736,0,1
1584450763980,NaN,4.0838256,-0.32666016,-0.7319336,0.54174805,1584450762570,-3332844666931,0.16931112,0,1
1584450763984,NaN,3.1869962,-0.32836914,-0.7709961,0.5280762,1584450762650,-3332844666931,0.15306625,0,1
1584450763987,NaN,2.045291,-0.32983398,-0.8300781,0.50756836,1584450762730,-3332844666931,0.14339682,0,1
1584450763991,NaN,0.8338117,-0.37548828,-0.79174805,0.44726562,1584450762810,-3332844666931,0.12339177,0,1
1584450763995,NaN,-0.60200167,-0.4477539,-0.78637695,0.44702148,1584450762890,-3332844666931,0.09389072,0,1
1584450763998,NaN,-1.9438295,-0.41601562,-0.8000488,0.4477539,1584450762970,-3332844666931,0.09389072,0,1
1584450764001,NaN,-3.3815258,-0.41503906,-0.7988281,0.4423828,1584450763050,-3332844666931,0.09091379,0,1
1584450764004,NaN,-4.737019,-0.40185547,-0.79956055,0.46948242,1584450763130,-3332844666931,0.09091379,0,1
1584450764007,NaN,-6.0186963,-0.36694336,-0.7993164,0.4621582,1584450763210,-3332844666931,0.09091379,0,1
1584450764010,NaN,-7.1484866,-0.359375,-0.7890625,0.47583008,1584450763290,-3332844666931,0.09091379,0,1
1584450764013,NaN,-8.090888,-0.37426758,-0.7883301,0.48095703,1584450763370,-3332844666931,0.09091379,0,1
1584450764015,NaN,-8.813503,-0.36499023,-0.7976074,0.47192383,1584450763450,-3332844666931,0.09091379,0,1
1584450764019,NaN,-8.2641325,-0.3630371,-0.7895508,0.4633789,1584450763530,-3332844666931,0.09091379,0,1
1584450764022,NaN,-7.717568,-0.36938477,-0.7980957,0.46557617,1584450763610,-3332844666931,0.09091379,0,1
1584450764025,NaN,-7.0589542,-0.35498047,-0.79589844,0.46679688,1584450763690,-3332844666931,0.09091379,0,1
1584450764027,NaN,-6.3211093,-0.3618164,-0.7919922,0.4584961,1584450763770,-3332844666931,0.09091379,0,1
1584450764030,NaN,-5.401453,-0.375,-0.80908203,0.46484375,1584450763850,-3332844666931,0.09091379,0,1
1584450764033,NaN,-4.545461,-0.3713379,-0.8015137,0.45654297,1584450763930,-3332844666931,0.09091379,0,1
1584450764036,NaN,-3.6424658,-0.38012695,-0.78930664,0.45776367,1584450764010,-3332844666931,0.08479345,0,1
1584450766498,NaN,-2.7713487,-0.3713379,-0.7844238,0.45703125,1584450764090,8917509269469,0.08479345,0,1
1584450766505,NaN,-1.9413167,-0.38427734,-0.8120117,0.46289062,1584450764170,8917509269469,0.08479345,0,1
1584450766511,NaN,-1.184274,-0.39111328,-0.8093262,0.4501953,1584450764250,8917509269469,0.08479345,0,1
1584450766518,NaN,-0.5170279,-0.39111328,-0.796875,0.45751953,1584450764330,8917509269469,0.08479345,0,1
1584450766522,NaN,0.14659639,-0.3798828,-0.81152344,0.4194336,1584450764410,8917509269469,0.08479345,0,1
1584450766526,NaN,0.11707532,-0.38012695,-0.80981445,0.44555664,1584450764490,8917509269469,0.08479345,0,1
1584450766530,NaN,0.1137873,-0.3635254,-0.80371094,0.45483398,1584450764570,8917509269469,0.08479345,0,1
1584450766533,NaN,0.13502572,-0.38208008,-0.82006836,0.44091797,1584450764650,8917509269469,0.08479345,0,1
1584450766537,NaN,0.14449231,-0.37597656,-0.8117676,0.4272461,1584450764730,8917509269469,0.08479345,0,1
1584450766542,NaN,0.104124166,-0.3869629,-0.8071289,0.43359375,1584450764810,8917509269469,0.08479345,0,1
1584450766546,NaN,0.08658078,-0.39819336,-0.8208008,0.4284668,1584450764890,8917509269469,0.08479345,0,1
1584450766551,NaN,0.08174405,-0.39404297,-0.7998047,0.43896484,1584450764970,8917509269469,0.08479345,0,1
1584450766555,NaN,0.07162871,-0.38916016,-0.8059082,0.44604492,1584450765050,8917509269469,0.08479345,0,1
1584450766558,NaN,0.073077,-0.38989258,-0.80493164,0.45214844,1584450765130,8917509269469,0.08479345,0,1
1584450766563,NaN,0.084504455,-0.3815918,-0.81152344,0.4321289,1584450765210,8917509269469,0.08479345,0,1
1584450766566,NaN,0.0989365,-0.38891602,-0.8117676,0.43164062,1584450765290,8917509269469,0.08479345,0,1
1584450766571,NaN,0.08181198,-0.37524414,-0.8066406,0.4182129,1584450765370,8917509269469,0.07246536,0,1
1584450766575,NaN,0.08104273,-0.37109375,-0.80615234,0.43847656,1584450765450,8917509269469,0.04232303,0,1
1584450766579,NaN,0.08124084,-0.37304688,-0.8154297,0.4284668,1584450765530,8917509269469,0.04232303,0,1
1584450766583,NaN,0.072445065,-0.37817383,-0.80249023,0.4326172,1584450765610,8917509269469,0.04232303,0,1
1584450766587,NaN,0.054255392,-0.3894043,-0.81689453,0.42749023,1584450765690,8917509269469,0.04232303,0,1
1584450766590,NaN,0.047903255,-0.3894043,-0.80859375,0.43798828,1584450765770,8917509269469,0.04232303,0,1
1584450766594,NaN,0.039738517,-0.39794922,-0.80981445,0.4248047,1584450765850,8917509269469,0.04232303,0,1
1584450766597,NaN,0.04693159,-0.39135742,-0.8117676,0.4272461,1584450765930,8917509269469,0.04232303,0,1
1584450766600,NaN,0.05776323,-0.39086914,-0.810791,0.4086914,1584450766010,8917509269469,0.04232303,0,1
1584450766603,NaN,0.075627126,-0.3942871,-0.8144531,0.41552734,1584450766090,8917509269469,0.04232303,0,1
1584450766606,NaN,0.06704452,-0.39892578,-0.8251953,0.41088867,1584450766170,8917509269469,0.04232303,0,1
1584450766609,NaN,0.060160782,-0.38793945,-0.814209,0.40649414,1584450766250,8917509269469,0.04232303,0,1
1584450766612,NaN,0.058589756,-0.39819336,-0.8215332,0.40429688,1584450766330,8917509269469,0.04232303,0,1
1584450766617,NaN,0.052220125,-0.39526367,-0.8112793,0.40966797,1584450766410,8917509269469,0.04232303,0,1
1584450766619,NaN,0.03779808,-0.40307617,-0.8261719,0.40844727,1584450766490,8917509269469,0.04232303,0,1
1584450766621,NaN,0.05931537,-0.3935547,-0.8286133,0.3918457,1584450766570,8917509269469,0.04232303,0,1
1584450769081,NaN,0.076211676,-0.39379883,-0.8198242,0.39331055,1584450766650,2721119132161,0.04232303,0,1
1584450769089,NaN,0.09105468,-0.39916992,-0.8198242,0.40405273,1584450766730,2721119132161,0.04232303,0,1
1584450769093,NaN,0.105432115,-0.41308594,-0.829834,0.3984375,1584450766810,2721119132161,0.04232303,0,1
1584450769097,NaN,0.09050343,-0.40014648,-0.79956055,0.40942383,1584450766890,2721119132161,0.04232303,0,1
1584450769101,NaN,0.07408498,-0.40551758,-0.8293457,0.41333008,1584450766970,2721119132161,0.03470749,0,1
1584450769106,NaN,0.05331197,-0.41210938,-0.81152344,0.40063477,1584450767050,2721119132161,0.03470749,0,1
1584450769110,NaN,0.044048723,-0.39770508,-0.8137207,0.4116211,1584450767130,2721119132161,0.03470749,0,1
1584450769114,NaN,0.03867893,-0.39331055,-0.8249512,0.39697266,1584450767210,2721119132161,0.03470749,0,1
1584450769116,NaN,0.041519947,-0.3864746,-0.81469727,0.4074707,1584450767290,2721119132161,0.03470749,0,1
1584450769122,NaN,0.057555884,-0.3828125,-0.81762695,0.39404297,1584450767370,2721119132161,0.03470749,0,1
1584450769125,NaN,0.070083626,-0.39111328,-0.81811523,0.39453125,1584450767450,2721119132161,0.03470749,0,1
1584450769128,NaN,0.049533512,-0.39404297,-0.8222656,0.38867188,1584450767530,2721119132161,0.03470749,0,1
1584450769131,NaN,0.028960511,-0.40722656,-0.82592773,0.40454102,1584450767610,2721119132161,0.03470749,0,1
1584450769136,NaN,0.010186491,-0.40820312,-0.81811523,0.40551758,1584450767690,2721119132161,0.03470749,0,1
1584450769140,NaN,-0.0051803202,-0.41064453,-0.8161621,0.39770508,1584450767770,2721119132161,0.03470749,0,1
1584450769144,NaN,0.011510874,-0.40722656,-0.81811523,0.38720703,1584450767850,2721119132161,0.03470749,0,1
1584450769147,NaN,0.01249199,-0.41430664,-0.8220215,0.39331055,1584450767930,2721119132161,0.03470749,0,1
1584450769151,NaN,0.031882282,-0.40454102,-0.81933594,0.3840332,1584450768010,2721119132161,0.03470749,0,1
1584450769153,NaN,0.04419284,-0.40673828,-0.82055664,0.3876953,1584450768090,2721119132161,0.03470749,0,1
1584450769157,NaN,0.03329451,-0.41235352,-0.826416,0.3857422,1584450768170,2721119132161,0.03470749,0,1
1584450769160,NaN,0.032840736,-0.40673828,-0.8232422,0.3852539,1584450768250,2721119132161,0.03470749,0,1
1584450769164,NaN,0.012846306,-0.41308594,-0.8261719,0.37329102,1584450768330,2721119132161,0.03470749,0,1
1584450769167,NaN,-5.385882E-4,-0.41235352,-0.82373047,0.38500977,1584450768410,2721119132161,0.03470749,0,1
1584450769170,NaN,0.004806684,-0.40722656,-0.8286133,0.36914062,1584450768490,2721119132161,0.03470749,0,1
1584450769172,NaN,0.02475817,-0.4116211,-0.8293457,0.37426758,1584450768570,2721119132161,0.03470749,0,1
1584450769175,NaN,0.047165398,-0.4152832,-0.829834,0.36816406,1584450768650,2721119132161,0.03470749,0,1
1584450769178,NaN,0.054411378,-0.41723633,-0.8220215,0.38867188,1584450768730,2721119132161,0.03470749,0,1
1584450769181,NaN,0.045175534,-0.41625977,-0.8305664,0.3791504,1584450768810,2721119132161,0.03470749,0,1
1584450769184,NaN,0.04876688,-0.40625,-0.8112793,0.38378906,1584450768890,2721119132161,0.03470749,0,1
1584450769187,NaN,0.03191139,-0.41235352,-0.8276367,0.38989258,1584450768970,2721119132161,0.03470749,0,1
1584450769190,NaN,0.017283997,-0.41015625,-0.8190918,0.3996582,1584450769050,2721119132161,0.03470749,0,1
1584450769193,NaN,0.02465014,-0.39746094,-0.8173828,0.39086914,1584450769130,2721119132161,0.03470749,0,1
1584450771666,NaN,0.019338792,-0.39892578,-0.8166504,0.3984375,1584450769210,-3475552480123,0.03470749,0,1
1584450771672,NaN,0.019423693,-0.39648438,-0.8120117,0.39160156,1584450769290,-3475552480123,0.03470749,0,1
1584450771678,NaN,0.025399676,-0.3935547,-0.81762695,0.40283203,1584450769370,-3475552480123,0.03470749,0,1
1584450771684,NaN,0.0012054704,-0.41992188,-0.8210449,0.39624023,1584450769450,-3475552480123,0.030516602,0,1
1584450771689,NaN,-0.028428622,-0.41552734,-0.80859375,0.39257812,1584450769530,-3475552480123,0.027392752,0,1
1584450771694,NaN,-0.062949635,-0.41723633,-0.8161621,0.39746094,1584450769610,-3475552480123,0.027392752,0,1
1584450771697,NaN,-0.06824701,-0.41210938,-0.8173828,0.39770508,1584450769690,-3475552480123,0.027392752,0,1
1584450771701,NaN,-0.08803051,-0.41723633,-0.81347656,0.39916992,1584450769770,-3475552480123,0.027392752,0,1
1584450771704,NaN,-0.09448326,-0.4111328,-0.8161621,0.39111328,1584450769850,-3475552480123,0.027392752,0,1
1584450771707,NaN,-0.098005354,-0.41455078,-0.8186035,0.39233398,1584450769930,-3475552480123,0.027392752,0,1
1584450771711,NaN,-0.09109729,-0.41479492,-0.8171387,0.39086914,1584450770010,-3475552480123,0.027392752,0,1
1584450771715,NaN,-0.10479182,-0.4189453,-0.8161621,0.3881836,1584450770090,-3475552480123,0.027392752,0,1
1584450771718,NaN,-0.10750079,-0.41601562,-0.8144531,0.38720703,1584450770170,-3475552480123,0.027392752,0,1
1584450771722,NaN,-0.11518234,-0.41845703,-0.81689453,0.39672852,1584450770250,-3475552480123,0.027392752,0,1
1584450771726,NaN,-0.123270236,-0.41479492,-0.81640625,0.38842773,1584450770330,-3475552480123,0.027392752,0,1
1584450771729,NaN,-0.10598713,-0.42211914,-0.8129883,0.39208984,1584450770410,-3475552480123,0.027392752,0,1
1584450771732,NaN,-0.087367006,-0.4182129,-0.81152344,0.3918457,1584450770490,-3475552480123,0.027392752,0,1
1584450771735,NaN,-0.07817626,-0.43017578,-0.8166504,0.40307617,1584450770570,-3475552480123,0.027392752,0,1
1584450771738,NaN,-0.082826175,-0.4189453,-0.8095703,0.39697266,1584450770650,-3475552480123,0.027392752,0,1
1584450771741,NaN,-0.06602845,-0.40942383,-0.810791,0.40600586,1584450770730,-3475552480123,0.027392752,0,1
1584450771744,NaN,-0.07427105,-0.43139648,-0.82910156,0.40771484,1584450770810,-3475552480123,0.028653,0,1
1584450771747,NaN,-0.0768967,-0.4104004,-0.7988281,0.39868164,1584450770890,-3475552480123,0.037933044,0,1
1584450771750,NaN,-0.06685107,-0.40966797,-0.83325195,0.39282227,1584450770970,-3475552480123,0.037933044,0,1
1584450771753,NaN,-0.048390713,-0.41088867,-0.81347656,0.37817383,1584450771050,-3475552480123,0.037933044,0,1
1584450771756,NaN,-0.024120346,-0.3864746,-0.8220215,0.39648438,1584450771130,-3475552480123,0.037933044,0,1
1584450771759,NaN,0.026960092,-0.36254883,-0.8364258,0.40551758,1584450771210,-3475552480123,0.037933044,0,1
1584450771762,NaN,0.053762183,-0.3605957,-0.81152344,0.4189453,1584450771290,-3475552480123,0.037933044,0,1
1584450771764,NaN,0.0836295,-0.34545898,-0.8144531,0.44921875,1584450771370,-3475552480123,0.037933044,0,1
1584450771767,NaN,0.11676639,-0.32226562,-0.81762695,0.46655273,1584450771450,-3475552480123,0.037933044,0,1
1584450771770,NaN,0.15194054,-0.32250977,-0.78759766,0.47021484,1584450771530,-3475552480123,0.037933044,0,1
1584450771773,NaN,0.15832289,-0.35766602,-0.7932129,0.47827148,1584450771610,-3475552480123,0.037933044,0,1
1584450771775,NaN,0.13365304,-0.37548828,-0.7907715,0.50024414,1584450771690,-3475552480123,0.037933044,0,1
1584450774248,NaN,0.13373995,-0.36547852,-0.7858887,0.48901367,1584450771770,8774801456277,0.037933044,0,1
1584450774256,NaN,0.12853315,-0.38720703,-0.78759766,0.4597168,1584450771850,8774801456277,0.037933044,0,1
1584450774264,NaN,0.08688597,-0.3935547,-0.7963867,0.4580078,1584450771930,8774801456277,0.037933044,0,1
1584450774270,NaN,0.055427592,-0.38476562,-0.7910156,0.45776367,1584450772010,8774801456277,0.037933044,0,1
1584450774276,NaN,0.0037791852,-0.38793945,-0.80200195,0.46044922,1584450772090,8774801456277,0.037933044,0,1
1584450774282,NaN,-0.08324183,-0.3852539,-0.8078613,0.46313477,1584450772170,8774801456277,0.037933044,0,1
1584450774286,NaN,-0.14738242,-0.3881836,-0.79003906,0.46923828,1584450772250,8774801456277,0.037933044,0,1
1584450774291,NaN,-0.20800172,-0.37182617,-0.7907715,0.4699707,1584450772330,8774801456277,0.037933044,0,1
1584450774295,NaN,-0.29385877,-0.37548828,-0.7849121,0.4831543,1584450772410,8774801456277,0.037933044,0,1
1584450774298,NaN,-0.3413491,-0.36328125,-0.7907715,0.46948242,1584450772490,8774801456277,0.037933044,0,1
1584450774302,NaN,-0.3488464,-0.37695312,-0.7922363,0.47021484,1584450772570,8774801456277,0.037933044,0,1
1584450774306,NaN,-0.30814454,-0.36523438,-0.78564453,0.4638672,1584450772650,8774801456277,0.037933044,0,1
1584450774309,NaN,-0.28852025,-0.35913086,-0.79052734,0.48266602,1584450772730,8774801456277,0.037933044,0,1
1584450774313,NaN,-0.25318834,-0.3359375,-0.7949219,0.4873047,1584450772810,8774801456277,0.037933044,0,1
1584450774317,NaN,-0.184974,-0.3112793,-0.8054199,0.49023438,1584450772890,8774801456277,0.037933044,0,1
1584450774319,NaN,-0.12426225,-0.31079102,-0.7976074,0.4736328,1584450772970,8774801456277,0.037933044,0,1
1584450774323,NaN,-0.06314366,-0.3227539,-0.81225586,0.48583984,1584450773050,8774801456277,0.037933044,0,1
1584450774326,NaN,0.008905821,-0.32373047,-0.82055664,0.48754883,1584450773130,8774801456277,0.037933044,0,1
1584450774331,30.0,0.09371372,-0.32421875,-0.8156738,0.47094727,1584450773210,8774801456277,0.037933044,0,1
1584450774333,NaN,0.1679111,-0.32104492,-0.8161621,0.45581055,1584450773290,8774801456277,0.037933044,0,1
1584450774336,NaN,0.2612671,-0.32617188,-0.814209,0.46411133,1584450773370,8774801456277,0.037933044,0,1
1584450774340,NaN,0.29823253,-0.33203125,-0.81762695,0.4729004,1584450773450,8774801456277,0.036515146,0,1
1584450774342,NaN,0.31348994,-0.32373047,-0.8083496,0.47070312,1584450773530,8774801456277,0.036515146,0,1
1584450774345,NaN,0.29204562,-0.32617188,-0.8100586,0.47265625,1584450773610,8774801456277,0.036515146,0,1
1584450774348,NaN,0.27810445,-0.33276367,-0.8112793,0.48510742,1584450773690,8774801456277,0.036515146,0,1
1584450774352,NaN,0.26758868,-0.33007812,-0.80737305,0.47387695,1584450773770,8774801456277,0.036515146,0,1
1584450774356,NaN,0.24699868,-0.3486328,-0.79541016,0.48364258,1584450773850,8774801456277,0.036515146,0,1
1584450774359,NaN,0.21071035,-0.34521484,-0.79907227,0.49169922,1584450773930,8774801456277,0.036515146,0,1
1584450774362,NaN,0.17328864,-0.34350586,-0.79296875,0.50268555,1584450774010,8774801456277,0.036515146,0,1
1584450774367,NaN,0.13977663,-0.35620117,-0.7927246,0.5036621,1584450774090,8774801456277,0.036515146,0,1
1584450774370,NaN,0.06223695,-0.3305664,-0.7702637,0.50634766,1584450774170,8774801456277,0.036515146,0,1
1584450774373,NaN,-0.023103131,-0.3425293,-0.7861328,0.51416016,1584450774250,8774801456277,0.036515146,0,1
1584450777031,NaN,-0.09992009,-0.33764648,-0.79467773,0.5102539,1584450774330,2578411318969,0.036515146,0,1
1584450777037,NaN,-0.13662173,-0.34106445,-0.78881836,0.49291992,1584450774410,2578411318969,0.034188405,0,1
1584450777042,NaN,-0.16601998,-0.34204102,-0.7858887,0.49853516,1584450774490,2578411318969,0.034188405,0,1
1584450777047,NaN,-0.19189197,-0.33496094,-0.77734375,0.50268555,1584450774570,2578411318969,0.034188405,0,1
1584450777050,NaN,-0.21972622,-0.32226562,-0.76293945,0.5048828,1584450774650,2578411318969,0.034188405,0,1
1584450777054,NaN,-0.25887558,-0.32299805,-0.80810547,0.51123047,1584450774730,2578411318969,0.045615766,0,1
1584450777058,NaN,-0.2824673,-0.31567383,-0.7976074,0.4831543,1584450774810,2578411318969,0.045615766,0,1
1584450777063,NaN,-0.28914553,-0.3540039,-0.78564453,0.49804688,1584450774890,2578411318969,0.045615766,0,1
1584450777066,NaN,-0.276763,-0.3659668,-0.80029297,0.51123047,1584450774970,2578411318969,0.045615766,0,1
1584450777070,NaN,-0.26978067,-0.3347168,-0.77441406,0.49047852,1584450775050,2578411318969,0.045615766,0,1
1584450777074,NaN,-0.2154525,-0.34350586,-0.7998047,0.501709,1584450775130,2578411318969,0.045615766,0,1
1584450777078,NaN,-0.1598731,-0.34326172,-0.78564453,0.5,1584450775210,2578411318969,0.045615766,0,1
1584450777083,NaN,-0.11530537,-0.33666992,-0.7949219,0.49829102,1584450775290,2578411318969,0.045615766,0,1
1584450777087,NaN,-0.097158074,-0.34057617,-0.7939453,0.49951172,1584450775370,2578411318969,0.045615766,0,1
1584450777090,NaN,-0.06362439,-0.3474121,-0.7973633,0.49072266,1584450775450,2578411318969,0.045615766,0,1
1584450777094,NaN,-0.019474084,-0.34155273,-0.7919922,0.49291992,1584450775530,2578411318969,0.045615766,0,1
1584450777097,NaN,0.037313342,-0.3474121,-0.7922363,0.49536133,1584450775610,2578411318969,0.045615766,0,1
1584450777100,24.193548,0.074110955,-0.34692383,-0.7885742,0.49902344,1584450775690,2578411318969,0.045615766,0,1
1584450777103,NaN,0.076083824,-0.35058594,-0.7861328,0.49780273,1584450775770,2578411318969,0.045615766,0,1
1584450777106,NaN,0.08081531,-0.33691406,-0.8051758,0.5046387,1584450775850,2578411318969,0.045615766,0,1
1584450777110,NaN,0.072434634,-0.33862305,-0.7832031,0.50219727,1584450775930,2578411318969,0.045615766,0,1
1584450777113,NaN,0.050084826,-0.34960938,-0.7702637,0.52783203,1584450776010,2578411318969,0.045615766,0,1
1584450777117,NaN,0.03135247,-0.36450195,-0.78466797,0.5036621,1584450776090,2578411318969,0.045615766,0,1
1584450777120,NaN,0.023033904,-0.37646484,-0.7729492,0.501709,1584450776170,2578411318969,0.045615766,0,1
1584450777124,NaN,0.02489434,-0.36499023,-0.7861328,0.48901367,1584450776250,2578411318969,0.045615766,0,1
1584450777128,NaN,0.022752723,-0.35742188,-0.7770996,0.50390625,1584450776330,2578411318969,0.045615766,0,1
1584450777131,NaN,-0.0044144304,-0.34057617,-0.7727051,0.4987793,1584450776410,2578411318969,0.045615766,0,1
1584450777136,NaN,-0.03203722,-0.3503418,-0.77441406,0.5061035,1584450776490,2578411318969,0.045615766,0,1
1584450777139,NaN,-0.066464536,-0.3479004,-0.76904297,0.49926758,1584450776570,2578411318969,0.045615766,0,1
1584450777142,NaN,-0.070741124,-0.34570312,-0.78881836,0.49316406,1584450776650,2578411318969,0.045615766,0,1
1584450777146,NaN,-0.058868792,-0.36376953,-0.79589844,0.49829102,1584450776730,2578411318969,0.045615766,0,1
1584450777149,NaN,-0.045177247,-0.36621094,-0.7871094,0.4885254,1584450776810,2578411318969,0.045615766,0,1
1584450779417,NaN,-0.012114841,-0.36254883,-0.7915039,0.4765625,1584450776890,-3618260293315,0.045615766,0,1
1584450779423,NaN,0.06386139,-0.3803711,-0.7956543,0.47924805,1584450776970,-3618260293315,0.045615766,0,1
1584450779431,NaN,0.10089192,-0.3774414,-0.79589844,0.4645996,1584450777050,-3618260293315,0.045615766,0,1
1584450779438,NaN,0.13573073,-0.37060547,-0.7993164,0.46240234,1584450777130,-3618260293315,0.045615766,0,1
1584450779445,NaN,0.14479762,-0.3642578,-0.79956055,0.46875,1584450777210,-3618260293315,0.045615766,0,1
1584450779449,NaN,0.18432784,-0.36083984,-0.7998047,0.46899414,1584450777290,-3618260293315,0.04557328,0,1
1584450779454,NaN,0.2358544,-0.36401367,-0.8029785,0.4716797,1584450777370,-3618260293315,0.04557328,0,1
1584450779458,NaN,0.2918424,-0.36450195,-0.79711914,0.4633789,1584450777450,-3618260293315,0.04557328,0,1
1584450779464,NaN,0.34526333,-0.3696289,-0.8022461,0.4633789,1584450777530,-3618260293315,0.04557328,0,1
1584450779468,NaN,0.37588874,-0.37817383,-0.8000488,0.46044922,1584450777610,-3618260293315,0.031834852,0,1
1584450779473,NaN,0.39347005,-0.38012695,-0.7932129,0.46972656,1584450777690,-3618260293315,0.031834852,0,1
1584450779477,NaN,0.4046371,-0.39160156,-0.8010254,0.47143555,1584450777770,-3618260293315,0.031834852,0,1
1584450779481,NaN,0.39263296,-0.38232422,-0.7939453,0.4633789,1584450777850,-3618260293315,0.031834852,0,1
1584450779486,NaN,0.3539841,-0.3720703,-0.8029785,0.46289062,1584450777930,-3618260293315,0.031834852,0,1
1584450779488,NaN,0.30705395,-0.3737793,-0.78466797,0.47436523,1584450778010,-3618260293315,0.031834852,0,1
1584450779491,NaN,0.2625809,-0.37475586,-0.7915039,0.47070312,1584450778090,-3618260293315,0.031834852,0,1
1584450779494,NaN,0.22520888,-0.35888672,-0.78515625,0.48510742,1584450778170,-3618260293315,0.031834852,0,1
1584450779497,NaN,0.18146105,-0.35961914,-0.7878418,0.47607422,1584450778250,-3618260293315,0.031834852,0,1
1584450779500,NaN,0.13579291,-0.3623047,-0.78222656,0.47583008,1584450778330,-3618260293315,0.031834852,0,1
1584450779504,NaN,0.084583454,-0.34765625,-0.79125977,0.46801758,1584450778410,-3618260293315,0.031834852,0,1
1584450779508,NaN,0.043822113,-0.3696289,-0.8088379,0.46435547,1584450778490,-3618260293315,0.031834852,0,1
1584450779510,NaN,0.0046338113,-0.37304688,-0.79418945,0.46240234,1584450778570,-3618260293315,0.031834852,0,1
1584450779514,NaN,-0.026861457,-0.36791992,-0.7961426,0.47827148,1584450778650,-3618260293315,0.028376032,0,1
1584450779517,NaN,-0.038842063,-0.37231445,-0.8137207,0.45751953,1584450778730,-3618260293315,0.028376032,0,1
1584450779520,NaN,-0.04586667,-0.359375,-0.8015137,0.4501953,1584450778810,-3618260293315,0.028376032,0,1
1584450779524,NaN,-0.050185382,-0.3623047,-0.81030273,0.45263672,1584450778890,-3618260293315,0.028376032,0,1
1584450779527,NaN,-0.019551165,-0.3623047,-0.80981445,0.45776367,1584450778970,-3618260293315,0.028376032,0,1
1584450779529,NaN,0.007004564,-0.35766602,-0.8083496,0.44921875,1584450779050,-3618260293315,0.028376032,0,1
1584450779533,NaN,0.05030976,-0.3515625,-0.8051758,0.45874023,1584450779130,-3618260293315,0.028376032,0,1
1584450779535,26.785715,0.101560675,-0.37890625,-0.81811523,0.43847656,1584450779210,-3618260293315,0.03641053,0,1
1584450779538,NaN,0.16180111,-0.38085938,-0.8171387,0.42919922,1584450779290,-3618260293315,0.03641053,0,1
1584450779541,NaN,0.20342328,-0.37426758,-0.82055664,0.44384766,1584450779370,-3618260293315,0.03641053,0,1
1584450781802,NaN,0.20824029,-0.34448242,-0.80493164,0.44848633,1584450779450,8632093643085,0.03641053,0,1
1584450781824,NaN,0.21659319,-0.36547852,-0.8183594,0.46679688,1584450779530,8632093643085,0.03641053,0,1
1584450781828,NaN,0.23235758,-0.35791016,-0.80078125,0.46777344,1584450779610,8632093643085,0.03641053,0,1
1584450781831,NaN,0.2077996,-0.35839844,-0.8027344,0.46801758,1584450779690,8632093643085,0.03641053,0,1
1584450781834,NaN,0.19332813,-0.36328125,-0.79907227,0.45874023,1584450779770,8632093643085,0.03641053,0,1
1584450781837,NaN,0.1694204,-0.36523438,-0.8015137,0.47021484,1584450779850,8632093643085,0.03641053,0,1
1584450781843,NaN,0.14593795,-0.3552246,-0.80322266,0.45922852,1584450779930,8632093643085,0.03641053,0,1
1584450781847,NaN,0.10386014,-0.35083008,-0.7937012,0.47216797,1584450780010,8632093643085,0.03641053,0,1
1584450781852,NaN,0.06523306,-0.3449707,-0.7919922,0.46899414,1584450780090,8632093643085,0.03641053,0,1
1584450781857,NaN,-0.0184344,-0.32666016,-0.7910156,0.46972656,1584450780170,8632093643085,0.03641053,0,1
1584450781860,NaN,-0.108736485,-0.3347168,-0.79907227,0.46362305,1584450780250,8632093643085,0.03641053,0,1
1584450781865,NaN,-0.15927033,-0.35424805,-0.81762695,0.46166992,1584450780330,8632093643085,0.03641053,0,1
1584450781868,NaN,-0.1668806,-0.35473633,-0.8129883,0.45654297,1584450780410,8632093643085,0.03641053,0,1
1584450781872,NaN,-0.17201012,-0.3461914,-0.81640625,0.46289062,1584450780490,8632093643085,0.03641053,0,1
1584450781874,NaN,-0.18614446,-0.32983398,-0.80126953,0.46948242,1584450780570,8632093643085,0.03641053,0,1
1584450781876,NaN,-0.18478875,-0.3400879,-0.8027344,0.4802246,1584450780650,8632093643085,0.03641053,0,1
1584450781880,NaN,-0.19301498,-0.35009766,-0.80371094,0.47753906,1584450780730,8632093643085,0.03641053,0,1
1584450781882,NaN,-0.1788941,-0.34960938,-0.79785156,0.46655273,1584450780810,8632093643085,0.03641053,0,1
1584450781885,NaN,-0.17835283,-0.3569336,-0.8100586,0.46826172,1584450780890,8632093643085,0.03641053,0,1
1584450781888,NaN,-0.15270446,-0.34106445,-0.8051758,0.47192383,1584450780970,8632093643085,0.03641053,0,1
1584450781891,NaN,-0.1479296,-0.31518555,-0.80737305,0.47973633,1584450781050,8632093643085,0.03641053,0,1
1584450781894,NaN,-0.12563495,-0.3251953,-0.79833984,0.49926758,1584450781130,8632093643085,0.03641053,0,1
1584450781898,NaN,-0.11120338,-0.33642578,-0.78125,0.4909668,1584450781210,8632093643085,0.03641053,0,1
1584450781900,NaN,-0.11608843,-0.38500977,-0.7792969,0.48242188,1584450781290,8632093643085,0.049368348,0,1
1584450781904,NaN,-0.16060485,-0.4169922,-0.76000977,0.5065918,1584450781370,8632093643085,0.049368348,0,1
1584450781907,NaN,-0.2090388,-0.3984375,-0.7507324,0.5061035,1584450781450,8632093643085,0.049368348,0,1
1584450781910,NaN,-0.24583142,-0.41479492,-0.7595215,0.51782227,1584450781530,8632093643085,0.049368348,0,1
1584450781912,NaN,-0.2483458,-0.44335938,-0.7644043,0.48754883,1584450781610,8632093643085,0.049368348,0,1
1584450781915,NaN,-0.22298099,-0.41625977,-0.7487793,0.4362793,1584450781690,8632093643085,0.06005909,0,1
1584450781918,NaN,-0.20424473,-0.42944336,-0.7697754,0.4326172,1584450781770,8632093643085,0.06005909,0,1
1584450781920,NaN,-0.17634748,-0.45507812,-0.7614746,0.4169922,1584450781850,8632093643085,0.06005909,0,1
1584450781923,NaN,-0.13523187,-0.52075195,-0.77001953,0.41967773,1584450781930,8632093643085,0.06628182,0,1
1584450784384,NaN,-0.06665928,-0.49926758,-0.7714844,0.41479492,1584450782010,2435703505776,0.06628182,1,1
1584450784388,NaN,0.05416201,-0.4753418,-0.7858887,0.390625,1584450782090,2435703505776,0.06628182,1,1
1584450784393,20.27027,0.18729155,-0.45751953,-0.8000488,0.38598633,1584450782170,2435703505776,0.06628182,1,1
1584450784397,NaN,0.30138713,-0.45214844,-0.8039551,0.3881836,1584450782250,2435703505776,0.06628182,1,1
1584450784401,NaN,0.4549013,-0.45654297,-0.80126953,0.39038086,1584450782330,2435703505776,0.06628182,1,1
1584450784406,NaN,0.6334133,-0.4489746,-0.81884766,0.37548828,1584450782410,2435703505776,0.06628182,1,1
1584450784409,NaN,0.80355453,-0.45263672,-0.8041992,0.37695312,1584450782490,2435703505776,0.06628182,1,1
1584450784415,NaN,0.9224229,-0.45483398,-0.814209,0.3720703,1584450782570,2435703505776,0.06628182,1,1
1584450784418,NaN,0.9877139,-0.4543457,-0.78686523,0.3605957,1584450782650,2435703505776,0.06628182,1,1
1584450784423,NaN,1.0319277,-0.45751953,-0.80078125,0.37036133,1584450782730,2435703505776,0.06628182,1,1
1584450784427,NaN,1.0512285,-0.44702148,-0.80029297,0.37158203,1584450782810,2435703505776,0.06628182,1,1
1584450784430,NaN,1.0355493,-0.45581055,-0.81103516,0.38208008,1584450782890,2435703505776,0.06628182,1,1
1584450784434,NaN,0.9968384,-0.45703125,-0.8076172,0.39013672,1584450782970,2435703505776,0.06628182,1,1
1584450784437,NaN,0.89023453,-0.45825195,-0.8117676,0.40283203,1584450783050,2435703505776,0.06628182,1,1
1584450784440,NaN,0.775248,-0.43579102,-0.7922363,0.38891602,1584450783130,2435703505776,0.06628182,1,1
1584450784444,NaN,0.6795706,-0.44262695,-0.8017578,0.39135742,1584450783210,2435703505776,0.06628182,1,1
1584450784447,NaN,0.55920094,-0.4350586,-0.7902832,0.39892578,1584450783290,2435703505776,0.06628182,1,1
1584450784450,NaN,0.41341344,-0.4555664,-0.8059082,0.3935547,1584450783370,2435703505776,0.06628182,1,1
1584450784453,NaN,0.26852855,-0.41430664,-0.80126953,0.3918457,1584450783450,2435703505776,0.06628182,1,1
1584450784456,NaN,0.1301937,-0.40283203,-0.8076172,0.4033203,1584450783530,2435703505776,0.06628182,1,1
1584450784459,NaN,0.037141938,-0.4284668,-0.81152344,0.38549805,1584450783610,2435703505776,0.06628182,1,1
1584450784462,NaN,-0.03872985,-0.44433594,-0.8054199,0.38745117,1584450783690,2435703505776,0.06628182,1,1
1584450784464,NaN,-0.09634587,-0.44873047,-0.8083496,0.3935547,1584450783770,2435703505776,0.06628182,1,1
1584450784468,NaN,-0.1397832,-0.43945312,-0.8054199,0.3959961,1584450783850,2435703505776,0.06628182,1,1
1584450784470,NaN,-0.17780928,-0.4375,-0.79589844,0.40234375,1584450783930,2435703505776,0.06628182,1,1
1584450784473,NaN,-0.17784198,-0.4555664,-0.7944336,0.4033203,1584450784010,2435703505776,0.06628182,1,1
1584450784476,NaN,-0.17243467,-0.45825195,-0.78027344,0.3942871,1584450784090,2435703505776,0.06628182,1,1
1584450784479,NaN,-0.16420586,-0.44873047,-0.80029297,0.3876953,1584450784170,2435703505776,0.06628182,1,1
1584450784483,NaN,-0.1657535,-0.45874023,-0.80371094,0.42895508,1584450784250,2435703505776,0.06628182,1,1
1584450784485,NaN,-0.1339348,-0.49169922,-0.79785156,0.3828125,1584450784330,2435703505776,0.06628182,1,1
1584450784489,NaN,-0.068168044,-0.4267578,-0.79467773,0.33081055,1584450784410,2435703505776,0.08325661,1,1
1584450784492,NaN,0.0051805773,-0.3959961,-0.83203125,0.35766602,1584450784490,2435703505776,0.08325661,1,1
1584450786968,NaN,0.01373076,-0.3864746,-0.8105469,0.38232422,1584450784570,-3760968106508,0.08325661,1,1
1584450786974,NaN,-0.009904358,-0.3479004,-0.8388672,0.4111328,1584450784650,-3760968106508,0.08325661,1,1
1584450786978,NaN,-0.06345514,-0.29248047,-0.81689453,0.4206543,1584450784730,-3760968106508,0.08325661,1,1
1584450786984,NaN,NaN,-0.2763672,-1.1237793,0.44311523,1584450784810,-3760968106508,0.30812722,1,1
1584450786989,NaN,NaN,-0.16748047,-1.1828613,0.22070312,1584450784890,-3760968106508,0.30812722,1,1
1584450786993,NaN,NaN,-0.06518555,-0.920166,-0.087646484,1584450784970,-3760968106508,0.41779488,1,1
1584450786997,NaN,NaN,-0.09790039,-0.9362793,0.03125,1584450785050,-3760968106508,0.41779488,1,1
1584450787000,NaN,NaN,-0.14868164,-0.73217773,-0.053222656,1584450785130,-3760968106508,0.41779488,1,1
1584450787002,NaN,NaN,-0.11376953,-0.7385254,0.0029296875,1584450785210,-3760968106508,0.41779488,1,1
1584450787005,NaN,NaN,-0.1274414,-0.76049805,0.091552734,1584450785290,-3760968106508,0.41779488,1,1
1584450787009,NaN,NaN,-0.4020996,-1.027832,0.14746094,1584450785370,-3760968106508,0.41779488,1,1
1584450787012,NaN,NaN,-0.545166,-1.3520508,0.25927734,1584450785450,-3760968106508,0.41779488,1,1
1584450787015,NaN,NaN,-0.4729004,-1.0253906,0.33666992,1584450785530,-3760968106508,0.41779488,1,1
1584450787018,NaN,NaN,-0.18603516,-0.71875,0.30810547,1584450785610,-3760968106508,0.42087534,1,1
1584450787022,NaN,NaN,-0.118652344,-0.7915039,0.3466797,1584450785690,-3760968106508,0.42087534,1,1
1584450787025,NaN,NaN,-0.31420898,-0.96728516,0.41748047,1584450785770,-3760968106508,0.42087534,1,1
1584450787029,NaN,NaN,-0.28686523,-0.8457031,0.42138672,1584450785850,-3760968106508,0.42087534,1,1
1584450787033,NaN,NaN,-0.32080078,-0.7602539,0.44140625,1584450785930,-3760968106508,0.42087534,1,1
1584450787036,NaN,NaN,-0.2607422,-0.8510742,0.44482422,1584450786010,-3760968106508,0.42087534,1,1
1584450787039,NaN,NaN,-0.29418945,-0.87524414,0.46923828,1584450786090,-3760968106508,0.42087534,1,1
1584450787043,NaN,NaN,-0.3022461,-0.8088379,0.4970703,1584450786170,-3760968106508,0.42087534,1,1
1584450787045,NaN,NaN,-0.31201172,-0.7871094,0.5041504,1584450786250,-3760968106508,0.42087534,1,1
1584450787048,NaN,NaN,-0.25854492,-0.8305664,0.5114746,1584450786330,-3760968106508,0.42087534,1,1
1584450787051,NaN,NaN,-0.3293457,-0.75927734,0.5019531,1584450786410,-3760968106508,0.42087534,1,1
1584450787054,NaN,NaN,-0.37060547,-0.7578125,0.5253906,1584450786490,-3760968106508,0.42087534,1,1
1584450787058,NaN,NaN,-0.31518555,-0.7624512,0.5449219,1584450786570,-3760968106508,0.42087534,1,1
1584450787060,NaN,NaN,-0.3161621,-0.7585449,0.5390625,1584450786650,-3760968106508,0.42087534,1,1
1584450787063,NaN,NaN,-0.36328125,-0.7314453,0.56274414,1584450786730,-3760968106508,0.42087534,1,1
1584450787066,NaN,NaN,-0.36987305,-0.7438965,0.54296875,1584450786810,-3760968106508,0.42087534,1,1
1584450787068,NaN,NaN,-0.33081055,-0.7770996,0.54418945,1584450786890,-3760968106508,0.42087534,1,1
1584450787072,NaN,NaN,-0.34814453,-0.7648926,0.5839844,1584450786970,-3760968106508,0.42087534,1,1
1584450787075,NaN,NaN,-0.3569336,-0.69262695,0.5983887,1584450787050,-3760968106508,0.42087534,1,1
1584450789554,NaN,NaN,-0.3659668,-0.7277832,0.6113281,1584450787130,8489385829892,0.42087534,1,1
1584450789560,NaN,NaN,-0.33935547,-0.6882324,0.58081055,1584450787210,8489385829892,0.42087534,1,1
1584450789565,NaN,NaN,-0.30273438,-0.7084961,0.58081055,1584450787290,8489385829892,0.42087534,1,1
1584450789570,NaN,NaN,-0.30615234,-0.7338867,0.5732422,1584450787370,8489385829892,0.42087534,1,1
1584450789575,NaN,NaN,-0.33569336,-0.72216797,0.6044922,1584450787450,8489385829892,0.42087534,1,1
1584450789580,NaN,NaN,-0.35717773,-0.7138672,0.5966797,1584450787530,8489385829892,0.42087534,1,1
1584450789584,NaN,NaN,-0.33447266,-0.72753906,0.5891113,1584450787610,8489385829892,0.42087534,1,1
1584450789587,NaN,NaN,-0.32641602,-0.75024414,0.5588379,1584450787690,8489385829892,0.42087534,1,1
1584450789590,NaN,NaN,-0.3383789,-0.7597656,0.57910156,1584450787770,8489385829892,0.42087534,1,1
1584450789594,NaN,NaN,-0.3239746,-0.76464844,0.5527344,1584450787850,8489385829892,0.42087534,1,1
1584450789597,NaN,NaN,-0.32836914,-0.75,0.57421875,1584450787930,8489385829892,0.42087534,1,1
1584450789600,NaN,NaN,-0.32739258,-0.75268555,0.58496094,1584450788010,8489385829892,0.42087534,1,1
1584450789604,NaN,NaN,-0.28442383,-0.71191406,0.61572266,1584450788090,8489385829892,0.42087534,1,1
1584450789608,NaN,-0.26584196,-0.27978516,-0.7282715,0.59521484,1584450788170,8489385829892,0.27231267,1,1
1584450789612,NaN,-0.48522744,-0.26513672,-0.7297363,0.61987305,1584450788250,8489385829892,0.27231267,1,1
1584450789615,NaN,-0.72927403,-0.27124023,-0.72509766,0.6296387,1584450788330,8489385829892,0.12468011,1,1
1584450789618,NaN,-0.9719248,-0.27929688,-0.7248535,0.6203613,1584450788410,8489385829892,0.108935975,1,1
1584450789621,NaN,-1.2197362,-0.25463867,-0.734375,0.5983887,1584450788490,8489385829892,0.108935975,1,1
1584450789624,NaN,-1.4385139,-0.2565918,-0.74365234,0.6184082,1584450788570,8489385829892,0.100923434,1,1
1584450789628,NaN,-1.714316,-0.27416992,-0.74609375,0.60424805,1584450788650,8489385829892,0.100923434,1,1
1584450789630,NaN,-2.0264728,-0.26220703,-0.73046875,0.5888672,1584450788730,8489385829892,0.100923434,1,1
1584450789634,NaN,-2.290643,-0.29663086,-0.74609375,0.59472656,1584450788810,8489385829892,0.100923434,1,1
1584450789636,NaN,-2.4700382,-0.27978516,-0.76831055,0.57910156,1584450788890,8489385829892,0.100923434,1,1
1584450789640,NaN,-2.591334,-0.2529297,-0.77563477,0.5625,1584450788970,8489385829892,0.07420951,1,1
1584450789644,NaN,-2.62959,-0.24511719,-0.77905273,0.5361328,1584450789050,8489385829892,0.07420951,1,1
1584450789646,NaN,-2.3721066,-0.23803711,-0.81591797,0.54785156,1584450789130,8489385829892,0.07420951,1,1
1584450789650,NaN,-2.0484278,-0.20214844,-0.8527832,0.50268555,1584450789210,8489385829892,0.07420951,1,1
1584450789653,NaN,-1.6613541,-0.19995117,-0.85668945,0.43945312,1584450789290,8489385829892,0.07420951,1,1
1584450789656,NaN,-1.2782801,-0.1796875,-0.8569336,0.4189453,1584450789370,8489385829892,0.07420951,1,1
1584450789658,NaN,-0.8862148,-0.19335938,-0.89086914,0.42211914,1584450789450,8489385829892,0.07420951,1,1
1584450789663,NaN,-0.5020976,-0.20141602,-0.86328125,0.4267578,1584450789530,8489385829892,0.07420951,1,1
1584450789664,NaN,-0.07719412,-0.1821289,-0.89160156,0.39331055,1584450789610,8489385829892,0.06846175,1,1
1584450792138,NaN,0.3407205,-0.2055664,-0.8774414,0.41308594,1584450789690,2220938098546,0.06846175,1,1
1584450792143,NaN,0.6683893,-0.1899414,-0.8598633,0.45703125,1584450789770,2220938098546,0.06846175,1,1
1584450792148,NaN,0.9298323,-0.2019043,-0.8574219,0.48583984,1584450789850,2220938098546,0.06846175,1,1
1584450792153,NaN,1.1179203,-0.20947266,-0.81396484,0.5227051,1584450789930,2220938098546,0.06846175,1,1
1584450792158,NaN,1.2223053,-0.2434082,-0.7873535,0.54174805,1584450790010,2220938098546,0.06846175,1,1
1584450792165,NaN,1.1701401,-0.26831055,-0.7788086,0.5605469,1584450790090,2220938098546,0.06846175,1,1
1584450792171,NaN,1.0184474,-0.25732422,-0.7583008,0.56933594,1584450790170,2220938098546,0.06846175,1,1
1584450792175,NaN,0.7656166,-0.25878906,-0.7609863,0.57592773,1584450790250,2220938098546,0.06846175,1,1
1584450792180,NaN,0.4904424,-0.26831055,-0.74560547,0.5864258,1584450790330,2220938098546,0.06846175,1,1
1584450792184,NaN,0.19841154,-0.2607422,-0.7573242,0.57714844,1584450790410,2220938098546,0.06846175,1,1
1584450792189,NaN,-0.09459051,-0.26098633,-0.7468262,0.5827637,1584450790490,2220938098546,0.06846175,1,1
1584450792192,NaN,-0.42697397,-0.25048828,-0.7792969,0.59033203,1584450790570,2220938098546,0.06846175,1,1
1584450792196,NaN,-0.7153778,-0.26342773,-0.7858887,0.57006836,1584450790650,2220938098546,0.06846175,1,1
1584450792199,NaN,-0.92277503,-0.2512207,-0.7651367,0.5698242,1584450790730,2220938098546,0.06846175,1,1
1584450792203,NaN,-1.0855267,-0.25952148,-0.77197266,0.57958984,1584450790810,2220938098546,0.06846175,1,1
1584450792206,NaN,-1.1499939,-0.2590332,-0.77612305,0.5656738,1584450790890,2220938098546,0.06846175,1,1
1584450792210,NaN,-1.1694773,-0.25317383,-0.77197266,0.56591797,1584450790970,2220938098546,0.06846175,1,1
1584450792213,NaN,-1.1638306,-0.24560547,-0.78149414,0.5656738,1584450791050,2220938098546,0.06846175,1,1
1584450792217,NaN,-1.0803608,-0.25,-0.7871094,0.55737305,1584450791130,2220938098546,0.06846175,1,1
1584450792220,NaN,-0.94640523,-0.24829102,-0.78149414,0.55859375,1584450791210,2220938098546,0.06846175,1,1
1584450792224,NaN,-0.7698408,-0.24975586,-0.80078125,0.55908203,1584450791290,2220938098546,0.06846175,1,1
1584450792228,NaN,-0.6025237,-0.25952148,-0.77783203,0.5559082,1584450791370,2220938098546,0.06846175,1,1
1584450792231,NaN,-0.43836305,-0.2697754,-0.77783203,0.57250977,1584450791450,2220938098546,0.06846175,1,1
1584450792234,NaN,-0.24226637,-0.2631836,-0.78100586,0.5546875,1584450791530,2220938098546,0.06846175,1,1
1584450792238,NaN,-0.119921304,-0.25219727,-0.76220703,0.5698242,1584450791610,2220938098546,0.06846175,1,1
1584450792241,NaN,-0.015802842,-0.25170898,-0.76831055,0.5732422,1584450791690,2220938098546,0.06846175,1,1
1584450792244,NaN,0.066450484,-0.25952148,-0.75878906,0.58154297,1584450791770,2220938098546,0.06339105,1,1
1584450792247,NaN,0.085998446,-0.2524414,-0.75390625,0.5732422,1584450791850,2220938098546,0.05748773,1,1
1584450792251,NaN,0.092659794,-0.24902344,-0.7607422,0.5788574,1584450791930,2220938098546,0.05748773,1,1
1584450792254,NaN,0.08975974,-0.25219727,-0.75341797,0.56396484,1584450792010,2220938098546,0.05748773,1,1
1584450792256,NaN,0.044353556,-0.24584961,-0.7480469,0.56884766,1584450792090,2220938098546,0.05748773,1,1
1584450792259,NaN,0.019564494,-0.27514648,-0.7836914,0.5761719,1584450792170,2220938098546,0.05748773,1,1
1584450794721,NaN,-0.021842958,-0.27026367,-0.78881836,0.55981445,1584450792250,-3975733513738,0.05748773,1,1
1584450794727,NaN,-0.032877285,-0.26220703,-0.78466797,0.5432129,1584450792330,-3975733513738,0.05748773,1,1
1584450794732,NaN,-0.019520441,-0.2692871,-0.79956055,0.53466797,1584450792410,-3975733513738,0.05748773,1,1
1584450794738,NaN,-0.03229064,-0.23950195,-0.7915039,0.53344727,1584450792490,-3975733513738,0.047142535,1,1
1584450794744,NaN,0.014108145,-0.24536133,-0.79833984,0.54174805,1584450792570,-3975733513738,0.04671706,1,1
1584450794748,NaN,0.04257612,-0.25854492,-0.79785156,0.5539551,1584450792650,-3975733513738,0.04671706,1,1
1584450794754,NaN,0.096731745,-0.23828125,-0.8022461,0.5354004,1584450792730,-3975733513738,0.04671706,1,1
1584450794757,NaN,0.15717758,-0.24194336,-0.7944336,0.53222656,1584450792810,-3975733513738,0.04671706,1,1
1584450794760,NaN,0.22304218,-0.23950195,-0.81152344,0.5344238,1584450792890,-3975733513738,0.04671706,1,1
1584450794764,NaN,0.268844,-0.24047852,-0.7907715,0.53271484,1584450792970,-3975733513738,0.04671706,1,1
1584450794769,NaN,0.34563914,-0.25024414,-0.80493164,0.5319824,1584450793050,-3975733513738,0.04671706,1,1
1584450794773,NaN,0.38384914,-0.25439453,-0.7993164,0.53466797,1584450793130,-3975733513738,0.04671706,1,1
1584450794778,NaN,0.4018174,-0.25024414,-0.80737305,0.54345703,1584450793210,-3975733513738,0.04671706,1,1
1584450794784,NaN,0.36980522,-0.26538086,-0.77978516,0.5690918,1584450793290,-3975733513738,0.04671706,1,1
1584450794789,NaN,0.304284,-0.2602539,-0.76660156,0.5551758,1584450793370,-3975733513738,0.04671706,1,1
1584450794793,NaN,0.25807342,-0.26123047,-0.77612305,0.5739746,1584450793450,-3975733513738,0.04671706,1,1
1584450794797,NaN,0.18534708,-0.26611328,-0.7727051,0.58618164,1584450793530,-3975733513738,0.04671706,1,1
1584450794801,NaN,0.117506824,-0.26611328,-0.7519531,0.58496094,1584450793610,-3975733513738,0.04671706,1,1
1584450794804,NaN,0.007718762,-0.25805664,-0.7524414,0.59887695,1584450793690,-3975733513738,0.04671706,1,1
1584450794807,NaN,-0.095712475,-0.26391602,-0.75341797,0.59643555,1584450793770,-3975733513738,0.04671706,1,1
1584450794811,NaN,-0.20561938,-0.23217773,-0.7404785,0.5715332,1584450793850,-3975733513738,0.04671706,1,1
1584450794813,NaN,-0.30180886,-0.24902344,-0.7429199,0.5905762,1584450793930,-3975733513738,0.04671706,1,1
1584450794818,NaN,-0.41087925,-0.27270508,-0.76538086,0.595459,1584450794010,-3975733513738,0.04671706,1,1
1584450794821,NaN,-0.4932377,-0.2614746,-0.7570801,0.5810547,1584450794090,-3975733513738,0.04671706,1,1
1584450794824,NaN,-0.5447435,-0.27490234,-0.75561523,0.5654297,1584450794170,-3975733513738,0.04671706,1,1
1584450794827,NaN,-0.5106352,-0.32763672,-0.77319336,0.55737305,1584450794250,-3975733513738,0.056167733,1,1
1584450794830,NaN,-0.4631953,-0.33007812,-0.76660156,0.54541016,1584450794330,-3975733513738,0.056167733,1,1
1584450794835,NaN,-0.40604568,-0.3527832,-0.7553711,0.54418945,1584450794410,-3975733513738,0.056167733,1,1
1584450794838,NaN,-0.31850806,-0.35473633,-0.7624512,0.5300293,1584450794490,-3975733513738,0.056167733,1,1
1584450794841,NaN,-0.23125766,-0.37817383,-0.7404785,0.5383301,1584450794570,-3975733513738,0.056167733,1,1
1584450794846,NaN,-0.095735945,-0.390625,-0.7595215,0.53344727,1584450794650,-3975733513738,0.056167733,1,1
1584450794850,NaN,0.01783059,-0.38208008,-0.7348633,0.5390625,1584450794730,-3975733513738,0.056167733,1,1
1584450797307,31.25,0.1275403,-0.375,-0.7487793,0.5444336,1584450794810,8274620422662,0.056167733,1,1
1584450797310,NaN,0.26094568,-0.3959961,-0.7595215,0.54003906,1584450794890,8274620422662,0.056167733,1,1
1584450797314,NaN,0.36591706,-0.39746094,-0.73999023,0.5539551,1584450794970,8274620422662,0.056167733,1,1
1584450797320,NaN,0.4688046,-0.38671875,-0.7397461,0.5383301,1584450795050,8274620422662,0.056167733,1,1
1584450797327,NaN,0.54773706,-0.39916992,-0.73461914,0.5366211,1584450795130,8274620422662,0.056167733,1,1
1584450797332,NaN,0.531585,-0.3918457,-0.71728516,0.5529785,1584450795210,8274620422662,0.056167733,1,1
1584450797337,NaN,0.50570923,-0.40161133,-0.73095703,0.5625,1584450795290,8274620422662,0.056167733,1,1
1584450797340,NaN,0.4468942,-0.38305664,-0.69384766,0.5671387,1584450795370,8274620422662,0.056167733,1,1
1584450797344,NaN,0.35283276,-0.37817383,-0.70703125,0.57055664,1584450795450,8274620422662,0.056167733,1,1
1584450797352,NaN,0.2754772,-0.39160156,-0.7133789,0.57006836,1584450795530,8274620422662,0.056167733,1,1
1584450797357,NaN,0.15104261,-0.36938477,-0.7116699,0.57299805,1584450795610,8274620422662,0.056167733,1,1
1584450797362,NaN,0.08407659,-0.37475586,-0.720459,0.5463867,1584450795690,8274620422662,0.056167733,1,1
1584450797366,NaN,0.024704525,-0.390625,-0.74609375,0.5588379,1584450795770,8274620422662,0.056167733,1,1
1584450797370,NaN,-0.07203397,-0.38012695,-0.73706055,0.55615234,1584450795850,8274620422662,0.056167733,1,1
1584450797374,NaN,-0.11277801,-0.37451172,-0.74975586,0.54589844,1584450795930,8274620422662,0.056167733,1,1
1584450797377,NaN,-0.17034338,-0.3618164,-0.7487793,0.5449219,1584450796010,8274620422662,0.056167733,1,1
1584450797380,NaN,-0.21090774,-0.35766602,-0.76220703,0.5402832,1584450796090,8274620422662,0.056167733,1,1
1584450797383,NaN,-0.19106925,-0.36206055,-0.7644043,0.5500488,1584450796170,8274620422662,0.056167733,1,1
1584450797386,NaN,-0.15971689,-0.3479004,-0.7578125,0.5344238,1584450796250,8274620422662,0.056167733,1,1
1584450797390,NaN,-0.07932442,-0.33911133,-0.77075195,0.53881836,1584450796330,8274620422662,0.056167733,1,1
1584450797393,NaN,0.014842798,-0.34033203,-0.7763672,0.53637695,1584450796410,8274620422662,0.056167733,1,1
1584450797396,NaN,0.077175856,-0.35058594,-0.76123047,0.54589844,1584450796490,8274620422662,0.056167733,1,1
1584450797399,34.090908,0.17240764,-0.35742188,-0.76464844,0.5410156,1584450796570,8274620422662,0.056167733,1,1
1584450797402,NaN,0.19822417,-0.3708496,-0.75756836,0.5498047,1584450796650,8274620422662,0.056167733,1,1
1584450797405,NaN,0.20187093,-0.3737793,-0.7429199,0.56030273,1584450796730,8274620422662,0.056167733,1,1
1584450797408,NaN,0.22990106,-0.38232422,-0.7409668,0.5527344,1584450796810,8274620422662,0.041748047,1,1
1584450797413,NaN,0.19858472,-0.38256836,-0.7236328,0.56762695,1584450796890,8274620422662,0.041748047,1,1
1584450797415,NaN,0.17676799,-0.3635254,-0.7248535,0.5686035,1584450796970,8274620422662,0.041748047,1,1
1584450797417,NaN,0.13248636,-0.36743164,-0.71484375,0.57177734,1584450797050,8274620422662,0.041748047,1,1
1584450797420,NaN,0.07973932,-0.3815918,-0.70166016,0.5629883,1584450797130,8274620422662,0.041748047,1,1
1584450797423,NaN,0.015736265,-0.38598633,-0.69677734,0.5600586,1584450797210,8274620422662,0.041748047,1,1
1584450797428,NaN,-0.06100163,-0.36669922,-0.71191406,0.54663086,1584450797290,8274620422662,0.041748047,1,1
1584450799890,NaN,-0.13619457,-0.39941406,-0.74121094,0.5600586,1584450797370,2078230285354,0.045922454,1,1
1584450799897,NaN,-0.1620856,-0.38330078,-0.7597656,0.54125977,1584450797450,2078230285354,0.045922454,1,1
1584450799905,NaN,-0.22025089,-0.37963867,-0.73583984,0.5461426,1584450797530,2078230285354,0.045922454,1,1
1584450799909,NaN,-0.21289891,-0.35375977,-0.7668457,0.5234375,1584450797610,2078230285354,0.04633143,1,1
1584450799912,NaN,-0.18656898,-0.3828125,-0.75927734,0.54125977,1584450797690,2078230285354,0.04633143,1,1
1584450799915,NaN,-0.16755809,-0.37451172,-0.74902344,0.5229492,1584450797770,2078230285354,0.04633143,1,1
1584450799919,NaN,-0.0895758,-0.3540039,-0.77197266,0.51953125,1584450797850,2078230285354,0.04633143,1,1
1584450799924,NaN,-0.011342838,-0.359375,-0.78271484,0.5319824,1584450797930,2078230285354,0.04633143,1,1
1584450799927,NaN,0.07592762,-0.36279297,-0.75561523,0.5319824,1584450798010,2078230285354,0.04633143,1,1
1584450799933,NaN,0.1637871,-0.37109375,-0.7680664,0.52856445,1584450798090,2078230285354,0.04633143,1,1
1584450799934,NaN,0.25656435,-0.37231445,-0.75634766,0.5227051,1584450798170,2078230285354,0.04633143,1,1
1584450799938,NaN,0.31133154,-0.3540039,-0.7519531,0.5349121,1584450798250,2078230285354,0.04633143,1,1
1584450799942,NaN,0.3560085,-0.3696289,-0.75756836,0.54174805,1584450798330,2078230285354,0.04633143,1,1
1584450799946,NaN,0.35791108,-0.35546875,-0.77001953,0.5349121,1584450798410,2078230285354,0.04633143,1,1
1584450799950,NaN,0.37650442,-0.3671875,-0.76293945,0.5583496,1584450798490,2078230285354,0.04633143,1,1
1584450799954,NaN,0.37126598,-0.34423828,-0.78808594,0.515625,1584450798570,2078230285354,0.054629706,1,1
1584450799957,NaN,0.37695518,-0.36914062,-0.76953125,0.5085449,1584450798650,2078230285354,0.054629706,1,1
1584450799959,NaN,0.35374284,-0.31201172,-0.7709961,0.5407715,1584450798730,2078230285354,0.065607995,1,1
1584450799963,NaN,0.26268056,-0.29174805,-0.7607422,0.5722656,1584450798810,2078230285354,0.065607995,1,1
1584450799966,NaN,0.17813034,-0.28320312,-0.7585449,0.5698242,1584450798890,2078230285354,0.065607995,1,1
1584450799969,NaN,0.079355754,-0.23120117,-0.7001953,0.5822754,1584450798970,2078230285354,0.07914488,1,1
1584450799972,NaN,0.011950821,-0.2475586,-0.8078613,0.59155273,1584450799050,2078230285354,0.10929595,1,1
1584450799976,NaN,-0.05893429,-0.11425781,-0.77441406,0.58374023,1584450799130,2078230285354,0.13765483,1,1
1584450799978,NaN,-0.018480748,-0.1459961,-0.8708496,0.55371094,1584450799210,2078230285354,0.13765483,1,1
1584450799981,NaN,0.08106551,-0.107910156,-0.8232422,0.4609375,1584450799290,2078230285354,0.13765483,1,1
1584450799985,NaN,0.21472402,-0.16064453,-0.8547363,0.4260254,1584450799370,2078230285354,0.13765483,1,1
1584450799988,NaN,0.38831058,-0.18066406,-0.8652344,0.41137695,1584450799450,2078230285354,0.13765483,1,1
1584450799990,NaN,0.4773024,-0.16503906,-0.89501953,0.48388672,1584450799530,2078230285354,0.13765483,1,1
1584450799994,NaN,0.5481866,-0.17236328,-0.83081055,0.46142578,1584450799610,2078230285354,0.13765483,1,1
1584450799996,NaN,0.64404124,-0.21875,-0.86450195,0.49121094,1584450799690,2078230285354,0.13765483,1,1
1584450799999,NaN,0.7699857,-0.20874023,-0.8286133,0.51464844,1584450799770,2078230285354,0.13765483,1,1
1584450800002,NaN,0.8605388,-0.21435547,-0.80200195,0.53564453,1584450799850,2078230285354,0.13765483,1,1
1584450802474,NaN,0.9913128,-0.24829102,-0.8149414,0.53881836,1584450799930,-4118441326930,0.13765483,1,1
1584450802479,NaN,1.0247843,-0.2475586,-0.78100586,0.545166,1584450800010,-4118441326930,0.13765483,1,1
1584450802485,NaN,1.0489451,-0.26123047,-0.7871094,0.54663086,1584450800090,-4118441326930,0.13765483,1,1
1584450802489,NaN,0.9218225,-0.26293945,-0.7844238,0.5539551,1584450800170,-4118441326930,0.13765483,1,1
1584450802495,NaN,0.685668,-0.26611328,-0.7602539,0.5456543,1584450800250,-4118441326930,0.13765483,1,1
1584450802499,NaN,0.40625533,-0.26293945,-0.78808594,0.5546875,1584450800330,-4118441326930,0.13765483,1,1
1584450802503,NaN,0.07889498,-0.24707031,-0.7619629,0.54345703,1584450800410,-4118441326930,0.13765483,1,1
1584450802507,44.117645,-0.13289279,-0.2565918,-0.8027344,0.55126953,1584450800490,-4118441326930,0.13765483,1,1
1584450802512,NaN,-0.33497226,-0.26049805,-0.7878418,0.5617676,1584450800570,-4118441326930,0.13765483,1,1
1584450802517,NaN,-0.5061242,-0.2861328,-0.80810547,0.5432129,1584450800650,-4118441326930,0.13765483,1,1
1584450802523,NaN,-0.64939874,-0.2866211,-0.7692871,0.52978516,1584450800730,-4118441326930,0.13765483,1,1
1584450802526,NaN,-0.7488269,-0.30200195,-0.7709961,0.546875,1584450800810,-4118441326930,0.13765483,1,1
1584450802530,NaN,-0.8316526,-0.28930664,-0.80688477,0.5266113,1584450800890,-4118441326930,0.13765483,1,1
1584450802535,NaN,-0.84656686,-0.2524414,-0.7866211,0.54125977,1584450800970,-4118441326930,0.13765483,1,1
1584450802540,NaN,-0.8425031,-0.25756836,-0.78930664,0.53515625,1584450801050,-4118441326930,0.13765483,1,1
1584450802544,NaN,-0.78813237,-0.25439453,-0.7832031,0.56640625,1584450801130,-4118441326930,0.13765483,1,1
1584450802548,NaN,-0.6631629,-0.25854492,-0.7890625,0.56030273,1584450801210,-4118441326930,0.13765483,1,1
1584450802551,NaN,-0.52839226,-0.25805664,-0.78637695,0.5595703,1584450801290,-4118441326930,0.13765483,1,1
1584450802554,NaN,-0.385812,-0.2734375,-0.77075195,0.5534668,1584450801370,-4118441326930,0.13765483,1,1
1584450802559,NaN,-0.31083924,-0.30859375,-0.765625,0.55566406,1584450801450,-4118441326930,0.13765483,1,1
1584450802563,NaN,-0.21017586,-0.2944336,-0.78222656,0.5515137,1584450801530,-4118441326930,0.13765483,1,1
1584450802567,NaN,-0.1634423,-0.28515625,-0.77368164,0.5605469,1584450801610,-4118441326930,0.13765483,1,1
1584450802571,NaN,-0.12863667,-0.27978516,-0.7602539,0.5578613,1584450801690,-4118441326930,0.11101314,1,1
1584450802575,NaN,-0.10913823,-0.27294922,-0.75805664,0.58081055,1584450801770,-4118441326930,0.11101314,1,1
1584450802577,NaN,-0.1605768,-0.27270508,-0.7446289,0.57006836,1584450801850,-4118441326930,0.07993098,1,1
1584450802581,NaN,-0.20546275,-0.28320312,-0.73999023,0.55737305,1584450801930,-4118441326930,0.07993098,1,1
1584450802584,NaN,-0.2706868,-0.30737305,-0.76953125,0.5925293,1584450802010,-4118441326930,0.07993098,1,1
1584450802586,NaN,-0.29448712,-0.29907227,-0.7507324,0.5734863,1584450802090,-4118441326930,0.06841733,1,1
1584450802592,NaN,-0.337747,-0.29345703,-0.76220703,0.58447266,1584450802170,-4118441326930,0.06460646,1,1
1584450802593,NaN,-0.36078477,-0.28759766,-0.7590332,0.56811523,1584450802250,-4118441326930,0.051892374,1,1
1584450802596,NaN,-0.3700802,-0.29003906,-0.7607422,0.56591797,1584450802330,-4118441326930,0.051892374,1,1
1584450802598,NaN,-0.3449348,-0.29663086,-0.7648926,0.5710449,1584450802410,-4118441326930,0.051892374,1,1
1584450804856,NaN,-0.3441099,-0.27416992,-0.78027344,0.56030273,1584450802490,8131912609470,0.051892374,1,1
1584450804863,NaN,-0.31928727,-0.27929688,-0.76342773,0.5593262,1584450802570,8131912609470,0.051892374,1,1
1584450804867,NaN,-0.3044648,-0.30297852,-0.7692871,0.56811523,1584450802650,8131912609470,0.051892374,1,1
1584450804872,NaN,-0.28537562,-0.2927246,-0.75683594,0.5786133,1584450802730,8131912609470,0.051892374,1,1
1584450804877,NaN,-0.22196138,-0.30419922,-0.75341797,0.5563965,1584450802810,8131912609470,0.051892374,1,1
1584450804880,NaN,-0.1621379,-0.2861328,-0.7729492,0.55371094,1584450802890,8131912609470,0.051892374,1,1
1584450804887,NaN,-0.031541992,-0.26831055,-0.80493164,0.51464844,1584450802970,8131912609470,0.053538654,1,1
1584450804957,NaN,0.084535666,-0.2758789,-0.81518555,0.49804688,1584450803050,8131912609470,0.053538654,1,1
1584450804963,NaN,0.2290119,-0.23657227,-0.8483887,0.5019531,1584450803130,8131912609470,0.053538654,1,1
1584450804969,NaN,0.35722348,-0.2331543,-0.8203125,0.47387695,1584450803210,8131912609470,0.053538654,1,1
1584450804975,NaN,0.45472586,-0.2915039,-0.82299805,0.4873047,1584450803290,8131912609470,0.059934907,1,1
1584450804981,NaN,0.5353028,-0.28881836,-0.8120117,0.4958496,1584450803370,8131912609470,0.059934907,1,1
1584450804987,NaN,0.6145664,-0.31713867,-0.8342285,0.46899414,1584450803450,8131912609470,0.059934907,1,1
1584450804992,NaN,0.6867628,-0.3005371,-0.795166,0.4711914,1584450803530,8131912609470,0.059934907,1,1
1584450804996,NaN,0.7685063,-0.2565918,-0.8046875,0.4934082,1584450803610,8131912609470,0.059934907,1,1
1584450805001,NaN,0.8272663,-0.25341797,-0.7836914,0.5263672,1584450803690,8131912609470,0.059934907,1,1
1584450805008,NaN,0.85506225,-0.2932129,-0.79248047,0.53564453,1584450803770,8131912609470,0.059934907,1,1
1584450805012,NaN,0.85218483,-0.28881836,-0.7885742,0.53930664,1584450803850,8131912609470,0.059934907,1,1
1584450805018,NaN,0.75792307,-0.27319336,-0.7883301,0.53100586,1584450803930,8131912609470,0.059934907,1,1
1584450805024,NaN,0.6639424,-0.27075195,-0.8251953,0.52001953,1584450804010,8131912609470,0.059934907,1,1
1584450805025,NaN,0.5498436,-0.23852539,-0.83569336,0.5012207,1584450804090,8131912609470,0.059934907,1,1
1584450805028,NaN,0.4360048,-0.21435547,-0.82128906,0.49829102,1584450804170,8131912609470,0.059934907,1,1
1584450805032,NaN,0.37511405,-0.2055664,-0.81640625,0.4777832,1584450804250,8131912609470,0.059934907,1,1
1584450805036,NaN,0.33197686,-0.22290039,-0.8408203,0.49194336,1584450804330,8131912609470,0.059934907,1,1
1584450805040,NaN,0.26924294,-0.26904297,-0.8444824,0.47045898,1584450804410,8131912609470,0.059934907,1,1
1584450805043,NaN,0.24710806,-0.29492188,-0.83862305,0.4338379,1584450804490,8131912609470,0.059934907,1,1
1584450805047,NaN,0.23714451,-0.32177734,-0.8601074,0.41186523,1584450804570,8131912609470,0.059934907,1,1
1584450805051,NaN,0.26972923,-0.3256836,-0.8498535,0.41577148,1584450804650,8131912609470,0.059934907,1,1
1584450805055,NaN,0.35022235,-0.32714844,-0.8535156,0.39282227,1584450804730,8131912609470,0.059934907,1,1
1584450805059,NaN,0.4589227,-0.33251953,-0.8691406,0.39111328,1584450804810,8131912609470,0.059934907,1,1
1584450805061,NaN,0.5877239,-0.34448242,-0.8581543,0.38891602,1584450804890,8131912609470,0.059934907,1,1
1584450805065,NaN,0.67641336,-0.33666992,-0.8496094,0.39282227,1584450804970,8131912609470,0.059934907,1,1
1584450807440,NaN,0.72219086,-0.34814453,-0.84350586,0.4074707,1584450805050,1935522472161,0.059934907,1,1
1584450807447,NaN,0.77054214,-0.3310547,-0.83691406,0.4111328,1584450805130,1935522472161,0.059934907,1,1
1584450807454,NaN,0.77643675,-0.3178711,-0.8400879,0.4128418,1584450805210,1935522472161,0.059934907,1,1
1584450807459,NaN,0.76854795,-0.31152344,-0.8417969,0.42651367,1584450805290,1935522472161,0.059934907,1,1
1584450807466,NaN,0.7571563,-0.30932617,-0.8491211,0.45361328,1584450805370,1935522472161,0.059934907,1,1
1584450807470,NaN,0.70045805,-0.27270508,-0.8496094,0.46411133,1584450805450,1935522472161,0.059934907,1,1
1584450807475,NaN,0.6025965,-0.26000977,-0.84033203,0.46826172,1584450805530,1935522472161,0.059934907,1,1
1584450807480,NaN,0.48098218,-0.2277832,-0.83618164,0.48706055,1584450805610,1935522472161,0.059934907,1,1
1584450807485,NaN,0.28782806,-0.2290039,-0.80322266,0.5029297,1584450805690,1935522472161,0.059934907,1,1
1584450807488,NaN,0.056791384,-0.2265625,-0.80078125,0.5288086,1584450805770,1935522472161,0.059934907,1,1
1584450807491,11.19403,-0.1712311,-0.25341797,-0.8017578,0.5461426,1584450805850,1935522472161,0.051030647,1,1
1584450807496,NaN,-0.3667353,-0.26171875,-0.7873535,0.5354004,1584450805930,1935522472161,0.051030647,1,1
1584450807498,NaN,-0.5189545,-0.2631836,-0.7910156,0.5517578,1584450806010,1935522472161,0.051030647,1,1
1584450807503,NaN,-0.6698682,-0.24609375,-0.7907715,0.56030273,1584450806090,1935522472161,0.051030647,1,1
1584450807505,NaN,-0.82525927,-0.2319336,-0.77368164,0.5683594,1584450806170,1935522472161,0.051030647,1,1
1584450807509,NaN,-0.96163124,-0.20922852,-0.7692871,0.5563965,1584450806250,1935522472161,0.051030647,1,1
1584450807514,NaN,-1.073585,-0.18725586,-0.7766113,0.5744629,1584450806330,1935522472161,0.051030647,1,1
1584450807518,NaN,-1.1692468,-0.21191406,-0.79052734,0.58154297,1584450806410,1935522472161,0.051030647,1,1
1584450807521,NaN,-1.2418829,-0.23339844,-0.78808594,0.5859375,1584450806490,1935522472161,0.051030647,1,1
1584450807527,NaN,-1.3053871,-0.2319336,-0.78686523,0.59375,1584450806570,1935522472161,0.051030647,1,1
1584450807528,NaN,-1.3151466,-0.25390625,-0.75878906,0.59887695,1584450806650,1935522472161,0.051030647,1,1
1584450807531,NaN,-1.2757683,-0.25976562,-0.7402344,0.58154297,1584450806730,1935522472161,0.051030647,1,1
1584450807536,NaN,-1.2301959,-0.26879883,-0.7272949,0.5991211,1584450806810,1935522472161,0.051030647,1,1
1584450807539,NaN,-1.2372012,-0.27929688,-0.6887207,0.64282227,1584450806890,1935522472161,0.059228133,1,1
1584450807542,NaN,-1.2600255,-0.27539062,-0.65844727,0.6516113,1584450806970,1935522472161,0.059228133,1,1
1584450807546,NaN,-1.2727522,-0.25195312,-0.6635742,0.65063477,1584450807050,1935522472161,0.059228133,1,1
1584450807549,NaN,-1.2426662,-0.22241211,-0.68847656,0.6503906,1584450807130,1935522472161,0.059228133,1,1
1584450807553,NaN,-1.2343658,-0.21557617,-0.7089844,0.6689453,1584450807210,1935522472161,0.059228133,1,1
1584450807555,NaN,-1.2044134,-0.2097168,-0.7338867,0.6608887,1584450807290,1935522472161,0.059228133,1,1
1584450807558,NaN,-1.1534145,-0.1772461,-0.7541504,0.6364746,1584450807370,1935522472161,0.059228133,1,1
1584450807561,NaN,-1.0924371,-0.15625,-0.75,0.62109375,1584450807450,1935522472161,0.059228133,1,1
1584450807565,NaN,-1.0377293,-0.13671875,-0.7512207,0.6262207,1584450807530,1935522472161,0.059228133,1,1
1584450810037,NaN,-0.9582651,-0.14526367,-0.7751465,0.6196289,1584450807610,-4261149140123,0.059228133,1,1
1584450810045,NaN,-0.8768918,-0.13232422,-0.7961426,0.60302734,1584450807690,-4261149140123,0.059228133,1,1
1584450810052,NaN,-0.7818108,-0.12817383,-0.7697754,0.6003418,1584450807770,-4261149140123,0.059228133,1,1
1584450810060,NaN,-0.59088045,-0.14208984,-0.7746582,0.611084,1584450807850,-4261149140123,0.059228133,1,1
1584450810067,NaN,-0.36770022,-0.15307617,-0.77612305,0.6188965,1584450807930,-4261149140123,0.059228133,1,1
1584450810072,NaN,-0.16260028,-0.17944336,-0.75878906,0.6123047,1584450808010,-4261149140123,0.059228133,1,1
1584450810075,NaN,0.0029162068,-0.18066406,-0.75390625,0.60375977,1584450808090,-4261149140123,0.059228133,1,1
1584450810079,NaN,0.1674574,-0.20458984,-0.7475586,0.6101074,1584450808170,-4261149140123,0.059228133,1,1
1584450810085,NaN,0.27487215,-0.20776367,-0.748291,0.6291504,1584450808250,-4261149140123,0.059228133,1,1
1584450810090,NaN,0.31198654,-0.2265625,-0.7351074,0.6455078,1584450808330,-4261149140123,0.059228133,1,1
1584450810094,NaN,0.34207317,-0.20825195,-0.7312012,0.6237793,1584450808410,-4261149140123,0.059228133,1,1
1584450810097,NaN,0.37740436,-0.21850586,-0.74365234,0.6269531,1584450808490,-4261149140123,0.059228133,1,1
1584450810102,NaN,0.35646006,-0.20800781,-0.7409668,0.6333008,1584450808570,-4261149140123,0.059228133,1,1
