local_ts,breathing_rate,breathing_signal,accel_x,accel_y,accel_z,bs_timestamp,rs_ts,activity_level,current_exercise,pred_exercise
1583942199768,NaN,0.13738582,0.09887695,-0.9897461,0.048339844,1583942197142,5862650330637,0.026836596,7,1
1583942199770,NaN,0.09810231,0.11206055,-0.9914551,0.061523438,1583942197222,5862650330637,0.026836596,7,1
1583942199771,NaN,0.036368404,0.095947266,-0.98413086,0.07397461,1583942197302,5862650330637,0.026836596,7,1
1583942199780,NaN,-0.018650798,0.10546875,-0.9875488,0.075683594,1583942197382,5862650330637,0.026836596,7,1
1583942199782,NaN,-0.09132006,0.106933594,-0.9819336,0.079589844,1583942197462,5862650330637,0.026836596,7,1
1583942199807,NaN,-0.17044342,0.10473633,-0.9831543,0.07104492,1583942197542,5862650330637,0.026836596,7,1
1583942199810,NaN,-0.22471493,0.09106445,-0.9929199,0.052978516,1583942197622,5862650330637,0.026836596,7,1
1583942199811,NaN,-0.27408966,0.09448242,-0.9963379,0.061523438,1583942197702,5862650330637,0.026836596,7,1
1583942199813,NaN,-0.28943294,0.107421875,-0.9941406,0.05078125,1583942197782,5862650330637,0.024671495,7,1
1583942199814,NaN,-0.30104983,0.091552734,-0.99316406,0.043945312,1583942197862,5862650330637,0.024671495,7,1
1583942199815,NaN,-0.3176641,0.11425781,-0.9824219,0.041015625,1583942197942,5862650330637,0.025288302,7,1
1583942199819,NaN,-0.29628003,0.109375,-0.98876953,0.0390625,1583942198022,5862650330637,0.025288302,7,1
1583942199834,NaN,-0.26814428,0.100097656,-0.9938965,0.038330078,1583942198102,5862650330637,0.025288302,7,1
1583942199835,NaN,-0.22049905,0.11328125,-0.9909668,0.03857422,1583942198182,5862650330637,0.025288302,7,1
1583942199837,NaN,-0.14376205,0.1081543,-0.9868164,0.033691406,1583942198262,5862650330637,0.025288302,7,1
1583942199838,NaN,-0.069046564,0.10961914,-0.9904785,0.033691406,1583942198342,5862650330637,0.025288302,7,1
1583942199840,NaN,0.010686052,0.11206055,-0.9890137,0.036376953,1583942198422,5862650330637,0.025288302,7,1
1583942199841,17.045454,0.08633614,0.10595703,-0.9926758,0.032226562,1583942198502,5862650330637,0.025288302,7,1
1583942199842,NaN,0.12416059,0.11743164,-0.99194336,0.036621094,1583942198582,5862650330637,0.025288302,7,1
1583942199843,NaN,0.18077521,0.103759766,-0.9938965,0.03149414,1583942198662,5862650330637,0.025288302,7,1
1583942199846,NaN,0.20134236,0.10131836,-0.99365234,0.041259766,1583942198742,5862650330637,0.025288302,7,1
1583942199849,NaN,0.21015354,0.10644531,-0.9902344,0.048583984,1583942198822,5862650330637,0.025288302,7,1
1583942199853,NaN,0.20802389,0.10620117,-0.9897461,0.052246094,1583942198902,5862650330637,0.025288302,7,1
1583942199858,NaN,0.18747695,0.10449219,-0.9902344,0.05834961,1583942198982,5862650330637,0.025288302,7,1
1583942199860,NaN,0.15238257,0.1003418,-0.99316406,0.0703125,1583942199062,5862650330637,0.025288302,7,1
1583942199863,NaN,0.09729754,0.09863281,-0.9807129,0.079833984,1583942199142,5862650330637,0.025288302,7,1
1583942199866,NaN,0.014542724,0.10058594,-0.98461914,0.09057617,1583942199222,5862650330637,0.025288302,7,1
1583942199871,NaN,-0.06853428,0.10571289,-0.98583984,0.09057617,1583942199302,5862650330637,0.025288302,7,1
1583942199874,NaN,-0.13586302,0.11401367,-0.98461914,0.07348633,1583942199382,5862650330637,0.025288302,7,1
1583942199877,NaN,-0.19531484,0.095214844,-0.9953613,0.06347656,1583942199462,5862650330637,0.025288302,7,1
1583942199880,NaN,-0.23406173,0.09863281,-0.9941406,0.061523438,1583942199542,5862650330637,0.025288302,7,1
1583942199883,NaN,-0.27372572,0.10253906,-0.9897461,0.047851562,1583942199622,5862650330637,0.025288302,7,1
1583942202539,NaN,-0.28436068,0.10961914,-0.9897461,0.046142578,1583942199702,-334021281647,0.025288302,7,1
1583942202543,NaN,-0.27618116,0.11376953,-0.9926758,0.04272461,1583942199782,-334021281647,0.025288302,7,1
1583942202548,NaN,-0.25379607,0.10595703,-0.98779297,0.037109375,1583942199862,-334021281647,0.025288302,7,1
1583942202553,NaN,-0.22142048,0.1105957,-0.98828125,0.039794922,1583942199942,-334021281647,0.025288302,7,1
1583942202557,NaN,-0.16531797,0.10620117,-0.9941406,0.03540039,1583942200022,-334021281647,0.025288302,7,1
1583942202562,NaN,-0.08774823,0.11694336,-0.98706055,0.032226562,1583942200102,-334021281647,0.025288302,7,1
1583942202564,NaN,0.008287191,0.1003418,-0.99438477,0.032958984,1583942200182,-334021281647,0.025288302,7,1
1583942202567,34.090908,0.10450175,0.11791992,-0.9890137,0.033691406,1583942200262,-334021281647,0.025288302,7,1
1583942202571,NaN,0.17098172,0.11352539,-0.9916992,0.030517578,1583942200342,-334021281647,0.025288302,7,1
1583942202574,NaN,0.22731917,0.10571289,-0.98779297,0.029052734,1583942200422,-334021281647,0.025288302,7,1
1583942202578,NaN,0.27823287,0.11376953,-0.9897461,0.029052734,1583942200502,-334021281647,0.023853427,7,1
1583942202582,NaN,0.29702234,0.103515625,-0.9995117,0.042236328,1583942200582,-334021281647,0.023853427,7,1
1583942202586,NaN,0.31136838,0.11450195,-0.9873047,0.033447266,1583942200662,-334021281647,0.023853427,7,1
1583942202590,NaN,0.30199763,0.10595703,-0.99072266,0.046142578,1583942200742,-334021281647,0.023853427,7,1
1583942202594,NaN,0.27430725,0.1105957,-0.99194336,0.056152344,1583942200822,-334021281647,0.023853427,7,1
1583942202599,NaN,0.22322263,0.104003906,-0.9848633,0.08129883,1583942200902,-334021281647,0.026942994,7,1
1583942202602,NaN,0.1566366,0.09692383,-0.9848633,0.07861328,1583942200982,-334021281647,0.026942994,7,1
1583942202606,NaN,0.05776767,0.1015625,-0.9873047,0.099365234,1583942201062,-334021281647,0.026942994,7,1
1583942202609,NaN,-0.03264327,0.10571289,-0.982666,0.084228516,1583942201142,-334021281647,0.026942994,7,1
1583942202613,NaN,-0.115968645,0.10888672,-0.9863281,0.07446289,1583942201222,-334021281647,0.026942994,7,1
1583942202617,NaN,-0.18216757,0.084472656,-0.99438477,0.0637207,1583942201302,-334021281647,0.027863067,7,1
1583942202620,NaN,-0.241324,0.09887695,-1.0012207,0.064697266,1583942201382,-334021281647,0.027863067,7,1
1583942202623,NaN,-0.28894657,0.10205078,-0.9855957,0.05053711,1583942201462,-334021281647,0.027863067,7,1
1583942202626,NaN,-0.29721752,0.1015625,-0.99731445,0.045898438,1583942201542,-334021281647,0.027863067,7,1
1583942202629,NaN,-0.31680542,0.111572266,-0.9868164,0.04345703,1583942201622,-334021281647,0.027863067,7,1
1583942202632,NaN,-0.30859873,0.10644531,-0.9916992,0.040771484,1583942201702,-334021281647,0.027863067,7,1
1583942202635,NaN,-0.28357252,0.10620117,-0.98999023,0.043701172,1583942201782,-334021281647,0.027863067,7,1
1583942202638,NaN,-0.20706333,0.11645508,-0.9904785,0.033203125,1583942201862,-334021281647,0.027863067,7,1
1583942202641,NaN,-0.13657683,0.10107422,-0.9929199,0.0390625,1583942201942,-334021281647,0.027863067,7,1
1583942202644,NaN,-0.025812248,0.115722656,-0.9902344,0.036621094,1583942202022,-334021281647,0.027863067,7,1
1583942202647,32.608696,0.06052363,0.11450195,-0.98876953,0.032470703,1583942202102,-334021281647,0.027863067,7,1
1583942202649,NaN,0.12892371,0.10546875,-0.9951172,0.033691406,1583942202182,-334021281647,0.027863067,7,1
1583942204926,NaN,0.18845008,0.107666016,-0.98950195,0.03173828,1583942202262,-6530411418955,0.027863067,7,1
1583942204933,NaN,0.25026345,0.114990234,-0.9897461,0.027832031,1583942202342,-6530411418955,0.027863067,7,1
1583942204940,NaN,0.29334655,0.114990234,-0.9921875,0.02368164,1583942202422,-6530411418955,0.027863067,7,1
1583942204946,NaN,0.30146426,0.09423828,-0.98950195,0.03881836,1583942202502,-6530411418955,0.027863067,7,1
1583942204951,NaN,0.31900415,0.122802734,-0.9897461,0.034423828,1583942202582,-6530411418955,0.028901549,7,1
1583942204955,NaN,0.3058016,0.10644531,-0.9916992,0.05126953,1583942202662,-6530411418955,0.028901549,7,1
1583942204960,NaN,0.2891651,0.103027344,-0.9892578,0.051513672,1583942202742,-6530411418955,0.028901549,7,1
1583942204966,NaN,0.21041374,0.10522461,-0.98706055,0.076660156,1583942202822,-6530411418955,0.028901549,7,1
1583942204968,NaN,0.14485662,0.103515625,-0.9794922,0.07788086,1583942202902,-6530411418955,0.028901549,7,1
1583942204971,NaN,0.05039079,0.10961914,-0.9819336,0.08496094,1583942202982,-6530411418955,0.028901549,7,1
1583942204975,NaN,-0.035028562,0.107666016,-0.9812012,0.08129883,1583942203062,-6530411418955,0.028901549,7,1
1583942204981,NaN,-0.09317847,0.10473633,-0.9929199,0.06323242,1583942203142,-6530411418955,0.028901549,7,1
1583942204984,NaN,-0.14955464,0.096191406,-0.9904785,0.06298828,1583942203222,-6530411418955,0.028901549,7,1
1583942204988,NaN,-0.21085489,0.09692383,-0.99658203,0.060546875,1583942203302,-6530411418955,0.028901549,7,1
1583942204992,NaN,-0.26193526,0.10644531,-0.9904785,0.05517578,1583942203382,-6530411418955,0.028901549,7,1
1583942204996,NaN,-0.2676056,0.10668945,-0.98950195,0.041748047,1583942203462,-6530411418955,0.028901549,7,1
1583942205000,NaN,-0.28696027,0.11035156,-0.9904785,0.045166016,1583942203542,-6530411418955,0.028901549,7,1
1583942205002,NaN,-0.26698014,0.11669922,-0.98999023,0.0390625,1583942203622,-6530411418955,0.028901549,7,1
1583942205006,NaN,-0.25268954,0.10424805,-0.98950195,0.04272461,1583942203702,-6530411418955,0.028901549,7,1
1583942205009,NaN,-0.1802677,0.11767578,-0.98583984,0.036132812,1583942203782,-6530411418955,0.028901549,7,1
1583942205012,NaN,-0.11431405,0.1105957,-0.98876953,0.038330078,1583942203862,-6530411418955,0.028901549,7,1
1583942205016,NaN,-0.03384211,0.11230469,-0.9916992,0.037841797,1583942203942,-6530411418955,0.028901549,7,1
1583942205020,NaN,0.04831666,0.115478516,-0.9890137,0.033447266,1583942204022,-6530411418955,0.028901549,7,1
1583942205024,30.0,0.09661611,0.111083984,-0.98999023,0.03540039,1583942204102,-6530411418955,0.028901549,7,1
1583942205027,NaN,0.15485553,0.1184082,-0.9904785,0.029052734,1583942204182,-6530411418955,0.028901549,7,1
1583942205031,NaN,0.21229093,0.107666016,-0.98828125,0.027832031,1583942204262,-6530411418955,0.028901549,7,1
1583942205034,NaN,0.26615202,0.119140625,-0.9909668,0.024902344,1583942204342,-6530411418955,0.028901549,7,1
1583942205038,NaN,0.28029808,0.11694336,-0.98999023,0.02734375,1583942204422,-6530411418955,0.028901549,7,1
1583942205041,NaN,0.2930558,0.09106445,-0.99780273,0.03955078,1583942204502,-6530411418955,0.029660825,7,1
1583942205044,NaN,0.2773512,0.12646484,-0.97998047,0.045654297,1583942204582,-6530411418955,0.040100794,7,1
1583942205047,NaN,0.25913885,0.103027344,-0.99365234,0.055664062,1583942204662,-6530411418955,0.040100794,7,1
1583942205051,NaN,0.20514081,0.111083984,-0.9875488,0.05810547,1583942204742,-6530411418955,0.040100794,7,1
1583942207509,NaN,0.13581704,0.099609375,-0.9914551,0.079589844,1583942204822,5719942517445,0.040100794,7,1
1583942207517,NaN,0.06592365,0.09887695,-0.9848633,0.072265625,1583942204902,5719942517445,0.040100794,7,1
1583942207523,NaN,-0.017636089,0.11010742,-0.98657227,0.084472656,1583942204982,5719942517445,0.040100794,7,1
1583942207528,NaN,-0.07016399,0.100097656,-0.9851074,0.068359375,1583942205062,5719942517445,0.040100794,7,1
1583942207531,NaN,-0.12693726,0.118896484,-0.986084,0.060302734,1583942205142,5719942517445,0.040100794,7,1
1583942207535,NaN,-0.16550711,0.09765625,-0.99731445,0.0390625,1583942205222,5719942517445,0.040100794,7,1
1583942207539,NaN,-0.2075913,0.11425781,-0.9885254,0.04272461,1583942205302,5719942517445,0.040100794,7,1
1583942207544,NaN,-0.2577375,0.122802734,-0.9914551,0.07299805,1583942205382,5719942517445,0.040100794,7,1
1583942207547,NaN,-0.32238746,0.075927734,-0.96972656,0.111328125,1583942205462,5719942517445,0.06433187,7,1
1583942207552,NaN,-0.39099383,0.13720703,-0.9897461,0.13623047,1583942205542,5719942517445,0.069109045,7,1
1583942207556,NaN,-0.45169172,0.11816406,-0.99243164,0.14453125,1583942205622,5719942517445,0.069109045,7,1
1583942207560,NaN,-0.5144909,0.122802734,-0.98657227,0.15893555,1583942205702,5719942517445,0.069109045,7,1
1583942207563,NaN,-0.56773883,0.118652344,-0.96484375,0.18774414,1583942205782,5719942517445,0.069109045,7,1
1583942207567,NaN,-0.63965607,0.12573242,-0.9445801,0.19604492,1583942205862,5719942517445,0.069109045,7,1
1583942207570,NaN,-0.6949727,0.09423828,-0.93530273,0.19580078,1583942205942,5719942517445,0.069109045,7,1
1583942207573,NaN,-0.76682395,0.11254883,-0.9694824,0.18969727,1583942206022,5719942517445,0.069109045,7,1
1583942207576,NaN,-0.79918677,0.17041016,-0.9909668,0.13745117,1583942206102,5719942517445,0.08086511,7,1
1583942207579,NaN,-0.8267328,0.1652832,-0.98876953,0.09106445,1583942206182,5719942517445,0.08086511,7,1
1583942207582,NaN,-0.7758406,0.1706543,-1.0314941,0.011962891,1583942206262,5719942517445,0.090062745,7,1
1583942207585,NaN,-0.7041784,0.11376953,-0.9597168,0.025878906,1583942206342,5719942517445,0.09263649,7,1
1583942207587,NaN,-0.5395965,0.125,-1.0114746,-0.0017089844,1583942206422,5719942517445,0.09263649,7,1
1583942207590,NaN,-0.35280383,0.10571289,-0.98413086,-0.0056152344,1583942206502,5719942517445,0.09263649,7,1
1583942207594,NaN,-0.17600532,0.11230469,-0.98535156,0.016357422,1583942206582,5719942517445,0.09263649,7,1
1583942207597,NaN,0.018570444,0.084228516,-1.0063477,0.021484375,1583942206662,5719942517445,0.09263649,7,1
1583942207599,22.727272,0.2308622,0.107177734,-0.97875977,0.03955078,1583942206742,5719942517445,0.09263649,7,1
1583942207602,NaN,0.4671801,0.09667969,-0.9785156,0.03540039,1583942206822,5719942517445,0.09263649,7,1
1583942207605,NaN,0.69104147,0.107177734,-0.9797363,0.048095703,1583942206902,5719942517445,0.09263649,7,1
1583942207609,NaN,0.93050843,0.09716797,-0.9951172,0.022949219,1583942206982,5719942517445,0.09263649,7,1
1583942207611,NaN,1.0634997,0.11694336,-0.98828125,0.044677734,1583942207062,5719942517445,0.09263649,7,1
1583942207614,NaN,1.1436069,0.0949707,-0.9855957,0.037353516,1583942207142,5719942517445,0.09263649,7,1
1583942207617,NaN,1.0855788,0.087402344,-1.0112305,0.033691406,1583942207222,5719942517445,0.09263649,7,1
1583942207620,NaN,1.0520612,0.0949707,-1.0012207,0.024169922,1583942207302,5719942517445,0.09263649,7,1
1583942210094,NaN,0.9170339,0.087402344,-0.9975586,0.03491211,1583942207382,-476729094839,0.09263649,7,1
1583942210101,NaN,0.77224183,0.09716797,-0.9851074,0.03100586,1583942207462,-476729094839,0.09263649,7,1
1583942210107,NaN,0.6539273,0.10107422,-0.98657227,0.03125,1583942207542,-476729094839,0.09263649,7,1
1583942210112,NaN,0.5363501,0.09692383,-0.99243164,0.02758789,1583942207622,-476729094839,0.09263649,7,1
1583942210116,NaN,0.42585886,0.09716797,-0.986084,0.0234375,1583942207702,-476729094839,0.09263649,7,1
1583942210123,NaN,0.30410263,0.083740234,-0.9992676,0.020507812,1583942207782,-476729094839,0.09263649,7,1
1583942210126,NaN,0.18922102,0.09057617,-0.99243164,0.03466797,1583942207862,-476729094839,0.09263649,7,1
1583942210129,NaN,0.044125706,0.09423828,-0.99194336,0.030273438,1583942207942,-476729094839,0.09263649,7,1
1583942210133,NaN,-0.025502032,0.08959961,-0.9946289,0.037597656,1583942208022,-476729094839,0.09263649,7,1
1583942210138,NaN,-0.079824865,0.0793457,-0.99609375,0.051513672,1583942208102,-476729094839,0.09263649,7,1
1583942210141,NaN,-0.071625434,0.1003418,-0.9880371,0.05078125,1583942208182,-476729094839,0.09263649,7,1
1583942210144,NaN,-0.10935056,0.09277344,-0.98876953,0.06738281,1583942208262,-476729094839,0.09263649,7,1
1583942210149,NaN,-0.11408031,0.088134766,-0.9902344,0.079589844,1583942208342,-476729094839,0.09263649,7,1
1583942210152,NaN,-0.1299948,0.095458984,-0.9863281,0.0871582,1583942208422,-476729094839,0.09263649,7,1
1583942210158,NaN,-0.17686957,0.08154297,-0.9897461,0.10229492,1583942208502,-476729094839,0.09263649,7,1
1583942210162,NaN,-0.23449321,0.0859375,-0.9814453,0.10131836,1583942208582,-476729094839,0.09263649,7,1
1583942210166,NaN,-0.31366566,0.09106445,-0.9729004,0.1015625,1583942208662,-476729094839,0.09263649,7,1
1583942210169,NaN,-0.38342404,0.087402344,-0.98876953,0.08886719,1583942208742,-476729094839,0.09263649,7,1
1583942210173,NaN,-0.42774203,0.0769043,-0.9958496,0.07446289,1583942208822,-476729094839,0.09263649,7,1
1583942210176,NaN,-0.4637989,0.06738281,-0.9958496,0.080078125,1583942208902,-476729094839,0.059716716,7,1
1583942210180,NaN,-0.49668726,0.08569336,-0.98950195,0.0703125,1583942208982,-476729094839,0.04017653,7,1
1583942210182,NaN,-0.5000107,0.080322266,-0.9868164,0.06933594,1583942209062,-476729094839,0.04017653,7,1
1583942210185,NaN,-0.49493602,0.07763672,-0.99243164,0.061035156,1583942209142,-476729094839,0.04017653,7,1
1583942210188,NaN,-0.45334902,0.0949707,-0.98779297,0.061279297,1583942209222,-476729094839,0.04017653,7,1
1583942210191,NaN,-0.4021149,0.09277344,-0.9885254,0.06323242,1583942209302,-476729094839,0.031130562,7,1
1583942210194,NaN,-0.33180925,0.087890625,-0.99121094,0.05908203,1583942209382,-476729094839,0.031130562,7,1
1583942210197,NaN,-0.23639466,0.087890625,-0.9904785,0.060058594,1583942209462,-476729094839,0.031130562,7,1
1583942210200,NaN,-0.13134708,0.09277344,-0.99609375,0.051513672,1583942209542,-476729094839,0.030164955,7,1
1583942210203,NaN,-0.023145428,0.09082031,-0.98876953,0.052001953,1583942209622,-476729094839,0.026978368,7,1
1583942210206,NaN,0.06873769,0.08105469,-0.98999023,0.04736328,1583942209702,-476729094839,0.026978368,7,1
1583942210210,NaN,0.12035277,0.09350586,-0.9909668,0.053222656,1583942209782,-476729094839,0.022500709,7,1
1583942210214,NaN,0.18819784,0.08276367,-0.9968262,0.05029297,1583942209862,-476729094839,0.022500709,7,1
1583942212679,18.75,0.2224316,0.076660156,-0.9968262,0.0625,1583942209942,-6673119232147,0.022500709,7,1
1583942212685,NaN,0.24352098,0.099609375,-0.9868164,0.06347656,1583942210022,-6673119232147,0.02505625,7,1
1583942212692,NaN,0.23951656,0.071777344,-1.0009766,0.07714844,1583942210102,-6673119232147,0.034088887,7,1
1583942212700,NaN,0.21082334,0.08959961,-0.9885254,0.08935547,1583942210182,-6673119232147,0.034088887,7,1
1583942212704,NaN,0.16855782,0.071777344,-0.98950195,0.09643555,1583942210262,-6673119232147,0.034088887,7,1
1583942212709,NaN,0.09751227,0.08496094,-0.9838867,0.115722656,1583942210342,-6673119232147,0.034088887,7,1
1583942212715,NaN,0.02225712,0.076416016,-0.98339844,0.10668945,1583942210422,-6673119232147,0.034088887,7,1
1583942212720,NaN,-0.07130161,0.08203125,-0.98217773,0.111083984,1583942210502,-6673119232147,0.034088887,7,1
1583942212723,NaN,-0.15353137,0.08642578,-0.9848633,0.099609375,1583942210582,-6673119232147,0.034088887,7,1
1583942212727,NaN,-0.2281117,0.06518555,-0.9958496,0.095214844,1583942210662,-6673119232147,0.034088887,7,1
1583942212730,NaN,-0.2744306,0.08154297,-0.9902344,0.08642578,1583942210742,-6673119232147,0.034088887,7,1
1583942212734,NaN,-0.33011836,0.075683594,-0.99365234,0.0859375,1583942210822,-6673119232147,0.034088887,7,1
1583942212737,NaN,-0.34721664,0.0715332,-0.98828125,0.07421875,1583942210902,-6673119232147,0.034088887,7,1
1583942212740,NaN,-0.36646757,0.08520508,-0.9885254,0.07910156,1583942210982,-6673119232147,0.034088887,7,1
1583942212743,NaN,-0.3431393,0.087646484,-0.9909668,0.06518555,1583942211062,-6673119232147,0.034088887,7,1
1583942212747,NaN,-0.29822373,0.08959961,-0.98876953,0.0637207,1583942211142,-6673119232147,0.034088887,7,1
1583942212750,NaN,-0.24016203,0.08520508,-0.9892578,0.061767578,1583942211222,-6673119232147,0.034088887,7,1
1583942212753,NaN,-0.1388947,0.092041016,-0.99316406,0.052490234,1583942211302,-6673119232147,0.034088887,7,1
1583942212759,NaN,-0.05075036,0.09350586,-0.9892578,0.050048828,1583942211382,-6673119232147,0.034088887,7,1
1583942212761,NaN,0.056421306,0.08691406,-0.99121094,0.044433594,1583942211462,-6673119232147,0.034088887,7,1
1583942212764,NaN,0.13658635,0.09814453,-0.99365234,0.052734375,1583942211542,-6673119232147,0.034088887,7,1
1583942212767,35.714287,0.22165881,0.096191406,-0.9875488,0.04272461,1583942211622,-6673119232147,0.034088887,7,1
1583942212770,NaN,0.2829095,0.091552734,-0.9938965,0.047607422,1583942211702,-6673119232147,0.034088887,7,1
1583942212773,NaN,0.3514886,0.09399414,-0.9885254,0.040771484,1583942211782,-6673119232147,0.034088887,7,1
1583942212776,NaN,0.38762748,0.08325195,-0.99487305,0.044677734,1583942211862,-6673119232147,0.034088887,7,1
1583942212779,NaN,0.4184064,0.0859375,-0.99560547,0.05883789,1583942211942,-6673119232147,0.034088887,7,1
1583942212782,NaN,0.409786,0.1027832,-0.98999023,0.064453125,1583942212022,-6673119232147,0.034088887,7,1
1583942212785,NaN,0.37796092,0.08105469,-0.98779297,0.075683594,1583942212102,-6673119232147,0.034088887,7,1
1583942212789,NaN,0.32657132,0.091308594,-0.9838867,0.088134766,1583942212182,-6673119232147,0.034088887,7,1
1583942212792,NaN,0.23201092,0.079833984,-0.98876953,0.10058594,1583942212262,-6673119232147,0.034088887,7,1
1583942212795,NaN,0.13582347,0.0925293,-0.98291016,0.106933594,1583942212342,-6673119232147,0.034088887,7,1
1583942212799,NaN,0.03687417,0.07519531,-0.9812012,0.09423828,1583942212422,-6673119232147,0.034088887,7,1
1583942215260,NaN,-0.03753665,0.09399414,-0.98779297,0.09326172,1583942212502,5577234704253,0.034088887,7,1
1583942215265,NaN,-0.113020755,0.07373047,-0.99731445,0.07861328,1583942212582,5577234704253,0.034088887,7,1
1583942215268,NaN,-0.17012234,0.07055664,-0.9953613,0.07519531,1583942212662,5577234704253,0.026755407,7,1
1583942215272,NaN,-0.23649879,0.09082031,-0.9890137,0.07421875,1583942212742,5577234704253,0.026755407,7,1
1583942215276,NaN,-0.27705428,0.08105469,-0.9904785,0.06225586,1583942212822,5577234704253,0.026755407,7,1
1583942215281,NaN,-0.29838857,0.09350586,-0.99121094,0.063964844,1583942212902,5577234704253,0.026755407,7,1
1583942215285,NaN,-0.2917196,0.0859375,-0.99365234,0.053955078,1583942212982,5577234704253,0.026755407,7,1
1583942215288,NaN,-0.26419657,0.08862305,-0.99072266,0.055908203,1583942213062,5577234704253,0.026755407,7,1
1583942215291,NaN,-0.21414725,0.09667969,-0.9848633,0.0546875,1583942213142,5577234704253,0.026755407,7,1
1583942215296,NaN,-0.13178247,0.088378906,-0.9904785,0.051513672,1583942213222,5577234704253,0.026755407,7,1
1583942215299,NaN,-0.035142615,0.095214844,-0.9890137,0.048828125,1583942213302,5577234704253,0.026755407,7,1
1583942215303,NaN,0.048745792,0.09082031,-0.9914551,0.04638672,1583942213382,5577234704253,0.026755407,7,1
1583942215306,32.608696,0.12177048,0.09350586,-0.98950195,0.046875,1583942213462,5577234704253,0.026755407,7,1
1583942215310,NaN,0.17674637,0.09423828,-0.9958496,0.05053711,1583942213542,5577234704253,0.026755407,7,1
1583942215313,NaN,0.22385652,0.0847168,-0.9934082,0.048339844,1583942213622,5577234704253,0.026755407,7,1
1583942215318,NaN,0.26213625,0.08618164,-0.9980469,0.06201172,1583942213702,5577234704253,0.026755407,7,1
1583942215322,NaN,0.27738813,0.09692383,-0.9968262,0.06323242,1583942213782,5577234704253,0.026755407,7,1
1583942215325,NaN,0.27578685,0.08129883,-0.9902344,0.07006836,1583942213862,5577234704253,0.026755407,7,1
1583942215329,NaN,0.2392987,0.07397461,-0.9855957,0.08691406,1583942213942,5577234704253,0.026755407,7,1
1583942215332,NaN,0.18716301,0.0715332,-0.98535156,0.09667969,1583942214022,5577234704253,0.026755407,7,1
1583942215337,NaN,0.12037035,0.0793457,-0.9838867,0.099853516,1583942214102,5577234704253,0.026755407,7,1
1583942215340,NaN,0.03807032,0.084228516,-0.98291016,0.099853516,1583942214182,5577234704253,0.026755407,7,1
1583942215343,NaN,-0.038998906,0.08935547,-0.98876953,0.08227539,1583942214262,5577234704253,0.026755407,7,1
1583942215346,NaN,-0.102745436,0.08081055,-0.9909668,0.072753906,1583942214342,5577234704253,0.026755407,7,1
1583942215349,NaN,-0.15693069,0.08227539,-0.9921875,0.064941406,1583942214422,5577234704253,0.026755407,7,1
1583942215352,NaN,-0.18430471,0.099609375,-0.98876953,0.053955078,1583942214502,5577234704253,0.026755407,7,1
1583942215355,NaN,-0.20270698,0.087402344,-0.9904785,0.04272461,1583942214582,5577234704253,0.026755407,7,1
1583942215358,NaN,-0.18907988,0.071777344,-0.9975586,0.032470703,1583942214662,5577234704253,0.026755407,7,1
1583942215360,NaN,-0.1655148,0.09301758,-0.99243164,0.034179688,1583942214742,5577234704253,0.026755407,7,1
1583942215363,NaN,-0.11717691,0.08911133,-0.97924805,0.018798828,1583942214822,5577234704253,0.026755407,7,1
1583942215366,NaN,-0.026640361,0.09399414,-0.9921875,0.014160156,1583942214902,5577234704253,0.026755407,7,1
1583942215369,39.473682,0.09029143,0.091308594,-0.9855957,0.0,1583942214982,5577234704253,0.026755407,7,1
1583942217845,NaN,0.22192399,0.13012695,-1.0019531,-0.0073242188,1583942215062,-619436908031,0.042755987,7,1
1583942217850,NaN,0.3124918,0.114746094,-1.0070801,0.04321289,1583942215142,-619436908031,0.053074062,7,1
1583942217855,NaN,0.39276826,0.092285156,-1.0002441,0.020263672,1583942215222,-619436908031,0.053074062,7,1
1583942217862,NaN,0.44681665,0.061279297,-1.001709,0.033935547,1583942215302,-619436908031,0.053074062,7,1
1583942217865,NaN,0.5154806,0.1105957,-1.0187988,0.0034179688,1583942215382,-619436908031,0.060460676,7,1
1583942217869,NaN,0.48666704,0.076416016,-0.9729004,0.09033203,1583942215462,-619436908031,0.10406235,7,1
1583942217872,NaN,0.4476112,0.11401367,-0.94799805,0.0847168,1583942215542,-619436908031,0.10406235,7,1
1583942217875,NaN,0.39617452,0.028564453,-0.97387695,0.061767578,1583942215622,-619436908031,0.10406235,7,1
1583942217880,NaN,0.33023882,0.083984375,-0.9770508,0.083496094,1583942215702,-619436908031,0.10406235,7,1
1583942217883,NaN,0.23197751,0.060791016,-1.0161133,0.084472656,1583942215782,-619436908031,0.10406235,7,1
1583942217887,NaN,0.074400425,0.038085938,-0.98168945,0.123291016,1583942215862,-619436908031,0.10406235,7,1
1583942217892,NaN,-0.12196586,0.07421875,-0.98535156,0.13598633,1583942215942,-619436908031,0.10406235,7,1
1583942217896,NaN,-0.33934677,0.10058594,-0.9921875,0.13867188,1583942216022,-619436908031,0.10406235,7,1
1583942217898,NaN,-0.47054568,0.08666992,-0.9831543,0.13647461,1583942216102,-619436908031,0.10406235,7,1
1583942217901,NaN,-0.61455816,0.11010742,-0.9748535,0.13085938,1583942216182,-619436908031,0.10406235,7,1
1583942217904,NaN,-0.7378723,0.13720703,-0.9904785,0.15112305,1583942216262,-619436908031,0.10406235,7,1
1583942217908,NaN,-0.92212754,0.11254883,-0.9699707,0.15649414,1583942216342,-619436908031,0.10406235,7,1
1583942217911,NaN,-0.9551967,0.119628906,-0.97875977,0.17407227,1583942216422,-619436908031,0.10406235,7,1
1583942217914,NaN,-1.0007793,0.1159668,-0.9694824,0.18408203,1583942216502,-619436908031,0.10406235,7,1
1583942217917,NaN,-1.060491,0.10864258,-0.9753418,0.17504883,1583942216582,-619436908031,0.10406235,7,1
1583942217920,NaN,-1.1027398,0.12133789,-0.97558594,0.1887207,1583942216662,-619436908031,0.10406235,7,1
1583942217923,NaN,-1.1372857,0.119140625,-0.96655273,0.19116211,1583942216742,-619436908031,0.10406235,7,1
1583942217926,NaN,-1.0924928,0.10083008,-0.9667969,0.18676758,1583942216822,-619436908031,0.10406235,7,1
1583942217929,NaN,-1.0525707,0.099365234,-0.9616699,0.22460938,1583942216902,-619436908031,0.10406235,7,1
1583942217932,NaN,-1.0230565,0.1003418,-0.9658203,0.24951172,1583942216982,-619436908031,0.10406235,7,1
1583942217935,NaN,-1.0588466,0.083496094,-0.95288086,0.27368164,1583942217062,-619436908031,0.10406235,7,1
1583942217938,NaN,-1.1152912,0.08300781,-0.9470215,0.30444336,1583942217142,-619436908031,0.10406235,7,1
1583942217941,NaN,-1.1620935,0.076416016,-0.9375,0.30395508,1583942217222,-619436908031,0.10406235,7,1
1583942217944,NaN,-1.1954291,0.072265625,-0.92163086,0.34326172,1583942217302,-619436908031,0.10406235,7,1
1583942217946,NaN,-1.2741174,0.080078125,-0.91967773,0.33203125,1583942217382,-619436908031,0.10406235,7,1
1583942217949,NaN,-1.3419695,0.10522461,-0.9206543,0.35302734,1583942217462,-619436908031,0.10406235,7,1
1583942217952,NaN,-1.3967929,0.09057617,-0.9243164,0.33520508,1583942217542,-619436908031,0.10406235,7,1
1583942220228,NaN,-1.442444,0.07324219,-0.9399414,0.33447266,1583942217622,-6815827045340,0.10406235,7,1
1583942220246,NaN,-1.4603219,0.09741211,-0.94677734,0.31762695,1583942217702,-6815827045340,0.10406235,7,1
1583942220254,NaN,-1.5039912,0.114990234,-0.94799805,0.3010254,1583942217782,-6815827045340,0.10406235,7,1
1583942220259,NaN,-1.4793249,0.09838867,-0.9423828,0.28125,1583942217862,-6815827045340,0.10406235,7,1
1583942220265,NaN,-1.403952,0.11401367,-0.9519043,0.27124023,1583942217942,-6815827045340,0.10406235,7,1
1583942220270,NaN,-1.2693713,0.111572266,-0.9562988,0.2565918,1583942218022,-6815827045340,0.09218434,7,1
1583942220277,NaN,-1.0692195,0.09838867,-0.95532227,0.24389648,1583942218102,-6815827045340,0.09218434,7,1
1583942220280,NaN,-0.8713997,0.09838867,-0.95947266,0.23925781,1583942218182,-6815827045340,0.059611823,7,1
1583942220283,NaN,-0.6203766,0.10229492,-0.9616699,0.25073242,1583942218262,-6815827045340,0.056633785,7,1
1583942220288,NaN,-0.3972042,0.092041016,-0.95654297,0.2446289,1583942218342,-6815827045340,0.056633785,7,1
1583942220291,NaN,-0.15834494,0.107666016,-0.9560547,0.24951172,1583942218422,-6815827045340,0.04259187,7,1
1583942220294,NaN,0.062389936,0.10253906,-0.9562988,0.24731445,1583942218502,-6815827045340,0.04259187,7,1
1583942220298,16.666666,0.27137193,0.095947266,-0.9633789,0.24536133,1583942218582,-6815827045340,0.04259187,7,1
1583942220302,NaN,0.4335452,0.09472656,-0.95825195,0.2529297,1583942218662,-6815827045340,0.04259187,7,1
1583942220305,NaN,0.54438394,0.09008789,-0.9538574,0.2788086,1583942218742,-6815827045340,0.04259187,7,1
1583942220309,NaN,0.5826467,0.09301758,-0.95336914,0.29785156,1583942218822,-6815827045340,0.04259187,7,1
1583942220312,NaN,0.54674536,0.07324219,-0.9416504,0.33203125,1583942218902,-6815827045340,0.04259187,7,1
1583942220315,NaN,0.43719637,0.0871582,-0.92626953,0.36035156,1583942218982,-6815827045340,0.04259187,7,1
1583942220319,NaN,0.26593104,0.06713867,-0.90844727,0.37597656,1583942219062,-6815827045340,0.04259187,7,1
1583942220323,NaN,0.06447467,0.087890625,-0.8930664,0.39672852,1583942219142,-6815827045340,0.04259187,7,1
1583942220327,NaN,-0.14773914,0.087402344,-0.8947754,0.38598633,1583942219222,-6815827045340,0.04259187,7,1
1583942220331,NaN,-0.35807455,0.09277344,-0.8989258,0.39086914,1583942219302,-6815827045340,0.04259187,7,1
1583942220334,NaN,-0.56786674,0.103759766,-0.91967773,0.3869629,1583942219382,-6815827045340,0.04259187,7,1
1583942220338,NaN,-0.7565134,0.10620117,-0.91845703,0.37426758,1583942219462,-6815827045340,0.04259187,7,1
1583942220341,NaN,-0.92685574,0.107421875,-0.9211426,0.34814453,1583942219542,-6815827045340,0.04259187,7,1
1583942220344,NaN,-1.0620607,0.12597656,-0.92211914,0.34716797,1583942219622,-6815827045340,0.04259187,7,1
1583942220348,NaN,-1.1361047,0.13012695,-0.92700195,0.34716797,1583942219702,-6815827045340,0.04259187,7,1
1583942220351,NaN,-1.1553403,0.12866211,-0.93408203,0.33422852,1583942219782,-6815827045340,0.04259187,7,1
1583942220355,NaN,-1.1045991,0.12915039,-0.9226074,0.33666992,1583942219862,-6815827045340,0.041190367,7,1
1583942220358,NaN,-0.97982556,0.13256836,-0.9296875,0.3251953,1583942219942,-6815827045340,0.041190367,7,1
1583942220361,NaN,-0.803438,0.12866211,-0.93652344,0.32104492,1583942220022,-6815827045340,0.041190367,7,1
1583942220365,NaN,-0.57606834,0.12817383,-0.9448242,0.31176758,1583942220102,-6815827045340,0.041190367,7,1
1583942222812,NaN,-0.376664,0.14111328,-0.9326172,0.31201172,1583942220182,5434526891061,0.041190367,7,1
1583942222819,NaN,-0.1616741,0.12402344,-0.9404297,0.3017578,1583942220262,5434526891061,0.041190367,7,1
1583942222827,NaN,0.027043402,0.12646484,-0.9470215,0.3100586,1583942220342,5434526891061,0.041190367,7,1
1583942222832,32.608696,0.18609314,0.119628906,-0.94018555,0.32080078,1583942220422,5434526891061,0.041190367,7,1
1583942222839,NaN,0.29823855,0.123046875,-0.92407227,0.32470703,1583942220502,5434526891061,0.041190367,7,1
1583942222843,NaN,0.37904736,0.103027344,-0.93530273,0.3491211,1583942220582,5434526891061,0.041190367,7,1
1583942222846,NaN,0.41036186,0.10668945,-0.923584,0.37646484,1583942220662,5434526891061,0.041190367,7,1
1583942222849,NaN,0.38577577,0.10449219,-0.89575195,0.38891602,1583942220742,5434526891061,0.041190367,7,1
1583942222853,NaN,0.33078602,0.10864258,-0.8918457,0.39941406,1583942220822,5434526891061,0.041190367,7,1
1583942222858,NaN,0.22620438,0.095703125,-0.8935547,0.3996582,1583942220902,5434526891061,0.041190367,7,1
1583942222862,NaN,0.10500481,0.09765625,-0.88378906,0.38012695,1583942220982,5434526891061,0.041190367,7,1
1583942222868,NaN,-0.057231653,0.11303711,-0.9133301,0.39672852,1583942221062,5434526891061,0.041190367,7,1
1583942222873,NaN,-0.20296802,0.1105957,-0.9074707,0.390625,1583942221142,5434526891061,0.041190367,7,1
1583942222877,NaN,-0.3434846,0.119140625,-0.92871094,0.36889648,1583942221222,5434526891061,0.041190367,7,1
1583942222881,NaN,-0.45816508,0.12426758,-0.9238281,0.35839844,1583942221302,5434526891061,0.041190367,7,1
1583942222884,NaN,-0.53046554,0.12573242,-0.92529297,0.34570312,1583942221382,5434526891061,0.041190367,7,1
1583942222886,NaN,-0.55902904,0.1237793,-0.9291992,0.33691406,1583942221462,5434526891061,0.03721363,7,1
1583942222891,NaN,-0.54429615,0.114746094,-0.9321289,0.33081055,1583942221542,5434526891061,0.03721363,7,1
1583942222893,NaN,-0.4851611,0.11621094,-0.9301758,0.33789062,1583942221622,5434526891061,0.03721363,7,1
1583942222898,NaN,-0.36907813,0.10498047,-0.93237305,0.3251953,1583942221702,5434526891061,0.03721363,7,1
1583942222901,NaN,-0.22096597,0.10205078,-0.9445801,0.30493164,1583942221782,5434526891061,0.03721363,7,1
1583942222904,NaN,-0.06920498,0.087646484,-0.9316406,0.31079102,1583942221862,5434526891061,0.03721363,7,1
1583942222907,NaN,0.063699655,0.103515625,-0.93603516,0.31201172,1583942221942,5434526891061,0.03721363,7,1
1583942222910,37.5,0.18898423,0.095214844,-0.9345703,0.3408203,1583942222022,5434526891061,0.03721363,7,1
1583942222913,NaN,0.29952046,0.09375,-0.93310547,0.3486328,1583942222102,5434526891061,0.03721363,7,1
1583942222916,NaN,0.35828412,0.10205078,-0.92626953,0.3630371,1583942222182,5434526891061,0.03721363,7,1
1583942222919,NaN,0.38840663,0.095214844,-0.9116211,0.3696289,1583942222262,5434526891061,0.03721363,7,1
1583942222922,NaN,0.3670576,0.09863281,-0.89819336,0.38989258,1583942222342,5434526891061,0.03721363,7,1
1583942222924,NaN,0.3308601,0.10205078,-0.90625,0.38232422,1583942222422,5434526891061,0.03721363,7,1
1583942222927,NaN,0.27194682,0.09448242,-0.90600586,0.37573242,1583942222502,5434526891061,0.03721363,7,1
1583942222930,NaN,0.1983258,0.10205078,-0.90893555,0.3803711,1583942222582,5434526891061,0.03721363,7,1
1583942222932,NaN,0.09335032,0.09863281,-0.92041016,0.37670898,1583942222662,5434526891061,0.03721363,7,1
1583942225397,NaN,-0.047310278,0.09716797,-0.9160156,0.36035156,1583942222742,-762144721224,0.03721363,7,1
1583942225404,NaN,-0.16337024,0.107666016,-0.9296875,0.35888672,1583942222822,-762144721224,0.03721363,7,1
1583942225411,NaN,-0.2577679,0.10595703,-0.9279785,0.34228516,1583942222902,-762144721224,0.03721363,7,1
1583942225415,NaN,-0.29970667,0.10083008,-0.93603516,0.33398438,1583942222982,-762144721224,0.03721363,7,1
1583942225421,NaN,-0.31702706,0.099365234,-0.9313965,0.32128906,1583942223062,-762144721224,0.03721363,7,1
1583942225424,NaN,-0.2792098,0.1015625,-0.9428711,0.31762695,1583942223142,-762144721224,0.03721363,7,1
1583942225428,NaN,-0.21100533,0.11376953,-0.9423828,0.31469727,1583942223222,-762144721224,0.03721363,7,1
1583942225436,NaN,-0.09133194,0.09350586,-0.93481445,0.30688477,1583942223302,-762144721224,0.03721363,7,1
1583942225437,NaN,0.01728634,0.088378906,-0.94628906,0.31298828,1583942223382,-762144721224,0.03721363,7,1
1583942225440,41.666668,0.124660105,0.10058594,-0.94140625,0.3088379,1583942223462,-762144721224,0.03721363,7,1
1583942225442,NaN,0.21900882,0.080322266,-0.94140625,0.32128906,1583942223542,-762144721224,0.03721363,7,1
1583942225445,NaN,0.30190763,0.08129883,-0.93603516,0.33154297,1583942223622,-762144721224,0.031564087,7,1
1583942225449,NaN,0.37340185,0.08325195,-0.93310547,0.34033203,1583942223702,-762144721224,0.031564087,7,1
1583942225453,NaN,0.4102378,0.08300781,-0.91845703,0.35229492,1583942223782,-762144721224,0.030016392,7,1
1583942225456,NaN,0.40111503,0.072021484,-0.9248047,0.38232422,1583942223862,-762144721224,0.03259986,7,1
1583942225459,NaN,0.3439555,0.07763672,-0.9030762,0.38500977,1583942223942,-762144721224,0.03259986,7,1
1583942225463,NaN,0.25264218,0.08569336,-0.89331055,0.3955078,1583942224022,-762144721224,0.03259986,7,1
1583942225466,NaN,0.14782085,0.078125,-0.904541,0.38354492,1583942224102,-762144721224,0.03259986,7,1
1583942225469,NaN,0.024192909,0.084228516,-0.9069824,0.38793945,1583942224182,-762144721224,0.03259986,7,1
1583942225473,NaN,-0.11839402,0.071777344,-0.9199219,0.3852539,1583942224262,-762144721224,0.03259986,7,1
1583942225476,NaN,-0.24296075,0.088134766,-0.9140625,0.3774414,1583942224342,-762144721224,0.03259986,7,1
1583942225480,NaN,-0.36251724,0.08105469,-0.91845703,0.37060547,1583942224422,-762144721224,0.03259986,7,1
1583942225483,NaN,-0.45264542,0.08081055,-0.92822266,0.3630371,1583942224502,-762144721224,0.03259986,7,1
1583942225486,NaN,-0.5198576,0.08300781,-0.9194336,0.36206055,1583942224582,-762144721224,0.03259986,7,1
1583942225491,NaN,-0.550588,0.08251953,-0.9265137,0.35229492,1583942224662,-762144721224,0.03259986,7,1
1583942225494,NaN,-0.5411332,0.087646484,-0.9272461,0.34350586,1583942224742,-762144721224,0.03259986,7,1
1583942225498,NaN,-0.46891916,0.080078125,-0.9267578,0.3359375,1583942224822,-762144721224,0.03259986,7,1
1583942225501,NaN,-0.3673186,0.0871582,-0.92700195,0.33032227,1583942224902,-762144721224,0.03259986,7,1
1583942225504,NaN,-0.23580511,0.09667969,-0.9326172,0.3330078,1583942224982,-762144721224,0.03259986,7,1
1583942225507,NaN,-0.12109515,0.092041016,-0.93188477,0.3310547,1583942225062,-762144721224,0.03259986,7,1
1583942225511,NaN,0.011840801,0.11328125,-0.9423828,0.32373047,1583942225142,-762144721224,0.03259986,7,1
1583942225514,34.090908,0.140561,0.09887695,-0.9484863,0.3203125,1583942225222,-762144721224,0.03259986,7,1
1583942227982,NaN,0.25948352,0.09326172,-0.94506836,0.31396484,1583942225302,-6958534858532,0.03259986,7,1
1583942227988,NaN,0.34878778,0.07885742,-0.93774414,0.33569336,1583942225382,-6958534858532,0.03259986,7,1
1583942227994,NaN,0.40974298,0.08300781,-0.9321289,0.3334961,1583942225462,-6958534858532,0.03259986,7,1
1583942228001,NaN,0.4509654,0.072265625,-0.9238281,0.3466797,1583942225542,-6958534858532,0.03259986,7,1
1583942228004,NaN,0.44327447,0.07104492,-0.9182129,0.3725586,1583942225622,-6958534858532,0.03259986,7,1
1583942228007,NaN,0.40048003,0.083740234,-0.8991699,0.375,1583942225702,-6958534858532,0.03259986,7,1
1583942228011,NaN,0.30541998,0.08129883,-0.8979492,0.39916992,1583942225782,-6958534858532,0.03259986,7,1
1583942228017,NaN,0.1894964,0.07788086,-0.8930664,0.40014648,1583942225862,-6958534858532,0.03259986,7,1
1583942228022,NaN,0.06573963,0.07495117,-0.8796387,0.390625,1583942225942,-6958534858532,0.03259986,7,1
1583942228025,NaN,-0.044999614,0.09375,-0.92163086,0.40454102,1583942226022,-6958534858532,0.04806657,7,1
1583942228030,NaN,-0.19286065,0.099853516,-0.9003906,0.41503906,1583942226102,-6958534858532,0.04806657,7,1
1583942228034,NaN,-0.3205179,0.123535156,-0.9265137,0.39892578,1583942226182,-6958534858532,0.04806657,7,1
1583942228039,NaN,-0.4332401,0.09008789,-0.9182129,0.3720703,1583942226262,-6958534858532,0.04806657,7,1
1583942228042,NaN,-0.49906537,0.09643555,-0.9169922,0.3713379,1583942226342,-6958534858532,0.04806657,7,1
1583942228045,NaN,-0.55391264,0.096191406,-0.9074707,0.3635254,1583942226422,-6958534858532,0.04806657,7,1
1583942228049,NaN,-0.5768628,0.087402344,-0.9182129,0.35913086,1583942226502,-6958534858532,0.04806657,7,1
1583942228052,NaN,-0.5371153,0.10498047,-0.9226074,0.35083008,1583942226582,-6958534858532,0.04806657,7,1
1583942228057,NaN,-0.46109006,0.10131836,-0.9367676,0.33642578,1583942226662,-6958534858532,0.04806657,7,1
1583942228061,NaN,-0.33896136,0.10864258,-0.93603516,0.33422852,1583942226742,-6958534858532,0.04806657,7,1
1583942228064,NaN,-0.206114,0.10180664,-0.9345703,0.33203125,1583942226822,-6958534858532,0.04806657,7,1
1583942228067,NaN,-0.07618698,0.09790039,-0.93408203,0.32714844,1583942226902,-6958534858532,0.04806657,7,1
1583942228070,NaN,0.046667133,0.09838867,-0.9333496,0.3293457,1583942226982,-6958534858532,0.04806657,7,1
1583942228073,32.608696,0.21004461,0.09667969,-0.9345703,0.32666016,1583942227062,-6958534858532,0.04806657,7,1
1583942228077,NaN,0.33501396,0.100097656,-0.9345703,0.3239746,1583942227142,-6958534858532,0.04806657,7,1
1583942228079,NaN,0.42136696,0.08911133,-0.93725586,0.3371582,1583942227222,-6958534858532,0.04806657,7,1
1583942228082,NaN,0.4861139,0.1027832,-0.92626953,0.33520508,1583942227302,-6958534858532,0.04806657,7,1
1583942228085,NaN,0.5223898,0.087646484,-0.9313965,0.36328125,1583942227382,-6958534858532,0.04806657,7,1
1583942228088,NaN,0.5256119,0.080322266,-0.92163086,0.36865234,1583942227462,-6958534858532,0.04806657,7,1
1583942228090,NaN,0.47102413,0.08300781,-0.90649414,0.3857422,1583942227542,-6958534858532,0.04806657,7,1
1583942228093,NaN,0.37093845,0.08178711,-0.9033203,0.3947754,1583942227622,-6958534858532,0.04806657,7,1
1583942228096,NaN,0.24794102,0.0847168,-0.8967285,0.3918457,1583942227702,-6958534858532,0.04806657,7,1
1583942228099,NaN,0.12615646,0.08642578,-0.90234375,0.38745117,1583942227782,-6958534858532,0.04806657,7,1
1583942230564,NaN,0.007897516,0.09106445,-0.9094238,0.38183594,1583942227862,5291819077868,0.04806657,7,1
1583942230569,NaN,-0.10985587,0.09008789,-0.9147949,0.39233398,1583942227942,5291819077868,0.04806657,7,1
1583942230575,NaN,-0.23350455,0.08642578,-0.9250488,0.3798828,1583942228022,5291819077868,0.04806657,7,1
1583942230582,NaN,-0.30373117,0.07348633,-0.9370117,0.33642578,1583942228102,5291819077868,0.04806657,7,1
1583942230588,NaN,-0.3254693,0.10986328,-0.9338379,0.32470703,1583942228182,5291819077868,0.04806657,7,1
1583942230589,NaN,-0.32715413,0.123535156,-0.9370117,0.30371094,1583942228262,5291819077868,0.04806657,7,1
1583942230593,NaN,-0.27009386,0.14428711,-0.92993164,0.28979492,1583942228342,5291819077868,0.04806657,7,1
1583942230598,NaN,-0.19488521,0.15283203,-0.9538574,0.30419922,1583942228422,5291819077868,0.04806657,7,1
1583942230601,NaN,-0.06812238,0.16821289,-0.94091797,0.29248047,1583942228502,5291819077868,0.04806657,7,1
1583942230605,NaN,0.09322983,0.15795898,-0.9404297,0.2866211,1583942228582,5291819077868,0.04689407,7,1
1583942230609,37.5,0.26371232,0.16381836,-0.92871094,0.2734375,1583942228662,5291819077868,0.04689407,7,1
1583942230614,NaN,0.404987,0.16699219,-0.9411621,0.3034668,1583942228742,5291819077868,0.04689407,7,1
1583942230618,NaN,0.5414332,0.17041016,-0.9379883,0.29614258,1583942228822,5291819077868,0.04689407,7,1
1583942230621,NaN,0.6482408,0.16503906,-0.9169922,0.34204102,1583942228902,5291819077868,0.05075777,7,1
1583942230625,NaN,0.72243863,0.17285156,-0.9177246,0.35864258,1583942228982,5291819077868,0.05075777,7,1
1583942230627,NaN,0.7250824,0.15917969,-0.90649414,0.3552246,1583942229062,5291819077868,0.05075777,7,1
1583942230632,NaN,0.68234515,0.16381836,-0.9038086,0.36572266,1583942229142,5291819077868,0.05075777,7,1
1583942230636,NaN,0.59307647,0.1628418,-0.90063477,0.37451172,1583942229222,5291819077868,0.05075777,7,1
1583942230641,NaN,0.45832613,0.15478516,-0.90478516,0.37475586,1583942229302,5291819077868,0.05075777,7,1
1583942230645,NaN,0.3378233,0.15844727,-0.92041016,0.36108398,1583942229382,5291819077868,0.05075777,7,1
1583942230648,NaN,0.18045573,0.1616211,-0.90844727,0.36279297,1583942229462,5291819077868,0.05075777,7,1
1583942230651,NaN,0.016976243,0.15698242,-0.8901367,0.34472656,1583942229542,5291819077868,0.05075777,7,1
1583942230655,NaN,-0.14958148,0.18310547,-0.92285156,0.34472656,1583942229622,5291819077868,0.05075777,7,1
1583942230658,NaN,-0.26951066,0.1940918,-0.92944336,0.3461914,1583942229702,5291819077868,0.05075777,7,1
1583942230662,NaN,-0.3876759,0.18115234,-0.920166,0.33325195,1583942229782,5291819077868,0.05075777,7,1
1583942230666,NaN,-0.40872696,0.19116211,-0.9445801,0.31762695,1583942229862,5291819077868,0.05075777,7,1
1583942230670,NaN,-0.4062264,0.1574707,-0.91967773,0.31591797,1583942229942,5291819077868,0.05075777,7,1
1583942230674,NaN,-0.35413906,0.171875,-0.93237305,0.3112793,1583942230022,5291819077868,0.05075777,7,1
1583942230677,NaN,-0.26919004,0.16235352,-0.9279785,0.30541992,1583942230102,5291819077868,0.05075777,7,1
1583942230681,NaN,-0.13071784,0.16625977,-0.94799805,0.28955078,1583942230182,5291819077868,0.05075777,7,1
1583942230684,NaN,0.02403324,0.1694336,-0.9440918,0.2841797,1583942230262,5291819077868,0.05075777,7,1
1583942230686,35.714287,0.1402918,0.16723633,-0.9445801,0.2890625,1583942230342,5291819077868,0.05075777,7,1
1583942233153,NaN,0.25626728,0.15112305,-0.9367676,0.30444336,1583942230422,-904852534416,0.05075777,7,1
1583942233158,NaN,0.3397995,0.17041016,-0.92285156,0.32592773,1583942230502,-904852534416,0.05075777,7,1
1583942233163,NaN,0.3681991,0.16088867,-0.9135742,0.37158203,1583942230582,-904852534416,0.05075777,7,1
1583942233171,NaN,0.35605407,0.15844727,-0.9001465,0.3881836,1583942230662,-904852534416,0.05075777,7,1
1583942233178,NaN,0.3268657,0.15625,-0.8876953,0.39697266,1583942230742,-904852534416,0.05075777,7,1
1583942233182,NaN,0.22553213,0.15039062,-0.89819336,0.3857422,1583942230822,-904852534416,0.05075777,7,1
1583942233186,NaN,0.123277605,0.14550781,-0.8864746,0.3930664,1583942230902,-904852534416,0.05075777,7,1
1583942233189,NaN,0.0015853345,0.14868164,-0.8847656,0.39135742,1583942230982,-904852534416,0.05075777,7,1
1583942233193,NaN,-0.1295156,0.1508789,-0.9230957,0.40161133,1583942231062,-904852534416,0.05075777,7,1
1583942233197,NaN,-0.29869005,0.15185547,-0.8991699,0.3852539,1583942231142,-904852534416,0.05075777,7,1
1583942233203,NaN,-0.47262928,0.17089844,-0.9128418,0.39013672,1583942231222,-904852534416,0.05075777,7,1
1583942233206,NaN,-0.6194678,0.1586914,-0.8977051,0.37719727,1583942231302,-904852534416,0.05075777,7,1
1583942233210,NaN,-0.71118563,0.15698242,-0.93237305,0.35595703,1583942231382,-904852534416,0.05075777,7,1
1583942233213,NaN,-0.7530245,0.15429688,-0.9123535,0.34155273,1583942231462,-904852534416,0.04755042,7,1
1583942233218,NaN,-0.7078782,0.14428711,-0.9248047,0.3486328,1583942231542,-904852534416,0.04755042,7,1
1583942233221,NaN,-0.6197744,0.15991211,-0.9272461,0.34301758,1583942231622,-904852534416,0.04755042,7,1
1583942233223,NaN,-0.50358325,0.1508789,-0.9226074,0.33862305,1583942231702,-904852534416,0.04755042,7,1
1583942233228,NaN,-0.38983428,0.14428711,-0.9250488,0.3395996,1583942231782,-904852534416,0.04755042,7,1
1583942233231,NaN,-0.25988838,0.1652832,-0.92822266,0.33544922,1583942231862,-904852534416,0.04755042,7,1
1583942233233,NaN,-0.12518497,0.15063477,-0.9182129,0.33154297,1583942231942,-904852534416,0.04755042,7,1
1583942233238,NaN,0.009093155,0.14135742,-0.92700195,0.32910156,1583942232022,-904852534416,0.04755042,7,1
1583942233241,34.090908,0.14513801,0.15844727,-0.9375,0.3408203,1583942232102,-904852534416,0.04755042,7,1
1583942233245,NaN,0.2632091,0.14453125,-0.93310547,0.3581543,1583942232182,-904852534416,0.04755042,7,1
1583942233248,NaN,0.37320402,0.14086914,-0.9140625,0.34545898,1583942232262,-904852534416,0.04755042,7,1
1583942233252,NaN,0.39417168,0.12915039,-0.9123535,0.36914062,1583942232342,-904852534416,0.04755042,7,1
1583942233255,NaN,0.3814671,0.14160156,-0.90527344,0.37548828,1583942232422,-904852534416,0.04755042,7,1
1583942233259,NaN,0.31985727,0.11694336,-0.8972168,0.38916016,1583942232502,-904852534416,0.04755042,7,1
1583942233262,NaN,0.22999878,0.114746094,-0.90356445,0.38671875,1583942232582,-904852534416,0.04755042,7,1
1583942233265,NaN,0.13425203,0.12597656,-0.89331055,0.37646484,1583942232662,-904852534416,0.04755042,7,1
1583942233268,NaN,0.043910366,0.118652344,-0.90966797,0.390625,1583942232742,-904852534416,0.04755042,7,1
1583942233272,NaN,-0.07365784,0.107910156,-0.9038086,0.39111328,1583942232822,-904852534416,0.04755042,7,1
1583942233275,NaN,-0.18872695,0.13085938,-0.89746094,0.39624023,1583942232902,-904852534416,0.04755042,7,1
1583942235734,NaN,-0.28981128,0.15527344,-0.92529297,0.38916016,1583942232982,-7101242671724,0.04755042,7,1
1583942235741,NaN,-0.37167,0.123291016,-0.90405273,0.36767578,1583942233062,-7101242671724,0.04755042,7,1
1583942235747,NaN,-0.4154465,0.13061523,-0.9152832,0.3701172,1583942233142,-7101242671724,0.04399547,7,1
1583942235753,NaN,-0.4537926,0.12915039,-0.9213867,0.36083984,1583942233222,-7101242671724,0.04399547,7,1
1583942235759,NaN,-0.42614648,0.10986328,-0.9160156,0.35595703,1583942233302,-7101242671724,0.04399547,7,1
1583942235763,NaN,-0.37944576,0.114990234,-0.9255371,0.35668945,1583942233382,-7101242671724,0.04399547,7,1
1583942235774,NaN,-0.29566303,0.110839844,-0.93359375,0.34887695,1583942233462,-7101242671724,0.04399547,7,1
1583942235775,NaN,-0.21996379,0.10449219,-0.9187012,0.35302734,1583942233542,-7101242671724,0.04399547,7,1
1583942235777,NaN,-0.15042919,0.103027344,-0.9265137,0.3479004,1583942233622,-7101242671724,0.04399547,7,1
1583942235782,NaN,-0.07088188,0.11669922,-0.92529297,0.35473633,1583942233702,-7101242671724,0.04399547,7,1
1583942235786,NaN,0.03403172,0.122558594,-0.9301758,0.34350586,1583942233782,-7101242671724,0.04399547,7,1
1583942235791,34.090908,0.13965468,0.11010742,-0.9301758,0.34399414,1583942233862,-7101242671724,0.04399547,7,1
1583942235795,NaN,0.20681255,0.119384766,-0.9267578,0.35424805,1583942233942,-7101242671724,0.04399547,7,1
1583942235798,NaN,0.23638852,0.107177734,-0.91430664,0.37646484,1583942234022,-7101242671724,0.04399547,7,1
1583942235802,NaN,0.25480035,0.10961914,-0.9321289,0.3701172,1583942234102,-7101242671724,0.04399547,7,1
1583942235806,NaN,0.23560685,0.08081055,-0.90600586,0.3857422,1583942234182,-7101242671724,0.04399547,7,1
1583942235809,NaN,0.18751459,0.08251953,-0.89990234,0.39624023,1583942234262,-7101242671724,0.04399547,7,1
1583942235813,NaN,0.116803765,0.07739258,-0.90185547,0.41064453,1583942234342,-7101242671724,0.04399547,7,1
1583942235817,NaN,0.01573128,0.072753906,-0.8881836,0.4020996,1583942234422,-7101242671724,0.04399547,7,1
1583942235820,NaN,-0.07056945,0.076660156,-0.8918457,0.4116211,1583942234502,-7101242671724,0.04399547,7,1
1583942235825,NaN,-0.15271507,0.08520508,-0.89501953,0.40185547,1583942234582,-7101242671724,0.04399547,7,1
1583942235829,NaN,-0.23676966,0.076660156,-0.907959,0.4074707,1583942234662,-7101242671724,0.04399547,7,1
1583942235833,NaN,-0.3519331,0.078125,-0.90112305,0.41210938,1583942234742,-7101242671724,0.04399547,7,1
1583942235837,NaN,-0.45634747,0.084228516,-0.91137695,0.40649414,1583942234822,-7101242671724,0.04399547,7,1
1583942235841,NaN,-0.52316654,0.083740234,-0.90844727,0.3972168,1583942234902,-7101242671724,0.04399547,7,1
1583942235844,NaN,-0.5338065,0.08081055,-0.90625,0.3894043,1583942234982,-7101242671724,0.04399547,7,1
1583942235847,NaN,-0.5471404,0.08569336,-0.9206543,0.375,1583942235062,-7101242671724,0.04399547,7,1
1583942235850,NaN,-0.4851012,0.099853516,-0.9108887,0.35083008,1583942235142,-7101242671724,0.04399547,7,1
1583942235853,NaN,-0.37984,0.10595703,-0.9304199,0.328125,1583942235222,-7101242671724,0.04399547,7,1
1583942235857,NaN,-0.23137183,0.10595703,-0.92578125,0.30322266,1583942235302,-7101242671724,0.04399547,7,1
1583942235860,NaN,-0.05705907,0.118652344,-0.9316406,0.28076172,1583942235382,-7101242671724,0.04399547,7,1
1583942235863,37.5,0.17696233,0.11206055,-0.97094727,0.22021484,1583942235462,-7101242671724,0.07248715,7,1
1583942238316,NaN,0.42030206,0.07348633,-1.0192871,0.19897461,1583942235542,5149111264676,0.07248715,7,1
1583942238323,NaN,0.67686445,0.10595703,-1.0153809,0.18701172,1583942235622,5149111264676,0.07248715,7,1
1583942238329,NaN,0.95508116,0.032958984,-0.9848633,0.16259766,1583942235702,5149111264676,0.082801476,7,1
1583942238339,NaN,1.1473354,0.0126953125,-0.9770508,0.24291992,1583942235782,5149111264676,0.083206475,7,1
1583942238342,NaN,1.3659531,-0.026611328,-0.9836426,0.1821289,1583942235862,5149111264676,0.083206475,7,1
1583942238347,NaN,1.497582,-0.016113281,-0.9812012,0.25219727,1583942235942,5149111264676,0.083206475,7,1
1583942238352,NaN,1.6657101,-0.07788086,-0.9350586,0.16503906,1583942236022,5149111264676,0.11636548,7,1
1583942238358,NaN,1.7500399,-0.051757812,-0.96118164,0.2055664,1583942236102,5149111264676,0.11636548,7,1
1583942238362,NaN,1.7827393,0.0031738281,-0.9719238,0.2084961,1583942236182,5149111264676,0.11636548,7,1
1583942238366,NaN,1.7640172,-0.021972656,-0.9641113,0.21069336,1583942236262,5149111264676,0.11636548,7,1
1583942238370,NaN,1.7096734,-0.060546875,-0.99072266,0.21289062,1583942236342,5149111264676,0.11636548,7,1
1583942238374,NaN,1.4888438,0.005859375,-0.9616699,0.26757812,1583942236422,5149111264676,0.11636548,7,1
1583942238378,NaN,1.1987123,0.028564453,-0.89501953,0.29370117,1583942236502,5149111264676,0.11636548,7,1
1583942238381,NaN,0.7638863,0.080566406,-0.88720703,0.43945312,1583942236582,5149111264676,0.15494797,7,1
1583942238385,NaN,0.37021866,0.025390625,-0.9367676,0.3774414,1583942236662,5149111264676,0.15494797,7,1
1583942238388,NaN,0.13296823,-0.007080078,-0.8730469,0.34033203,1583942236742,5149111264676,0.15494797,7,1
1583942238391,NaN,-0.18712938,-0.018554688,-0.9313965,0.34838867,1583942236822,5149111264676,0.15494797,7,1
1583942238395,NaN,-0.2574391,-0.03857422,-1.041748,0.2133789,1583942236902,5149111264676,0.17551605,7,1
1583942238397,NaN,-0.2884326,0.061767578,-1.0844727,0.061523438,1583942236982,5149111264676,0.18695976,7,1
1583942238400,NaN,-0.47013173,-0.0126953125,-0.99121094,0.2993164,1583942237062,5149111264676,0.26606008,7,1
1583942238403,NaN,-0.5057817,-0.03466797,-0.9226074,0.11401367,1583942237142,5149111264676,0.26606008,7,1
1583942238407,NaN,-0.5550422,-0.07397461,-0.93530273,0.16699219,1583942237222,5149111264676,0.26606008,7,1
1583942238410,NaN,-0.60731107,-0.1159668,-0.9472656,0.1887207,1583942237302,5149111264676,0.26606008,7,1
1583942238413,NaN,-0.52483875,-0.12207031,-0.982666,0.22094727,1583942237382,5149111264676,0.26606008,7,1
1583942238415,NaN,-0.35595927,-0.12548828,-0.9633789,0.22387695,1583942237462,5149111264676,0.26606008,7,1
1583942238418,NaN,0.035514414,-0.1796875,-0.9577637,0.25976562,1583942237542,5149111264676,0.26606008,7,1
1583942238421,27.777779,0.3144413,-0.16064453,-1.0109863,0.2824707,1583942237622,5149111264676,0.26606008,7,1
1583942238424,NaN,0.43476173,-0.083984375,-0.9277344,0.33398438,1583942237702,5149111264676,0.26606008,7,1
1583942238426,NaN,0.69056034,-0.005859375,-0.9223633,0.20825195,1583942237782,5149111264676,0.26606008,7,1
1583942238429,NaN,0.5027587,0.019042969,-0.9423828,0.3671875,1583942237862,5149111264676,0.26606008,7,1
1583942238431,NaN,0.1148679,0.078125,-0.88720703,0.33789062,1583942237942,5149111264676,0.26606008,7,1
1583942238437,NaN,0.013520837,0.03149414,-0.90966797,0.48242188,1583942238022,5149111264676,0.26606008,7,1
1583942240899,NaN,-0.23125006,-0.05078125,-0.9355469,0.34570312,1583942238102,-1047560347608,0.26606008,7,1
1583942240906,NaN,-0.48432985,-0.03564453,-0.845459,0.42211914,1583942238182,-1047560347608,0.26606008,7,1
1583942240910,NaN,-0.6620459,-0.09692383,-0.8696289,0.37670898,1583942238262,-1047560347608,0.26606008,7,1
1583942240915,NaN,-0.861309,-0.080566406,-0.89990234,0.3935547,1583942238342,-1047560347608,0.26606008,7,1
1583942240919,NaN,-1.1156726,-0.051757812,-0.9248047,0.44213867,1583942238422,-1047560347608,0.26606008,7,1
1583942240922,NaN,-1.3185903,-0.0126953125,-1.0830078,0.34814453,1583942238502,-1047560347608,0.26606008,7,1
1583942240925,NaN,-1.6028894,-0.103759766,-0.87524414,0.46972656,1583942238582,-1047560347608,0.26606008,7,1
1583942240931,NaN,-1.571792,-0.0769043,-0.84716797,0.23779297,1583942238662,-1047560347608,0.26606008,7,1
1583942240933,NaN,-1.6616049,-0.12182617,-0.9694824,0.21484375,1583942238742,-1047560347608,0.26606008,7,1
1583942240939,NaN,-1.5183994,-0.14428711,-0.97314453,0.39770508,1583942238822,-1047560347608,0.26606008,7,1
1583942240944,NaN,-1.2532027,-0.055908203,-0.88916016,0.3491211,1583942238902,-1047560347608,0.26606008,7,1
1583942240947,NaN,-0.9723026,-0.13232422,-0.89746094,0.35107422,1583942238982,-1047560347608,0.26606008,7,1
1583942240951,NaN,-0.7499488,-0.1796875,-0.9313965,0.31152344,1583942239062,-1047560347608,0.26606008,7,1
1583942240953,NaN,-0.48887452,-0.041259766,-1.0148926,0.44140625,1583942239142,-1047560347608,0.26606008,7,1
1583942240956,NaN,-0.21157847,-0.0041503906,-0.95996094,0.25439453,1583942239222,-1047560347608,0.26606008,7,1
1583942240959,NaN,-0.012030783,0.11206055,-0.8210449,0.29003906,1583942239302,-1047560347608,0.26606008,7,1
1583942240962,NaN,0.14231305,0.13183594,-0.9267578,0.45751953,1583942239382,-1047560347608,0.26606008,7,1
1583942240966,NaN,0.14361067,0.013183594,-0.93774414,0.34375,1583942239462,-1047560347608,0.26606008,7,1
1583942240970,31.25,0.33596113,0.011230469,-0.8557129,0.4440918,1583942239542,-1047560347608,0.26606008,7,1
1583942240972,NaN,0.14127745,-0.0063476562,-0.84594727,0.41430664,1583942239622,-1047560347608,0.25737262,7,1
1583942240976,NaN,-0.06932252,-0.029785156,-0.85913086,0.40356445,1583942239702,-1047560347608,0.25737262,7,1
1583942240979,NaN,-0.007819007,-0.01953125,-1.1245117,0.36328125,1583942239782,-1047560347608,0.26861662,7,1
1583942240983,NaN,0.058655888,0.03125,-1.0073242,0.29541016,1583942239862,-1047560347608,0.26861662,7,1
1583942240987,NaN,0.066876315,-0.0034179688,-0.8742676,0.171875,1583942239942,-1047560347608,0.26861662,7,1
1583942240990,NaN,0.06643343,-0.030029297,-1.0131836,0.27807617,1583942240022,-1047560347608,0.26861662,7,1
1583942240993,NaN,0.087094,-0.028320312,-0.8808594,0.32080078,1583942240102,-1047560347608,0.26861662,7,1
1583942240997,NaN,-0.05154246,-0.03466797,-0.93066406,0.28588867,1583942240182,-1047560347608,0.26861662,7,1
1583942241000,NaN,-0.05747543,-0.13793945,-0.99072266,0.33789062,1583942240262,-1047560347608,0.26861662,7,1
1583942241003,NaN,0.13278806,-0.01171875,-0.9992676,0.29711914,1583942240342,-1047560347608,0.26861662,7,1
1583942241006,NaN,0.18847005,0.09838867,-0.98046875,0.3293457,1583942240422,-1047560347608,0.26861662,7,1
1583942241010,NaN,0.35336813,0.17797852,-0.87597656,0.22070312,1583942240502,-1047560347608,0.26861662,7,1
1583942241012,NaN,0.4641645,0.14697266,-0.8457031,0.44140625,1583942240582,-1047560347608,0.26861662,7,1
1583942243285,NaN,0.71724254,0.09057617,-0.9484863,0.34106445,1583942240662,-7243950484917,0.26861662,7,1
1583942243292,NaN,0.56587917,-0.017333984,-0.83154297,0.3803711,1583942240742,-7243950484917,0.26861662,7,1
1583942243297,NaN,0.3683257,-0.03955078,-0.8786621,0.4182129,1583942240822,-7243950484917,0.26861662,7,1
1583942243301,NaN,0.11163042,0.05493164,-0.94018555,0.35839844,1583942240902,-7243950484917,0.26861662,7,1
1583942243305,NaN,0.1625195,0.021728516,-1.0649414,0.17700195,1583942240982,-7243950484917,0.26861662,7,1
1583942243310,NaN,0.13944109,-0.080322266,-1.0615234,0.34936523,1583942241062,-7243950484917,0.26861662,7,1
1583942243313,NaN,NaN,0.02734375,-0.88500977,0.030517578,1583942241142,-7243950484917,0.38001695,7,1
1583942243316,NaN,NaN,-0.023925781,-1.0476074,0.17016602,1583942241222,-7243950484917,0.38001695,7,1
1583942243321,NaN,NaN,-0.03100586,-0.9482422,0.1508789,1583942241302,-7243950484917,0.38001695,7,1
1583942243325,NaN,NaN,2.4414062E-4,-0.939209,0.12939453,1583942241382,-7243950484917,0.38001695,7,1
1583942243329,NaN,NaN,0.015136719,-0.9772949,0.15307617,1583942241462,-7243950484917,0.38001695,7,1
1583942243333,NaN,NaN,0.0126953125,-0.98339844,0.12963867,1583942241542,-7243950484917,0.38001695,7,1
1583942243336,NaN,NaN,0.10668945,-0.9147949,0.09667969,1583942241622,-7243950484917,0.38001695,7,1
1583942243340,NaN,NaN,0.24365234,-0.9645996,0.14746094,1583942241702,-7243950484917,0.38001695,7,1
1583942243343,NaN,NaN,0.38500977,-0.8461914,0.013427734,1583942241782,-7243950484917,0.38001695,7,1
1583942243346,NaN,NaN,0.48901367,-0.91064453,0.078125,1583942241862,-7243950484917,0.38001695,7,1
1583942243350,NaN,NaN,0.57543945,-0.8581543,-0.021240234,1583942241942,-7243950484917,0.38001695,7,1
1583942243353,NaN,NaN,0.595459,-0.8371582,-0.02709961,1583942242022,-7243950484917,0.38001695,7,1
1583942243357,NaN,NaN,0.6196289,-0.8183594,-0.076416016,1583942242102,-7243950484917,0.38001695,7,1
1583942243360,NaN,NaN,0.6652832,-0.80810547,-0.064208984,1583942242182,-7243950484917,0.38001695,7,1
1583942243364,NaN,NaN,0.6750488,-0.7832031,-0.111083984,1583942242262,-7243950484917,0.38001695,7,1
1583942243368,NaN,NaN,0.6965332,-0.7758789,-0.1081543,1583942242342,-7243950484917,0.38001695,7,1
1583942243371,NaN,NaN,0.68188477,-0.7788086,-0.12231445,1583942242422,-7243950484917,0.38001695,7,1
1583942243375,NaN,NaN,0.7067871,-0.7751465,-0.1003418,1583942242502,-7243950484917,0.38001695,7,1
1583942243379,NaN,NaN,0.7050781,-0.76416016,-0.103271484,1583942242582,-7243950484917,0.38001695,7,1
1583942243381,NaN,NaN,0.67822266,-0.75024414,-0.118652344,1583942242662,-7243950484917,0.38001695,7,1
1583942243384,NaN,NaN,0.68774414,-0.73461914,-0.11254883,1583942242742,-7243950484917,0.38001695,7,1
1583942243387,NaN,NaN,0.6672363,-0.7463379,-0.107177734,1583942242822,-7243950484917,0.38001695,7,1
1583942243390,NaN,NaN,0.6813965,-0.74438477,-0.12719727,1583942242902,-7243950484917,0.38001695,7,1
1583942243393,NaN,NaN,0.6867676,-0.7663574,-0.11254883,1583942242982,-7243950484917,0.38001695,7,1
1583942243396,NaN,NaN,0.6784668,-0.77075195,-0.10888672,1583942243062,-7243950484917,0.38001695,7,1
1583942243399,NaN,NaN,0.6738281,-0.7597656,-0.11230469,1583942243142,-7243950484917,0.38001695,7,1
1583942245867,NaN,NaN,0.65356445,-0.7626953,-0.104003906,1583942243222,5006403451484,0.38001695,7,1
1583942245873,NaN,NaN,0.6923828,-0.7783203,-0.11816406,1583942243302,5006403451484,0.38001695,7,1
1583942245877,NaN,NaN,0.6672363,-0.7675781,-0.111328125,1583942243382,5006403451484,0.38001695,7,1
1583942245887,NaN,NaN,0.6760254,-0.77246094,-0.09741211,1583942243462,5006403451484,0.38001695,7,1
1583942245892,NaN,NaN,0.63720703,-0.7709961,-0.046875,1583942243542,5006403451484,0.38001695,7,1
1583942245897,NaN,NaN,0.63500977,-0.7895508,-0.064208984,1583942243622,5006403451484,0.38001695,7,1
1583942245909,NaN,0.3399665,0.6425781,-0.7805176,-0.010986328,1583942243702,5006403451484,0.22796342,7,1
1583942245913,NaN,0.57049465,0.63012695,-0.8149414,-0.025146484,1583942243782,5006403451484,0.22796342,7,1
1583942245918,NaN,0.63426894,0.62060547,-0.8249512,0.02709961,1583942243862,5006403451484,0.22796342,7,1
1583942245924,NaN,0.9121349,0.5905762,-0.85424805,0.00390625,1583942243942,5006403451484,0.22796342,7,1
1583942245928,NaN,0.9402072,0.51831055,-0.87109375,0.032226562,1583942244022,5006403451484,0.22796342,7,1
1583942245930,NaN,1.349377,0.48266602,-0.90356445,0.052490234,1583942244102,5006403451484,0.22796342,7,1
1583942245936,NaN,1.5082124,0.4399414,-0.91015625,0.13085938,1583942244182,5006403451484,0.22796342,7,1
1583942245940,NaN,1.8414216,0.37646484,-0.92407227,0.16772461,1583942244262,5006403451484,0.22796342,7,1
1583942245943,NaN,2.1975203,0.32763672,-0.93188477,0.21459961,1583942244342,5006403451484,0.14176774,7,1
1583942245946,NaN,2.4385777,0.22070312,-0.8972168,0.25952148,1583942244422,5006403451484,0.14176774,7,1
1583942245949,NaN,2.2837102,0.19726562,-0.9182129,0.29248047,1583942244502,5006403451484,0.12105633,7,1
1583942245953,NaN,2.2663143,0.11401367,-0.89331055,0.36206055,1583942244582,5006403451484,0.12105633,7,1
1583942245957,NaN,1.6790453,0.083496094,-0.89038086,0.39526367,1583942244662,5006403451484,0.12105633,7,1
1583942245960,NaN,0.931238,0.020263672,-0.85717773,0.4194336,1583942244742,5006403451484,0.12105633,7,1
1583942245965,NaN,0.22411068,-0.009277344,-0.8774414,0.43847656,1583942244822,5006403451484,0.12105633,7,1
1583942245969,NaN,-0.62086046,-0.067871094,-0.8666992,0.46020508,1583942244902,5006403451484,0.12105633,7,1
1583942245973,NaN,-1.3026401,-0.07055664,-0.88061523,0.41357422,1583942244982,5006403451484,0.12105633,7,1
1583942245977,NaN,-2.1941977,-0.049316406,-0.8496094,0.47460938,1583942245062,5006403451484,0.12105633,7,1
1583942245981,NaN,-2.8790967,-0.055664062,-0.89453125,0.5073242,1583942245142,5006403451484,0.12105633,7,1
1583942245984,NaN,-3.525483,-0.08325195,-0.86376953,0.46264648,1583942245222,5006403451484,0.12105633,7,1
1583942245987,NaN,-4.09168,-0.047607422,-0.8808594,0.46679688,1583942245302,5006403451484,0.12105633,7,1
1583942245991,NaN,-4.4589043,-0.013671875,-0.8676758,0.49243164,1583942245382,5006403451484,0.12105633,7,1
1583942245994,NaN,-4.6159697,-0.04345703,-0.86621094,0.45410156,1583942245462,5006403451484,0.12105633,7,1
1583942245997,NaN,-4.7561736,-0.010253906,-0.8679199,0.4638672,1583942245542,5006403451484,0.12105633,7,1
1583942246001,NaN,-4.433656,-0.012207031,-0.86450195,0.46899414,1583942245622,5006403451484,0.12105633,7,1
1583942246005,NaN,-3.9655612,0.0073242188,-0.87280273,0.44555664,1583942245702,5006403451484,0.12105633,7,1
1583942248452,NaN,-3.479212,0.0087890625,-0.8696289,0.44262695,1583942245782,-1190268160800,0.12105633,7,1
1583942248457,NaN,-2.8910058,-0.020263672,-0.9082031,0.45654297,1583942245862,-1190268160800,0.12105633,7,1
1583942248461,NaN,-2.386326,-0.004638672,-0.8869629,0.42822266,1583942245942,-1190268160800,0.12105633,7,1
1583942248468,NaN,-1.7661023,0.06616211,-0.9008789,0.4152832,1583942246022,-1190268160800,0.12105633,7,1
1583942248473,NaN,-1.1945335,0.052978516,-0.9133301,0.41870117,1583942246102,-1190268160800,0.12105633,7,1
1583942248480,NaN,-0.6746847,0.046142578,-0.9121094,0.38964844,1583942246182,-1190268160800,0.12105633,7,1
1583942248484,NaN,-0.24667133,0.049316406,-0.9086914,0.40454102,1583942246262,-1190268160800,0.12105633,7,1
1583942248489,NaN,0.11541877,0.040283203,-0.9055176,0.39160156,1583942246342,-1190268160800,0.12105633,7,1
1583942248493,NaN,0.4306098,0.03881836,-0.9128418,0.3857422,1583942246422,-1190268160800,0.12105633,7,1
1583942248496,NaN,0.6496438,0.044433594,-0.9243164,0.38330078,1583942246502,-1190268160800,0.12105633,7,1
1583942248499,NaN,0.84916407,0.05102539,-0.91430664,0.37475586,1583942246582,-1190268160800,0.12105633,7,1
1583942248503,NaN,0.9405544,0.040771484,-0.9289551,0.3786621,1583942246662,-1190268160800,0.12105633,7,1
1583942248508,NaN,1.011783,0.04711914,-0.9243164,0.38061523,1583942246742,-1190268160800,0.12105633,7,1
1583942248512,NaN,1.0589331,0.04736328,-0.91748047,0.3779297,1583942246822,-1190268160800,0.12105633,7,1
1583942248517,NaN,1.1021029,0.042236328,-0.9135742,0.37597656,1583942246902,-1190268160800,0.12105633,7,1
1583942248520,NaN,1.0217779,0.035888672,-0.9177246,0.3708496,1583942246982,-1190268160800,0.111321166,7,1
1583942248524,NaN,0.9361379,0.043701172,-0.9172363,0.38183594,1583942247062,-1190268160800,0.111321166,7,1
1583942248527,NaN,0.8254468,0.045898438,-0.91015625,0.38012695,1583942247142,-1190268160800,0.07539875,7,1
1583942248531,NaN,0.7746238,0.044433594,-0.9345703,0.35473633,1583942247222,-1190268160800,0.07539875,7,1
1583942248534,NaN,0.6975572,0.044189453,-0.93115234,0.36865234,1583942247302,-1190268160800,0.07330645,7,1
1583942248539,NaN,0.6353384,0.05053711,-0.9243164,0.35083008,1583942247382,-1190268160800,0.07330645,7,1
1583942248542,NaN,0.5620483,0.043945312,-0.9206543,0.35229492,1583942247462,-1190268160800,0.07330645,7,1
1583942248545,NaN,0.4736704,0.048583984,-0.92700195,0.35546875,1583942247542,-1190268160800,0.07330645,7,1
1583942248548,NaN,0.4206296,0.056396484,-0.9172363,0.35180664,1583942247622,-1190268160800,0.07330645,7,1
1583942248551,NaN,0.3628105,0.052978516,-0.9165039,0.359375,1583942247702,-1190268160800,0.07330645,7,1
1583942248554,NaN,0.29522374,0.053466797,-0.9243164,0.36108398,1583942247782,-1190268160800,0.07330645,7,1
1583942248557,NaN,0.22821797,0.045898438,-0.91552734,0.38623047,1583942247862,-1190268160800,0.07330645,7,1
1583942248561,NaN,0.19523478,0.047607422,-0.9199219,0.39404297,1583942247942,-1190268160800,0.07330645,7,1
1583942248563,NaN,0.16512583,0.047851562,-0.91186523,0.3935547,1583942248022,-1190268160800,0.07330645,7,1
1583942248567,NaN,0.15239254,0.045898438,-0.9050293,0.3881836,1583942248102,-1190268160800,0.07330645,7,1
1583942248570,NaN,0.079295486,0.047851562,-0.90649414,0.3959961,1583942248182,-1190268160800,0.07330645,7,1
1583942248573,NaN,0.022030808,0.05126953,-0.91137695,0.41381836,1583942248262,-1190268160800,0.07330645,7,1
1583942251036,NaN,-0.05378897,0.047851562,-0.904541,0.40625,1583942248342,-7386658298109,0.07330645,7,1
1583942251043,NaN,-0.1267371,0.043701172,-0.8911133,0.4182129,1583942248422,-7386658298109,0.07330645,7,1
1583942251049,NaN,-0.18997574,0.041748047,-0.91552734,0.41723633,1583942248502,-7386658298109,0.07330645,7,1
1583942251059,NaN,-0.26194108,0.040283203,-0.8935547,0.40673828,1583942248582,-7386658298109,0.03525445,7,1
1583942251062,NaN,-0.31710306,0.027832031,-0.90405273,0.39819336,1583942248662,-7386658298109,0.03525445,7,1
1583942251064,NaN,-0.37528193,0.029296875,-0.91748047,0.40625,1583942248742,-7386658298109,0.03525445,7,1
1583942251067,NaN,-0.39591062,0.03173828,-0.9123535,0.41455078,1583942248822,-7386658298109,0.03525445,7,1
1583942251071,NaN,-0.4261663,-0.0087890625,-0.88671875,0.40356445,1583942248902,-7386658298109,0.04919661,7,1
1583942251075,NaN,-0.44183612,-0.005859375,-0.9206543,0.39501953,1583942248982,-7386658298109,0.04919661,7,1
1583942251077,NaN,-0.4656522,0.0021972656,-0.90112305,0.40234375,1583942249062,-7386658298109,0.04919661,7,1
1583942251081,NaN,-0.4547,-0.0041503906,-0.9135742,0.39672852,1583942249142,-7386658298109,0.04919661,7,1
1583942251086,NaN,-0.43643486,-2.4414062E-4,-0.9128418,0.39990234,1583942249222,-7386658298109,0.04919661,7,1
1583942251090,NaN,-0.41338572,-0.0075683594,-0.9067383,0.39941406,1583942249302,-7386658298109,0.04919661,7,1
1583942251095,NaN,-0.3589691,0.009765625,-0.8996582,0.39404297,1583942249382,-7386658298109,0.04919661,7,1
1583942251099,NaN,-0.32034642,0.0061035156,-0.8898926,0.3935547,1583942249462,-7386658298109,0.04919661,7,1
1583942251102,NaN,-0.30543837,-0.00390625,-0.8996582,0.43139648,1583942249542,-7386658298109,0.04919661,7,1
1583942251105,NaN,-0.2986106,0.0041503906,-0.90063477,0.43139648,1583942249622,-7386658298109,0.04919661,7,1
1583942251108,NaN,-0.2920479,0.0068359375,-0.89038086,0.4338379,1583942249702,-7386658298109,0.04919661,7,1
1583942251111,NaN,-0.2992233,0.015625,-0.890625,0.44482422,1583942249782,-7386658298109,0.04919661,7,1
1583942251113,NaN,-0.27225533,0.013183594,-0.88793945,0.44384766,1583942249862,-7386658298109,0.04919661,7,1
1583942251116,NaN,-0.2786004,0.009033203,-0.88793945,0.43969727,1583942249942,-7386658298109,0.04919661,7,1
1583942251120,NaN,-0.27498457,0.013183594,-0.8845215,0.44702148,1583942250022,-7386658298109,0.04919661,7,1
1583942251122,NaN,-0.28421807,0.0075683594,-0.8876953,0.4465332,1583942250102,-7386658298109,0.04919661,7,1
1583942251125,NaN,-0.30244526,0.0087890625,-0.88427734,0.4477539,1583942250182,-7386658298109,0.04919661,7,1
1583942251129,NaN,-0.30982792,0.010498047,-0.8791504,0.4477539,1583942250262,-7386658298109,0.04919661,7,1
1583942251132,NaN,-0.34615576,0.0107421875,-0.8835449,0.44482422,1583942250342,-7386658298109,0.04919661,7,1
1583942251135,NaN,-0.37598345,0.0,-0.88720703,0.45239258,1583942250422,-7386658298109,0.04919661,7,1
1583942251138,NaN,-0.36026585,-0.0024414062,-0.88916016,0.46044922,1583942250502,-7386658298109,0.04919661,7,1
1583942251142,NaN,-0.32647792,0.018066406,-0.89331055,0.43920898,1583942250582,-7386658298109,0.04919661,7,1
1583942251146,NaN,-0.29538837,0.0061035156,-0.8913574,0.4416504,1583942250662,-7386658298109,0.04919661,7,1
1583942251149,NaN,-0.26483253,-0.0036621094,-0.8935547,0.4326172,1583942250742,-7386658298109,0.04919661,7,1
1583942251152,NaN,-0.25083134,0.012207031,-0.88183594,0.4399414,1583942250822,-7386658298109,0.04919661,7,1
1583942253620,NaN,-0.21509103,0.012939453,-0.8757324,0.42700195,1583942250902,4863695638291,0.04919661,7,1
1583942253625,NaN,-0.17668627,0.013916016,-0.8874512,0.42919922,1583942250982,4863695638291,0.04919661,7,1
1583942253632,NaN,-0.13381243,0.015625,-0.888916,0.43676758,1583942251062,4863695638291,0.04919661,7,1
1583942253639,NaN,-0.08838415,0.017822266,-0.89868164,0.44213867,1583942251142,4863695638291,0.04919661,7,1
1583942253642,NaN,-0.047604475,0.02368164,-0.88256836,0.44091797,1583942251222,4863695638291,0.04919661,7,1
1583942253646,NaN,-0.0078086257,0.020263672,-0.88134766,0.44458008,1583942251302,4863695638291,0.04919661,7,1
1583942253650,NaN,0.044426862,0.026611328,-0.8886719,0.4572754,1583942251382,4863695638291,0.04919661,7,1
1583942253654,NaN,0.08319073,0.026611328,-0.88134766,0.45263672,1583942251462,4863695638291,0.040343083,7,1
1583942253658,NaN,0.07824541,0.02734375,-0.8840332,0.453125,1583942251542,4863695638291,0.040343083,7,1
1583942253661,NaN,0.09292787,0.036376953,-0.88061523,0.4506836,1583942251622,4863695638291,0.040343083,7,1
1583942253665,NaN,0.10647266,0.032958984,-0.88427734,0.4465332,1583942251702,4863695638291,0.040343083,7,1
1583942253669,NaN,0.11605286,0.035888672,-0.8835449,0.44873047,1583942251782,4863695638291,0.040343083,7,1
1583942253673,NaN,0.11335939,0.033935547,-0.88549805,0.44848633,1583942251862,4863695638291,0.040343083,7,1
1583942253677,NaN,0.102486424,0.032470703,-0.8857422,0.4477539,1583942251942,4863695638291,0.040343083,7,1
1583942253680,NaN,0.09191719,0.030761719,-0.8835449,0.45117188,1583942252022,4863695638291,0.040343083,7,1
1583942253683,NaN,0.069126904,0.022949219,-0.8828125,0.4597168,1583942252102,4863695638291,0.029815158,7,1
1583942253686,NaN,0.057845723,0.028564453,-0.89208984,0.4489746,1583942252182,4863695638291,0.029815158,7,1
1583942253689,NaN,0.0680517,0.03149414,-0.89575195,0.43530273,1583942252262,4863695638291,0.029815158,7,1
1583942253692,NaN,0.079699814,0.030273438,-0.8979492,0.4194336,1583942252342,4863695638291,0.029815158,7,1
1583942253695,NaN,0.08099742,0.025146484,-0.8937988,0.41845703,1583942252422,4863695638291,0.029815158,7,1
1583942253699,NaN,0.109088264,0.0234375,-0.90234375,0.41259766,1583942252502,4863695638291,0.029815158,7,1
1583942253702,NaN,0.1115731,0.024658203,-0.8937988,0.42016602,1583942252582,4863695638291,0.029815158,7,1
1583942253705,NaN,0.120082594,0.033691406,-0.89575195,0.41577148,1583942252662,4863695638291,0.029815158,7,1
1583942253709,NaN,0.12185636,0.025146484,-0.8898926,0.41845703,1583942252742,4863695638291,0.029815158,7,1
1583942253712,NaN,0.12302647,0.018554688,-0.8947754,0.42749023,1583942252822,4863695638291,0.029815158,7,1
1583942253715,NaN,0.1177381,0.018310547,-0.8925781,0.4440918,1583942252902,4863695638291,0.029815158,7,1
1583942253718,NaN,0.11120545,0.024414062,-0.87353516,0.45214844,1583942252982,4863695638291,0.029815158,7,1
1583942253721,NaN,0.12507218,0.024169922,-0.8786621,0.453125,1583942253062,4863695638291,0.029815158,7,1
1583942253724,NaN,0.1138415,0.027832031,-0.8798828,0.4621582,1583942253142,4863695638291,0.02155915,7,1
1583942253727,NaN,0.08699104,0.037353516,-0.8898926,0.46142578,1583942253222,4863695638291,0.02155915,7,1
1583942253730,NaN,0.051011324,0.041992188,-0.8857422,0.44848633,1583942253302,4863695638291,0.02155915,7,1
1583942253733,NaN,0.016951317,0.032958984,-0.8774414,0.44604492,1583942253382,4863695638291,0.02155915,7,1
1583942256405,NaN,-0.03039355,0.030761719,-0.875,0.45385742,1583942253462,-1332975973993,0.02155915,7,1
1583942256410,NaN,-0.059248645,0.034179688,-0.88183594,0.4572754,1583942253542,-1332975973993,0.02155915,7,1
1583942256416,NaN,-0.10089006,0.037109375,-0.8769531,0.45336914,1583942253622,-1332975973993,0.02155915,7,1
1583942256421,NaN,-0.13661437,0.025146484,-0.89208984,0.46704102,1583942253702,-1332975973993,0.023646377,7,1
1583942256424,NaN,-0.15488493,0.02709961,-0.88061523,0.45825195,1583942253782,-1332975973993,0.023646377,7,1
1583942256428,NaN,-0.14675291,0.026611328,-0.8911133,0.44702148,1583942253862,-1332975973993,0.023646377,7,1
1583942256432,NaN,-0.13484101,0.018066406,-0.8874512,0.44140625,1583942253942,-1332975973993,0.023646377,7,1
1583942256436,NaN,-0.12901707,0.014892578,-0.89331055,0.43286133,1583942254022,-1332975973993,0.023646377,7,1
1583942256440,NaN,-0.10536054,0.017089844,-0.88427734,0.42871094,1583942254102,-1332975973993,0.023646377,7,1
1583942256444,NaN,-0.09264529,0.010253906,-0.88964844,0.4321289,1583942254182,-1332975973993,0.023646377,7,1
1583942256449,NaN,-0.08588103,0.009765625,-0.8901367,0.4267578,1583942254262,-1332975973993,0.023646377,7,1
1583942256454,NaN,-0.069679536,0.01928711,-0.87768555,0.42822266,1583942254342,-1332975973993,0.023646377,7,1
1583942256458,NaN,-0.043585602,0.014404297,-0.89160156,0.4423828,1583942254422,-1332975973993,0.023646377,7,1
1583942256462,NaN,-0.034171697,0.013427734,-0.88305664,0.45092773,1583942254502,-1332975973993,0.023646377,7,1
1583942256465,NaN,-0.015291035,0.020019531,-0.8876953,0.44873047,1583942254582,-1332975973993,0.023646377,7,1
1583942256468,NaN,0.011125695,0.01586914,-0.88061523,0.4501953,1583942254662,-1332975973993,0.023646377,7,1
1583942256471,NaN,0.027555121,0.021484375,-0.89160156,0.45410156,1583942254742,-1332975973993,0.023646377,7,1
1583942256474,NaN,0.028123654,0.03491211,-0.87768555,0.4416504,1583942254822,-1332975973993,0.023646377,7,1
1583942256478,NaN,0.022402292,0.02758789,-0.8898926,0.4519043,1583942254902,-1332975973993,0.023646377,7,1
1583942256481,NaN,0.013525515,0.03564453,-0.88134766,0.44384766,1583942254982,-1332975973993,0.023646377,7,1
1583942256484,NaN,-0.0064028674,0.028808594,-0.89208984,0.45166016,1583942255062,-1332975973993,0.023646377,7,1
1583942256487,NaN,-0.0113499835,0.03173828,-0.8781738,0.44677734,1583942255142,-1332975973993,0.023646377,7,1
1583942256490,NaN,-0.011906869,0.026367188,-0.890625,0.44384766,1583942255222,-1332975973993,0.023646377,7,1
1583942256493,NaN,-0.022707999,0.02709961,-0.888916,0.4494629,1583942255302,-1332975973993,0.023646377,7,1
1583942256497,NaN,-0.022587968,0.027832031,-0.8864746,0.44189453,1583942255382,-1332975973993,0.023646377,7,1
1583942256500,NaN,-0.008353819,0.02734375,-0.8852539,0.4465332,1583942255462,-1332975973993,0.023646377,7,1
1583942256503,NaN,-0.00878534,0.0234375,-0.88964844,0.45532227,1583942255542,-1332975973993,0.023646377,7,1
1583942256506,NaN,0.0037661444,0.03100586,-0.88964844,0.43798828,1583942255622,-1332975973993,0.023646377,7,1
1583942256510,NaN,0.014808183,0.020507812,-0.8937988,0.43676758,1583942255702,-1332975973993,0.023646377,7,1
1583942256513,17.045454,0.029302413,0.018066406,-0.890625,0.421875,1583942255782,-1332975973993,0.023646377,7,1
1583942256517,NaN,0.0558833,0.01586914,-0.9033203,0.4230957,1583942255862,-1332975973993,0.023646377,7,1
1583942256520,NaN,0.0729837,0.024169922,-0.8947754,0.4267578,1583942255942,-1332975973993,0.023646377,7,1
1583942258785,NaN,0.110679485,0.021484375,-0.8913574,0.40942383,1583942256022,-7529366111301,0.023646377,7,1
1583942258790,NaN,0.14473094,0.02758789,-0.8901367,0.41235352,1583942256102,-7529366111301,0.023646377,7,1
1583942258794,NaN,0.17181563,0.020507812,-0.8952637,0.41625977,1583942256182,-7529366111301,0.023646377,7,1
1583942258799,NaN,0.19798125,0.008544922,-0.9003906,0.43066406,1583942256262,-7529366111301,0.02299981,7,1
1583942258802,NaN,0.20820375,0.029296875,-0.9001465,0.43164062,1583942256342,-7529366111301,0.02299981,7,1
1583942258805,NaN,0.21767153,0.028808594,-0.8984375,0.43066406,1583942256422,-7529366111301,0.02299981,7,1
1583942258811,NaN,0.2381109,0.025390625,-0.8852539,0.43066406,1583942256502,-7529366111301,0.02299981,7,1
1583942258815,NaN,0.22955628,0.008056641,-0.9013672,0.43798828,1583942256582,-7529366111301,0.02477396,7,1
1583942258819,NaN,0.21735002,0.022949219,-0.89282227,0.43408203,1583942256662,-7529366111301,0.02477396,7,1
1583942258823,NaN,0.18754442,0.024169922,-0.8964844,0.43896484,1583942256742,-7529366111301,0.02477396,7,1
1583942258826,NaN,0.14155439,0.021728516,-0.88500977,0.4399414,1583942256822,-7529366111301,0.02477396,7,1
1583942258830,NaN,0.11235859,0.02319336,-0.8911133,0.4411621,1583942256902,-7529366111301,0.02477396,7,1
1583942258834,NaN,0.061268587,0.02734375,-0.8898926,0.43432617,1583942256982,-7529366111301,0.02477396,7,1
1583942258837,NaN,0.009216577,0.023925781,-0.8811035,0.43847656,1583942257062,-7529366111301,0.02477396,7,1
1583942258842,NaN,-0.034629866,0.021972656,-0.8852539,0.4404297,1583942257142,-7529366111301,0.02477396,7,1
1583942258845,NaN,-0.07104153,0.01953125,-0.88964844,0.44750977,1583942257222,-7529366111301,0.02477396,7,1
1583942258848,NaN,-0.09711769,0.018554688,-0.8864746,0.44580078,1583942257302,-7529366111301,0.02477396,7,1
1583942258853,NaN,-0.12180825,0.026855469,-0.8859863,0.43579102,1583942257382,-7529366111301,0.02477396,7,1
1583942258857,NaN,-0.13259205,0.01928711,-0.9013672,0.43188477,1583942257462,-7529366111301,0.02477396,7,1
1583942258861,NaN,-0.1355801,0.022705078,-0.892334,0.4255371,1583942257542,-7529366111301,0.02477396,7,1
1583942258864,NaN,-0.11998955,0.017578125,-0.90185547,0.41674805,1583942257622,-7529366111301,0.02477396,7,1
1583942258867,NaN,-0.09163806,0.02758789,-0.9025879,0.41796875,1583942257702,-7529366111301,0.02477396,7,1
1583942258870,NaN,-0.04296427,0.016113281,-0.89501953,0.40722656,1583942257782,-7529366111301,0.02477396,7,1
1583942258874,NaN,-0.0096358955,0.026611328,-0.8942871,0.41259766,1583942257862,-7529366111301,0.02477396,7,1
1583942258877,NaN,0.034416985,0.025878906,-0.8937988,0.4038086,1583942257942,-7529366111301,0.02477396,7,1
1583942258880,26.785715,0.07116785,0.0234375,-0.89501953,0.42504883,1583942258022,-7529366111301,0.02477396,7,1
1583942258883,NaN,0.103100866,0.017333984,-0.90063477,0.4350586,1583942258102,-7529366111301,0.02477396,7,1
1583942258886,NaN,0.1285068,0.02709961,-0.89453125,0.43823242,1583942258182,-7529366111301,0.02477396,7,1
1583942258890,NaN,0.143366,0.026367188,-0.8874512,0.44213867,1583942258262,-7529366111301,0.02477396,7,1
1583942258894,NaN,0.14874285,0.024169922,-0.88793945,0.44091797,1583942258342,-7529366111301,0.02477396,7,1
1583942258897,NaN,0.12668857,0.02319336,-0.88256836,0.44335938,1583942258422,-7529366111301,0.02477396,7,1
1583942258900,NaN,0.106470466,0.026367188,-0.88549805,0.44458008,1583942258502,-7529366111301,0.02477396,7,1
1583942261372,NaN,0.061751783,0.020996094,-0.8859863,0.44580078,1583942258582,4720987825099,0.02477396,7,1
1583942261380,NaN,0.017744228,0.026611328,-0.88842773,0.4482422,1583942258662,4720987825099,0.02477396,7,1
1583942261390,NaN,-0.043342948,0.021972656,-0.88378906,0.44433594,1583942258742,4720987825099,0.02477396,7,1
1583942261395,NaN,-0.0982402,0.026611328,-0.88183594,0.45239258,1583942258822,4720987825099,0.02477396,7,1
1583942261401,NaN,-0.1640638,0.024902344,-0.8840332,0.4567871,1583942258902,4720987825099,0.02477396,7,1
1583942261409,NaN,-0.19986962,0.018310547,-0.88720703,0.45166016,1583942258982,4720987825099,0.02477396,7,1
1583942261414,NaN,-0.22475989,0.026123047,-0.8937988,0.4489746,1583942259062,4720987825099,0.02477396,7,1
1583942261417,NaN,-0.2351902,0.020507812,-0.88183594,0.4387207,1583942259142,4720987825099,0.021414904,7,1
1583942261422,NaN,-0.2259794,0.014404297,-0.9013672,0.43823242,1583942259222,4720987825099,0.021414904,7,1
1583942261426,NaN,-0.21228583,0.020507812,-0.8911133,0.42822266,1583942259302,4720987825099,0.021414904,7,1
1583942261433,NaN,-0.17614885,0.018554688,-0.88842773,0.41967773,1583942259382,4720987825099,0.021414904,7,1
1583942261439,NaN,-0.1436361,0.020507812,-0.88720703,0.4260254,1583942259462,4720987825099,0.021414904,7,1
1583942261443,NaN,-0.094267786,0.009521484,-0.88964844,0.42114258,1583942259542,4720987825099,0.021414904,7,1
1583942261447,NaN,-0.057046175,0.025390625,-0.88964844,0.43530273,1583942259622,4720987825099,0.021414904,7,1
1583942261451,NaN,-0.025738647,0.0075683594,-0.8847656,0.44995117,1583942259702,4720987825099,0.023580749,7,1
1583942261455,NaN,0.0070045046,0.014404297,-0.88061523,0.4560547,1583942259782,4720987825099,0.023580749,7,1
1583942261460,32.608696,0.05150348,0.021240234,-0.8852539,0.45458984,1583942259862,4720987825099,0.023580749,7,1
1583942261464,NaN,0.07003095,0.018066406,-0.8840332,0.45336914,1583942259942,4720987825099,0.023580749,7,1
1583942261467,NaN,0.075475715,0.025146484,-0.875,0.45239258,1583942260022,4720987825099,0.023580749,7,1
1583942261470,NaN,0.06951771,0.020507812,-0.8796387,0.45043945,1583942260102,4720987825099,0.023580749,7,1
1583942261473,NaN,0.035111386,0.021728516,-0.87597656,0.45581055,1583942260182,4720987825099,0.023580749,7,1
1583942261476,NaN,-0.0021821808,0.01953125,-0.88305664,0.46044922,1583942260262,4720987825099,0.023580749,7,1
1583942261480,NaN,-0.05370769,0.021484375,-0.8835449,0.45947266,1583942260342,4720987825099,0.023580749,7,1
1583942261484,NaN,-0.092949115,0.021240234,-0.87939453,0.45483398,1583942260422,4720987825099,0.023580749,7,1
1583942261486,NaN,-0.1438086,0.017822266,-0.8757324,0.4519043,1583942260502,4720987825099,0.023580749,7,1
1583942261489,NaN,-0.16935848,0.017089844,-0.88427734,0.45629883,1583942260582,4720987825099,0.023580749,7,1
1583942261494,NaN,-0.17354542,0.018554688,-0.8833008,0.453125,1583942260662,4720987825099,0.023580749,7,1
1583942261496,NaN,-0.1703416,0.008544922,-0.8874512,0.4580078,1583942260742,4720987825099,0.023580749,7,1
1583942261499,NaN,-0.1715619,0.016601562,-0.88671875,0.45458984,1583942260822,4720987825099,0.023580749,7,1
1583942261501,NaN,-0.15850121,0.015380859,-0.892334,0.44360352,1583942260902,4720987825099,0.023580749,7,1
1583942261504,NaN,-0.13165385,0.010986328,-0.8911133,0.4404297,1583942260982,4720987825099,0.023580749,7,1
1583942261509,NaN,-0.10380628,0.0075683594,-0.88916016,0.43359375,1583942261062,4720987825099,0.023580749,7,1
1583942263956,NaN,-0.047102164,0.009521484,-0.8947754,0.42333984,1583942261142,-1475683787185,0.023580749,7,1
1583942263964,NaN,0.007448184,0.009277344,-0.89086914,0.42822266,1583942261222,-1475683787185,0.023580749,7,1
1583942263968,41.666668,0.07246586,0.00390625,-0.8886719,0.42089844,1583942261302,-1475683787185,0.023580749,7,1
1583942263974,NaN,0.11578065,0.0034179688,-0.88378906,0.43603516,1583942261382,-1475683787185,0.023580749,7,1
1583942263978,NaN,0.17040913,0.0036621094,-0.8874512,0.4272461,1583942261462,-1475683787185,0.023580749,7,1
1583942263982,NaN,0.19254257,0.0,-0.88671875,0.45410156,1583942261542,-1475683787185,0.027113901,7,1
1583942263986,NaN,0.19776787,-0.0014648438,-0.8803711,0.45825195,1583942261622,-1475683787185,0.027113901,7,1
1583942263990,NaN,0.19674493,0.001953125,-0.8815918,0.45532227,1583942261702,-1475683787185,0.027113901,7,1
1583942263994,NaN,0.18756004,0.0073242188,-0.8745117,0.4621582,1583942261782,-1475683787185,0.027113901,7,1
1583942264000,NaN,0.16477092,0.0043945312,-0.87939453,0.4572754,1583942261862,-1475683787185,0.027113901,7,1
1583942264004,NaN,0.1309643,0.0063476562,-0.87939453,0.4580078,1583942261942,-1475683787185,0.027113901,7,1
1583942264009,NaN,0.090515606,0.0036621094,-0.8791504,0.4597168,1583942262022,-1475683787185,0.027113901,7,1
1583942264013,NaN,0.023991855,-0.0024414062,-0.8708496,0.46020508,1583942262102,-1475683787185,0.027113901,7,1
1583942264017,NaN,-0.033929057,-0.005126953,-0.8803711,0.46679688,1583942262182,-1475683787185,0.027113901,7,1
1583942264020,NaN,-0.09686523,-0.0031738281,-0.8757324,0.45581055,1583942262262,-1475683787185,0.027113901,7,1
1583942264024,NaN,-0.14314193,4.8828125E-4,-0.873291,0.46801758,1583942262342,-1475683787185,0.027113901,7,1
1583942264027,NaN,-0.20244785,7.324219E-4,-0.875,0.46777344,1583942262422,-1475683787185,0.027113901,7,1
1583942264031,NaN,-0.23001991,-0.010253906,-0.8762207,0.4794922,1583942262502,-1475683787185,0.027113901,7,1
1583942264035,NaN,-0.2396069,-0.010498047,-0.8847656,0.47583008,1583942262582,-1475683787185,0.027113901,7,1
1583942264039,NaN,-0.24333662,-0.0026855469,-0.8894043,0.46362305,1583942262662,-1475683787185,0.027113901,7,1
1583942264042,NaN,-0.22109215,-0.0107421875,-0.87597656,0.44702148,1583942262742,-1475683787185,0.027113901,7,1
1583942264045,NaN,-0.19995336,-0.03515625,-0.8564453,0.44262695,1583942262822,-1475683787185,0.031572584,7,1
1583942264048,NaN,-0.17392766,-0.026611328,-0.88500977,0.4560547,1583942262902,-1475683787185,0.032699354,7,1
1583942264051,NaN,-0.1396933,-0.024658203,-0.87231445,0.44702148,1583942262982,-1475683787185,0.032699354,7,1
1583942264054,NaN,-0.082248904,-0.018310547,-0.8869629,0.4399414,1583942263062,-1475683787185,0.032699354,7,1
1583942264057,NaN,-0.034883145,-0.007080078,-0.8720703,0.43847656,1583942263142,-1475683787185,0.032699354,7,1
1583942264059,NaN,-0.0037486574,-0.018310547,-0.88671875,0.46289062,1583942263222,-1475683787185,0.032699354,7,1
1583942264063,NaN,0.023483634,-0.018066406,-0.87719727,0.47436523,1583942263302,-1475683787185,0.032699354,7,1
1583942264067,28.846153,0.06060638,-0.0041503906,-0.8754883,0.46484375,1583942263382,-1475683787185,0.032699354,7,1
1583942264069,NaN,0.08936087,-0.0063476562,-0.87890625,0.46899414,1583942263462,-1475683787185,0.032699354,7,1
1583942264072,NaN,0.09468156,-0.0068359375,-0.87280273,0.47460938,1583942263542,-1475683787185,0.032699354,7,1
1583942264075,NaN,0.08688288,-0.0061035156,-0.87280273,0.46972656,1583942263622,-1475683787185,0.032699354,7,1
1583942266339,NaN,0.049323052,-0.0041503906,-0.8718262,0.47460938,1583942263702,-7672073924493,0.032699354,7,1
1583942266344,NaN,0.020703802,-0.009765625,-0.86987305,0.46972656,1583942263782,-7672073924493,0.032699354,7,1
1583942266352,NaN,-0.010583106,-0.013671875,-0.8737793,0.47607422,1583942263862,-7672073924493,0.032699354,7,1
1583942266359,NaN,-0.044702202,-0.010253906,-0.8676758,0.47070312,1583942263942,-7672073924493,0.032699354,7,1
1583942266364,NaN,-0.098969884,-0.0146484375,-0.8688965,0.47143555,1583942264022,-7672073924493,0.032699354,7,1
1583942266368,NaN,-0.14511445,-0.009765625,-0.86694336,0.47583008,1583942264102,-7672073924493,0.032699354,7,1
1583942266374,NaN,-0.15934299,-0.016601562,-0.86938477,0.47021484,1583942264182,-7672073924493,0.032699354,7,1
1583942266378,NaN,-0.16069333,-0.01586914,-0.8730469,0.4729004,1583942264262,-7672073924493,0.032699354,7,1
1583942266382,NaN,-0.17407513,-0.0146484375,-0.8691406,0.47827148,1583942264342,-7672073924493,0.032699354,7,1
1583942266386,NaN,-0.18633795,-0.009521484,-0.8757324,0.4741211,1583942264422,-7672073924493,0.032699354,7,1
1583942266390,NaN,-0.16620894,-0.009277344,-0.88012695,0.4572754,1583942264502,-7672073924493,0.032699354,7,1
1583942266394,NaN,-0.1369388,-0.009765625,-0.88916016,0.45288086,1583942264582,-7672073924493,0.032699354,7,1
1583942266400,NaN,-0.08481721,0.0061035156,-0.88623047,0.4399414,1583942264662,-7672073924493,0.032699354,7,1
1583942266404,NaN,-0.03721205,-0.0017089844,-0.8886719,0.43969727,1583942264742,-7672073924493,0.032699354,7,1
1583942266408,NaN,0.019695478,-0.0034179688,-0.8911133,0.43481445,1583942264822,-7672073924493,0.032699354,7,1
1583942266413,39.473682,0.0729086,0.0087890625,-0.88720703,0.4350586,1583942264902,-7672073924493,0.032699354,7,1
1583942266416,NaN,0.13645451,0.0061035156,-0.8845215,0.43139648,1583942264982,-7672073924493,0.032699354,7,1
1583942266419,NaN,0.20355053,0.004638672,-0.89086914,0.4338379,1583942265062,-7672073924493,0.032699354,7,1
1583942266422,NaN,0.23873742,0.010986328,-0.8754883,0.43920898,1583942265142,-7672073924493,0.032699354,7,1
1583942266425,NaN,0.26264477,0.008544922,-0.90478516,0.45581055,1583942265222,-7672073924493,0.033762097,7,1
1583942266428,NaN,0.30791643,0.0126953125,-0.8869629,0.43798828,1583942265302,-7672073924493,0.033762097,7,1
1583942266431,NaN,0.33105117,0.010986328,-0.8864746,0.453125,1583942265382,-7672073924493,0.033762097,7,1
1583942266434,NaN,0.31862447,0.013183594,-0.8811035,0.45214844,1583942265462,-7672073924493,0.033762097,7,1
1583942266438,NaN,0.29768315,0.022949219,-0.88256836,0.44995117,1583942265542,-7672073924493,0.033762097,7,1
1583942266442,NaN,0.26100114,0.013671875,-0.8876953,0.4501953,1583942265622,-7672073924493,0.033762097,7,1
1583942266445,NaN,0.22038424,0.0234375,-0.88183594,0.45117188,1583942265702,-7672073924493,0.033762097,7,1
1583942266448,NaN,0.17250703,0.015380859,-0.88916016,0.44873047,1583942265782,-7672073924493,0.033762097,7,1
1583942266451,NaN,0.129373,0.0146484375,-0.8828125,0.44799805,1583942265862,-7672073924493,0.033762097,7,1
1583942266455,NaN,0.0802403,0.016845703,-0.8811035,0.44995117,1583942265942,-7672073924493,0.033762097,7,1
1583942266459,NaN,0.025825473,0.01171875,-0.8840332,0.4506836,1583942266022,-7672073924493,0.033762097,7,1
1583942266462,NaN,-0.016182793,2.4414062E-4,-0.8857422,0.47094727,1583942266102,-7672073924493,0.033762097,7,1
1583942266465,NaN,-0.049280155,0.011962891,-0.8857422,0.45947266,1583942266182,-7672073924493,0.033762097,7,1
1583942268927,NaN,-0.09293008,0.006591797,-0.8852539,0.4489746,1583942266262,4578280011907,0.033762097,7,1
1583942268935,NaN,-0.105110586,4.8828125E-4,-0.8869629,0.4453125,1583942266342,4578280011907,0.033762097,7,1
1583942268939,NaN,-0.091489494,0.0014648438,-0.88720703,0.4333496,1583942266422,4578280011907,0.033762097,7,1
1583942268943,NaN,-0.08401319,-9.765625E-4,-0.8828125,0.44433594,1583942266502,4578280011907,0.033762097,7,1
1583942268947,NaN,-0.07025748,-0.001953125,-0.8808594,0.43969727,1583942266582,4578280011907,0.033762097,7,1
1583942268952,NaN,-0.049488273,0.0043945312,-0.87524414,0.4387207,1583942266662,4578280011907,0.033762097,7,1
1583942268955,NaN,-0.025468899,0.009521484,-0.8828125,0.43041992,1583942266742,4578280011907,0.033762097,7,1
1583942268960,NaN,-0.023392363,0.0026855469,-0.8808594,0.4609375,1583942266822,4578280011907,0.033762097,7,1
1583942268964,NaN,-0.018497728,-7.324219E-4,-0.8815918,0.4663086,1583942266902,4578280011907,0.033762097,7,1
1583942268967,NaN,-0.011635639,0.008300781,-0.8811035,0.46118164,1583942266982,4578280011907,0.033762097,7,1
1583942268971,NaN,0.0050878683,0.0053710938,-0.8730469,0.46728516,1583942267062,4578280011907,0.033762097,7,1
1583942268976,NaN,0.008393939,0.001953125,-0.87353516,0.46313477,1583942267142,4578280011907,0.033762097,7,1
1583942268979,NaN,-0.0017226934,0.0068359375,-0.87768555,0.4699707,1583942267222,4578280011907,0.033762097,7,1
1583942268982,NaN,-0.022161642,0.0087890625,-0.87353516,0.45629883,1583942267302,4578280011907,0.033762097,7,1
1583942268987,NaN,-0.06876921,0.005126953,-0.87768555,0.46777344,1583942267382,4578280011907,0.033762097,7,1
1583942268990,NaN,-0.090996265,0.01171875,-0.8754883,0.46166992,1583942267462,4578280011907,0.033762097,7,1
1583942268993,NaN,-0.11042579,0.0036621094,-0.8815918,0.4572754,1583942267542,4578280011907,0.033762097,7,1
1583942268997,NaN,-0.13305214,0.008300781,-0.8840332,0.46240234,1583942267622,4578280011907,0.033762097,7,1
1583942269000,NaN,-0.16534765,0.008300781,-0.87768555,0.4555664,1583942267702,4578280011907,0.033762097,7,1
1583942269003,NaN,-0.15415694,0.0087890625,-0.8737793,0.45458984,1583942267782,4578280011907,0.03133476,7,1
1583942269007,NaN,-0.1424134,0.0041503906,-0.88378906,0.46606445,1583942267862,4578280011907,0.03133476,7,1
1583942269010,NaN,-0.12117792,0.015625,-0.89331055,0.4501953,1583942267942,4578280011907,0.03133476,7,1
1583942269013,NaN,-0.08772993,0.013916016,-0.8996582,0.4387207,1583942268022,4578280011907,0.03133476,7,1
1583942269016,NaN,-0.050847974,0.013427734,-0.8964844,0.4338379,1583942268102,4578280011907,0.03133476,7,1
1583942269019,NaN,0.0138679845,0.016601562,-0.8972168,0.41748047,1583942268182,4578280011907,0.03133476,7,1
1583942269022,17.857143,0.060199037,0.016357422,-0.89038086,0.42089844,1583942268262,4578280011907,0.03133476,7,1
1583942269026,NaN,0.13053666,0.02368164,-0.8847656,0.41601562,1583942268342,4578280011907,0.03133476,7,1
1583942269029,NaN,0.18801105,0.025146484,-0.890625,0.4140625,1583942268422,4578280011907,0.03133476,7,1
1583942269033,NaN,0.23721127,0.0234375,-0.89404297,0.41479492,1583942268502,4578280011907,0.03133476,7,1
1583942269037,NaN,0.26630852,0.0107421875,-0.8959961,0.44873047,1583942268582,4578280011907,0.03628508,7,1
1583942269040,NaN,0.3033853,0.021240234,-0.9038086,0.44604492,1583942268662,4578280011907,0.03628508,7,1
1583942269043,NaN,0.31294245,0.021484375,-0.8815918,0.44335938,1583942268742,4578280011907,0.03628508,7,1
1583942271506,NaN,0.32493934,0.016845703,-0.8828125,0.44848633,1583942268822,-1618391600377,0.03628508,7,1
1583942271514,NaN,0.31196275,0.014892578,-0.8823242,0.44555664,1583942268902,-1618391600377,0.03628508,7,1
1583942271520,NaN,0.26451024,0.016357422,-0.88427734,0.45288086,1583942268982,-1618391600377,0.03628508,7,1
1583942271526,NaN,0.2156656,0.00390625,-0.8762207,0.4489746,1583942269062,-1618391600377,0.03628508,7,1
1583942271530,NaN,0.12914293,-0.0021972656,-0.89038086,0.46777344,1583942269142,-1618391600377,0.03628508,7,1
1583942271534,NaN,0.06526282,0.0021972656,-0.8796387,0.4572754,1583942269222,-1618391600377,0.03628508,7,1
1583942271540,NaN,-0.014112338,-0.015625,-0.876709,0.46264648,1583942269302,-1618391600377,0.03628508,7,1
1583942271543,NaN,-0.09961327,-0.0063476562,-0.8811035,0.46777344,1583942269382,-1618391600377,0.03628508,7,1
1583942271547,NaN,-0.18098877,-0.01171875,-0.86743164,0.46020508,1583942269462,-1618391600377,0.03628508,7,1
1583942271551,NaN,-0.21407557,-0.0087890625,-0.8720703,0.45996094,1583942269542,-1618391600377,0.03628508,7,1
1583942271554,NaN,-0.27038354,-0.013427734,-0.87353516,0.48120117,1583942269622,-1618391600377,0.03628508,7,1
1583942271558,NaN,-0.3017622,-0.011962891,-0.88378906,0.46875,1583942269702,-1618391600377,0.03628508,7,1
1583942271561,NaN,-0.32101756,-0.0012207031,-0.8798828,0.45385742,1583942269782,-1618391600377,0.03628508,7,1
1583942271564,NaN,-0.32550997,-0.015136719,-0.89575195,0.45581055,1583942269862,-1618391600377,0.03628508,7,1
1583942271568,NaN,-0.30263665,-0.025146484,-0.88842773,0.4423828,1583942269942,-1618391600377,0.03628508,7,1
1583942271572,NaN,-0.27323952,-0.024902344,-0.88623047,0.43774414,1583942270022,-1618391600377,0.03628508,7,1
1583942271575,NaN,-0.22609346,-0.021240234,-0.8737793,0.44873047,1583942270102,-1618391600377,0.03628508,7,1
1583942271578,NaN,-0.18717377,-0.015625,-0.87353516,0.4428711,1583942270182,-1618391600377,0.03628508,7,1
1583942271581,NaN,-0.14653097,-0.037597656,-0.87475586,0.45776367,1583942270262,-1618391600377,0.03628508,7,1
1583942271585,NaN,-0.10288035,-0.043945312,-0.88012695,0.46704102,1583942270342,-1618391600377,0.03628508,7,1
1583942271589,NaN,-0.088670254,-0.06933594,-0.86499023,0.4970703,1583942270422,-1618391600377,0.042137425,7,1
1583942271592,NaN,-0.102195285,-0.056152344,-0.8640137,0.49487305,1583942270502,-1618391600377,0.042137425,7,1
1583942271596,NaN,-0.07865895,-0.0715332,-0.8474121,0.48291016,1583942270582,-1618391600377,0.042137425,7,1
1583942271600,NaN,-0.11440887,-0.107910156,-0.85546875,0.51538086,1583942270662,-1618391600377,0.049422048,7,1
1583942271604,NaN,-0.18996175,-0.1003418,-0.84106445,0.5263672,1583942270742,-1618391600377,0.049422048,7,1
1583942271607,NaN,-0.25774372,-0.13989258,-0.842041,0.4970703,1583942270822,-1618391600377,0.049422048,7,1
1583942271611,NaN,-0.38378426,-0.1665039,-0.7988281,0.5180664,1583942270902,-1618391600377,0.054921333,7,1
1583942271614,NaN,-0.52039045,-0.14428711,-0.8273926,0.5439453,1583942270982,-1618391600377,0.054921333,7,1
1583942271617,NaN,-0.6271088,-0.14282227,-0.82128906,0.51708984,1583942271062,-1618391600377,0.054921333,7,1
1583942271620,NaN,-0.7433784,-0.13623047,-0.829834,0.52734375,1583942271142,-1618391600377,0.054921333,7,1
1583942271624,NaN,-0.8373418,-0.13964844,-0.8327637,0.5239258,1583942271222,-1618391600377,0.054921333,7,1
1583942271627,NaN,-0.93310827,-0.14086914,-0.8312988,0.5366211,1583942271302,-1618391600377,0.054921333,7,1
1583942274092,NaN,-0.9575939,-0.12573242,-0.83691406,0.5361328,1583942271382,-7814781737686,0.054921333,7,1
1583942274098,NaN,-0.98644716,-0.13256836,-0.8330078,0.5283203,1583942271462,-7814781737686,0.054921333,7,1
1583942274102,NaN,-1.0227425,-0.12792969,-0.82666016,0.52075195,1583942271542,-7814781737686,0.054921333,7,1
1583942274108,NaN,-0.9893241,-0.13671875,-0.83325195,0.51904297,1583942271622,-7814781737686,0.054921333,7,1
1583942274114,NaN,-0.9116786,-0.12158203,-0.8388672,0.5192871,1583942271702,-7814781737686,0.054921333,7,1
1583942274119,NaN,-0.84149146,-0.119384766,-0.8334961,0.5073242,1583942271782,-7814781737686,0.054921333,7,1
1583942274124,NaN,-0.68430614,-0.109375,-0.8195801,0.5061035,1583942271862,-7814781737686,0.054921333,7,1
1583942274128,NaN,-0.52693534,-0.123046875,-0.84375,0.517334,1583942271942,-7814781737686,0.054921333,7,1
1583942274133,NaN,-0.42167735,-0.13793945,-0.8378906,0.5234375,1583942272022,-7814781737686,0.054921333,7,1
1583942274139,NaN,-0.3201376,-0.13500977,-0.8249512,0.53637695,1583942272102,-7814781737686,0.054921333,7,1
1583942274143,NaN,-0.23788427,-0.1315918,-0.8239746,0.5383301,1583942272182,-7814781737686,0.054921333,7,1
1583942274147,NaN,-0.1476355,-0.1340332,-0.81518555,0.5395508,1583942272262,-7814781737686,0.054921333,7,1
1583942274150,NaN,-0.10185512,-0.13427734,-0.8312988,0.54296875,1583942272342,-7814781737686,0.054921333,7,1
1583942274154,NaN,-0.05133118,-0.13452148,-0.8215332,0.53564453,1583942272422,-7814781737686,0.054921333,7,1
1583942274158,NaN,-0.009723728,-0.13061523,-0.8276367,0.5378418,1583942272502,-7814781737686,0.054921333,7,1
1583942274162,NaN,-0.0041360683,-0.13183594,-0.8215332,0.5415039,1583942272582,-7814781737686,0.054921333,7,1
1583942274166,NaN,-0.01986472,-0.12866211,-0.82177734,0.53564453,1583942272662,-7814781737686,0.054921333,7,1
1583942274169,NaN,-0.04685675,-0.13598633,-0.82470703,0.5395508,1583942272742,-7814781737686,0.054921333,7,1
1583942274173,NaN,-0.1093333,-0.12695312,-0.82299805,0.5390625,1583942272822,-7814781737686,0.054921333,7,1
1583942274177,NaN,-0.16795117,-0.12792969,-0.8132324,0.53686523,1583942272902,-7814781737686,0.054921333,7,1
1583942274181,NaN,-0.18591619,-0.12011719,-0.82373047,0.5449219,1583942272982,-7814781737686,0.054921333,7,1
1583942274185,NaN,-0.18337955,-0.11376953,-0.8178711,0.55200195,1583942273062,-7814781737686,0.054921333,7,1
1583942274189,NaN,-0.17671241,-0.12597656,-0.82421875,0.54711914,1583942273142,-7814781737686,0.054921333,7,1
1583942274193,NaN,-0.15313692,-0.10913086,-0.8310547,0.53881836,1583942273222,-7814781737686,0.054921333,7,1
1583942274196,NaN,-0.13117008,-0.12231445,-0.82958984,0.52905273,1583942273302,-7814781737686,0.054921333,7,1
1583942274200,NaN,-0.10124675,-0.12084961,-0.8395996,0.5251465,1583942273382,-7814781737686,0.054921333,7,1
1583942274204,NaN,-0.07620313,-0.1184082,-0.83325195,0.5263672,1583942273462,-7814781737686,0.044488557,7,1
1583942274208,NaN,-0.040288318,-0.12060547,-0.8234863,0.5185547,1583942273542,-7814781737686,0.029953776,7,1
1583942274213,NaN,-0.009379141,-0.10595703,-0.8178711,0.52978516,1583942273622,-7814781737686,0.029953776,7,1
1583942274218,NaN,0.035975043,-0.11791992,-0.8208008,0.5222168,1583942273702,-7814781737686,0.029953776,7,1
1583942274220,10.869565,0.084014885,-0.10522461,-0.8327637,0.52197266,1583942273782,-7814781737686,0.029953776,7,1
1583942274223,NaN,0.11312419,-0.12207031,-0.8251953,0.54663086,1583942273862,-7814781737686,0.03080722,7,1
1583942276676,NaN,0.1268664,-0.12060547,-0.8232422,0.54248047,1583942273942,4435572198714,0.03080722,7,1
1583942276681,NaN,0.13473065,-0.11425781,-0.8210449,0.548584,1583942274022,4435572198714,0.03080722,7,1
1583942276686,NaN,0.14081006,-0.11743164,-0.8178711,0.5432129,1583942274102,4435572198714,0.03080722,7,1
1583942276693,NaN,0.11077535,-0.11206055,-0.81884766,0.54956055,1583942274182,4435572198714,0.03080722,7,1
1583942276699,NaN,0.08630619,-0.11401367,-0.8186035,0.54785156,1583942274262,4435572198714,0.03080722,7,1
1583942276703,NaN,0.040226933,-0.123046875,-0.81689453,0.5517578,1583942274342,4435572198714,0.03080722,7,1
1583942276708,NaN,0.0028581198,-0.1184082,-0.81762695,0.55444336,1583942274422,4435572198714,0.03080722,7,1
1583942276712,NaN,-0.036856037,-0.122802734,-0.81518555,0.5463867,1583942274502,4435572198714,0.03080722,7,1
1583942276718,NaN,-0.064357914,-0.11254883,-0.8154297,0.55200195,1583942274582,4435572198714,0.03080722,7,1
1583942276722,NaN,-0.09499734,-0.11450195,-0.8149414,0.5456543,1583942274662,4435572198714,0.03080722,7,1
1583942276726,NaN,-0.1502543,-0.11816406,-0.82299805,0.5605469,1583942274742,4435572198714,0.03080722,7,1
1583942276731,NaN,-0.15730312,-0.12109375,-0.82177734,0.55371094,1583942274822,4435572198714,0.03080722,7,1
1583942276737,NaN,-0.15856598,-0.111572266,-0.8166504,0.54418945,1583942274902,4435572198714,0.03080722,7,1
1583942276756,NaN,-0.15276758,-0.119384766,-0.82910156,0.53564453,1583942274982,4435572198714,0.03080722,7,1
1583942276757,NaN,-0.14545073,-0.1237793,-0.83203125,0.5317383,1583942275062,4435572198714,0.03080722,7,1
1583942276757,NaN,-0.11002018,-0.11816406,-0.8342285,0.51831055,1583942275142,4435572198714,0.03080722,7,1
1583942276758,NaN,-0.07937299,-0.119628906,-0.83081055,0.52197266,1583942275222,4435572198714,0.03080722,7,1
1583942276759,NaN,-0.022246795,-0.114746094,-0.82910156,0.5144043,1583942275302,4435572198714,0.03080722,7,1
1583942276760,37.5,0.031482324,-0.10986328,-0.82714844,0.51586914,1583942275382,4435572198714,0.03080722,7,1
1583942276761,NaN,0.08107286,-0.106933594,-0.8288574,0.5187988,1583942275462,4435572198714,0.03080722,7,1
1583942276764,NaN,0.11309477,-0.11669922,-0.8359375,0.53881836,1583942275542,4435572198714,0.03080722,7,1
1583942276768,NaN,0.13439865,-0.115722656,-0.8276367,0.54345703,1583942275622,4435572198714,0.03080722,7,1
1583942276771,NaN,0.19665623,-0.10839844,-0.84228516,0.5307617,1583942275702,4435572198714,0.03080722,7,1
1583942276775,NaN,0.22744225,-0.100097656,-0.8227539,0.52563477,1583942275782,4435572198714,0.03080722,7,1
1583942276779,NaN,0.2415077,-0.10205078,-0.82592773,0.5341797,1583942275862,4435572198714,0.03080722,7,1
1583942276780,NaN,0.23681413,-0.1015625,-0.82592773,0.53808594,1583942275942,4435572198714,0.03080722,7,1
1583942276783,NaN,0.24142654,-0.10107422,-0.8425293,0.52978516,1583942276022,4435572198714,0.03080722,7,1
1583942276786,NaN,0.21464412,-0.10668945,-0.829834,0.5300293,1583942276102,4435572198714,0.03080722,7,1
1583942276790,NaN,0.1987189,-0.10253906,-0.83032227,0.5292969,1583942276182,4435572198714,0.03080722,7,1
1583942276793,NaN,0.16749841,-0.10229492,-0.8312988,0.5253906,1583942276262,4435572198714,0.03080722,7,1
1583942276796,NaN,0.12962948,-0.09814453,-0.82836914,0.5371094,1583942276342,4435572198714,0.03080722,7,1
1583942276800,NaN,0.09095938,-0.10107422,-0.83081055,0.5407715,1583942276422,4435572198714,0.02337256,7,1
1583942279258,NaN,0.08162005,-0.10888672,-0.83935547,0.5366211,1583942276502,-1761099413570,0.02337256,7,1
1583942279264,NaN,0.097929895,-0.091796875,-0.83691406,0.5283203,1583942276582,-1761099413570,0.02337256,7,1
1583942279268,NaN,0.0725015,-0.10131836,-0.83813477,0.5246582,1583942276662,-1761099413570,0.02337256,7,1
1583942279275,NaN,0.06638087,-0.095214844,-0.8371582,0.5065918,1583942276742,-1761099413570,0.02337256,7,1
1583942279279,NaN,0.073312856,-0.111572266,-0.8469238,0.50756836,1583942276822,-1761099413570,0.02337256,7,1
1583942279283,NaN,0.100504614,-0.103271484,-0.8430176,0.49609375,1583942276902,-1761099413570,0.02337256,7,1
1583942279287,NaN,0.10256668,-0.10205078,-0.8400879,0.4987793,1583942276982,-1761099413570,0.02337256,7,1
1583942279291,NaN,0.13406058,-0.1015625,-0.8496094,0.5019531,1583942277062,-1761099413570,0.02337256,7,1
1583942279295,NaN,0.15623675,-0.095214844,-0.8354492,0.4970703,1583942277142,-1761099413570,0.02337256,7,1
1583942279299,NaN,0.15551446,-0.111816406,-0.84350586,0.529541,1583942277222,-1761099413570,0.03734793,7,1
1583942279302,NaN,0.1747282,-0.10083008,-0.8425293,0.52563477,1583942277302,-1761099413570,0.03734793,7,1
1583942279306,NaN,0.19782771,-0.09863281,-0.84228516,0.52856445,1583942277382,-1761099413570,0.03734793,7,1
1583942279311,NaN,0.20612265,-0.099121094,-0.83740234,0.51831055,1583942277462,-1761099413570,0.03734793,7,1
1583942279315,NaN,0.1780135,-0.104003906,-0.8366699,0.5288086,1583942277542,-1761099413570,0.03734793,7,1
1583942279318,NaN,0.17414372,-0.09448242,-0.8317871,0.5234375,1583942277622,-1761099413570,0.03734793,7,1
1583942279322,NaN,0.1413396,-0.08984375,-0.8330078,0.529541,1583942277702,-1761099413570,0.03734793,7,1
1583942279325,NaN,0.11211186,-0.088134766,-0.83569336,0.529541,1583942277782,-1761099413570,0.03734793,7,1
1583942279329,NaN,0.0593039,-0.09863281,-0.8391113,0.5317383,1583942277862,-1761099413570,0.03734793,7,1
1583942279332,NaN,0.020967515,-0.099365234,-0.8317871,0.5300293,1583942277942,-1761099413570,0.03734793,7,1
1583942279337,NaN,-0.022518976,-0.099121094,-0.8383789,0.52246094,1583942278022,-1761099413570,0.03734793,7,1
1583942279340,NaN,-0.07264971,-0.10180664,-0.8300781,0.53125,1583942278102,-1761099413570,0.03734793,7,1
1583942279343,NaN,-0.07288925,-0.10253906,-0.8391113,0.5349121,1583942278182,-1761099413570,0.03734793,7,1
1583942279348,NaN,-0.078551956,-0.095458984,-0.83984375,0.51708984,1583942278262,-1761099413570,0.03734793,7,1
1583942279352,NaN,-0.08671247,-0.10424805,-0.845459,0.5187988,1583942278342,-1761099413570,0.03734793,7,1
1583942279357,NaN,-0.09494864,-0.10864258,-0.84472656,0.5073242,1583942278422,-1761099413570,0.03734793,7,1
1583942279360,NaN,-0.066437595,-0.09399414,-0.8466797,0.5041504,1583942278502,-1761099413570,0.03734793,7,1
1583942279363,NaN,-0.048970412,-0.099609375,-0.8466797,0.50024414,1583942278582,-1761099413570,0.03734793,7,1
1583942279367,NaN,-0.009654502,-0.083984375,-0.8408203,0.49609375,1583942278662,-1761099413570,0.03734793,7,1
1583942279370,NaN,0.0263193,-0.08276367,-0.8425293,0.49267578,1583942278742,-1761099413570,0.03734793,7,1
1583942279373,17.44186,0.07378164,-0.08935547,-0.8574219,0.50756836,1583942278822,-1761099413570,0.03734793,7,1
1583942279376,NaN,0.098905765,-0.11743164,-0.83374023,0.5136719,1583942278902,-1761099413570,0.03734793,7,1
1583942279379,NaN,0.10227432,-0.110839844,-0.8305664,0.5305176,1583942278982,-1761099413570,0.03734793,7,1
1583942281843,NaN,0.13731593,-0.09399414,-0.83251953,0.52246094,1583942279062,-7957489550878,0.03734793,7,1
1583942281864,NaN,0.14891446,-0.09399414,-0.8405762,0.52490234,1583942279142,-7957489550878,0.03734793,7,1
1583942281869,NaN,0.14738528,-0.09301758,-0.8503418,0.51831055,1583942279222,-7957489550878,0.03734793,7,1
1583942281873,NaN,0.14651734,-0.08691406,-0.84033203,0.51953125,1583942279302,-7957489550878,0.03734793,7,1
1583942281879,NaN,0.14677829,-0.09033203,-0.8444824,0.5085449,1583942279382,-7957489550878,0.03734793,7,1
1583942281882,NaN,0.1155322,-0.09008789,-0.8457031,0.51904297,1583942279462,-7957489550878,0.03734793,7,1
1583942281885,NaN,0.08867314,-0.088134766,-0.8366699,0.51416016,1583942279542,-7957489550878,0.03734793,7,1
1583942281891,NaN,0.046324413,-0.09033203,-0.8417969,0.5192871,1583942279622,-7957489550878,0.03734793,7,1
1583942281895,NaN,0.0045403442,-0.087890625,-0.8413086,0.51171875,1583942279702,-7957489550878,0.03734793,7,1
1583942281897,NaN,-0.03818598,-0.091796875,-0.84521484,0.52441406,1583942279782,-7957489550878,0.037233647,7,1
1583942281902,NaN,-0.035228323,-0.09375,-0.84277344,0.5227051,1583942279862,-7957489550878,0.037233647,7,1
1583942281905,NaN,0.0032041494,-0.083496094,-0.8474121,0.5168457,1583942279942,-7957489550878,0.037233647,7,1
1583942281910,NaN,0.010352445,-0.08227539,-0.84228516,0.50927734,1583942280022,-7957489550878,0.037233647,7,1
1583942281914,NaN,0.022309564,-0.087646484,-0.8535156,0.50219727,1583942280102,-7957489550878,0.037233647,7,1
1583942281919,NaN,0.02697404,-0.08618164,-0.8457031,0.50439453,1583942280182,-7957489550878,0.037233647,7,1
1583942281922,NaN,0.038182568,-0.083984375,-0.84814453,0.5019531,1583942280262,-7957489550878,0.037233647,7,1
1583942281926,NaN,0.039637834,-0.091796875,-0.8466797,0.49682617,1583942280342,-7957489550878,0.037233647,7,1
1583942281929,NaN,0.07117337,-0.07910156,-0.8432617,0.48657227,1583942280422,-7957489550878,0.037233647,7,1
1583942281933,NaN,0.08984869,-0.08984375,-0.8491211,0.50512695,1583942280502,-7957489550878,0.037233647,7,1
1583942281937,NaN,0.10519365,-0.096191406,-0.8469238,0.52075195,1583942280582,-7957489550878,0.037233647,7,1
1583942281940,NaN,0.11139071,-0.0871582,-0.8395996,0.5239258,1583942280662,-7957489550878,0.037233647,7,1
1583942281943,NaN,0.12444162,-0.08935547,-0.8312988,0.5222168,1583942280742,-7957489550878,0.037233647,7,1
1583942281947,NaN,0.11626666,-0.084472656,-0.83862305,0.52734375,1583942280822,-7957489550878,0.037233647,7,1
1583942281950,NaN,0.083285585,-0.0871582,-0.84814453,0.52685547,1583942280902,-7957489550878,0.037233647,7,1
1583942281953,NaN,0.067255594,-0.080078125,-0.85131836,0.51538086,1583942280982,-7957489550878,0.037233647,7,1
1583942281958,NaN,0.039798044,-0.07543945,-0.8430176,0.5090332,1583942281062,-7957489550878,0.037233647,7,1
1583942281959,NaN,0.017701179,-0.087402344,-0.83569336,0.51660156,1583942281142,-7957489550878,0.037233647,7,1
1583942281962,NaN,-0.015922157,-0.080322266,-0.83984375,0.52490234,1583942281222,-7957489550878,0.037233647,7,1
1583942281965,NaN,-0.038939517,-0.08081055,-0.84277344,0.52001953,1583942281302,-7957489550878,0.037233647,7,1
1583942281967,NaN,-0.08920604,-0.08666992,-0.83862305,0.5205078,1583942281382,-7957489550878,0.037233647,7,1
1583942281971,NaN,-0.11784682,-0.091796875,-0.8532715,0.53393555,1583942281462,-7957489550878,0.022226185,7,1
1583942281975,NaN,-0.107305944,-0.076416016,-0.8562012,0.51660156,1583942281542,-7957489550878,0.02335853,7,1
1583942284625,NaN,-0.096081205,-0.10205078,-0.8203125,0.50512695,1583942281622,4292864385522,0.04557197,7,1
1583942284630,NaN,-0.08344061,-0.10473633,-0.85302734,0.5214844,1583942281715,4292864385522,0.04557197,7,1
1583942284635,NaN,-0.0602911,-0.08886719,-0.8479004,0.50219727,1583942281809,4292864385522,0.04557197,7,1
1583942284641,NaN,-0.037204593,-0.09057617,-0.8532715,0.5078125,1583942281903,4292864385522,0.04557197,7,1
1583942284644,NaN,-0.035474204,-0.083496094,-0.8391113,0.50439453,1583942281996,4292864385522,0.04557197,7,1
1583942284647,NaN,-0.023874247,-0.0871582,-0.8388672,0.4970703,1583942282090,4292864385522,0.04557197,7,1
1583942284651,NaN,0.0152846845,-0.06958008,-0.84399414,0.4855957,1583942282184,4292864385522,0.04557197,7,1
1583942284655,NaN,0.04890542,-0.072021484,-0.859375,0.515625,1583942282278,4292864385522,0.04557197,7,1
1583942284659,NaN,0.07632055,-0.080322266,-0.8588867,0.51293945,1583942282371,4292864385522,0.04557197,7,1
1583942284662,NaN,0.10910197,-0.068847656,-0.84350586,0.51586914,1583942282465,4292864385522,0.04557197,7,1
1583942284665,NaN,0.14307351,-0.07006836,-0.8491211,0.5109863,1583942282559,4292864385522,0.04557197,7,1
1583942284669,NaN,0.1304612,-0.07788086,-0.84472656,0.513916,1583942282652,4292864385522,0.04557197,7,1
1583942284672,NaN,0.14103518,-0.06958008,-0.84521484,0.50341797,1583942282746,4292864385522,0.04557197,7,1
1583942284677,NaN,0.14422907,-0.076416016,-0.8564453,0.50878906,1583942282840,4292864385522,0.04557197,7,1
1583942284680,NaN,0.115991525,-0.068359375,-0.8430176,0.5097656,1583942282934,4292864385522,0.04557197,7,1
1583942284685,NaN,0.10164398,-0.075927734,-0.85839844,0.51000977,1583942283027,4292864385522,0.04557197,7,1
1583942284690,NaN,0.10182933,-0.06982422,-0.8444824,0.50512695,1583942283121,4292864385522,0.04557197,7,1
1583942284696,NaN,0.09539333,-0.06933594,-0.85375977,0.5073242,1583942283215,4292864385522,0.04557197,7,1
1583942284700,NaN,0.04801682,-0.07714844,-0.85058594,0.5185547,1583942283308,4292864385522,0.04557197,7,1
1583942284703,NaN,0.03704941,-0.07495117,-0.8564453,0.50756836,1583942283402,4292864385522,0.04557197,7,1
1583942284706,NaN,0.039613944,-0.08911133,-0.86035156,0.49291992,1583942283496,4292864385522,0.04557197,7,1
1583942284709,NaN,0.057835978,-0.084472656,-0.8574219,0.4897461,1583942283590,4292864385522,0.04557197,7,1
1583942284712,NaN,0.0642924,-0.0793457,-0.8654785,0.4897461,1583942283683,4292864385522,0.04557197,7,1
1583942284716,NaN,0.091865025,-0.07714844,-0.8508301,0.48364258,1583942283777,4292864385522,0.04557197,7,1
1583942284719,NaN,0.096163414,-0.07128906,-0.8461914,0.4790039,1583942283871,4292864385522,0.04557197,7,1
1583942284722,NaN,0.10086117,-0.06347656,-0.85009766,0.4819336,1583942283964,4292864385522,0.04557197,7,1
1583942284725,NaN,0.12969925,-0.07104492,-0.8720703,0.4958496,1583942284058,4292864385522,0.04557197,7,1
1583942284728,NaN,0.13238572,-0.07763672,-0.85839844,0.50439453,1583942284152,4292864385522,0.04557197,7,1
1583942284732,NaN,0.12659685,-0.064941406,-0.84472656,0.5097656,1583942284246,4292864385522,0.04557197,7,1
1583942284735,NaN,0.12242573,-0.07348633,-0.8496094,0.5109863,1583942284339,4292864385522,0.04557197,7,1
1583942284737,NaN,0.14808618,-0.07470703,-0.84814453,0.5107422,1583942284433,4292864385522,0.04557197,7,1
1583942284741,NaN,0.1368662,-0.075927734,-0.8520508,0.5144043,1583942284527,4292864385522,0.04557197,7,1
1583942287010,NaN,0.10041397,-0.07714844,-0.84277344,0.5124512,1583942284621,-1903807226762,0.036674764,7,1
1583942287018,NaN,0.049430657,-0.07299805,-0.83813477,0.5151367,1583942284701,-1903807226762,0.033827357,7,1
1583942287022,NaN,-0.004721781,-0.079589844,-0.84350586,0.52124023,1583942284781,-1903807226762,0.033827357,7,1
1583942287027,19.23077,-0.059001397,-0.075927734,-0.83691406,0.51660156,1583942284861,-1903807226762,0.033827357,7,1
1583942287030,NaN,-0.11425182,-0.08325195,-0.8444824,0.52978516,1583942284941,-1903807226762,0.033827357,7,1
1583942287035,NaN,-0.16821443,-0.08911133,-0.8378906,0.52612305,1583942285021,-1903807226762,0.033827357,7,1
1583942287042,NaN,-0.23722267,-0.09375,-0.8383789,0.5402832,1583942285101,-1903807226762,0.033827357,7,1
1583942287047,NaN,-0.27064833,-0.08251953,-0.8305664,0.5283203,1583942285181,-1903807226762,0.02708751,7,1
1583942287050,NaN,-0.28059435,-0.095458984,-0.8383789,0.52368164,1583942285261,-1903807226762,0.02708751,7,1
1583942287053,NaN,-0.29309693,-0.09765625,-0.83569336,0.5251465,1583942285341,-1903807226762,0.02708751,7,1
1583942287058,NaN,-0.30421686,-0.099853516,-0.845459,0.51708984,1583942285421,-1903807226762,0.02708751,7,1
1583942287062,NaN,-0.3023257,-0.09082031,-0.8317871,0.5078125,1583942285501,-1903807226762,0.02708751,7,1
1583942287067,NaN,-0.28742704,-0.08642578,-0.83374023,0.51586914,1583942285581,-1903807226762,0.02708751,7,1
1583942287071,NaN,-0.25152984,-0.078125,-0.829834,0.49682617,1583942285661,-1903807226762,0.02708751,7,1
1583942287075,NaN,-0.19862397,-0.059570312,-0.8540039,0.50024414,1583942285741,-1903807226762,0.03066177,7,1
1583942287078,NaN,-0.17529011,-0.068359375,-0.8498535,0.5344238,1583942285821,-1903807226762,0.035534833,7,1
1583942287082,NaN,-0.13240388,-0.09790039,-0.83740234,0.5163574,1583942285901,-1903807226762,0.036798075,7,1
1583942287086,NaN,-0.08589948,-0.084228516,-0.84472656,0.517334,1583942285981,-1903807226762,0.036798075,7,1
1583942287090,NaN,-0.029940026,-0.123046875,-0.8334961,0.5227051,1583942286061,-1903807226762,0.040765636,7,1
1583942287093,NaN,0.018054513,-0.11376953,-0.8574219,0.5180664,1583942286141,-1903807226762,0.040765636,7,1
1583942287098,NaN,0.023217663,-0.107910156,-0.82128906,0.5239258,1583942286221,-1903807226762,0.040765636,7,1
1583942287101,NaN,0.050967928,-0.13110352,-0.8430176,0.513916,1583942286301,-1903807226762,0.040765636,7,1
1583942287104,NaN,0.058487196,-0.111572266,-0.84350586,0.5144043,1583942286381,-1903807226762,0.040765636,7,1
1583942287107,NaN,0.059988406,-0.10131836,-0.84033203,0.51782227,1583942286461,-1903807226762,0.040765636,7,1
1583942287110,NaN,0.07899354,-0.09692383,-0.8508301,0.5095215,1583942286541,-1903807226762,0.040765636,7,1
1583942287113,NaN,0.06757196,-0.09423828,-0.84936523,0.5119629,1583942286621,-1903807226762,0.040765636,7,1
1583942287116,NaN,0.032736886,-0.09790039,-0.84814453,0.51586914,1583942286701,-1903807226762,0.040765636,7,1
1583942287119,NaN,0.04146698,-0.099365234,-0.8364258,0.5229492,1583942286781,-1903807226762,0.040765636,7,1
1583942287123,NaN,0.028590113,-0.08642578,-0.8391113,0.5275879,1583942286861,-1903807226762,0.040765636,7,1
1583942287126,NaN,0.032190092,-0.095458984,-0.8581543,0.5070801,1583942286941,-1903807226762,0.040765636,7,1
