local_ts,breathing_rate,breathing_signal,accel_x,accel_y,accel_z,bs_timestamp,rs_ts,activity_level,current_exercise,pred_exercise
1585141565717,NaN,-0.2782644,0.6989746,-0.7072754,-0.21142578,1585141563447,3767037294729,0.02226102,0,1
1585141565719,NaN,-0.29684314,0.6921387,-0.7116699,-0.23120117,1585141563527,3767037294729,0.02226102,0,1
1585141565720,NaN,-0.3100873,0.6916504,-0.72143555,-0.22583008,1585141563607,3767037294729,0.02226102,0,1
1585141565721,NaN,-0.30173293,0.6882324,-0.70751953,-0.23413086,1585141563687,3767037294729,0.02226102,0,1
1585141565723,NaN,-0.27623257,0.68847656,-0.7194824,-0.23266602,1585141563767,3767037294729,0.02226102,0,1
1585141565724,NaN,-0.24205816,0.68481445,-0.717041,-0.23168945,1585141563847,3767037294729,0.02226102,0,1
1585141565725,NaN,-0.19382071,0.68725586,-0.7207031,-0.22607422,1585141563927,3767037294729,0.02226102,0,1
1585141565727,NaN,-0.14379732,0.67944336,-0.72314453,-0.22753906,1585141564007,3767037294729,0.02226102,0,1
1585141565728,NaN,-0.08577993,0.69189453,-0.72143555,-0.22924805,1585141564087,3767037294729,0.021380085,0,1
1585141565729,NaN,-0.040634442,0.6882324,-0.7236328,-0.22705078,1585141564167,3767037294729,0.021380085,0,1
1585141565746,NaN,-0.0036449146,0.6767578,-0.72216797,-0.22583008,1585141564247,3767037294729,0.021380085,0,1
1585141565750,NaN,0.03759009,0.68188477,-0.7363281,-0.22167969,1585141564327,3767037294729,0.021380085,0,1
1585141565753,NaN,0.083747834,0.685791,-0.7241211,-0.22265625,1585141564407,3767037294729,0.021380085,0,1
1585141565755,NaN,0.07991838,0.7067871,-0.7297363,-0.20507812,1585141564487,3767037294729,0.02795277,0,1
1585141565756,NaN,0.11187106,0.68774414,-0.7141113,-0.23876953,1585141564567,3767037294729,0.04173591,0,1
1585141565757,NaN,0.1285862,0.6879883,-0.6875,-0.25561523,1585141564647,3767037294729,0.04173591,0,1
1585141565775,NaN,0.16221388,0.6755371,-0.6784668,-0.2824707,1585141564727,3767037294729,0.04173591,0,1
1585141565776,NaN,0.19448833,0.685791,-0.69628906,-0.2902832,1585141564807,3767037294729,0.04173591,0,1
1585141565778,NaN,0.25043464,0.6640625,-0.7116699,-0.31079102,1585141564887,3767037294729,0.04173591,0,1
1585141565779,NaN,0.28555858,0.65600586,-0.7265625,-0.28808594,1585141564967,3767037294729,0.04173591,0,1
1585141565781,NaN,0.31416523,0.6621094,-0.72558594,-0.2854004,1585141565047,3767037294729,0.04173591,0,1
1585141565782,NaN,0.3606719,0.65722656,-0.7207031,-0.296875,1585141565127,3767037294729,0.04173591,0,1
1585141565783,NaN,0.38979936,0.67529297,-0.70947266,-0.27978516,1585141565207,3767037294729,0.04173591,0,1
1585141565784,NaN,0.43186513,0.6809082,-0.7128906,-0.28857422,1585141565287,3767037294729,0.04173591,0,1
1585141565804,NaN,0.4640862,0.6750488,-0.7006836,-0.27783203,1585141565367,3767037294729,0.04173591,0,1
1585141565805,NaN,0.60538363,0.65112305,-0.70410156,-0.33740234,1585141565447,3767037294729,0.06428645,0,1
1585141565806,NaN,0.6698149,0.6640625,-0.7192383,-0.328125,1585141565527,3767037294729,0.06428645,0,1
1585141565807,NaN,0.69175607,0.6677246,-0.70214844,-0.29736328,1585141565607,3767037294729,0.06428645,0,1
1585141565808,NaN,0.6587582,0.6513672,-0.703125,-0.28344727,1585141565687,3767037294729,0.06428645,0,1
1585141565809,NaN,0.59988236,0.68725586,-0.7182617,-0.2722168,1585141565767,3767037294729,0.06428645,0,1
1585141565810,NaN,0.5010847,0.6838379,-0.69091797,-0.28149414,1585141565847,3767037294729,0.06428645,0,1
1585141565811,NaN,0.4200178,0.6843262,-0.7158203,-0.26220703,1585141565927,3767037294729,0.06428645,0,1
1585141568261,NaN,0.35466623,0.68237305,-0.703125,-0.27441406,1585141566007,-2429634317555,0.06428645,0,1
1585141568265,NaN,0.25415742,0.6862793,-0.71118164,-0.2578125,1585141566087,-2429634317555,0.06428645,0,1
1585141568270,NaN,0.2050096,0.68066406,-0.7077637,-0.27172852,1585141566167,-2429634317555,0.06428645,0,1
1585141568274,NaN,0.12896769,0.69921875,-0.7216797,-0.26367188,1585141566247,-2429634317555,0.06428645,0,1
1585141568278,NaN,0.080174096,0.6870117,-0.7158203,-0.2788086,1585141566327,-2429634317555,0.06428645,0,1
1585141568281,17.857143,-0.103871085,0.6940918,-0.6750488,-0.26635742,1585141566407,-2429634317555,0.06428645,0,1
1585141568284,NaN,-0.23460603,0.6828613,-0.6916504,-0.26171875,1585141566487,-2429634317555,0.06428645,0,1
1585141568288,NaN,-0.30136982,0.6567383,-0.7036133,-0.25512695,1585141566567,-2429634317555,0.06428645,0,1
1585141568291,NaN,-0.2700547,0.6394043,-0.7080078,-0.3293457,1585141566647,-2429634317555,0.07634266,0,1
1585141568294,NaN,-0.23650716,0.6767578,-0.70996094,-0.29223633,1585141566727,-2429634317555,0.07634266,0,1
1585141568297,NaN,-0.13821171,0.64990234,-0.671875,-0.36035156,1585141566807,-2429634317555,0.08253145,0,1
1585141568300,NaN,0.0073496997,0.6809082,-0.68066406,-0.41235352,1585141566887,-2429634317555,0.08253145,0,1
1585141568304,NaN,0.12685595,0.68408203,-0.6491699,-0.40893555,1585141566967,-2429634317555,0.08253145,0,1
1585141568308,NaN,0.25223136,0.7282715,-0.6640625,-0.38183594,1585141567047,-2429634317555,0.08253145,0,1
1585141568311,NaN,0.2990159,0.69433594,-0.65893555,-0.32202148,1585141567127,-2429634317555,0.08253145,0,1
1585141568314,NaN,0.35002482,0.69555664,-0.6503906,-0.2878418,1585141567207,-2429634317555,0.08253145,0,1
1585141568318,NaN,0.32881942,0.7553711,-0.64160156,-0.25927734,1585141567287,-2429634317555,0.08253145,0,1
1585141568322,NaN,0.403651,0.77685547,-0.6376953,-0.2980957,1585141567367,-2429634317555,0.08253145,0,1
1585141568325,NaN,0.47272262,0.79296875,-0.6101074,-0.29638672,1585141567447,-2429634317555,0.08253145,0,1
1585141568330,NaN,0.43245515,0.8652344,-0.6315918,-0.20239258,1585141567527,-2429634317555,0.12049397,0,1
1585141568332,NaN,0.23226936,0.88061523,-0.6555176,-0.17602539,1585141567607,-2429634317555,0.12049397,0,1
1585141568335,NaN,0.050734848,0.88623047,-0.7307129,-0.13989258,1585141567687,-2429634317555,0.12049397,0,1
1585141568338,44.117645,-0.23041378,0.73950195,-0.57421875,-0.09887695,1585141567767,-2429634317555,0.21840777,0,1
1585141568342,NaN,-0.60968333,0.6833496,-0.60253906,-0.06762695,1585141567847,-2429634317555,0.21840777,0,1
1585141568345,NaN,-1.045936,0.6328125,-0.6665039,0.020751953,1585141567927,-2429634317555,0.21840777,0,1
1585141568348,NaN,-1.4841428,0.7331543,-0.8137207,0.044921875,1585141568007,-2429634317555,0.21840777,0,1
1585141568352,NaN,-1.7450142,0.49121094,-0.83154297,-0.035888672,1585141568087,-2429634317555,0.25570408,0,1
1585141568355,NaN,-1.981124,0.4868164,-0.83032227,-0.03173828,1585141568167,-2429634317555,0.25570408,0,1
1585141568359,NaN,-2.1650183,0.5456543,-0.9108887,-0.032470703,1585141568247,-2429634317555,0.25570408,0,1
1585141568362,NaN,-2.4289443,0.45825195,-0.8840332,-0.030761719,1585141568327,-2429634317555,0.25570408,0,1
1585141568365,NaN,-2.7097323,0.5,-0.83862305,-0.029541016,1585141568407,-2429634317555,0.25570408,0,1
1585141568368,NaN,-2.825575,0.5246582,-0.91552734,-0.07348633,1585141568487,-2429634317555,0.25570408,0,1
1585141570845,NaN,-2.8589604,0.45288086,-0.83618164,-0.0546875,1585141568567,-8626024454863,0.25570408,0,1
1585141570848,NaN,-2.9106991,0.47460938,-0.8071289,0.010009766,1585141568647,-8626024454863,0.25570408,0,1
1585141570854,NaN,-2.9316275,0.4675293,-0.78637695,0.06298828,1585141568727,-8626024454863,0.25570408,0,1
1585141570861,NaN,-2.788331,0.5053711,-0.7570801,-0.0126953125,1585141568807,-8626024454863,0.25570408,0,1
1585141570866,NaN,-2.348097,0.4169922,-0.65478516,-0.18359375,1585141568887,-8626024454863,0.25570408,0,1
1585141570878,NaN,NaN,0.70166016,-0.7753906,-0.1381836,1585141568967,-8626024454863,0.3124798,0,1
1585141570879,NaN,NaN,0.56152344,-0.76220703,-0.14697266,1585141569047,-8626024454863,0.3124798,0,1
1585141570879,NaN,NaN,0.76782227,-0.82470703,-0.12719727,1585141569127,-8626024454863,0.3124798,0,1
1585141570883,NaN,NaN,0.71606445,-0.7819824,-0.17700195,1585141569207,-8626024454863,0.3124798,0,1
1585141570890,NaN,NaN,0.76538086,-0.7475586,-0.13232422,1585141569287,-8626024454863,0.3124798,0,1
1585141570891,NaN,NaN,0.7084961,-0.75146484,-0.107177734,1585141569367,-8626024454863,0.3124798,0,1
1585141570895,NaN,NaN,0.73217773,-0.80566406,-0.08642578,1585141569447,-8626024454863,0.3124798,0,1
1585141570902,NaN,NaN,0.6904297,-0.89941406,0.020751953,1585141569527,-8626024454863,0.3124798,0,1
1585141570905,NaN,NaN,0.6254883,-0.94140625,0.09106445,1585141569607,-8626024454863,0.3124798,0,1
1585141570909,NaN,NaN,0.4963379,-0.9641113,0.068847656,1585141569687,-8626024454863,0.3124798,0,1
1585141570912,NaN,NaN,0.3203125,-0.96875,0.08862305,1585141569767,-8626024454863,0.3124798,0,1
1585141570916,NaN,NaN,0.28808594,-1.0290527,0.017578125,1585141569847,-8626024454863,0.3124798,0,1
1585141570919,NaN,NaN,0.2475586,-0.87353516,0.024658203,1585141569927,-8626024454863,0.3124798,0,1
1585141570922,NaN,NaN,0.15698242,-0.86816406,0.10424805,1585141570007,-8626024454863,0.3124798,0,1
1585141570926,NaN,NaN,0.20874023,-0.9562988,0.1809082,1585141570087,-8626024454863,0.3124798,0,1
1585141570929,NaN,NaN,0.15039062,-0.9802246,0.25610352,1585141570167,-8626024454863,0.3124798,0,1
1585141570932,NaN,NaN,0.16992188,-0.94873047,0.28759766,1585141570247,-8626024454863,0.3124798,0,1
1585141570935,NaN,NaN,0.14550781,-0.92944336,0.34179688,1585141570327,-8626024454863,0.3124798,0,1
1585141570938,NaN,NaN,0.15063477,-0.88549805,0.3515625,1585141570407,-8626024454863,0.3124798,0,1
1585141570941,NaN,NaN,0.13793945,-0.892334,0.40942383,1585141570487,-8626024454863,0.3124798,0,1
1585141570946,NaN,NaN,0.10449219,-0.8947754,0.40966797,1585141570567,-8626024454863,0.3124798,0,1
1585141570949,NaN,NaN,0.12011719,-0.87890625,0.4013672,1585141570647,-8626024454863,0.3124798,0,1
1585141570952,NaN,NaN,0.15356445,-0.9094238,0.34838867,1585141570727,-8626024454863,0.3124798,0,1
1585141570956,NaN,NaN,0.13623047,-0.89575195,0.32910156,1585141570807,-8626024454863,0.3124798,0,1
1585141570959,NaN,NaN,0.23535156,-0.921875,0.24145508,1585141570887,-8626024454863,0.3124798,0,1
1585141570962,NaN,NaN,0.33032227,-0.9812012,0.119140625,1585141570967,-8626024454863,0.3124798,0,1
1585141570965,NaN,NaN,0.64453125,-1.081543,-0.09643555,1585141571047,-8626024454863,0.3940417,0,1
1585141573432,NaN,NaN,0.85717773,-0.84155273,-0.19702148,1585141571127,3624329481537,0.3940417,0,1
1585141573439,NaN,NaN,0.82788086,-0.75561523,-0.20654297,1585141571207,3624329481537,0.3940417,0,1
1585141573446,NaN,NaN,0.77905273,-0.77905273,-0.19262695,1585141571287,3624329481537,0.3940417,0,1
1585141573451,NaN,NaN,0.75268555,-0.77197266,-0.19213867,1585141571367,3624329481537,0.3940417,0,1
1585141573456,NaN,NaN,0.61157227,-0.7751465,-0.14526367,1585141571447,3624329481537,0.3940417,0,1
1585141573461,NaN,NaN,0.53759766,-0.7873535,-0.103515625,1585141571527,3624329481537,0.3940417,0,1
1585141573464,NaN,NaN,0.47583008,-0.7819824,-0.0048828125,1585141571607,3624329481537,0.3940417,0,1
1585141573470,NaN,NaN,0.39453125,-0.7976074,0.029296875,1585141571687,3624329481537,0.3940417,0,1
1585141573474,NaN,NaN,0.3569336,-0.82836914,0.08911133,1585141571767,3624329481537,0.3940417,0,1
1585141573478,NaN,NaN,0.29492188,-0.86743164,0.15332031,1585141571847,3624329481537,0.3940417,0,1
1585141573482,NaN,NaN,0.2536621,-0.8666992,0.18798828,1585141571927,3624329481537,0.3940417,0,1
1585141573487,NaN,NaN,0.17749023,-0.90649414,0.21923828,1585141572007,3624329481537,0.3940417,0,1
1585141573491,NaN,NaN,0.13769531,-0.9147949,0.24511719,1585141572087,3624329481537,0.3940417,0,1
1585141573495,NaN,NaN,0.11425781,-0.92089844,0.2565918,1585141572167,3624329481537,0.3940417,0,1
1585141573498,NaN,NaN,0.13964844,-0.94091797,0.29174805,1585141572247,3624329481537,0.3940417,0,1
1585141573502,NaN,NaN,0.14135742,-0.92578125,0.27612305,1585141572327,3624329481537,0.3940417,0,1
1585141573505,NaN,NaN,0.16308594,-0.9152832,0.26049805,1585141572407,3624329481537,0.3940417,0,1
1585141573508,NaN,NaN,0.18725586,-0.89624023,0.28198242,1585141572487,3624329481537,0.3940417,0,1
1585141573511,NaN,NaN,0.19165039,-0.8833008,0.23876953,1585141572567,3624329481537,0.3940417,0,1
1585141573515,NaN,NaN,0.2553711,-0.83740234,0.18969727,1585141572647,3624329481537,0.3940417,0,1
1585141573518,NaN,NaN,0.34326172,-0.8508301,0.11987305,1585141572727,3624329481537,0.3940417,0,1
1585141573521,NaN,NaN,0.39941406,-0.8088379,0.05834961,1585141572807,3624329481537,0.3940417,0,1
1585141573524,NaN,NaN,0.46289062,-0.77075195,-0.03491211,1585141572887,3624329481537,0.3940417,0,1
1585141573526,NaN,NaN,0.6274414,-0.86450195,-0.08862305,1585141572967,3624329481537,0.3940417,0,1
1585141573529,NaN,NaN,0.6455078,-0.7546387,-0.10620117,1585141573047,3624329481537,0.3940417,0,1
1585141573532,NaN,NaN,0.8093262,-0.8286133,-0.17700195,1585141573127,3624329481537,0.3940417,0,1
1585141573535,NaN,NaN,0.7175293,-0.66918945,-0.17871094,1585141573207,3624329481537,0.3940417,0,1
1585141573538,NaN,NaN,0.83447266,-0.66381836,-0.27807617,1585141573287,3624329481537,0.3940417,0,1
1585141573542,NaN,NaN,0.8479004,-0.5266113,-0.37670898,1585141573367,3624329481537,0.3940417,0,1
1585141573546,NaN,NaN,0.91137695,-0.49487305,-0.43481445,1585141573447,3624329481537,0.3940417,0,1
1585141573550,NaN,NaN,0.8425293,-0.47753906,-0.46679688,1585141573527,3624329481537,0.3940417,0,1
1585141573553,NaN,NaN,0.9055176,-0.47314453,-0.48217773,1585141573607,3624329481537,0.33605263,0,1
1585141576016,NaN,-1.5186208,0.85302734,-0.43359375,-0.42163086,1585141573687,-2572342130747,0.19685245,0,1
1585141576022,NaN,-0.78338224,0.83862305,-0.4333496,-0.4416504,1585141573767,-2572342130747,0.19685245,0,1
1585141576027,NaN,-0.05079043,0.87890625,-0.42285156,-0.40844727,1585141573847,-2572342130747,0.19685245,0,1
1585141576033,NaN,0.65819806,0.81884766,-0.44848633,-0.37329102,1585141573927,-2572342130747,0.19685245,0,1
1585141576034,NaN,1.3925918,0.82910156,-0.5004883,-0.3371582,1585141574007,-2572342130747,0.19685245,0,1
1585141576038,NaN,2.0348136,0.78466797,-0.57714844,-0.29174805,1585141574087,-2572342130747,0.19685245,0,1
1585141576044,NaN,2.4933264,0.7216797,-0.6645508,-0.22851562,1585141574167,-2572342130747,0.19685245,0,1
1585141576050,NaN,2.8091834,0.7001953,-0.8215332,-0.14477539,1585141574247,-2572342130747,0.19685245,0,1
1585141576055,NaN,3.030182,0.63842773,-0.9499512,-0.052734375,1585141574327,-2572342130747,0.19685245,0,1
1585141576059,NaN,3.2280543,0.44604492,-0.9211426,0.010986328,1585141574407,-2572342130747,0.20469834,0,1
1585141576064,NaN,3.251057,0.4260254,-0.8132324,0.064208984,1585141574487,-2572342130747,0.20469834,0,1
1585141576069,NaN,2.850703,0.39770508,-0.87158203,0.087646484,1585141574567,-2572342130747,0.20469834,0,1
1585141576072,NaN,1.6732324,0.4477539,-0.9284668,0.12646484,1585141574647,-2572342130747,0.20469834,0,1
1585141576075,NaN,0.40944114,0.38745117,-0.8811035,0.1796875,1585141574727,-2572342130747,0.20469834,0,1
1585141576079,NaN,-0.9239138,0.33203125,-0.9003906,0.2241211,1585141574807,-2572342130747,0.20469834,0,1
1585141576082,NaN,-2.2445018,0.234375,-0.88842773,0.26513672,1585141574887,-2572342130747,0.20469834,0,1
1585141576086,NaN,-3.5783603,0.19995117,-0.93359375,0.32958984,1585141574967,-2572342130747,0.20469834,0,1
1585141576089,NaN,-4.7570133,0.12915039,-0.89208984,0.32739258,1585141575047,-2572342130747,0.20469834,0,1
1585141576092,NaN,-5.8020835,0.068115234,-0.91625977,0.36523438,1585141575127,-2572342130747,0.20469834,0,1
1585141576095,NaN,-6.6113944,0.07714844,-0.88256836,0.37768555,1585141575207,-2572342130747,0.20469834,0,1
1585141576098,NaN,-7.2095084,0.04321289,-0.9379883,0.33081055,1585141575287,-2572342130747,0.20469834,0,1
1585141576101,NaN,-7.6003404,0.021972656,-0.94873047,0.27783203,1585141575367,-2572342130747,0.20469834,0,1
1585141576105,NaN,-7.791641,0.11743164,-0.9511719,0.22216797,1585141575447,-2572342130747,0.20469834,0,1
1585141576108,NaN,-7.660191,0.20776367,-0.96069336,0.1574707,1585141575527,-2572342130747,0.20469834,0,1
1585141576111,NaN,-7.0851383,0.18823242,-0.98876953,0.055908203,1585141575607,-2572342130747,0.20469834,0,1
1585141576115,NaN,-6.2247524,0.35888672,-1.1516113,-0.030273438,1585141575687,-2572342130747,0.25113267,0,1
1585141576118,NaN,NaN,0.63134766,-1.0114746,-0.095214844,1585141575767,-2572342130747,0.31319427,0,1
1585141576122,NaN,NaN,0.69262695,-0.91259766,-0.06591797,1585141575847,-2572342130747,0.31319427,0,1
1585141576126,NaN,NaN,0.6867676,-0.8701172,-0.07763672,1585141575927,-2572342130747,0.31319427,0,1
1585141576129,NaN,NaN,0.62597656,-0.91967773,-0.040771484,1585141576007,-2572342130747,0.31319427,0,1
1585141576132,NaN,NaN,0.59936523,-0.9003906,0.010986328,1585141576087,-2572342130747,0.31319427,0,1
1585141576135,NaN,NaN,0.51049805,-0.8703613,0.07104492,1585141576167,-2572342130747,0.31319427,0,1
1585141578598,NaN,NaN,0.38964844,-0.8327637,0.05444336,1585141576247,-8768732268056,0.31319427,0,1
1585141578603,NaN,NaN,0.3527832,-0.7751465,0.14477539,1585141576327,-8768732268056,0.31319427,0,1
1585141578612,NaN,NaN,0.29956055,-0.80688477,0.17138672,1585141576407,-8768732268056,0.31319427,0,1
1585141578617,NaN,NaN,0.27172852,-0.8093262,0.21679688,1585141576487,-8768732268056,0.31319427,0,1
1585141578622,NaN,NaN,0.23608398,-0.8520508,0.24780273,1585141576567,-8768732268056,0.31319427,0,1
1585141578628,NaN,NaN,0.2536621,-0.84155273,0.25732422,1585141576647,-8768732268056,0.31319427,0,1
1585141578633,NaN,NaN,0.18481445,-0.9199219,0.12866211,1585141576727,-8768732268056,0.31319427,0,1
1585141578638,NaN,NaN,0.2536621,-0.9716797,0.21777344,1585141576807,-8768732268056,0.31319427,0,1
1585141578643,NaN,NaN,0.2705078,-0.9104004,0.14697266,1585141576887,-8768732268056,0.31319427,0,1
1585141578647,NaN,NaN,0.19677734,-0.9758301,0.13549805,1585141576967,-8768732268056,0.31319427,0,1
1585141578651,NaN,NaN,0.21899414,-0.90649414,0.1340332,1585141577047,-8768732268056,0.31319427,0,1
1585141578655,NaN,NaN,0.2775879,-0.89404297,0.12402344,1585141577127,-8768732268056,0.31319427,0,1
1585141578658,NaN,NaN,0.33789062,-0.8781738,0.08544922,1585141577207,-8768732268056,0.31319427,0,1
1585141578662,NaN,NaN,0.38745117,-0.91259766,0.07373047,1585141577287,-8768732268056,0.31319427,0,1
1585141578665,NaN,NaN,0.41210938,-0.86572266,0.021240234,1585141577367,-8768732268056,0.31319427,0,1
1585141578668,NaN,NaN,0.36767578,-0.76171875,-0.013916016,1585141577447,-8768732268056,0.31319427,0,1
1585141578672,NaN,NaN,0.55908203,-0.8066406,-0.11401367,1585141577527,-8768732268056,0.31319427,0,1
1585141578677,NaN,NaN,0.51416016,-0.76342773,-0.14453125,1585141577607,-8768732268056,0.31319427,0,1
1585141578681,NaN,NaN,0.71118164,-0.74609375,-0.2680664,1585141577687,-8768732268056,0.31319427,0,1
1585141578686,NaN,NaN,0.7163086,-0.7380371,-0.24511719,1585141577767,-8768732268056,0.31319427,0,1
1585141578690,NaN,NaN,0.7224121,-0.67700195,-0.23046875,1585141577847,-8768732268056,0.31319427,0,1
1585141578693,NaN,NaN,0.84399414,-0.7011719,-0.2705078,1585141577927,-8768732268056,0.31319427,0,1
1585141578696,NaN,NaN,0.7297363,-0.6057129,-0.23461914,1585141578007,-8768732268056,0.31319427,0,1
1585141578699,NaN,NaN,0.81933594,-0.6816406,-0.31323242,1585141578087,-8768732268056,0.31319427,0,1
1585141578703,NaN,NaN,0.78930664,-0.6977539,-0.24560547,1585141578167,-8768732268056,0.31319427,0,1
1585141578706,NaN,NaN,0.8757324,-0.6755371,-0.17382812,1585141578247,-8768732268056,0.31319427,0,1
1585141578708,NaN,-4.9281282,0.78125,-0.72558594,-0.1484375,1585141578327,-8768732268056,0.23319277,0,1
1585141578711,NaN,-3.609664,0.70336914,-0.87109375,-0.09716797,1585141578407,-8768732268056,0.23319277,0,1
1585141578715,NaN,-2.3611417,0.5527344,-0.9367676,0.020507812,1585141578487,-8768732268056,0.23319277,0,1
1585141578718,NaN,-1.2619036,0.39282227,-0.9477539,0.08251953,1585141578567,-8768732268056,0.23319277,0,1
1585141578721,NaN,-0.26750362,0.26245117,-0.8996582,0.18286133,1585141578647,-8768732268056,0.23319277,0,1
1585141578724,NaN,0.5853254,0.20825195,-0.8652344,0.23120117,1585141578727,-8768732268056,0.23319277,0,1
1585141581382,NaN,1.269409,0.17602539,-0.953125,0.2993164,1585141578807,3481621668344,0.23319277,0,1
1585141581389,NaN,1.7203592,0.12011719,-0.94384766,0.3269043,1585141578887,3481621668344,0.23319277,0,1
1585141581394,NaN,1.9281646,0.088134766,-0.8959961,0.33862305,1585141578967,3481621668344,0.23319277,0,1
1585141581400,NaN,1.967618,0.14770508,-0.91137695,0.3100586,1585141579047,3481621668344,0.23319277,0,1
1585141581405,NaN,1.944688,0.02319336,-1.0334473,0.1340332,1585141579127,3481621668344,0.24776858,0,1
1585141581411,NaN,1.6000916,0.13110352,-0.96240234,0.16967773,1585141579207,3481621668344,0.24776858,0,1
1585141581414,NaN,0.55896395,0.12646484,-0.9836426,0.08642578,1585141579287,3481621668344,0.24776858,0,1
1585141581418,NaN,-0.41011798,0.10473633,-0.9851074,0.06689453,1585141579367,3481621668344,0.24776858,0,1
1585141581423,NaN,-1.0683016,0.15966797,-0.9650879,0.044677734,1585141579447,3481621668344,0.24776858,0,1
1585141581427,NaN,-1.4850305,0.16699219,-0.99902344,0.041748047,1585141579527,3481621668344,0.24776858,0,1
1585141581432,NaN,-1.6572429,0.22753906,-0.99365234,0.052246094,1585141579607,3481621668344,0.24776858,0,1
1585141581435,NaN,-1.7198278,0.20947266,-0.9511719,0.047607422,1585141579687,3481621668344,0.24776858,0,1
1585141581438,NaN,-1.6878753,0.15795898,-0.94262695,0.05493164,1585141579767,3481621668344,0.24776858,0,1
1585141581442,NaN,-1.5962272,0.1003418,-1.027832,0.092041016,1585141579847,3481621668344,0.24776858,0,1
1585141581446,NaN,NaN,0.3996582,-0.96850586,0.055664062,1585141579927,3481621668344,0.30729982,0,1
1585141581450,NaN,NaN,0.1743164,-0.9172363,0.0234375,1585141580007,3481621668344,0.30729982,0,1
1585141581452,NaN,NaN,0.28515625,-0.98583984,0.034179688,1585141580087,3481621668344,0.30729982,0,1
1585141581455,NaN,NaN,0.23217773,-0.94677734,0.0925293,1585141580167,3481621668344,0.30729982,0,1
1585141581458,NaN,NaN,0.18530273,-0.9160156,0.1381836,1585141580247,3481621668344,0.30729982,0,1
1585141581461,NaN,NaN,0.40405273,-0.9921875,-0.01586914,1585141580327,3481621668344,0.30729982,0,1
1585141581464,NaN,NaN,0.44580078,-0.83569336,-0.091552734,1585141580407,3481621668344,0.30729982,0,1
1585141581467,NaN,NaN,0.62280273,-0.9921875,-0.171875,1585141580487,3481621668344,0.30729982,0,1
1585141581470,NaN,NaN,0.73828125,-0.9187012,-0.27294922,1585141580567,3481621668344,0.30729982,0,1
1585141581472,NaN,NaN,0.6879883,-0.8796387,-0.28564453,1585141580647,3481621668344,0.30729982,0,1
1585141581475,NaN,NaN,0.70874023,-0.83203125,-0.35229492,1585141580727,3481621668344,0.30729982,0,1
1585141581478,NaN,NaN,0.69189453,-0.72216797,-0.34033203,1585141580807,3481621668344,0.30729982,0,1
1585141581481,NaN,NaN,0.7302246,-0.73828125,-0.20654297,1585141580887,3481621668344,0.30729982,0,1
1585141581484,NaN,NaN,0.62646484,-0.8273926,-0.16015625,1585141580967,3481621668344,0.30729982,0,1
1585141581487,NaN,NaN,0.5449219,-0.79345703,-0.14013672,1585141581047,3481621668344,0.30729982,0,1
1585141581489,NaN,NaN,0.3815918,-0.73535156,-0.049316406,1585141581127,3481621668344,0.30729982,0,1
1585141581492,NaN,NaN,0.38842773,-0.76538086,-0.018798828,1585141581207,3481621668344,0.30729982,0,1
1585141581495,NaN,NaN,0.36010742,-0.8144531,0.045410156,1585141581287,3481621668344,0.30729982,0,1
1585141583765,NaN,NaN,0.30273438,-0.93188477,0.09033203,1585141581367,-2715049943940,0.30729982,0,1
1585141583772,NaN,NaN,0.21191406,-0.8996582,0.1550293,1585141581447,-2715049943940,0.30729982,0,1
1585141583778,NaN,NaN,0.16357422,-0.93652344,0.2175293,1585141581527,-2715049943940,0.30729982,0,1
1585141583783,NaN,NaN,0.1274414,-0.9265137,0.25830078,1585141581607,-2715049943940,0.30729982,0,1
1585141583788,NaN,NaN,0.107421875,-0.92749023,0.2836914,1585141581687,-2715049943940,0.30729982,0,1
1585141583792,NaN,NaN,0.092041016,-0.94555664,0.29174805,1585141581767,-2715049943940,0.30729982,0,1
1585141583796,NaN,NaN,0.11645508,-0.9172363,0.31884766,1585141581847,-2715049943940,0.30729982,0,1
1585141583799,NaN,NaN,0.119628906,-0.9272461,0.32202148,1585141581927,-2715049943940,0.30729982,0,1
1585141583803,NaN,NaN,0.12011719,-0.935791,0.33032227,1585141582007,-2715049943940,0.30729982,0,1
1585141583806,NaN,NaN,0.13623047,-0.9289551,0.3244629,1585141582087,-2715049943940,0.30729982,0,1
1585141583809,NaN,NaN,0.13476562,-0.92626953,0.31640625,1585141582167,-2715049943940,0.30729982,0,1
1585141583812,NaN,NaN,0.13696289,-0.93408203,0.30444336,1585141582247,-2715049943940,0.30729982,0,1
1585141583817,NaN,NaN,0.15039062,-0.91674805,0.3010254,1585141582327,-2715049943940,0.30729982,0,1
1585141583820,NaN,NaN,0.16870117,-0.9243164,0.2758789,1585141582407,-2715049943940,0.30729982,0,1
1585141583823,NaN,-1.398748,0.20922852,-0.8942871,0.25708008,1585141582487,-2715049943940,0.2781833,0,1
1585141583827,NaN,-1.1589006,0.234375,-0.85595703,0.19213867,1585141582567,-2715049943940,0.2781833,0,1
1585141583829,NaN,-0.86910087,0.26513672,-0.84716797,0.15014648,1585141582647,-2715049943940,0.2781833,0,1
1585141583833,NaN,-0.4396666,0.35717773,-0.86376953,0.07910156,1585141582727,-2715049943940,0.2781833,0,1
1585141583836,NaN,0.40235832,0.48413086,-0.8137207,-0.009521484,1585141582807,-2715049943940,0.2781833,0,1
1585141583839,NaN,1.2468511,0.5432129,-0.7963867,-0.07763672,1585141582887,-2715049943940,0.24954313,0,1
1585141583842,NaN,1.9425908,0.6459961,-0.76416016,-0.13232422,1585141582967,-2715049943940,0.24954313,0,1
1585141583845,NaN,2.5754583,0.67993164,-0.78271484,-0.22631836,1585141583047,-2715049943940,0.19570716,0,1
1585141583848,NaN,3.0400238,0.76464844,-0.7570801,-0.18286133,1585141583127,-2715049943940,0.19570716,0,1
1585141583851,NaN,3.5227354,0.67163086,-0.61621094,-0.32080078,1585141583207,-2715049943940,0.21799926,0,1
1585141583854,NaN,4.116404,0.81103516,-0.62646484,-0.35742188,1585141583287,-2715049943940,0.21799926,0,1
1585141583857,NaN,4.8025365,0.76416016,-0.66503906,-0.44018555,1585141583367,-2715049943940,0.21799926,0,1
1585141583861,NaN,5.3962827,0.6999512,-0.72998047,-0.4350586,1585141583447,-2715049943940,0.21799926,0,1
1585141583863,NaN,5.820322,0.6694336,-0.72314453,-0.32470703,1585141583527,-2715049943940,0.21799926,0,1
1585141583867,NaN,6.0488396,0.6027832,-0.8457031,-0.27856445,1585141583607,-2715049943940,0.21799926,0,1
1585141583870,NaN,6.0447025,0.6135254,-1.0236816,-0.24487305,1585141583687,-2715049943940,0.21799926,0,1
1585141583874,NaN,5.7340717,0.41210938,-1.0026855,-0.18115234,1585141583767,-2715049943940,0.21799926,0,1
1585141583876,NaN,5.174291,0.21655273,-0.8791504,-0.01953125,1585141583847,-2715049943940,0.28217852,0,1
1585141586349,NaN,4.4812045,0.22729492,-0.89501953,-0.05078125,1585141583927,-8911440081248,0.28217852,0,1
1585141586356,NaN,3.6945922,0.43969727,-0.91308594,-0.0029296875,1585141584007,-8911440081248,0.28217852,0,1
1585141586363,NaN,2.723655,0.26586914,-1.0217285,0.057617188,1585141584087,-8911440081248,0.28217852,0,1
1585141586371,NaN,1.5319118,0.21801758,-0.9519043,0.16235352,1585141584167,-8911440081248,0.28217852,0,1
1585141586375,NaN,0.090987764,0.1875,-0.9277344,0.1977539,1585141584247,-8911440081248,0.28217852,0,1
1585141586379,NaN,-1.5062933,0.17675781,-0.9580078,0.25634766,1585141584327,-8911440081248,0.28217852,0,1
1585141586381,NaN,-3.028374,0.16064453,-0.93237305,0.36767578,1585141584407,-8911440081248,0.28217852,0,1
1585141586385,NaN,-4.3540983,0.11816406,-0.88378906,0.42456055,1585141584487,-8911440081248,0.28217852,0,1
1585141586388,NaN,-5.4403653,0.107177734,-0.88916016,0.43798828,1585141584567,-8911440081248,0.28217852,0,1
1585141586391,NaN,-6.3170457,0.11401367,-0.88134766,0.42773438,1585141584647,-8911440081248,0.28217852,0,1
1585141586395,NaN,-6.8192215,0.123291016,-0.8881836,0.42211914,1585141584727,-8911440081248,0.28217852,0,1
1585141586398,NaN,-6.949719,0.111572266,-0.88061523,0.42285156,1585141584807,-8911440081248,0.28217852,0,1
1585141586402,NaN,-7.017369,0.119628906,-0.87402344,0.41748047,1585141584887,-8911440081248,0.28217852,0,1
1585141586406,NaN,-7.1793237,0.11645508,-0.87939453,0.41333008,1585141584967,-8911440081248,0.28217852,0,1
1585141586409,NaN,-7.011419,0.13452148,-0.86865234,0.4099121,1585141585047,-8911440081248,0.28217852,0,1
1585141586412,NaN,-6.570453,0.16845703,-0.86450195,0.39648438,1585141585127,-8911440081248,0.28217852,0,1
1585141586416,NaN,-5.933169,0.21289062,-0.87841797,0.38061523,1585141585207,-8911440081248,0.28217852,0,1
1585141586419,NaN,-5.123047,0.3010254,-0.8713379,0.35473633,1585141585287,-8911440081248,0.28217852,0,1
1585141586423,NaN,-4.0428243,0.532959,-0.9904785,0.32348633,1585141585367,-8911440081248,0.28217852,0,1
1585141586427,NaN,-2.7269528,0.7841797,-0.9746094,0.22949219,1585141585447,-8911440081248,0.28217852,0,1
1585141586429,NaN,-1.3948625,0.85253906,-0.8359375,0.1508789,1585141585527,-8911440081248,0.28217852,0,1
1585141586433,NaN,-0.009970983,0.8083496,-0.8989258,-0.080566406,1585141585607,-8911440081248,0.28217852,0,1
1585141586437,NaN,NaN,0.5266113,-0.79125977,-0.1171875,1585141585687,-8911440081248,0.30382484,0,1
1585141586439,NaN,NaN,0.6550293,-0.8022461,-0.083984375,1585141585767,-8911440081248,0.30382484,0,1
1585141586442,NaN,NaN,0.55810547,-0.8117676,-0.09692383,1585141585847,-8911440081248,0.30382484,0,1
1585141586446,NaN,NaN,0.40625,-0.7026367,-0.10205078,1585141585927,-8911440081248,0.30382484,0,1
1585141586449,NaN,NaN,0.37182617,-0.76000977,-0.09741211,1585141586007,-8911440081248,0.30382484,0,1
1585141586453,NaN,NaN,0.29711914,-0.779541,-0.03100586,1585141586087,-8911440081248,0.30382484,0,1
1585141586458,NaN,NaN,0.4970703,-0.9042969,0.1015625,1585141586167,-8911440081248,0.30382484,0,1
1585141586461,NaN,NaN,0.29541016,-0.9394531,0.0690918,1585141586247,-8911440081248,0.30382484,0,1
1585141586465,NaN,NaN,0.29492188,-0.904541,0.14160156,1585141586327,-8911440081248,0.30382484,0,1
1585141586469,NaN,NaN,0.34228516,-0.984375,0.10864258,1585141586407,-8911440081248,0.30382484,0,1
1585141588934,NaN,NaN,0.2253418,-0.88012695,0.08203125,1585141586487,3338913855152,0.30382484,0,1
1585141588941,NaN,NaN,0.24829102,-0.87402344,0.07763672,1585141586567,3338913855152,0.30382484,0,1
1585141588949,NaN,NaN,0.36206055,-0.92529297,0.09814453,1585141586647,3338913855152,0.30382484,0,1
1585141588957,NaN,NaN,0.3461914,-0.91845703,0.14038086,1585141586727,3338913855152,0.30382484,0,1
1585141588963,NaN,NaN,0.35180664,-0.9291992,0.083984375,1585141586807,3338913855152,0.30382484,0,1
1585141588968,NaN,NaN,0.39916992,-0.9719238,0.10571289,1585141586887,3338913855152,0.30382484,0,1
1585141588973,NaN,NaN,0.40844727,-0.90649414,0.01928711,1585141586967,3338913855152,0.30382484,0,1
1585141588977,NaN,NaN,0.33129883,-0.8222656,0.0029296875,1585141587047,3338913855152,0.30382484,0,1
1585141588981,NaN,NaN,0.44604492,-0.84765625,-0.055664062,1585141587127,3338913855152,0.30382484,0,1
1585141588985,NaN,NaN,0.4658203,-0.8227539,0.016357422,1585141587207,3338913855152,0.30382484,0,1
1585141588990,NaN,NaN,0.47338867,-0.828125,-0.07470703,1585141587287,3338913855152,0.30382484,0,1
1585141588994,NaN,NaN,0.52978516,-0.7993164,-0.059326172,1585141587367,3338913855152,0.30382484,0,1
1585141588998,NaN,NaN,0.5905762,-0.7404785,-0.119384766,1585141587447,3338913855152,0.30382484,0,1
1585141589001,NaN,NaN,0.61743164,-0.7429199,-0.13623047,1585141587527,3338913855152,0.30382484,0,1
1585141589006,NaN,NaN,0.69873047,-0.76904297,-0.12988281,1585141587607,3338913855152,0.30382484,0,1
1585141589010,NaN,NaN,0.72802734,-0.7404785,-0.1953125,1585141587687,3338913855152,0.30382484,0,1
1585141589013,NaN,NaN,0.83374023,-0.7663574,-0.21069336,1585141587767,3338913855152,0.30382484,0,1
1585141589017,NaN,NaN,0.704834,-0.80688477,-0.2175293,1585141587847,3338913855152,0.30382484,0,1
1585141589021,NaN,NaN,0.67285156,-0.82055664,-0.17163086,1585141587927,3338913855152,0.30382484,0,1
1585141589025,NaN,NaN,0.5817871,-0.9123535,-0.036132812,1585141588007,3338913855152,0.30382484,0,1
1585141589028,NaN,NaN,0.49072266,-1.0112305,0.009033203,1585141588087,3338913855152,0.30382484,0,1
1585141589031,NaN,NaN,0.34643555,-1.0100098,0.10131836,1585141588167,3338913855152,0.30382484,0,1
1585141589035,NaN,0.7746529,0.27612305,-0.9250488,0.11376953,1585141588247,3338913855152,0.270405,0,1
1585141589038,NaN,1.3498992,0.27270508,-0.9182129,0.1237793,1585141588327,3338913855152,0.270405,0,1
1585141589042,NaN,1.9275471,0.27246094,-0.9645996,0.118652344,1585141588407,3338913855152,0.270405,0,1
1585141589045,NaN,2.5808556,0.23535156,-0.9626465,0.13452148,1585141588487,3338913855152,0.270405,0,1
1585141589049,NaN,3.0615928,0.21142578,-0.9433594,0.1303711,1585141588567,3338913855152,0.270405,0,1
1585141589053,NaN,3.3608797,0.17456055,-0.96313477,0.14550781,1585141588647,3338913855152,0.270405,0,1
1585141589056,NaN,3.565263,0.20507812,-0.95703125,0.14575195,1585141588727,3338913855152,0.20726101,0,1
1585141589060,NaN,3.5923128,0.18188477,-0.9472656,0.14453125,1585141588807,3338913855152,0.18729421,0,1
1585141589067,NaN,3.2326403,0.18896484,-0.9375,0.16455078,1585141588887,3338913855152,0.18729421,0,1
1585141589069,NaN,2.3967667,0.2331543,-0.9921875,0.21313477,1585141588967,3338913855152,0.18729421,0,1
1585141591320,NaN,1.3486713,0.19970703,-0.9226074,0.22094727,1585141589047,-2857757757132,0.18729421,0,1
1585141591327,NaN,0.12462052,0.21289062,-0.9550781,0.19921875,1585141589127,-2857757757132,0.18729421,0,1
1585141591332,NaN,-0.21334256,0.21240234,-0.9436035,0.18188477,1585141589207,-2857757757132,0.18729421,0,1
1585141591336,NaN,-0.5099657,0.24707031,-0.9404297,0.16040039,1585141589287,-2857757757132,0.18729421,0,1
1585141591342,NaN,-0.78242975,0.2763672,-0.91064453,0.16796875,1585141589367,-2857757757132,0.18729421,0,1
1585141591349,NaN,-0.94421226,0.3244629,-0.9313965,0.13671875,1585141589447,-2857757757132,0.18729421,0,1
1585141591353,NaN,-1.0336273,0.3552246,-0.90771484,0.107421875,1585141589527,-2857757757132,0.18729421,0,1
1585141591356,NaN,-0.96323293,0.40405273,-0.90283203,0.04321289,1585141589607,-2857757757132,0.18729421,0,1
1585141591359,NaN,-0.76781636,0.5246582,-0.9309082,-0.056640625,1585141589687,-2857757757132,0.18729421,0,1
1585141591363,NaN,-0.2919751,0.71240234,-1.0056152,-0.22070312,1585141589767,-2857757757132,0.26027966,0,1
1585141591367,NaN,0.4294243,0.82421875,-0.8417969,-0.27441406,1585141589847,-2857757757132,0.26027966,0,1
1585141591370,NaN,1.4395628,0.82788086,-0.7937012,-0.37524414,1585141589927,-2857757757132,0.26027966,0,1
1585141591375,NaN,2.498161,0.6804199,-0.7507324,-0.35131836,1585141590007,-2857757757132,0.26027966,0,1
1585141591378,NaN,3.6317365,0.70336914,-0.7055664,-0.30297852,1585141590087,-2857757757132,0.26027966,0,1
1585141591384,NaN,4.2327075,0.6491699,-0.75219727,-0.25805664,1585141590167,-2857757757132,0.26027966,0,1
1585141591387,NaN,4.657417,0.5432129,-0.7558594,-0.16918945,1585141590247,-2857757757132,0.26027966,0,1
1585141591390,NaN,4.9986167,0.5029297,-0.7709961,-0.12670898,1585141590327,-2857757757132,0.26027966,0,1
1585141591394,NaN,5.1471496,0.42773438,-0.82128906,-0.07055664,1585141590407,-2857757757132,0.26027966,0,1
1585141591398,NaN,5.142326,0.3166504,-0.7844238,-0.005859375,1585141590487,-2857757757132,0.26027966,0,1
1585141591401,NaN,4.9266686,0.31860352,-0.8635254,0.03100586,1585141590567,-2857757757132,0.26027966,0,1
1585141591405,NaN,4.4220605,0.25585938,-0.8937988,0.10522461,1585141590647,-2857757757132,0.26027966,0,1
1585141591408,NaN,3.499671,0.23999023,-0.9304199,0.15722656,1585141590727,-2857757757132,0.26027966,0,1
1585141591411,NaN,2.2560966,0.21777344,-0.921875,0.19360352,1585141590807,-2857757757132,0.26027966,0,1
1585141591415,NaN,0.7820458,0.19262695,-0.92089844,0.23876953,1585141590887,-2857757757132,0.26027966,0,1
1585141591419,NaN,-0.54826474,0.19799805,-0.91674805,0.24487305,1585141590967,-2857757757132,0.26027966,0,1
1585141591421,NaN,-1.8616315,0.1965332,-0.93481445,0.24291992,1585141591047,-2857757757132,0.26027966,0,1
1585141591425,NaN,-2.984748,0.22851562,-0.90527344,0.23803711,1585141591127,-2857757757132,0.26027966,0,1
1585141591428,NaN,-3.8372133,0.23999023,-0.92407227,0.234375,1585141591207,-2857757757132,0.26027966,0,1
1585141591431,NaN,-4.5116425,0.28027344,-0.9147949,0.20239258,1585141591287,-2857757757132,0.26027966,0,1
1585141591433,NaN,-4.9596357,0.29711914,-0.8874512,0.1887207,1585141591367,-2857757757132,0.26027966,0,1
1585141591436,NaN,-5.10581,0.37890625,-0.8630371,0.13110352,1585141591447,-2857757757132,0.26027966,0,1
1585141591439,NaN,-5.0413733,0.4309082,-0.8334961,0.064208984,1585141591527,-2857757757132,0.26027966,0,1
1585141593903,NaN,-4.6854806,0.46435547,-0.8383789,0.053222656,1585141591607,-9054147894440,0.26027966,0,1
1585141593908,NaN,-3.9978411,0.53027344,-0.80810547,4.8828125E-4,1585141591687,-9054147894440,0.26027966,0,1
1585141593914,NaN,-2.9554539,0.66308594,-0.8125,-0.045166016,1585141591767,-9054147894440,0.26027966,0,1
1585141593922,NaN,-1.7230101,0.6257324,-0.7233887,-0.048583984,1585141591847,-9054147894440,0.26027966,0,1
1585141593925,NaN,-0.46132803,0.70703125,-0.7441406,-0.122802734,1585141591927,-9054147894440,0.26027966,0,1
1585141593931,NaN,0.80818844,0.7121582,-0.6972656,-0.10546875,1585141592007,-9054147894440,0.26027966,0,1
1585141593936,NaN,2.0254982,0.77563477,-0.6945801,-0.18310547,1585141592087,-9054147894440,0.26027966,0,1
1585141593942,NaN,3.0980275,0.75439453,-0.67456055,-0.19335938,1585141592167,-9054147894440,0.26027966,0,1
1585141593948,NaN,4.0744624,0.80371094,-0.70166016,-0.27807617,1585141592247,-9054147894440,0.26027966,0,1
1585141593952,NaN,4.860106,0.7807617,-0.7011719,-0.23583984,1585141592327,-9054147894440,0.20548534,0,1
1585141593956,NaN,5.295918,0.7207031,-0.74121094,-0.2055664,1585141592407,-9054147894440,0.15544608,0,1
1585141593961,NaN,5.489145,0.6608887,-0.7919922,-0.17822266,1585141592487,-9054147894440,0.15544608,0,1
1585141593965,NaN,5.410826,0.59350586,-0.9074707,-0.071777344,1585141592567,-9054147894440,0.17089862,0,1
1585141593969,NaN,5.030788,0.532959,-1.0102539,0.009765625,1585141592647,-9054147894440,0.17089862,0,1
1585141593972,NaN,4.346824,0.37939453,-0.9650879,0.09423828,1585141592727,-9054147894440,0.18099071,0,1
1585141593975,NaN,3.5624769,0.2841797,-0.8730469,0.15942383,1585141592807,-9054147894440,0.18099071,0,1
1585141593979,NaN,2.554015,0.26293945,-0.8952637,0.22631836,1585141592887,-9054147894440,0.18099071,0,1
1585141593982,NaN,1.4581223,0.2512207,-0.9423828,0.2902832,1585141592967,-9054147894440,0.18099071,0,1
1585141593985,NaN,0.15956466,0.16479492,-0.9157715,0.34301758,1585141593047,-9054147894440,0.18099071,0,1
1585141593989,NaN,-1.1793973,0.10498047,-0.91015625,0.34838867,1585141593127,-9054147894440,0.18099071,0,1
1585141593993,NaN,-2.6012442,0.13134766,-0.88378906,0.3630371,1585141593207,-9054147894440,0.18099071,0,1
1585141593996,NaN,-3.974414,0.09301758,-0.8991699,0.42407227,1585141593287,-9054147894440,0.18099071,0,1
1585141593999,NaN,-5.125159,0.09716797,-0.90185547,0.41625977,1585141593367,-9054147894440,0.18099071,0,1
1585141594003,NaN,-6.0467086,0.114746094,-0.8911133,0.39746094,1585141593447,-9054147894440,0.18099071,0,1
1585141594005,NaN,-6.6800504,0.14135742,-0.8823242,0.39013672,1585141593527,-9054147894440,0.18099071,0,1
1585141594008,NaN,-7.051422,0.14526367,-0.90185547,0.39282227,1585141593607,-9054147894440,0.18099071,0,1
1585141594012,NaN,-7.0971894,0.17529297,-0.89868164,0.3894043,1585141593687,-9054147894440,0.18099071,0,1
1585141594015,NaN,-6.9359164,0.2109375,-0.8725586,0.36035156,1585141593767,-9054147894440,0.18099071,0,1
1585141594019,NaN,-6.551878,0.24511719,-0.8918457,0.32592773,1585141593847,-9054147894440,0.18099071,0,1
1585141594023,NaN,-6.018745,0.28466797,-0.8911133,0.3166504,1585141593927,-9054147894440,0.18099071,0,1
1585141594028,NaN,-5.119413,0.42285156,-0.9909668,0.2614746,1585141594007,-9054147894440,0.18099071,0,1
1585141594031,NaN,NaN,0.6879883,-1.0053711,0.11230469,1585141594087,-9054147894440,0.30455974,0,1
1585141596485,NaN,NaN,0.8679199,-0.92407227,-0.05517578,1585141594167,3196206041960,0.30455974,0,1
1585141596490,NaN,NaN,0.7561035,-0.857666,-0.10424805,1585141594247,3196206041960,0.30455974,0,1
1585141596499,NaN,NaN,0.6154785,-0.83618164,-0.10083008,1585141594327,3196206041960,0.30455974,0,1
1585141596506,NaN,NaN,0.5769043,-0.8117676,-0.060546875,1585141594407,3196206041960,0.30455974,0,1
1585141596511,NaN,NaN,0.51464844,-0.80078125,0.0063476562,1585141594487,3196206041960,0.30455974,0,1
1585141596515,NaN,NaN,0.43188477,-0.82714844,0.021484375,1585141594567,3196206041960,0.30455974,0,1
1585141596522,NaN,NaN,0.34765625,-0.83081055,0.030761719,1585141594647,3196206041960,0.30455974,0,1
1585141596527,NaN,NaN,0.32958984,-0.82421875,0.09375,1585141594727,3196206041960,0.30455974,0,1
1585141596530,NaN,NaN,0.33251953,-0.8173828,0.16577148,1585141594807,3196206041960,0.30455974,0,1
1585141596534,NaN,NaN,0.32543945,-0.8522949,0.16308594,1585141594887,3196206041960,0.30455974,0,1
1585141596537,NaN,NaN,0.35620117,-0.88623047,0.203125,1585141594967,3196206041960,0.30455974,0,1
1585141596541,NaN,NaN,0.3479004,-0.8779297,0.21850586,1585141595047,3196206041960,0.30455974,0,1
1585141596544,NaN,NaN,0.3737793,-0.89086914,0.21655273,1585141595127,3196206041960,0.30455974,0,1
1585141596548,NaN,NaN,0.37109375,-0.9042969,0.21484375,1585141595207,3196206041960,0.30455974,0,1
1585141596551,NaN,NaN,0.38427734,-0.9008789,0.22827148,1585141595287,3196206041960,0.30455974,0,1
1585141596555,NaN,NaN,0.3840332,-0.8911133,0.20751953,1585141595367,3196206041960,0.30455974,0,1
1585141596559,NaN,NaN,0.35913086,-0.8869629,0.20751953,1585141595447,3196206041960,0.30455974,0,1
1585141596561,NaN,NaN,0.38989258,-0.89404297,0.22558594,1585141595527,3196206041960,0.30455974,0,1
1585141596566,NaN,NaN,0.38842773,-0.8874512,0.21704102,1585141595607,3196206041960,0.30455974,0,1
1585141596568,NaN,NaN,0.3869629,-0.8586426,0.2019043,1585141595687,3196206041960,0.30455974,0,1
1585141596571,NaN,NaN,0.41064453,-0.84716797,0.17675781,1585141595767,3196206041960,0.30455974,0,1
1585141596574,NaN,NaN,0.43896484,-0.8925781,0.12597656,1585141595847,3196206041960,0.30455974,0,1
1585141596578,NaN,NaN,0.41186523,-0.8581543,0.10424805,1585141595927,3196206041960,0.30455974,0,1
1585141596582,NaN,NaN,0.4309082,-0.82177734,0.056884766,1585141596007,3196206041960,0.30455974,0,1
1585141596585,NaN,NaN,0.47802734,-0.8413086,-0.033691406,1585141596087,3196206041960,0.30455974,0,1
1585141596588,NaN,NaN,0.4399414,-0.7260742,-0.044677734,1585141596167,3196206041960,0.30455974,0,1
1585141596592,NaN,NaN,0.5800781,-0.74902344,-0.06518555,1585141596247,3196206041960,0.30455974,0,1
1585141596595,NaN,NaN,0.57177734,-0.7705078,-0.076660156,1585141596327,3196206041960,0.30455974,0,1
1585141596597,NaN,NaN,0.65966797,-0.80859375,-0.08300781,1585141596407,3196206041960,0.30455974,0,1
1585141596601,NaN,NaN,0.70043945,-0.84375,-0.09008789,1585141596487,3196206041960,0.30455974,0,1
1585141596603,NaN,NaN,0.61376953,-0.81152344,-0.1381836,1585141596567,3196206041960,0.30455974,0,1
1585141596606,NaN,-3.7969244,0.6706543,-0.9069824,-0.075927734,1585141596647,3196206041960,0.25891042,0,1
1585141599070,NaN,-2.5348735,0.5385742,-0.9628906,2.4414062E-4,1585141596727,-3072523164362,0.16239774,0,1
1585141599076,NaN,-1.2840599,0.5024414,-1.138916,0.119140625,1585141596807,-3072523164362,0.215469,0,1
1585141599081,NaN,-0.21068293,0.30273438,-1.097168,0.064697266,1585141596887,-3072523164362,0.215469,0,1
1585141599085,NaN,0.6263496,0.118896484,-0.93896484,0.109375,1585141596967,-3072523164362,0.24661852,0,1
1585141599089,NaN,1.2859942,0.13110352,-0.8647461,0.18139648,1585141597047,-3072523164362,0.24661852,0,1
1585141599093,NaN,1.8462234,0.15649414,-0.9304199,0.23510742,1585141597127,-3072523164362,0.24661852,0,1
1585141599097,NaN,2.2073557,0.11743164,-0.9934082,0.21020508,1585141597207,-3072523164362,0.24661852,0,1
1585141599101,NaN,2.3483837,0.030517578,-1.0187988,0.19042969,1585141597287,-3072523164362,0.24661852,0,1
1585141599105,NaN,2.3996756,0.09008789,-0.94628906,0.19360352,1585141597367,-3072523164362,0.24661852,0,1
1585141599109,NaN,2.3625324,0.052246094,-0.9855957,0.14208984,1585141597447,-3072523164362,0.24661852,0,1
1585141599114,NaN,2.051148,0.13134766,-1.0522461,0.13647461,1585141597527,-3072523164362,0.24661852,0,1
1585141599118,NaN,1.0199876,0.14282227,-0.95825195,0.16088867,1585141597607,-3072523164362,0.24661852,0,1
1585141599127,NaN,0.23729153,0.15673828,-0.8774414,0.17773438,1585141597687,-3072523164362,0.24661852,0,1
1585141599131,NaN,-0.37568462,0.24438477,-0.92700195,0.18725586,1585141597767,-3072523164362,0.24661852,0,1
1585141599136,NaN,-0.8189974,0.22827148,-0.9790039,0.21264648,1585141597847,-3072523164362,0.24661852,0,1
1585141599145,NaN,-0.9453226,0.26342773,-0.9650879,0.20361328,1585141597927,-3072523164362,0.24661852,0,1
1585141599150,NaN,-1.0392073,0.20678711,-0.91845703,0.22973633,1585141598007,-3072523164362,0.24661852,0,1
1585141599154,NaN,-1.0850998,0.23999023,-0.91015625,0.23852539,1585141598087,-3072523164362,0.24661852,0,1
1585141599157,NaN,-1.0420285,0.3034668,-0.94311523,0.22045898,1585141598167,-3072523164362,0.24661852,0,1
1585141599162,NaN,-0.86786896,0.29370117,-0.93652344,0.18652344,1585141598247,-3072523164362,0.24661852,0,1
1585141599167,NaN,-0.6937375,0.34375,-0.95410156,0.17675781,1585141598327,-3072523164362,0.24661852,0,1
1585141599169,NaN,-0.5957786,0.22485352,-0.8930664,0.20825195,1585141598407,-3072523164362,0.24661852,0,1
1585141599172,NaN,-0.49304295,0.2685547,-0.95751953,0.25634766,1585141598487,-3072523164362,0.24661852,0,1
1585141599175,NaN,-0.0060041547,0.29589844,-0.90966797,0.23022461,1585141598567,-3072523164362,0.24661852,0,1
1585141599178,NaN,0.37646648,0.31933594,-0.94506836,0.22949219,1585141598647,-3072523164362,0.24661852,0,1
1585141599181,NaN,0.48925912,0.17260742,-0.89746094,0.25512695,1585141598727,-3072523164362,0.24661852,0,1
1585141599184,NaN,0.61779433,0.2800293,-0.9914551,0.26660156,1585141598807,-3072523164362,0.24661852,0,1
1585141599187,NaN,0.59089357,0.2685547,-0.8881836,0.19750977,1585141598887,-3072523164362,0.24661852,0,1
1585141599190,NaN,0.63755,0.2919922,-0.97998047,0.19897461,1585141598967,-3072523164362,0.24661852,0,1
1585141599192,NaN,0.6048014,0.23730469,-0.92626953,0.21020508,1585141599047,-3072523164362,0.24661852,0,1
1585141599195,NaN,0.44300425,0.1977539,-0.93115234,0.21533203,1585141599127,-3072523164362,0.24661852,0,1
1585141599198,NaN,0.27057055,0.27441406,-0.9641113,0.18969727,1585141599207,-3072523164362,0.24661852,0,1
1585141601655,NaN,0.08753147,0.3071289,-0.986084,0.17993164,1585141599287,9177830772038,0.24661852,0,1
1585141601661,NaN,0.017159065,0.22290039,-0.89990234,0.21875,1585141599367,9177830772038,0.24661852,0,1
1585141601665,NaN,-0.03308457,0.17138672,-0.87841797,0.23779297,1585141599447,9177830772038,0.24661852,0,1
1585141601670,NaN,-0.09841748,0.34643555,-1.0878906,0.30444336,1585141599527,9177830772038,0.28100383,0,1
1585141601676,NaN,-0.217719,0.29125977,-0.80688477,0.3010254,1585141599607,9177830772038,0.28639194,0,1
1585141601680,NaN,-0.2734337,0.14990234,-0.90844727,0.4555664,1585141599687,9177830772038,0.28639194,0,1
1585141601684,NaN,-0.5240186,0.06567383,-0.86621094,0.47924805,1585141599767,9177830772038,0.28639194,0,1
1585141601688,NaN,-0.83699346,0.08178711,-0.8569336,0.51831055,1585141599847,9177830772038,0.28639194,0,1
1585141601691,NaN,-1.2184974,0.103027344,-0.82910156,0.5197754,1585141599927,9177830772038,0.28639194,0,1
1585141601695,NaN,-1.5079027,0.09472656,-0.82788086,0.5095215,1585141600007,9177830772038,0.28639194,0,1
1585141601699,NaN,-1.6266627,0.18408203,-0.79589844,0.46704102,1585141600087,9177830772038,0.28639194,0,1
1585141601702,NaN,-1.8625194,0.05859375,-0.9589844,0.3942871,1585141600167,9177830772038,0.28639194,0,1
1585141601706,NaN,-2.0639331,0.14648438,-0.92822266,0.38671875,1585141600247,9177830772038,0.28639194,0,1
1585141601710,NaN,-2.1689045,0.1003418,-0.9458008,0.30029297,1585141600327,9177830772038,0.28639194,0,1
1585141601713,NaN,-2.1571748,0.14477539,-0.9111328,0.27246094,1585141600407,9177830772038,0.28639194,0,1
1585141601728,NaN,-2.2820024,0.11230469,-0.9411621,0.26489258,1585141600487,9177830772038,0.28639194,0,1
1585141601729,NaN,-2.2295408,0.18457031,-0.9848633,0.2541504,1585141600567,9177830772038,0.28639194,0,1
1585141601731,NaN,-1.894039,0.24780273,-0.92529297,0.21508789,1585141600647,9177830772038,0.28639194,0,1
1585141601732,NaN,-1.3990837,0.1899414,-0.9675293,0.21899414,1585141600727,9177830772038,0.28639194,0,1
1585141601733,NaN,-0.8786467,0.13989258,-0.9626465,0.23632812,1585141600807,9177830772038,0.28639194,0,1
1585141601734,NaN,-0.35609356,0.14477539,-0.9458008,0.24023438,1585141600887,9177830772038,0.28639194,0,1
1585141601737,NaN,0.115825675,0.18945312,-0.95581055,0.29589844,1585141600967,9177830772038,0.28639194,0,1
1585141601742,NaN,0.34567213,0.14233398,-0.91064453,0.35717773,1585141601047,9177830772038,0.28639194,0,1
1585141601747,NaN,0.62095404,0.10449219,-0.90478516,0.3852539,1585141601127,9177830772038,0.28639194,0,1
1585141601750,NaN,0.7907825,0.104003906,-0.87768555,0.4284668,1585141601207,9177830772038,0.28639194,0,1
1585141601753,NaN,0.7900302,0.08154297,-0.85180664,0.45239258,1585141601287,9177830772038,0.28639194,0,1
1585141601757,NaN,0.6666629,0.088134766,-0.8901367,0.46801758,1585141601367,9177830772038,0.28639194,0,1
1585141601760,NaN,0.6679037,0.068359375,-0.8515625,0.44067383,1585141601447,9177830772038,0.28639194,0,1
1585141601763,NaN,0.49777254,0.07861328,-0.88916016,0.42651367,1585141601527,9177830772038,0.28639194,0,1
1585141601766,NaN,0.10092118,0.13330078,-0.88427734,0.42749023,1585141601607,9177830772038,0.28639194,0,1
1585141601769,NaN,-0.24534066,0.16259766,-0.9030762,0.35546875,1585141601687,9177830772038,0.28639194,0,1
1585141601772,NaN,-0.48325714,0.2133789,-0.89819336,0.3330078,1585141601767,9177830772038,0.28639194,0,1
1585141604238,NaN,-0.67056113,0.23242188,-0.8835449,0.2763672,1585141601847,2981440634730,0.28639194,0,1
1585141604243,NaN,-0.7442545,0.33007812,-0.88916016,0.20678711,1585141601927,2981440634730,0.28639194,0,1
1585141604248,NaN,-0.40937003,0.51782227,-0.9836426,0.09277344,1585141602007,2981440634730,0.28639194,0,1
1585141604252,NaN,NaN,0.7619629,-1.017334,-0.11352539,1585141602087,2981440634730,0.32140157,0,1
1585141604258,NaN,NaN,0.8400879,-0.8796387,-0.23803711,1585141602167,2981440634730,0.32140157,0,1
1585141604263,NaN,NaN,0.8234863,-0.8327637,-0.2685547,1585141602247,2981440634730,0.32140157,0,1
1585141604268,NaN,NaN,0.7297363,-0.7817383,-0.23583984,1585141602327,2981440634730,0.32140157,0,1
1585141604286,NaN,NaN,0.65283203,-0.7583008,-0.18579102,1585141602407,2981440634730,0.32140157,0,1
1585141604287,NaN,NaN,0.5974121,-0.77905273,-0.08105469,1585141602487,2981440634730,0.32140157,0,1
1585141604289,NaN,NaN,0.48242188,-0.7565918,-0.011474609,1585141602567,2981440634730,0.32140157,0,1
1585141604290,NaN,NaN,0.41601562,-0.796875,0.016357422,1585141602647,2981440634730,0.32140157,0,1
1585141604291,NaN,NaN,0.3317871,-0.7873535,0.10058594,1585141602727,2981440634730,0.32140157,0,1
1585141604291,NaN,NaN,0.2734375,-0.83081055,0.17504883,1585141602807,2981440634730,0.32140157,0,1
1585141604292,NaN,NaN,0.21899414,-0.86035156,0.2553711,1585141602887,2981440634730,0.32140157,0,1
1585141604294,NaN,NaN,0.16186523,-0.8781738,0.2919922,1585141602967,2981440634730,0.32140157,0,1
1585141604298,NaN,NaN,0.13476562,-0.8942871,0.3071289,1585141603047,2981440634730,0.32140157,0,1
1585141604301,NaN,NaN,0.14355469,-0.89819336,0.3388672,1585141603127,2981440634730,0.32140157,0,1
1585141604308,NaN,NaN,0.080566406,-0.9206543,0.32666016,1585141603207,2981440634730,0.32140157,0,1
1585141604311,NaN,NaN,0.119384766,-0.9343262,0.33984375,1585141603287,2981440634730,0.32140157,0,1
1585141604314,NaN,NaN,0.106933594,-0.94506836,0.3322754,1585141603367,2981440634730,0.32140157,0,1
1585141604318,NaN,NaN,0.114746094,-0.93652344,0.32641602,1585141603447,2981440634730,0.32140157,0,1
1585141604321,NaN,NaN,0.12402344,-0.9321289,0.3227539,1585141603527,2981440634730,0.32140157,0,1
1585141604324,NaN,NaN,0.14770508,-0.8894043,0.3166504,1585141603607,2981440634730,0.32140157,0,1
1585141604327,NaN,NaN,0.1496582,-0.8857422,0.3010254,1585141603687,2981440634730,0.32140157,0,1
1585141604330,NaN,NaN,0.1628418,-0.8779297,0.25683594,1585141603767,2981440634730,0.32140157,0,1
1585141604333,NaN,NaN,0.22021484,-0.8955078,0.24047852,1585141603847,2981440634730,0.32140157,0,1
1585141604336,NaN,NaN,0.26367188,-0.8886719,0.16259766,1585141603927,2981440634730,0.32140157,0,1
1585141604338,NaN,NaN,0.34838867,-0.8754883,0.07348633,1585141604007,2981440634730,0.32140157,0,1
1585141604342,NaN,NaN,0.46728516,-0.86621094,0.03564453,1585141604087,2981440634730,0.32140157,0,1
1585141604345,NaN,NaN,0.54248047,-0.8664551,-0.036376953,1585141604167,2981440634730,0.32140157,0,1
1585141604348,NaN,NaN,0.5266113,-0.81030273,-0.12109375,1585141604247,2981440634730,0.32140157,0,1
1585141604351,NaN,NaN,0.65722656,-0.75561523,-0.12036133,1585141604327,2981440634730,0.32140157,0,1
1585141606820,NaN,NaN,0.68310547,-0.7233887,-0.16381836,1585141604407,-3215230977555,0.32140157,0,1
1585141606829,NaN,NaN,0.7150879,-0.7314453,-0.20410156,1585141604487,-3215230977555,0.32140157,0,1
1585141606833,NaN,NaN,0.7849121,-0.7092285,-0.19702148,1585141604567,-3215230977555,0.32140157,0,1
1585141606841,NaN,0.3252411,0.7980957,-0.6628418,-0.22094727,1585141604647,-3215230977555,0.20141172,0,1
1585141606844,NaN,1.2029189,0.7963867,-0.6569824,-0.22070312,1585141604727,-3215230977555,0.14160366,0,1
1585141606850,NaN,2.1722906,0.7824707,-0.7141113,-0.21044922,1585141604807,-3215230977555,0.14160366,0,1
1585141606855,NaN,3.126764,0.68896484,-0.7348633,-0.18847656,1585141604887,-3215230977555,0.14160366,0,1
1585141606858,NaN,3.9534929,0.63378906,-0.7775879,-0.10058594,1585141604967,-3215230977555,0.14160366,0,1
1585141606861,NaN,4.6901917,0.63671875,-1.0441895,-0.040771484,1585141605047,-3215230977555,0.27324486,0,1
1585141606866,NaN,5.2993293,0.46875,-1.0949707,-0.03857422,1585141605127,-3215230977555,0.27324486,0,1
1585141606870,NaN,NaN,0.20263672,-0.92163086,0.03515625,1585141605207,-3215230977555,0.32603553,0,1
1585141606874,NaN,NaN,0.18530273,-0.85131836,0.09399414,1585141605287,-3215230977555,0.32603553,0,1
1585141606878,NaN,NaN,0.1899414,-0.9609375,0.15112305,1585141605367,-3215230977555,0.32603553,0,1
1585141606882,NaN,NaN,0.14233398,-0.9992676,0.25219727,1585141605447,-3215230977555,0.32603553,0,1
1585141606888,NaN,NaN,0.064208984,-0.9484863,0.32128906,1585141605527,-3215230977555,0.32603553,0,1
1585141606891,NaN,NaN,0.045410156,-0.8977051,0.3425293,1585141605607,-3215230977555,0.32603553,0,1
1585141606894,NaN,NaN,0.050048828,-0.90478516,0.3684082,1585141605687,-3215230977555,0.32603553,0,1
1585141606898,NaN,NaN,0.048828125,-0.9123535,0.39086914,1585141605767,-3215230977555,0.32603553,0,1
1585141606902,NaN,NaN,0.05444336,-0.89331055,0.40454102,1585141605847,-3215230977555,0.32603553,0,1
1585141606907,NaN,NaN,0.07739258,-0.8811035,0.40551758,1585141605927,-3215230977555,0.32603553,0,1
1585141606910,NaN,NaN,0.10961914,-0.8964844,0.3708496,1585141606007,-3215230977555,0.32603553,0,1
1585141606913,NaN,NaN,0.14624023,-0.9169922,0.3540039,1585141606087,-3215230977555,0.32603553,0,1
1585141606916,NaN,NaN,0.18359375,-0.9267578,0.32543945,1585141606167,-3215230977555,0.32603553,0,1
1585141606919,NaN,NaN,0.16796875,-0.9152832,0.28149414,1585141606247,-3215230977555,0.32603553,0,1
1585141606922,NaN,NaN,0.21459961,-0.9177246,0.2602539,1585141606327,-3215230977555,0.32603553,0,1
1585141606927,NaN,NaN,0.3017578,-0.88793945,0.21777344,1585141606407,-3215230977555,0.32603553,0,1
1585141606930,NaN,NaN,0.41088867,-0.95043945,0.13452148,1585141606487,-3215230977555,0.32603553,0,1
1585141606934,NaN,NaN,0.63964844,-1.1022949,0.009033203,1585141606567,-3215230977555,0.32603553,0,1
1585141606938,NaN,NaN,0.89990234,-0.8786621,-0.12426758,1585141606647,-3215230977555,0.36812067,0,1
1585141606942,NaN,NaN,0.8483887,-0.86865234,-0.21069336,1585141606727,-3215230977555,0.36812067,0,1
1585141606946,NaN,NaN,0.6928711,-0.8137207,-0.19262695,1585141606807,-3215230977555,0.36812067,0,1
1585141606949,NaN,NaN,0.66137695,-0.7644043,-0.12866211,1585141606887,-3215230977555,0.36812067,0,1
1585141609405,NaN,NaN,0.5996094,-0.7348633,-0.10986328,1585141606967,9035122958846,0.36812067,0,1
1585141609411,NaN,NaN,0.5058594,-0.74658203,-0.059570312,1585141607047,9035122958846,0.36812067,0,1
1585141609417,NaN,NaN,0.39697266,-0.810791,-0.033203125,1585141607127,9035122958846,0.36812067,0,1
1585141609423,NaN,NaN,0.3659668,-0.81347656,0.041748047,1585141607207,9035122958846,0.36812067,0,1
1585141609430,NaN,NaN,0.2998047,-0.8327637,0.10229492,1585141607287,9035122958846,0.36812067,0,1
1585141609434,NaN,NaN,0.25219727,-0.89404297,0.16235352,1585141607367,9035122958846,0.36812067,0,1
1585141609438,NaN,NaN,0.21240234,-0.8857422,0.2265625,1585141607447,9035122958846,0.36812067,0,1
1585141609442,NaN,NaN,0.171875,-0.9313965,0.27734375,1585141607527,9035122958846,0.36812067,0,1
1585141609446,NaN,NaN,0.11767578,-0.91064453,0.31518555,1585141607607,9035122958846,0.36812067,0,1
1585141609451,NaN,NaN,0.106933594,-0.8911133,0.3190918,1585141607687,9035122958846,0.36812067,0,1
1585141609455,NaN,NaN,0.114746094,-0.9094238,0.3334961,1585141607767,9035122958846,0.36812067,0,1
1585141609459,NaN,NaN,0.123046875,-0.9272461,0.35131836,1585141607847,9035122958846,0.36812067,0,1
1585141609463,NaN,NaN,0.12109375,-0.9223633,0.33862305,1585141607927,9035122958846,0.36812067,0,1
1585141609468,NaN,NaN,0.15161133,-0.9206543,0.34423828,1585141608007,9035122958846,0.36812067,0,1
1585141609472,NaN,NaN,0.16064453,-0.9140625,0.33032227,1585141608087,9035122958846,0.36812067,0,1
1585141609477,NaN,NaN,0.1616211,-0.9013672,0.32177734,1585141608167,9035122958846,0.36812067,0,1
1585141609480,NaN,NaN,0.16601562,-0.87597656,0.30786133,1585141608247,9035122958846,0.36812067,0,1
1585141609483,NaN,NaN,0.19848633,-0.83984375,0.27124023,1585141608327,9035122958846,0.36812067,0,1
1585141609486,NaN,NaN,0.24414062,-0.86157227,0.20092773,1585141608407,9035122958846,0.36812067,0,1
1585141609489,NaN,NaN,0.34521484,-0.8659668,0.15893555,1585141608487,9035122958846,0.36812067,0,1
1585141609493,NaN,NaN,0.4260254,-0.83984375,0.05078125,1585141608567,9035122958846,0.36812067,0,1
1585141609497,NaN,NaN,0.51000977,-0.80908203,9.765625E-4,1585141608647,9035122958846,0.36812067,0,1
1585141609500,NaN,NaN,0.57421875,-0.82910156,-0.05053711,1585141608727,9035122958846,0.36812067,0,1
1585141609503,NaN,NaN,0.62597656,-0.7426758,-0.084228516,1585141608807,9035122958846,0.36812067,0,1
1585141609510,NaN,NaN,0.78881836,-0.73535156,-0.095703125,1585141608887,9035122958846,0.36812067,0,1
1585141609513,NaN,NaN,0.73828125,-0.67578125,-0.1315918,1585141608967,9035122958846,0.36812067,0,1
1585141609517,NaN,NaN,0.8823242,-0.71484375,-0.13623047,1585141609047,9035122958846,0.36812067,0,1
1585141609520,NaN,NaN,0.7939453,-0.6833496,-0.27978516,1585141609127,9035122958846,0.36812067,0,1
1585141609523,NaN,6.157534,0.84814453,-0.67944336,-0.2607422,1585141609207,9035122958846,0.17149536,0,1
1585141609527,NaN,6.8263984,0.7668457,-0.6867676,-0.2409668,1585141609287,9035122958846,0.17149536,0,1
1585141609529,NaN,7.2954655,0.67944336,-0.703125,-0.15234375,1585141609367,9035122958846,0.17149536,0,1
1585141609533,NaN,7.5002747,0.59936523,-0.7373047,-0.09326172,1585141609447,9035122958846,0.17149536,0,1
1585141611791,NaN,NaN,0.64038086,-1.0424805,-0.0056152344,1585141609527,2838732821537,0.32015067,0,1
1585141611799,NaN,NaN,0.54296875,-1.1105957,0.009765625,1585141609607,2838732821537,0.32015067,0,1
1585141611806,NaN,NaN,0.20336914,-0.86376953,0.076416016,1585141609687,2838732821537,0.4250804,0,1
1585141611812,NaN,NaN,0.17456055,-0.84106445,0.078125,1585141609767,2838732821537,0.4250804,0,1
1585141611818,NaN,NaN,0.28588867,-1.0683594,0.072265625,1585141609847,2838732821537,0.4250804,0,1
1585141611823,NaN,NaN,0.25927734,-0.9868164,0.09277344,1585141609927,2838732821537,0.4250804,0,1
1585141611830,NaN,NaN,0.17626953,-0.91918945,0.10180664,1585141610007,2838732821537,0.4250804,0,1
1585141611832,NaN,NaN,0.21166992,-0.9477539,0.115478516,1585141610087,2838732821537,0.4250804,0,1
1585141611836,NaN,NaN,0.1640625,-0.98876953,0.07348633,1585141610167,2838732821537,0.4250804,0,1
1585141611839,NaN,NaN,0.09765625,-1.0200195,0.050048828,1585141610247,2838732821537,0.4250804,0,1
1585141611844,NaN,NaN,0.18139648,-0.97216797,0.05053711,1585141610327,2838732821537,0.4250804,0,1
1585141611848,NaN,NaN,0.27294922,-0.95043945,0.091796875,1585141610407,2838732821537,0.4250804,0,1
1585141611853,NaN,NaN,0.2770996,-0.95703125,0.125,1585141610487,2838732821537,0.4250804,0,1
1585141611859,NaN,NaN,0.26953125,-0.9423828,0.14282227,1585141610567,2838732821537,0.4250804,0,1
1585141611864,NaN,NaN,0.26904297,-0.92211914,0.15698242,1585141610647,2838732821537,0.4250804,0,1
1585141611868,NaN,NaN,0.3071289,-0.9260254,0.2211914,1585141610727,2838732821537,0.4250804,0,1
1585141611871,NaN,NaN,0.33691406,-0.904541,0.21850586,1585141610807,2838732821537,0.4250804,0,1
1585141611874,NaN,NaN,0.30126953,-0.9104004,0.19946289,1585141610887,2838732821537,0.4250804,0,1
1585141611878,NaN,NaN,0.39990234,-0.9108887,0.20263672,1585141610967,2838732821537,0.4250804,0,1
1585141611882,NaN,NaN,0.35131836,-0.9091797,0.203125,1585141611047,2838732821537,0.4250804,0,1
1585141611885,NaN,NaN,0.33691406,-0.92578125,0.15991211,1585141611127,2838732821537,0.4250804,0,1
1585141611889,NaN,NaN,0.36328125,-0.9289551,0.16748047,1585141611207,2838732821537,0.4250804,0,1
1585141611892,NaN,NaN,0.31176758,-0.93603516,0.20166016,1585141611287,2838732821537,0.4250804,0,1
1585141611895,NaN,NaN,0.28295898,-0.94970703,0.18017578,1585141611367,2838732821537,0.4250804,0,1
1585141611897,NaN,NaN,0.30004883,-0.9375,0.1694336,1585141611447,2838732821537,0.4250804,0,1
1585141611901,NaN,NaN,0.3322754,-0.9272461,0.2006836,1585141611527,2838732821537,0.4250804,0,1
1585141611905,NaN,NaN,0.3178711,-0.92993164,0.17407227,1585141611607,2838732821537,0.4250804,0,1
1585141611908,NaN,NaN,0.30395508,-0.9226074,0.2055664,1585141611687,2838732821537,0.4250804,0,1
1585141611911,NaN,NaN,0.33007812,-0.9025879,0.2783203,1585141611767,2838732821537,0.4250804,0,1
1585141611914,NaN,NaN,0.2722168,-0.9025879,0.32543945,1585141611847,2838732821537,0.4250804,0,1
1585141611916,NaN,NaN,0.2434082,-0.8696289,0.4243164,1585141611927,2838732821537,0.4250804,0,1
1585141611919,NaN,NaN,0.265625,-0.90234375,0.32739258,1585141612007,2838732821537,0.4250804,0,1
1585141614372,NaN,NaN,0.2109375,-0.93969727,0.33422852,1585141612087,-3357938790747,0.4250804,0,1
1585141614379,NaN,NaN,0.22021484,-0.91015625,0.3388672,1585141612167,-3357938790747,0.4250804,0,1
1585141614384,NaN,6.8824635,0.23364258,-0.8588867,0.39038086,1585141612247,-3357938790747,0.25316253,0,1
1585141614389,NaN,5.512364,0.26635742,-0.83081055,0.34375,1585141612327,-3357938790747,0.25316253,0,1
1585141614394,NaN,4.044666,0.20629883,-1.0244141,0.22631836,1585141612407,-3357938790747,0.23426384,0,1
1585141614397,NaN,2.55305,0.2241211,-0.9326172,0.29736328,1585141612487,-3357938790747,0.23426384,0,1
1585141614401,NaN,1.2271622,0.3059082,-0.9562988,0.25952148,1585141612567,-3357938790747,0.23426384,0,1
1585141614405,NaN,0.13402946,0.27612305,-0.9082031,0.21826172,1585141612647,-3357938790747,0.23426384,0,1
1585141614410,NaN,-0.765089,0.28637695,-0.9008789,0.24951172,1585141612727,-3357938790747,0.23426384,0,1
1585141614413,NaN,-1.4746342,0.24731445,-0.88549805,0.2849121,1585141612807,-3357938790747,0.23426384,0,1
1585141614417,NaN,-2.9168317,0.28320312,-0.92456055,0.26123047,1585141612887,-3357938790747,0.23426384,0,1
1585141614420,NaN,-4.197435,0.28857422,-0.90283203,0.29052734,1585141612967,-3357938790747,0.23426384,0,1
1585141614423,NaN,-5.1578383,0.34643555,-0.91259766,0.27807617,1585141613047,-3357938790747,0.23426384,0,1
1585141614426,NaN,-5.863322,0.34838867,-0.88842773,0.28125,1585141613127,-3357938790747,0.23426384,0,1
1585141614429,NaN,-5.5317855,0.2939453,-0.8779297,0.27929688,1585141613207,-3357938790747,0.23426384,0,1
1585141614432,NaN,-4.8786645,0.29858398,-0.87280273,0.30322266,1585141613287,-3357938790747,0.23426384,0,1
1585141614435,NaN,-4.265852,0.2890625,-0.92749023,0.34814453,1585141613367,-3357938790747,0.23426384,0,1
1585141614439,NaN,-3.6189556,0.28515625,-0.87890625,0.3322754,1585141613447,-3357938790747,0.23426384,0,1
1585141614442,NaN,-3.2303083,0.2290039,-0.8852539,0.40625,1585141613527,-3357938790747,0.23426384,0,1
1585141614445,NaN,-2.9735184,0.2578125,-0.89160156,0.44458008,1585141613607,-3357938790747,0.23426384,0,1
1585141614448,NaN,-2.776169,0.24853516,-0.86499023,0.4428711,1585141613687,-3357938790747,0.23426384,0,1
1585141614452,NaN,-2.582089,0.23022461,-0.8544922,0.43652344,1585141613767,-3357938790747,0.23426384,0,1
1585141614455,NaN,-2.0511422,0.21655273,-0.87768555,0.45336914,1585141613847,-3357938790747,0.23426384,0,1
1585141614458,NaN,-1.5516633,0.20751953,-0.8552246,0.42993164,1585141613927,-3357938790747,0.23426384,0,1
1585141614463,NaN,-1.2552228,0.18603516,-0.8852539,0.41333008,1585141614007,-3357938790747,0.23426384,0,1
1585141614467,NaN,-1.0433655,0.22387695,-0.87280273,0.4333496,1585141614087,-3357938790747,0.23426384,0,1
1585141614470,NaN,-1.2900826,0.23510742,-0.85302734,0.45483398,1585141614167,-3357938790747,0.23426384,0,1
1585141614473,NaN,-1.4914588,0.26000977,-0.8210449,0.51464844,1585141614247,-3357938790747,0.23426384,0,1
1585141614476,NaN,-1.61786,0.27441406,-0.78222656,0.55688477,1585141614327,-3357938790747,0.23426384,0,1
1585141614478,NaN,-1.8152453,0.28051758,-0.7644043,0.6015625,1585141614407,-3357938790747,0.23426384,0,1
1585141614481,NaN,-1.7937192,0.2680664,-0.7416992,0.5859375,1585141614487,-3357938790747,0.23426384,0,1
1585141614484,NaN,-1.7725257,0.20776367,-0.76782227,0.5761719,1585141614567,-3357938790747,0.23426384,0,1
1585141616960,NaN,-1.7583718,0.19067383,-0.7788086,0.57543945,1585141614647,8892415145653,0.23426384,0,1
1585141616967,NaN,-1.7599921,0.18139648,-0.7910156,0.5480957,1585141614727,8892415145653,0.23426384,0,1
1585141616972,NaN,-1.6964904,0.17358398,-0.80737305,0.5480957,1585141614807,8892415145653,0.23426384,0,1
1585141616978,NaN,-1.6679568,0.16259766,-0.8088379,0.5500488,1585141614887,8892415145653,0.23426384,0,1
1585141616984,NaN,-1.6128975,0.16259766,-0.8166504,0.56591797,1585141614967,8892415145653,0.11743799,0,1
1585141616989,NaN,-1.5703701,0.16259766,-0.8076172,0.5566406,1585141615047,8892415145653,0.093177,0,1
1585141616992,NaN,-1.5348457,0.1772461,-0.8059082,0.56518555,1585141615127,8892415145653,0.09308932,0,1
1585141616995,NaN,-1.4676963,0.17089844,-0.78808594,0.57470703,1585141615207,8892415145653,0.09308932,0,1
1585141616999,NaN,-1.3710207,0.17553711,-0.7897949,0.57910156,1585141615287,8892415145653,0.09308932,0,1
1585141617003,NaN,-1.2138599,0.17651367,-0.79003906,0.57470703,1585141615367,8892415145653,0.09308932,0,1
1585141617005,NaN,-1.1288768,0.16796875,-0.7890625,0.5769043,1585141615447,8892415145653,0.09308932,0,1
1585141617010,NaN,-1.006265,0.18164062,-0.77734375,0.5732422,1585141615527,8892415145653,0.09308932,0,1
1585141617014,NaN,-0.8811074,0.1616211,-0.80249023,0.57006836,1585141615607,8892415145653,0.09308932,0,1
1585141617017,NaN,-0.7921095,0.16479492,-0.8088379,0.5739746,1585141615687,8892415145653,0.09308932,0,1
1585141617021,NaN,-0.7326731,0.16259766,-0.7788086,0.5847168,1585141615767,8892415145653,0.09308932,0,1
1585141617024,NaN,-0.65471077,0.17626953,-0.78027344,0.59399414,1585141615847,8892415145653,0.09308932,0,1
1585141617028,NaN,-0.5547243,0.17822266,-0.7770996,0.59106445,1585141615927,8892415145653,0.09308932,0,1
1585141617031,NaN,-0.4494823,0.17871094,-0.7841797,0.5852051,1585141616007,8892415145653,0.09308932,0,1
1585141617035,NaN,-0.351212,0.16552734,-0.79663086,0.56640625,1585141616087,8892415145653,0.0722549,0,1
1585141617037,NaN,-0.25385928,0.16870117,-0.7907715,0.56274414,1585141616167,8892415145653,0.0722549,0,1
1585141617041,NaN,-0.19163007,0.15673828,-0.8005371,0.5686035,1585141616247,8892415145653,0.0722549,0,1
1585141617043,NaN,-0.16564484,0.16845703,-0.79345703,0.5751953,1585141616327,8892415145653,0.0722549,0,1
1585141617045,NaN,-0.1336504,0.16210938,-0.7956543,0.57250977,1585141616407,8892415145653,0.0722549,0,1
1585141617048,NaN,-0.13353288,0.16772461,-0.79052734,0.5830078,1585141616487,8892415145653,0.0722549,0,1
1585141617052,NaN,-0.15286915,0.1484375,-0.7849121,0.58813477,1585141616567,8892415145653,0.0722549,0,1
1585141617055,NaN,-0.15543242,0.18334961,-0.76049805,0.5961914,1585141616647,8892415145653,0.0722549,0,1
1585141617058,NaN,-0.10360543,0.18188477,-0.81274414,0.5932617,1585141616727,8892415145653,0.0722549,0,1
1585141617062,NaN,-0.0085163815,0.19897461,-0.81347656,0.51831055,1585141616807,8892415145653,0.07687833,0,1
1585141617065,NaN,0.07949441,0.19824219,-0.82128906,0.51660156,1585141616887,8892415145653,0.07687833,0,1
1585141617069,NaN,0.13699947,0.23022461,-0.7727051,0.5534668,1585141616967,8892415145653,0.07687833,0,1
1585141617072,NaN,0.17204905,0.23706055,-0.7866211,0.57910156,1585141617047,8892415145653,0.07687833,0,1
1585141617074,NaN,0.16468884,0.22998047,-0.76049805,0.59887695,1585141617127,8892415145653,0.07687833,0,1
1585141619540,NaN,0.19025566,0.3005371,-0.7766113,0.62890625,1585141617207,2696025008345,0.07835583,0,1
1585141619545,NaN,0.30273476,0.2355957,-0.8066406,0.45336914,1585141617287,2696025008345,0.18955849,0,1
1585141619551,NaN,0.4135293,0.20922852,-0.85839844,0.45507812,1585141617367,2696025008345,0.18955849,0,1
1585141619557,NaN,0.5513992,0.19677734,-0.87890625,0.43579102,1585141617447,2696025008345,0.18955849,0,1
1585141619562,NaN,0.6981351,0.1821289,-0.8762207,0.4555664,1585141617527,2696025008345,0.18955849,0,1
1585141619567,NaN,0.84775823,0.21020508,-0.86035156,0.453125,1585141617607,2696025008345,0.18955849,0,1
1585141619572,NaN,0.92899793,0.16967773,-0.8640137,0.45092773,1585141617687,2696025008345,0.18955849,0,1
1585141619576,NaN,0.8953255,0.1940918,-0.8444824,0.47485352,1585141617767,2696025008345,0.18955849,0,1
1585141619580,NaN,0.85738915,0.1940918,-0.8305664,0.46972656,1585141617847,2696025008345,0.18955849,0,1
1585141619586,NaN,0.8706073,0.20458984,-0.85058594,0.4794922,1585141617927,2696025008345,0.18955849,0,1
1585141619589,NaN,0.9107175,0.21899414,-0.84277344,0.48339844,1585141618007,2696025008345,0.18955849,0,1
1585141619593,NaN,0.9822236,0.21191406,-0.8186035,0.4951172,1585141618087,2696025008345,0.18955849,0,1
1585141619597,NaN,0.9867651,0.21777344,-0.8339844,0.5383301,1585141618167,2696025008345,0.18955849,0,1
1585141619601,NaN,0.82235646,0.20800781,-0.8129883,0.52075195,1585141618247,2696025008345,0.18955849,0,1
1585141619605,NaN,0.6905711,0.24511719,-0.8269043,0.5004883,1585141618327,2696025008345,0.18955849,0,1
1585141619608,NaN,0.52576095,0.23120117,-0.82421875,0.4963379,1585141618407,2696025008345,0.18955849,0,1
1585141619611,NaN,0.39360163,0.24438477,-0.829834,0.49804688,1585141618487,2696025008345,0.18955849,0,1
1585141619615,NaN,0.24106891,0.23828125,-0.8322754,0.50024414,1585141618567,2696025008345,0.18955849,0,1
1585141619619,NaN,0.1470649,0.2446289,-0.8352051,0.4921875,1585141618647,2696025008345,0.18955849,0,1
1585141619622,NaN,0.11912235,0.24194336,-0.82592773,0.49609375,1585141618727,2696025008345,0.18955849,0,1
1585141619626,NaN,0.09230507,0.24169922,-0.8305664,0.5007324,1585141618807,2696025008345,0.18955849,0,1
1585141619629,NaN,0.036837257,0.2541504,-0.8178711,0.5061035,1585141618887,2696025008345,0.18955849,0,1
1585141619634,NaN,-0.028606458,0.25268555,-0.8269043,0.50219727,1585141618967,2696025008345,0.18955849,0,1
1585141619639,NaN,-0.09023801,0.24316406,-0.8222656,0.50512695,1585141619047,2696025008345,0.18955849,0,1
1585141619642,NaN,-0.10590658,0.21923828,-0.82836914,0.51293945,1585141619127,2696025008345,0.18955849,0,1
1585141619646,NaN,-0.055636372,0.18774414,-0.8342285,0.5209961,1585141619207,2696025008345,0.18955849,0,1
1585141619649,NaN,-0.07727748,0.20825195,-0.8173828,0.5332031,1585141619287,2696025008345,0.18955849,0,1
1585141619653,NaN,-0.08623294,0.18530273,-0.8154297,0.52783203,1585141619367,2696025008345,0.18955849,0,1
1585141619656,NaN,-0.13605104,0.18383789,-0.8071289,0.53515625,1585141619447,2696025008345,0.18955849,0,1
1585141619659,NaN,-0.16338688,0.17626953,-0.8244629,0.5300293,1585141619527,2696025008345,0.18955849,0,1
1585141619662,NaN,-0.23147063,0.17651367,-0.8178711,0.53637695,1585141619607,2696025008345,0.18955849,0,1
1585141619666,NaN,-0.29382947,0.1796875,-0.81152344,0.53344727,1585141619687,2696025008345,0.18955849,0,1
1585141622125,NaN,-0.33926225,0.1850586,-0.81811523,0.5185547,1585141619767,-3500646603939,0.18955849,0,1
1585141622149,NaN,-0.3829813,0.18432617,-0.8186035,0.52368164,1585141619847,-3500646603939,0.058112137,0,1
1585141622152,NaN,-0.4125822,0.21875,-0.8339844,0.5258789,1585141619927,-3500646603939,0.04624129,0,1
1585141622155,NaN,-0.43767068,0.22705078,-0.8171387,0.51538086,1585141620007,-3500646603939,0.04624129,0,1
1585141622159,NaN,-0.4428767,0.24682617,-0.81347656,0.5119629,1585141620087,-3500646603939,0.04624129,0,1
1585141622161,NaN,-0.3852301,0.26953125,-0.8215332,0.4951172,1585141620167,-3500646603939,0.04624129,0,1
1585141622164,NaN,-0.27494255,0.2770996,-0.8310547,0.4814453,1585141620247,-3500646603939,0.04624129,0,1
1585141622167,NaN,-0.13493167,0.28735352,-0.8286133,0.46044922,1585141620327,-3500646603939,0.04624129,0,1
1585141622170,NaN,0.03759158,0.29711914,-0.8520508,0.46020508,1585141620407,-3500646603939,0.04624129,0,1
1585141622173,NaN,0.17246564,0.29882812,-0.80249023,0.48608398,1585141620487,-3500646603939,0.05593645,0,1
1585141622177,NaN,0.30820596,0.30151367,-0.7949219,0.51660156,1585141620567,-3500646603939,0.05593645,0,1
1585141622180,NaN,0.43286574,0.2709961,-0.829834,0.50634766,1585141620647,-3500646603939,0.05593645,0,1
1585141622183,NaN,0.5167739,0.2211914,-0.83325195,0.48608398,1585141620727,-3500646603939,0.05593645,0,1
1585141622188,NaN,0.6059566,0.21704102,-0.8371582,0.4855957,1585141620807,-3500646603939,0.05593645,0,1
1585141622192,NaN,0.6510461,0.2133789,-0.83496094,0.4963379,1585141620887,-3500646603939,0.05593645,0,1
1585141622195,NaN,0.67222637,0.21264648,-0.8330078,0.49975586,1585141620967,-3500646603939,0.05593645,0,1
1585141622198,NaN,0.65488786,0.21557617,-0.8239746,0.5012207,1585141621047,-3500646603939,0.05593645,0,1
1585141622202,NaN,0.57740474,0.23339844,-0.8137207,0.5019531,1585141621127,-3500646603939,0.05593645,0,1
1585141622206,NaN,0.4691422,0.23925781,-0.8195801,0.5083008,1585141621207,-3500646603939,0.05593645,0,1
1585141622210,NaN,0.31516096,0.23852539,-0.8215332,0.5109863,1585141621287,-3500646603939,0.05593645,0,1
1585141622213,NaN,0.13574056,0.23852539,-0.82666016,0.50756836,1585141621367,-3500646603939,0.05593645,0,1
1585141622217,NaN,0.012139465,0.23876953,-0.8208008,0.5053711,1585141621447,-3500646603939,0.05593645,0,1
1585141622220,NaN,-0.07406902,0.2529297,-0.8156738,0.5083008,1585141621527,-3500646603939,0.05593645,0,1
1585141622223,31.25,-0.15626228,0.25634766,-0.8156738,0.5131836,1585141621607,-3500646603939,0.05593645,0,1
1585141622226,NaN,-0.2055338,0.2421875,-0.82177734,0.5109863,1585141621687,-3500646603939,0.05593645,0,1
1585141622229,NaN,-0.2636067,0.25048828,-0.8078613,0.5227051,1585141621767,-3500646603939,0.05593645,0,1
1585141622232,NaN,-0.2815459,0.24389648,-0.8173828,0.5161133,1585141621847,-3500646603939,0.05593645,0,1
1585141622235,NaN,-0.2945588,0.2487793,-0.8027344,0.5258789,1585141621927,-3500646603939,0.05593645,0,1
1585141622239,NaN,-0.29433015,0.24951172,-0.81030273,0.53100586,1585141622007,-3500646603939,0.05593645,0,1
1585141622241,NaN,-0.29444093,0.24121094,-0.7973633,0.53930664,1585141622087,-3500646603939,0.05593645,0,1
1585141622245,NaN,-0.28421018,0.23339844,-0.81640625,0.546875,1585141622167,-3500646603939,0.05593645,0,1
1585141622247,NaN,-0.2511231,0.22558594,-0.8144531,0.53759766,1585141622247,-3500646603939,0.05593645,0,1
1585141624709,NaN,-0.20948286,0.2421875,-0.7944336,0.53125,1585141622327,8749707332461,0.05593645,0,1
1585141624714,NaN,-0.19772333,0.2331543,-0.80737305,0.5378418,1585141622407,8749707332461,0.05593645,0,1
1585141624720,NaN,-0.20658726,0.21777344,-0.82055664,0.52612305,1585141622487,8749707332461,0.05593645,0,1
1585141624727,NaN,-0.21572135,0.22509766,-0.8137207,0.5300293,1585141622567,8749707332461,0.05593645,0,1
1585141624731,NaN,-0.22556753,0.22216797,-0.81225586,0.52124023,1585141622647,8749707332461,0.05593645,0,1
1585141624734,NaN,-0.22602884,0.21313477,-0.8166504,0.5292969,1585141622727,8749707332461,0.05593645,0,1
1585141624737,NaN,-0.23534794,0.21142578,-0.8222656,0.52001953,1585141622807,8749707332461,0.05593645,0,1
1585141624741,NaN,-0.2306962,0.19311523,-0.8220215,0.515625,1585141622887,8749707332461,0.05593645,0,1
1585141624747,NaN,-0.22398049,0.19580078,-0.82055664,0.51464844,1585141622967,8749707332461,0.05593645,0,1
1585141624751,NaN,-0.17474449,0.20141602,-0.83032227,0.50561523,1585141623047,8749707332461,0.053877693,0,1
1585141624755,NaN,-0.11758258,0.19946289,-0.826416,0.50024414,1585141623127,8749707332461,0.053877693,0,1
1585141624758,NaN,-0.06485339,0.21264648,-0.82421875,0.5004883,1585141623207,8749707332461,0.053877693,0,1
1585141624762,NaN,-0.014485543,0.21728516,-0.8305664,0.5090332,1585141623287,8749707332461,0.026770996,0,1
1585141624767,NaN,0.034592994,0.21850586,-0.82788086,0.517334,1585141623367,8749707332461,0.026770996,0,1
1585141624772,NaN,0.05143577,0.24438477,-0.8125,0.5366211,1585141623447,8749707332461,0.03575306,0,1
1585141624777,NaN,0.07242039,0.23657227,-0.80566406,0.53149414,1585141623527,8749707332461,0.03575306,0,1
1585141624781,NaN,0.09508643,0.24389648,-0.8156738,0.5197754,1585141623607,8749707332461,0.03575306,0,1
1585141624785,NaN,0.120375685,0.25,-0.8125,0.5187988,1585141623687,8749707332461,0.03575306,0,1
1585141624788,NaN,0.12368793,0.24389648,-0.8105469,0.5305176,1585141623767,8749707332461,0.03575306,0,1
1585141624791,NaN,0.10979443,0.24414062,-0.8015137,0.53564453,1585141623847,8749707332461,0.03575306,0,1
1585141624796,NaN,0.09713956,0.22705078,-0.81152344,0.5324707,1585141623927,8749707332461,0.03575306,0,1
1585141624799,NaN,0.054092035,0.2290039,-0.8166504,0.5275879,1585141624007,8749707332461,0.03575306,0,1
1585141624803,NaN,-0.009899179,0.22509766,-0.8034668,0.5395508,1585141624087,8749707332461,0.03575306,0,1
1585141624807,NaN,-0.068140544,0.23217773,-0.8034668,0.5332031,1585141624167,8749707332461,0.03575306,0,1
1585141624810,22.727272,-0.12686372,0.24145508,-0.8022461,0.53881836,1585141624247,8749707332461,0.03575306,0,1
1585141624813,NaN,-0.18683286,0.2355957,-0.7861328,0.546875,1585141624327,8749707332461,0.03575306,0,1
1585141624816,NaN,-0.19740224,0.22949219,-0.79174805,0.54833984,1585141624407,8749707332461,0.03575306,0,1
1585141624819,NaN,-0.24290305,0.21484375,-0.77563477,0.579834,1585141624487,8749707332461,0.038289625,0,1
1585141624822,NaN,-0.3033481,0.19311523,-0.798584,0.5834961,1585141624567,8749707332461,0.038289625,0,1
1585141624825,NaN,-0.37324014,0.21313477,-0.7849121,0.58203125,1585141624647,8749707332461,0.038289625,0,1
1585141624827,NaN,-0.41306987,0.21484375,-0.77905273,0.5756836,1585141624727,8749707332461,0.038289625,0,1
1585141624830,NaN,-0.42950323,0.2097168,-0.7819824,0.5666504,1585141624807,8749707332461,0.038289625,0,1
1585141627294,NaN,-0.45338047,0.18896484,-0.79956055,0.5734863,1585141624887,2553317195153,0.038289625,0,1
1585141627299,NaN,-0.48078474,0.15332031,-0.79541016,0.5708008,1585141624967,2553317195153,0.038289625,0,1
1585141627306,NaN,-0.46381512,0.19335938,-0.8063965,0.564209,1585141625047,2553317195153,0.042039003,0,1
1585141627311,NaN,-0.45212916,0.19042969,-0.79663086,0.55078125,1585141625127,2553317195153,0.042039003,0,1
1585141627314,NaN,-0.43278018,0.1850586,-0.8034668,0.5505371,1585141625207,2553317195153,0.042039003,0,1
1585141627319,NaN,-0.3907925,0.16308594,-0.810791,0.5517578,1585141625287,2553317195153,0.042039003,0,1
1585141627322,NaN,-0.3559554,0.18359375,-0.80908203,0.532959,1585141625367,2553317195153,0.042039003,0,1
1585141627326,NaN,-0.24570404,0.17553711,-0.81103516,0.5131836,1585141625447,2553317195153,0.042039003,0,1
1585141627330,NaN,-0.1354931,0.18115234,-0.82543945,0.5222168,1585141625527,2553317195153,0.042039003,0,1
1585141627332,NaN,-0.009594247,0.18652344,-0.8376465,0.52075195,1585141625607,2553317195153,0.042039003,0,1
1585141627335,NaN,0.09434124,0.18408203,-0.8269043,0.52612305,1585141625687,2553317195153,0.042039003,0,1
1585141627339,NaN,0.16446485,0.19677734,-0.8178711,0.53686523,1585141625767,2553317195153,0.042039003,0,1
1585141627342,NaN,0.25242144,0.2163086,-0.8261719,0.51953125,1585141625847,2553317195153,0.042039003,0,1
1585141627345,NaN,0.34555516,0.22192383,-0.81762695,0.52246094,1585141625927,2553317195153,0.042039003,0,1
1585141627349,NaN,0.38046896,0.22680664,-0.80493164,0.5419922,1585141626007,2553317195153,0.042039003,0,1
1585141627353,NaN,0.41239786,0.2241211,-0.8083496,0.5422363,1585141626087,2553317195153,0.042039003,0,1
1585141627357,NaN,0.42709136,0.19213867,-0.7998047,0.5456543,1585141626167,2553317195153,0.042039003,0,1
1585141627360,NaN,0.43063524,0.21069336,-0.8144531,0.54907227,1585141626247,2553317195153,0.042039003,0,1
1585141627364,NaN,0.40530428,0.21362305,-0.8010254,0.5432129,1585141626327,2553317195153,0.042039003,0,1
1585141627367,NaN,0.31938937,0.22192383,-0.80249023,0.5461426,1585141626407,2553317195153,0.042039003,0,1
1585141627370,NaN,0.23572338,0.22827148,-0.798584,0.54956055,1585141626487,2553317195153,0.042039003,0,1
1585141627373,NaN,0.12383896,0.21533203,-0.78564453,0.5534668,1585141626567,2553317195153,0.042039003,0,1
1585141627377,NaN,0.028154435,0.19189453,-0.8088379,0.57177734,1585141626647,2553317195153,0.042039003,0,1
1585141627379,NaN,-0.031944167,0.21118164,-0.80371094,0.5617676,1585141626727,2553317195153,0.042039003,0,1
1585141627383,23.4375,-0.11651363,0.21606445,-0.78686523,0.5415039,1585141626807,2553317195153,0.042039003,0,1
1585141627387,NaN,-0.19669509,0.22167969,-0.80249023,0.5595703,1585141626887,2553317195153,0.042039003,0,1
1585141627389,NaN,-0.2314256,0.18847656,-0.79663086,0.55908203,1585141626967,2553317195153,0.042039003,0,1
1585141627392,NaN,-0.2406116,0.19702148,-0.828125,0.5476074,1585141627047,2553317195153,0.042039003,0,1
1585141627395,NaN,-0.24183504,0.2097168,-0.7988281,0.54467773,1585141627127,2553317195153,0.042039003,0,1
1585141627398,NaN,-0.2583769,0.19189453,-0.79345703,0.5476074,1585141627207,2553317195153,0.042039003,0,1
1585141627401,NaN,-0.24231027,0.1862793,-0.814209,0.5397949,1585141627287,2553317195153,0.042039003,0,1
1585141627403,NaN,-0.21842104,0.19458008,-0.7919922,0.53759766,1585141627367,2553317195153,0.042039003,0,1
1585141630073,NaN,-0.16299342,0.19604492,-0.8183594,0.5209961,1585141627447,-3643354417131,0.042039003,0,1
1585141630077,NaN,-0.09638157,0.2043457,-0.81274414,0.5395508,1585141627527,-3643354417131,0.042039003,0,1
1585141630082,NaN,-0.033861723,0.19921875,-0.81591797,0.5444336,1585141627607,-3643354417131,0.03771637,0,1
1585141630087,NaN,-0.0057173646,0.21875,-0.80126953,0.5534668,1585141627687,-3643354417131,0.03771637,0,1
1585141630091,NaN,0.025754401,0.21777344,-0.7939453,0.54907227,1585141627767,-3643354417131,0.03771637,0,1
1585141630094,NaN,0.05858083,0.22485352,-0.7922363,0.5529785,1585141627847,-3643354417131,0.03771637,0,1
1585141630098,NaN,0.07082789,0.21728516,-0.78637695,0.5620117,1585141627927,-3643354417131,0.03771637,0,1
1585141630102,NaN,0.03595723,0.21362305,-0.7915039,0.56811523,1585141628007,-3643354417131,0.03771637,0,1
1585141630105,NaN,0.013121503,0.21923828,-0.78686523,0.5683594,1585141628087,-3643354417131,0.03771637,0,1
1585141630108,NaN,-0.019407958,0.2097168,-0.75927734,0.5859375,1585141628167,-3643354417131,0.03771637,0,1
1585141630112,NaN,-0.047579963,0.21289062,-0.8137207,0.5710449,1585141628247,-3643354417131,0.05653266,0,1
1585141630115,NaN,-0.062233508,0.20092773,-0.79785156,0.5637207,1585141628327,-3643354417131,0.05653266,0,1
1585141630119,NaN,-0.09977185,0.21948242,-0.8071289,0.5307617,1585141628407,-3643354417131,0.05653266,0,1
1585141630123,NaN,-0.11725387,0.23461914,-0.82177734,0.5419922,1585141628487,-3643354417131,0.05653266,0,1
1585141630128,NaN,-0.14772008,0.23828125,-0.79589844,0.5449219,1585141628567,-3643354417131,0.05653266,0,1
1585141630132,NaN,-0.15103777,0.24169922,-0.7961426,0.5493164,1585141628647,-3643354417131,0.05653266,0,1
1585141630136,NaN,-0.1464175,0.23754883,-0.78027344,0.5378418,1585141628727,-3643354417131,0.05653266,0,1
1585141630140,NaN,-0.13942963,0.22387695,-0.7902832,0.5415039,1585141628807,-3643354417131,0.05653266,0,1
1585141630144,NaN,-0.11189467,0.19873047,-0.82299805,0.5527344,1585141628887,-3643354417131,0.05653266,0,1
1585141630147,NaN,-0.063701846,0.20214844,-0.80322266,0.5493164,1585141628967,-3643354417131,0.05653266,0,1
1585141630150,NaN,-0.023668995,0.21044922,-0.8027344,0.55126953,1585141629047,-3643354417131,0.05653266,0,1
1585141630153,NaN,0.053714037,0.2084961,-0.7873535,0.55322266,1585141629127,-3643354417131,0.05653266,0,1
1585141630156,NaN,0.073846765,0.20239258,-0.795166,0.55859375,1585141629207,-3643354417131,0.05653266,0,1
1585141630159,NaN,0.08733052,0.21972656,-0.79052734,0.5644531,1585141629287,-3643354417131,0.05653266,0,1
1585141630163,NaN,0.04641195,0.25610352,-0.7602539,0.5800781,1585141629367,-3643354417131,0.05653266,0,1
1585141630165,NaN,-0.0039678514,0.2607422,-0.7687988,0.5776367,1585141629447,-3643354417131,0.05653266,0,1
1585141630169,NaN,-0.0058161556,0.2541504,-0.79467773,0.5600586,1585141629527,-3643354417131,0.05653266,0,1
1585141630172,NaN,-0.0011017956,0.22241211,-0.8063965,0.54467773,1585141629607,-3643354417131,0.05653266,0,1
1585141630174,NaN,-0.0030830046,0.15600586,-0.8000488,0.54467773,1585141629687,-3643354417131,0.06670894,0,1
1585141630177,NaN,-0.0121796345,0.22851562,-0.8071289,0.5563965,1585141629767,-3643354417131,0.07379107,0,1
1585141630181,NaN,-0.050596774,0.23339844,-0.8029785,0.56347656,1585141629847,-3643354417131,0.07379107,0,1
1585141630183,NaN,-0.08398858,0.20532227,-0.7939453,0.5661621,1585141629927,-3643354417131,0.07379107,0,1
1585141632458,NaN,-0.10499827,0.22607422,-0.7980957,0.5515137,1585141630007,8606999519269,0.07379107,0,1
1585141632466,NaN,-0.13984127,0.21386719,-0.7961426,0.55859375,1585141630087,8606999519269,0.07379107,0,1
1585141632471,NaN,-0.13751785,0.18920898,-0.79589844,0.5578613,1585141630167,8606999519269,0.07379107,0,1
1585141632476,NaN,-0.12571312,0.18603516,-0.7963867,0.5566406,1585141630247,8606999519269,0.07379107,0,1
1585141632481,NaN,-0.031445533,0.1821289,-0.8063965,0.55859375,1585141630327,8606999519269,0.07379107,0,1
1585141632485,NaN,0.047611356,0.17919922,-0.79663086,0.56274414,1585141630407,8606999519269,0.07379107,0,1
1585141632490,NaN,0.073321864,0.19042969,-0.79663086,0.5510254,1585141630487,8606999519269,0.07379107,0,1
1585141632494,NaN,0.065837026,0.1796875,-0.79907227,0.55126953,1585141630567,8606999519269,0.07379107,0,1
1585141632499,NaN,0.0554556,0.17822266,-0.8063965,0.5578613,1585141630647,8606999519269,0.07379107,0,1
1585141632504,NaN,0.058641,0.20996094,-0.8022461,0.55737305,1585141630727,8606999519269,0.07379107,0,1
1585141632507,NaN,0.08713615,0.21362305,-0.7937012,0.5439453,1585141630807,8606999519269,0.07379107,0,1
1585141632512,NaN,0.10483805,0.20532227,-0.7963867,0.5654297,1585141630887,8606999519269,0.07379107,0,1
1585141632516,NaN,0.09319556,0.19580078,-0.79052734,0.5786133,1585141630967,8606999519269,0.07379107,0,1
1585141632520,NaN,0.08915198,0.17749023,-0.79003906,0.5720215,1585141631047,8606999519269,0.07379107,0,1
1585141632524,NaN,0.049045626,0.20874023,-0.76904297,0.5905762,1585141631127,8606999519269,0.07379107,0,1
1585141632529,NaN,-0.018601604,0.2006836,-0.7609863,0.6140137,1585141631207,8606999519269,0.07379107,0,1
1585141632532,NaN,-0.08795283,0.20532227,-0.782959,0.57421875,1585141631287,8606999519269,0.07379107,0,1
1585141632535,NaN,-0.13095789,0.20532227,-0.798584,0.5710449,1585141631367,8606999519269,0.07379107,0,1
1585141632537,NaN,-0.17067759,0.20507812,-0.78222656,0.5715332,1585141631447,8606999519269,0.07379107,0,1
1585141632540,NaN,-0.20330977,0.2019043,-0.78149414,0.5822754,1585141631527,8606999519269,0.07379107,0,1
1585141632543,NaN,-0.22817238,0.19702148,-0.7734375,0.5786133,1585141631607,8606999519269,0.07379107,0,1
1585141632547,NaN,-0.23992193,0.203125,-0.79785156,0.57470703,1585141631687,8606999519269,0.07379107,0,1
1585141632557,NaN,-0.2555991,0.21313477,-0.8017578,0.55737305,1585141631767,8606999519269,0.07379107,0,1
1585141632558,NaN,-0.2342599,0.19824219,-0.8120117,0.5437012,1585141631847,8606999519269,0.07379107,0,1
1585141632559,NaN,-0.21999867,0.25097656,-0.7751465,0.5422363,1585141631927,8606999519269,0.07379107,0,1
1585141632563,NaN,-0.21630812,0.23461914,-0.79248047,0.55126953,1585141632007,8606999519269,0.07379107,0,1
1585141632563,NaN,-0.19603305,0.25390625,-0.75439453,0.58984375,1585141632087,8606999519269,0.07379107,0,1
1585141632565,NaN,-0.11224411,0.25927734,-0.7927246,0.576416,1585141632167,8606999519269,0.07379107,0,1
1585141632567,NaN,-0.09787795,0.26367188,-0.7609863,0.55371094,1585141632247,8606999519269,0.07379107,0,1
1585141632571,NaN,-0.10523967,0.25195312,-0.7751465,0.56103516,1585141632327,8606999519269,0.064359196,0,1
1585141632575,NaN,-0.07505882,0.2211914,-0.81103516,0.57836914,1585141632407,8606999519269,0.064359196,0,1
1585141632578,NaN,-0.026461266,0.22192383,-0.7932129,0.5595703,1585141632487,8606999519269,0.064359196,0,1
1585141634844,NaN,-0.0026119326,0.2319336,-0.76904297,0.5776367,1585141632567,2410609381960,0.064359196,0,1
1585141634850,NaN,-0.013315079,0.23706055,-0.7729492,0.57373047,1585141632647,2410609381960,0.064359196,0,1
1585141634855,NaN,-0.010776089,0.19213867,-0.80322266,0.5703125,1585141632727,2410609381960,0.064359196,0,1
1585141634861,NaN,-0.030960584,0.1586914,-0.81030273,0.5554199,1585141632807,2410609381960,0.064359196,0,1
1585141634867,NaN,-0.0013793235,0.16333008,-0.8010254,0.55908203,1585141632887,2410609381960,0.064359196,0,1
1585141634872,NaN,-0.0019964632,0.18261719,-0.7897949,0.57373047,1585141632967,2410609381960,0.064359196,0,1
1585141634878,26.785715,0.07925318,0.16699219,-0.79296875,0.55908203,1585141633047,2410609381960,0.064359196,0,1
1585141634885,NaN,0.09764566,0.1977539,-0.80566406,0.5422363,1585141633127,2410609381960,0.064359196,0,1
1585141634886,NaN,0.1647969,0.2084961,-0.7956543,0.51831055,1585141633207,2410609381960,0.064359196,0,1
1585141634889,NaN,0.23013993,0.20605469,-0.8076172,0.53100586,1585141633287,2410609381960,0.064359196,0,1
1585141634892,NaN,0.26354134,0.19482422,-0.82958984,0.54052734,1585141633367,2410609381960,0.064359196,0,1
1585141634895,NaN,0.28666148,0.1784668,-0.8156738,0.5366211,1585141633447,2410609381960,0.064359196,0,1
1585141634899,NaN,0.34704232,0.20092773,-0.8132324,0.54711914,1585141633527,2410609381960,0.064359196,0,1
1585141634901,NaN,0.4079634,0.1940918,-0.8054199,0.5563965,1585141633607,2410609381960,0.064359196,0,1
1585141634904,NaN,0.41941798,0.2097168,-0.8078613,0.54907227,1585141633687,2410609381960,0.064359196,0,1
1585141634907,NaN,0.39126053,0.22680664,-0.79418945,0.5498047,1585141633767,2410609381960,0.064359196,0,1
1585141634910,NaN,0.35773686,0.21191406,-0.79296875,0.53564453,1585141633847,2410609381960,0.064359196,0,1
1585141634913,NaN,0.41477668,0.16796875,-0.8466797,0.53393555,1585141633927,2410609381960,0.06941885,0,1
1585141634917,NaN,0.3841422,0.2355957,-0.8378906,0.5109863,1585141634007,2410609381960,0.07195359,0,1
1585141634920,NaN,0.3956834,0.2607422,-0.86572266,0.4736328,1585141634087,2410609381960,0.07195359,0,1
1585141634924,NaN,0.4566783,0.2919922,-0.91381836,0.39697266,1585141634167,2410609381960,0.09574204,0,1
1585141634929,NaN,0.546536,0.23120117,-0.8183594,0.3232422,1585141634247,2410609381960,0.13507089,0,1
1585141634931,NaN,0.64462954,0.25830078,-0.8208008,0.31640625,1585141634327,2410609381960,0.13507089,0,1
1585141634934,NaN,0.76017565,0.30297852,-0.9030762,0.3479004,1585141634407,2410609381960,0.13507089,0,1
1585141634937,NaN,0.88558537,0.32714844,-0.97143555,0.37646484,1585141634487,2410609381960,0.13507089,0,1
1585141634941,NaN,1.0262402,0.19604492,-0.9104004,0.36621094,1585141634567,2410609381960,0.14497781,0,1
1585141634944,NaN,1.1585708,0.114746094,-0.8474121,0.39111328,1585141634647,2410609381960,0.14497781,0,1
1585141634947,NaN,1.3909506,0.06713867,-0.9265137,0.3708496,1585141634727,2410609381960,0.14497781,0,1
1585141634950,NaN,1.5784165,0.036132812,-0.9626465,0.41870117,1585141634807,2410609381960,0.14497781,0,1
1585141634953,NaN,1.6165816,0.059814453,-0.8601074,0.44189453,1585141634887,2410609381960,0.14497781,0,1
1585141634955,NaN,1.6786832,0.06689453,-0.8847656,0.46166992,1585141634967,2410609381960,0.14497781,0,1
1585141634959,NaN,1.6812674,0.056640625,-0.8762207,0.47851562,1585141635047,2410609381960,0.14497781,0,1
1585141637430,NaN,1.5378455,0.083984375,-0.8679199,0.48754883,1585141635127,-3786062230324,0.14497781,0,1
1585141637437,NaN,1.3310509,0.107177734,-0.8522949,0.4790039,1585141635207,-3786062230324,0.14497781,0,1
1585141637445,NaN,1.1170657,0.11669922,-0.8535156,0.4819336,1585141635287,-3786062230324,0.14497781,0,1
1585141637451,NaN,0.8988443,0.16674805,-0.8774414,0.4621582,1585141635367,-3786062230324,0.14497781,0,1
1585141637457,NaN,0.83666253,0.09057617,-0.94750977,0.28442383,1585141635447,-3786062230324,0.20567265,0,1
1585141637462,NaN,0.7121243,0.17285156,-0.89575195,0.28881836,1585141635527,-3786062230324,0.20567265,0,1
1585141637468,NaN,0.7362825,0.19726562,-0.9909668,0.21044922,1585141635607,-3786062230324,0.20567265,0,1
1585141637472,NaN,0.6557869,0.19921875,-0.9572754,0.18286133,1585141635687,-3786062230324,0.20567265,0,1
1585141637475,NaN,0.6385134,0.2631836,-0.9223633,0.140625,1585141635767,-3786062230324,0.20567265,0,1
1585141637478,NaN,0.77189714,0.25146484,-0.9472656,0.1586914,1585141635847,-3786062230324,0.20567265,0,1
1585141637482,NaN,0.9364529,0.34326172,-0.9782715,0.14770508,1585141635927,-3786062230324,0.20567265,0,1
1585141637488,NaN,1.1684208,0.3244629,-0.93847656,0.12841797,1585141636007,-3786062230324,0.20567265,0,1
1585141637492,NaN,1.5079869,0.29907227,-0.9326172,0.12133789,1585141636087,-3786062230324,0.20567265,0,1
1585141637497,NaN,1.8628422,0.27783203,-0.9277344,0.15014648,1585141636167,-3786062230324,0.20567265,0,1
1585141637501,NaN,2.236336,0.33789062,-0.9875488,0.1538086,1585141636247,-3786062230324,0.20567265,0,1
1585141637504,NaN,2.580972,0.3022461,-0.9230957,0.13330078,1585141636327,-3786062230324,0.20567265,0,1
1585141637508,NaN,2.6025136,0.30395508,-0.94873047,0.13208008,1585141636407,-3786062230324,0.20567265,0,1
1585141637511,NaN,2.668312,0.29614258,-0.9189453,0.15112305,1585141636487,-3786062230324,0.20567265,0,1
1585141637515,NaN,2.522971,0.2758789,-0.9020996,0.17822266,1585141636567,-3786062230324,0.20567265,0,1
1585141637519,NaN,2.4018667,0.2631836,-1.0339355,0.19165039,1585141636647,-3786062230324,0.20567265,0,1
1585141637525,NaN,2.2338688,0.37280273,-0.90185547,0.14868164,1585141636727,-3786062230324,0.20567265,0,1
1585141637529,NaN,2.020675,0.27856445,-0.94091797,0.1418457,1585141636807,-3786062230324,0.20567265,0,1
1585141637532,NaN,1.7014136,0.29052734,-0.9206543,0.20947266,1585141636887,-3786062230324,0.20567265,0,1
1585141637536,NaN,1.3381578,0.30395508,-0.96899414,0.21948242,1585141636967,-3786062230324,0.20567265,0,1
1585141637539,NaN,0.958047,0.29711914,-0.9301758,0.20483398,1585141637047,-3786062230324,0.20567265,0,1
1585141637542,NaN,0.5959804,0.18969727,-0.8937988,0.22949219,1585141637127,-3786062230324,0.20567265,0,1
1585141637545,NaN,0.23245215,0.28320312,-0.9160156,0.2175293,1585141637207,-3786062230324,0.20567265,0,1
1585141637548,NaN,-0.16751082,0.28295898,-1.0136719,0.2932129,1585141637287,-3786062230324,0.20567265,0,1
1585141637551,NaN,-0.44194558,0.2163086,-0.90527344,0.2861328,1585141637367,-3786062230324,0.20567265,0,1
1585141637553,NaN,-0.62435156,0.20385742,-0.9189453,0.2133789,1585141637447,-3786062230324,0.20567265,0,1
1585141637556,NaN,-0.71224326,0.19848633,-0.95043945,0.25756836,1585141637527,-3786062230324,0.20567265,0,1
1585141637559,NaN,-0.7836749,0.1953125,-0.93408203,0.2434082,1585141637607,-3786062230324,0.20567265,0,1
1585141640011,NaN,-0.8812103,0.18359375,-0.96362305,0.2475586,1585141637687,8464291706076,0.20567265,0,1
1585141640081,NaN,-1.0081501,0.21313477,-0.9313965,0.26635742,1585141637767,8464291706076,0.20567265,0,1
1585141640085,NaN,-1.023583,0.24194336,-0.92944336,0.29589844,1585141637847,8464291706076,0.20567265,0,1
1585141640090,NaN,-1.0345232,0.25512695,-0.9304199,0.30517578,1585141637927,8464291706076,0.20567265,0,1
1585141640096,NaN,-1.0701984,0.30078125,-0.8815918,0.32470703,1585141638007,8464291706076,0.17694014,0,1
1585141640102,NaN,-1.0802833,0.30371094,-0.8676758,0.35424805,1585141638087,8464291706076,0.17694014,0,1
1585141640106,NaN,-1.137253,0.36254883,-0.84375,0.36914062,1585141638167,8464291706076,0.17694014,0,1
1585141640111,NaN,-1.1259309,0.37841797,-0.82714844,0.39648438,1585141638247,8464291706076,0.17694014,0,1
1585141640114,NaN,-1.0691885,0.38330078,-0.85302734,0.40307617,1585141638327,8464291706076,0.17694014,0,1
1585141640117,NaN,-1.1658499,0.37939453,-0.82421875,0.40966797,1585141638407,8464291706076,0.17694014,0,1
1585141640121,NaN,-1.2403952,0.3400879,-0.8408203,0.4206543,1585141638487,8464291706076,0.17694014,0,1
1585141640124,NaN,-1.349749,0.32788086,-0.83325195,0.4494629,1585141638567,8464291706076,0.17694014,0,1
1585141640129,NaN,-1.4263492,0.3059082,-0.8371582,0.44213867,1585141638647,8464291706076,0.17694014,0,1
1585141640132,NaN,-1.4714564,0.30444336,-0.8364258,0.44335938,1585141638727,8464291706076,0.17694014,0,1
1585141640137,NaN,-1.5366338,0.29833984,-0.8330078,0.44702148,1585141638807,8464291706076,0.17694014,0,1
1585141640141,NaN,-1.594999,0.29370117,-0.83496094,0.45532227,1585141638887,8464291706076,0.17694014,0,1
1585141640144,NaN,-1.626101,0.30981445,-0.8239746,0.47973633,1585141638967,8464291706076,0.17694014,0,1
1585141640148,NaN,-1.6415011,0.3010254,-0.82055664,0.46875,1585141639047,8464291706076,0.17694014,0,1
1585141640151,NaN,-1.6134926,0.31445312,-0.8186035,0.4794922,1585141639127,8464291706076,0.17694014,0,1
1585141640155,NaN,-1.5742482,0.30322266,-0.82055664,0.47753906,1585141639207,8464291706076,0.17694014,0,1
1585141640157,NaN,-1.5725778,0.30932617,-0.81347656,0.48413086,1585141639287,8464291706076,0.12744655,0,1
1585141640160,NaN,-1.49298,0.29907227,-0.81396484,0.4987793,1585141639367,8464291706076,0.12744655,0,1
1585141640164,NaN,-1.4259257,0.2927246,-0.81469727,0.5012207,1585141639447,8464291706076,0.12744655,0,1
1585141640167,NaN,-1.3077561,0.28955078,-0.80981445,0.5095215,1585141639527,8464291706076,0.12744655,0,1
1585141640171,NaN,-1.2122573,0.27001953,-0.80322266,0.52905273,1585141639607,8464291706076,0.12744655,0,1
1585141640174,NaN,-1.1349133,0.27197266,-0.80981445,0.5336914,1585141639687,8464291706076,0.12744655,0,1
1585141640178,NaN,-1.0749606,0.2680664,-0.7956543,0.5336914,1585141639767,8464291706076,0.12744655,0,1
1585141640182,NaN,-1.0159978,0.24365234,-0.7939453,0.5385742,1585141639847,8464291706076,0.12744655,0,1
1585141640186,NaN,-0.93693095,0.24243164,-0.80981445,0.5361328,1585141639927,8464291706076,0.075067185,0,1
1585141640189,NaN,-0.9113035,0.23901367,-0.7937012,0.5473633,1585141640007,8464291706076,0.06964173,0,1
1585141640192,NaN,-0.8656334,0.24169922,-0.8059082,0.5251465,1585141640087,8464291706076,0.06964173,0,1
1585141640196,NaN,-0.8472845,0.22631836,-0.81030273,0.52563477,1585141640167,8464291706076,0.06964173,0,1
1585141642597,NaN,-0.8186888,0.22192383,-0.798584,0.52905273,1585141640247,2267901568768,0.06964173,0,1
1585141642604,NaN,-0.77310395,0.22973633,-0.8078613,0.52368164,1585141640327,2267901568768,0.06964173,0,1
1585141642609,NaN,-0.7273803,0.22753906,-0.81640625,0.5253906,1585141640407,2267901568768,0.06964173,0,1
1585141642613,NaN,-0.6910751,0.23535156,-0.81640625,0.5283203,1585141640487,2267901568768,0.06964173,0,1
1585141642617,NaN,-0.62698996,0.23852539,-0.8029785,0.54345703,1585141640567,2267901568768,0.06523902,0,1
1585141642622,NaN,-0.5751491,0.24291992,-0.782959,0.54956055,1585141640647,2267901568768,0.06523902,0,1
1585141642629,NaN,-0.5075563,0.25854492,-0.7976074,0.5510254,1585141640727,2267901568768,0.04406045,0,1
1585141642633,NaN,-0.42911947,0.25170898,-0.7944336,0.5473633,1585141640807,2267901568768,0.04406045,0,1
1585141642636,NaN,-0.39269534,0.23388672,-0.7910156,0.5505371,1585141640887,2267901568768,0.04406045,0,1
1585141642638,NaN,-0.32518375,0.25,-0.7915039,0.5617676,1585141640967,2267901568768,0.04406045,0,1
1585141642642,NaN,-0.30576056,0.23242188,-0.7919922,0.55688477,1585141641047,2267901568768,0.032190476,0,1
1585141642645,NaN,-0.27545384,0.2529297,-0.79125977,0.55200195,1585141641127,2267901568768,0.031247139,0,1
1585141642648,NaN,-0.25348458,0.24731445,-0.77490234,0.56689453,1585141641207,2267901568768,0.031247139,0,1
1585141642652,NaN,-0.2554208,0.21972656,-0.78637695,0.55737305,1585141641287,2267901568768,0.031359483,0,1
1585141642656,NaN,-0.26985052,0.23510742,-0.7897949,0.5732422,1585141641367,2267901568768,0.031359483,0,1
1585141642659,NaN,-0.2823178,0.24243164,-0.7927246,0.564209,1585141641447,2267901568768,0.031359483,0,1
1585141642663,NaN,-0.2875292,0.23413086,-0.79125977,0.56640625,1585141641527,2267901568768,0.031359483,0,1
1585141642667,NaN,-0.26671818,0.2355957,-0.779541,0.55566406,1585141641607,2267901568768,0.031359483,0,1
1585141642671,NaN,-0.27433273,0.23876953,-0.78125,0.5654297,1585141641687,2267901568768,0.031359483,0,1
1585141642674,NaN,-0.27832553,0.23022461,-0.7963867,0.5539551,1585141641767,2267901568768,0.031359483,0,1
1585141642677,NaN,-0.26697096,0.21899414,-0.78686523,0.5551758,1585141641847,2267901568768,0.031359483,0,1
1585141642680,NaN,-0.25880888,0.2133789,-0.80078125,0.55688477,1585141641927,2267901568768,0.031359483,0,1
1585141642682,NaN,-0.23202251,0.19848633,-0.8029785,0.5576172,1585141642007,2267901568768,0.031359483,0,1
1585141642686,NaN,-0.21318467,0.19433594,-0.79467773,0.5390625,1585141642087,2267901568768,0.031359483,0,1
1585141642689,NaN,-0.16136427,0.21044922,-0.79296875,0.5371094,1585141642167,2267901568768,0.031359483,0,1
1585141642692,NaN,-0.10686261,0.20898438,-0.8051758,0.53686523,1585141642247,2267901568768,0.031359483,0,1
1585141642695,NaN,-0.04048491,0.20263672,-0.8078613,0.5410156,1585141642327,2267901568768,0.031359483,0,1
1585141642698,NaN,0.0057414905,0.22021484,-0.8063965,0.54785156,1585141642407,2267901568768,0.031359483,0,1
1585141642702,NaN,0.029017918,0.20703125,-0.79833984,0.560791,1585141642487,2267901568768,0.031359483,0,1
1585141642705,NaN,0.038469862,0.22436523,-0.796875,0.55981445,1585141642567,2267901568768,0.031359483,0,1
1585141642709,NaN,0.06486732,0.23364258,-0.78637695,0.5593262,1585141642647,2267901568768,0.031359483,0,1
1585141642712,NaN,0.06269991,0.22949219,-0.7861328,0.5625,1585141642727,2267901568768,0.031359483,0,1
1585141645181,NaN,0.07080195,0.23901367,-0.7885742,0.5620117,1585141642807,-3928770043516,0.031359483,0,1
1585141645190,NaN,0.05358709,0.23828125,-0.7734375,0.5727539,1585141642887,-3928770043516,0.031359483,0,1
1585141645195,NaN,0.041143965,0.22363281,-0.7800293,0.5727539,1585141642967,-3928770043516,0.031359483,0,1
1585141645201,NaN,0.014932272,0.22070312,-0.7817383,0.5788574,1585141643047,-3928770043516,0.031359483,0,1
1585141645206,NaN,-0.032704018,0.22851562,-0.7780762,0.57177734,1585141643127,-3928770043516,0.031359483,0,1
1585141645211,NaN,-0.08542978,0.22924805,-0.77856445,0.57299805,1585141643207,-3928770043516,0.031359483,0,1
1585141645214,NaN,-0.13202576,0.23291016,-0.7873535,0.57006836,1585141643287,-3928770043516,0.031359483,0,1
1585141645218,NaN,-0.18844305,0.21044922,-0.7766113,0.5895996,1585141643367,-3928770043516,0.03164424,0,1
1585141645221,NaN,-0.21728338,0.21264648,-0.78222656,0.592041,1585141643447,-3928770043516,0.03164424,0,1
1585141645225,NaN,-0.2659196,0.2133789,-0.7648926,0.6040039,1585141643527,-3928770043516,0.03164424,0,1
1585141645228,NaN,-0.30951986,0.20361328,-0.75878906,0.5883789,1585141643607,-3928770043516,0.03164424,0,1
1585141645231,NaN,-0.32830933,0.20214844,-0.7758789,0.59033203,1585141643687,-3928770043516,0.03164424,0,1
1585141645234,NaN,-0.33722344,0.20654297,-0.7897949,0.5656738,1585141643767,-3928770043516,0.03164424,0,1
1585141645238,NaN,-0.30901292,0.1965332,-0.80371094,0.5637207,1585141643847,-3928770043516,0.03164424,0,1
1585141645241,NaN,-0.28870374,0.19677734,-0.7890625,0.5629883,1585141643927,-3928770043516,0.03164424,0,1
1585141645245,NaN,-0.24541372,0.19946289,-0.7973633,0.55981445,1585141644007,-3928770043516,0.03164424,0,1
1585141645249,NaN,-0.21525057,0.18823242,-0.79248047,0.5637207,1585141644087,-3928770043516,0.03164424,0,1
1585141645251,NaN,-0.17085473,0.1899414,-0.78686523,0.5488281,1585141644167,-3928770043516,0.03164424,0,1
1585141645254,NaN,-0.13704684,0.19677734,-0.7980957,0.55029297,1585141644247,-3928770043516,0.03164424,0,1
1585141645257,NaN,-0.058949422,0.19042969,-0.7993164,0.54785156,1585141644327,-3928770043516,0.03164424,0,1
1585141645260,NaN,0.0021754056,0.19824219,-0.80615234,0.5539551,1585141644407,-3928770043516,0.03164424,0,1
1585141645263,30.0,0.10285956,0.20214844,-0.81030273,0.5510254,1585141644487,-3928770043516,0.03164424,0,1
1585141645265,NaN,0.17461418,0.19995117,-0.78686523,0.5566406,1585141644567,-3928770043516,0.03164424,0,1
1585141645268,NaN,0.23420782,0.22094727,-0.79711914,0.5649414,1585141644647,-3928770043516,0.03164424,0,1
1585141645271,NaN,0.23110712,0.21948242,-0.77441406,0.57666016,1585141644727,-3928770043516,0.03164424,0,1
1585141645275,NaN,0.21183483,0.22607422,-0.78515625,0.5722656,1585141644807,-3928770043516,0.03164424,0,1
1585141645278,NaN,0.20285536,0.22265625,-0.7849121,0.5732422,1585141644887,-3928770043516,0.03164424,0,1
1585141645282,NaN,0.16766106,0.21875,-0.7705078,0.5773926,1585141644967,-3928770043516,0.03164424,0,1
1585141645285,NaN,0.15303765,0.21264648,-0.7807617,0.58032227,1585141645047,-3928770043516,0.03164424,0,1
1585141645289,NaN,0.11729914,0.2055664,-0.7861328,0.5883789,1585141645127,-3928770043516,0.03164424,0,1
1585141645293,NaN,0.080558375,0.2133789,-0.76782227,0.5749512,1585141645207,-3928770043516,0.03164424,0,1
1585141645296,NaN,0.020532623,0.21606445,-0.7824707,0.5839844,1585141645287,-3928770043516,0.03164424,0,1
1585141647762,NaN,-0.044301134,0.20898438,-0.77905273,0.5859375,1585141645367,8321583892884,0.03164424,0,1
1585141647770,NaN,-0.14376958,0.21362305,-0.7668457,0.5932617,1585141645447,8321583892884,0.03164424,0,1
1585141647778,NaN,-0.21605575,0.21679688,-0.7675781,0.6064453,1585141645527,8321583892884,0.03164424,0,1
1585141647786,NaN,-0.28722486,0.22070312,-0.7548828,0.59716797,1585141645607,8321583892884,0.03164424,0,1
1585141647789,NaN,-0.28354117,0.2109375,-0.77783203,0.58862305,1585141645687,8321583892884,0.03164424,0,1
1585141647794,NaN,-0.3042511,0.19165039,-0.76708984,0.59277344,1585141645767,8321583892884,0.03164424,0,1
1585141647800,NaN,-0.32362822,0.19555664,-0.77783203,0.5944824,1585141645847,8321583892884,0.03164424,0,1
1585141647805,NaN,-0.31130555,0.19116211,-0.77685547,0.5842285,1585141645927,8321583892884,0.028653,0,1
1585141647810,NaN,-0.31514594,0.19580078,-0.7687988,0.5895996,1585141646007,8321583892884,0.028653,0,1
1585141647814,NaN,-0.29608348,0.19555664,-0.7751465,0.5852051,1585141646087,8321583892884,0.028653,0,1
1585141647817,NaN,-0.27594155,0.19042969,-0.7717285,0.58032227,1585141646167,8321583892884,0.028653,0,1
1585141647820,NaN,-0.2658603,0.19873047,-0.76831055,0.59277344,1585141646247,8321583892884,0.028653,0,1
1585141647824,NaN,-0.2424527,0.20239258,-0.77319336,0.59155273,1585141646327,8321583892884,0.026363796,0,1
1585141647827,NaN,-0.20208412,0.2019043,-0.7692871,0.5998535,1585141646407,8321583892884,0.026363796,0,1
1585141647830,NaN,-0.16836731,0.20288086,-0.76220703,0.607666,1585141646487,8321583892884,0.026363796,0,1
1585141647834,NaN,-0.14161582,0.20141602,-0.75561523,0.61572266,1585141646567,8321583892884,0.026363796,0,1
1585141647837,NaN,-0.15285297,0.20166016,-0.76586914,0.60791016,1585141646647,8321583892884,0.026363796,0,1
1585141647840,NaN,-0.13615893,0.2019043,-0.7570801,0.60546875,1585141646727,8321583892884,0.026363796,0,1
1585141647844,NaN,-0.13117497,0.21289062,-0.7590332,0.609375,1585141646807,8321583892884,0.026363796,0,1
1585141647847,NaN,-0.14431524,0.2097168,-0.7619629,0.60546875,1585141646887,8321583892884,0.026363796,0,1
1585141647850,NaN,-0.14400984,0.21533203,-0.7553711,0.6032715,1585141646967,8321583892884,0.026363796,0,1
1585141647853,NaN,-0.1604541,0.20996094,-0.7626953,0.6088867,1585141647047,8321583892884,0.026363796,0,1
1585141647855,NaN,-0.18265903,0.20605469,-0.7595215,0.6142578,1585141647127,8321583892884,0.026363796,0,1
1585141647859,NaN,-0.19010192,0.2084961,-0.7529297,0.6159668,1585141647207,8321583892884,0.026363796,0,1
1585141647861,NaN,-0.20025457,0.21142578,-0.75878906,0.607666,1585141647287,8321583892884,0.026363796,0,1
1585141647864,NaN,-0.20418574,0.21875,-0.7565918,0.60375977,1585141647367,8321583892884,0.026363796,0,1
1585141647867,NaN,-0.19438584,0.20898438,-0.7644043,0.6022949,1585141647447,8321583892884,0.026363796,0,1
1585141647871,NaN,-0.16342358,0.2084961,-0.7663574,0.5986328,1585141647527,8321583892884,0.026363796,0,1
1585141647873,NaN,-0.12808174,0.20410156,-0.7739258,0.59033203,1585141647607,8321583892884,0.026363796,0,1
1585141647878,NaN,-0.09455026,0.2121582,-0.7714844,0.5852051,1585141647687,8321583892884,0.026363796,0,1
1585141647880,NaN,-0.05463952,0.20507812,-0.7685547,0.58447266,1585141647767,8321583892884,0.026363796,0,1
1585141647883,NaN,-0.012261006,0.21484375,-0.76586914,0.57543945,1585141647847,8321583892884,0.026363796,0,1
1585141650347,NaN,0.03334712,0.21582031,-0.7766113,0.57299805,1585141647927,2125193755576,0.026363796,0,1
1585141650353,17.045454,0.081236914,0.2121582,-0.77734375,0.57958984,1585141648007,2125193755576,0.026363796,0,1
1585141650361,NaN,0.1382324,0.20922852,-0.78271484,0.5878906,1585141648087,2125193755576,0.026363796,0,1
1585141650369,NaN,0.1880645,0.21850586,-0.7697754,0.5866699,1585141648167,2125193755576,0.026363796,0,1
1585141650373,NaN,0.21778768,0.21850586,-0.7680664,0.5957031,1585141648247,2125193755576,0.022463592,0,1
1585141650377,NaN,0.234412,0.22216797,-0.76464844,0.59765625,1585141648327,2125193755576,0.015968366,0,1
1585141650382,NaN,0.23406589,0.22070312,-0.76538086,0.59521484,1585141648407,2125193755576,0.015968366,0,1
1585141650386,NaN,0.22437654,0.23168945,-0.77001953,0.5891113,1585141648487,2125193755576,0.015968366,0,1
1585141650390,NaN,0.20371592,0.22949219,-0.7705078,0.5942383,1585141648567,2125193755576,0.015968366,0,1
1585141650394,NaN,0.18165042,0.22387695,-0.7717285,0.58740234,1585141648647,2125193755576,0.015968366,0,1
1585141650398,NaN,0.16673486,0.2163086,-0.77124023,0.57714844,1585141648727,2125193755576,0.015968366,0,1
1585141650402,NaN,0.12415055,0.2084961,-0.77246094,0.6113281,1585141648807,2125193755576,0.035082422,0,1
1585141650406,NaN,0.060522944,0.18896484,-0.7583008,0.6057129,1585141648887,2125193755576,0.035082422,0,1
1585141650410,NaN,-0.015102769,0.18408203,-0.75097656,0.6296387,1585141648967,2125193755576,0.035082422,0,1
1585141650412,NaN,-0.07503206,0.15234375,-0.7644043,0.611084,1585141649047,2125193755576,0.03913948,0,1
1585141650416,NaN,-0.106682785,0.14794922,-0.78637695,0.5942383,1585141649127,2125193755576,0.03913948,0,1
1585141650419,NaN,-0.09047196,0.13354492,-0.8022461,0.56689453,1585141649207,2125193755576,0.03913948,0,1
1585141650422,NaN,-0.05595232,0.12841797,-0.8183594,0.564209,1585141649287,2125193755576,0.03913948,0,1
1585141650426,NaN,-0.018949406,0.12426758,-0.8022461,0.5554199,1585141649367,2125193755576,0.03913948,0,1
1585141650429,NaN,0.025289148,0.13916016,-0.81933594,0.54956055,1585141649447,2125193755576,0.03913948,0,1
1585141650433,39.473682,0.067497455,0.14208984,-0.7949219,0.5617676,1585141649527,2125193755576,0.03913948,0,1
1585141650436,NaN,0.097620934,0.15698242,-0.79003906,0.5654297,1585141649607,2125193755576,0.03913948,0,1
1585141650439,NaN,0.11600408,0.12915039,-0.796875,0.5732422,1585141649687,2125193755576,0.03913948,0,1
1585141650441,NaN,0.25140896,0.18041992,-0.83496094,0.4909668,1585141649767,2125193755576,0.104155384,0,1
1585141650445,NaN,0.5398276,0.12939453,-0.94555664,0.37304688,1585141649847,2125193755576,0.16952908,0,1
1585141650447,NaN,0.8627848,0.19799805,-0.8791504,0.31445312,1585141649927,2125193755576,0.16952908,0,1
1585141650450,NaN,1.2156881,0.22265625,-0.98291016,0.28051758,1585141650007,2125193755576,0.16952908,0,1
1585141650453,NaN,1.5031694,0.24291992,-0.9172363,0.26342773,1585141650087,2125193755576,0.16952908,0,1
1585141650456,NaN,1.7067925,0.27148438,-0.87646484,0.27392578,1585141650167,2125193755576,0.16952908,0,1
1585141650459,NaN,1.9170331,0.29760742,-0.8952637,0.24975586,1585141650247,2125193755576,0.16952908,0,1
1585141650462,NaN,2.1556323,0.28295898,-0.9765625,0.2590332,1585141650327,2125193755576,0.16952908,0,1
1585141650465,NaN,2.3665357,0.34057617,-0.90600586,0.23608398,1585141650407,2125193755576,0.16952908,0,1
1585141652932,NaN,2.637615,0.2998047,-0.9082031,0.20629883,1585141650487,-4071477856708,0.16952908,0,1
1585141652938,NaN,2.8928845,0.3076172,-0.9177246,0.24780273,1585141650567,-4071477856708,0.16952908,0,1
1585141652944,NaN,3.1607158,0.32788086,-0.9213867,0.24267578,1585141650647,-4071477856708,0.16952908,0,1
1585141652950,NaN,3.2486026,0.3017578,-0.93188477,0.26489258,1585141650727,-4071477856708,0.16952908,0,1
1585141652954,NaN,3.0890703,0.30200195,-0.9160156,0.24511719,1585141650807,-4071477856708,0.16952908,0,1
1585141652958,NaN,2.8635662,0.2770996,-0.89208984,0.25830078,1585141650887,-4071477856708,0.16952908,0,1
1585141652963,NaN,2.5146534,0.23583984,-0.89941406,0.29125977,1585141650967,-4071477856708,0.16952908,0,1
1585141652968,NaN,2.2226207,0.30249023,-0.9875488,0.2944336,1585141651047,-4071477856708,0.16952908,0,1
1585141652973,NaN,2.01918,0.32788086,-0.9013672,0.24536133,1585141651127,-4071477856708,0.16952908,0,1
1585141652979,NaN,1.7879896,0.2824707,-0.9016113,0.22436523,1585141651207,-4071477856708,0.16952908,0,1
1585141652982,NaN,1.4873232,0.25878906,-0.9250488,0.27075195,1585141651287,-4071477856708,0.16952908,0,1
1585141652986,NaN,1.2022692,0.34472656,-0.9267578,0.27026367,1585141651367,-4071477856708,0.16952908,0,1
1585141652989,NaN,0.82570285,0.13354492,-0.9345703,0.29248047,1585141651447,-4071477856708,0.21249072,0,1
1585141652992,NaN,0.4837927,0.17553711,-0.87231445,0.3005371,1585141651527,-4071477856708,0.21249072,0,1
1585141652995,NaN,0.16732363,0.30151367,-0.9733887,0.2849121,1585141651607,-4071477856708,0.21249072,0,1
1585141652997,NaN,-0.024283128,0.35717773,-0.9301758,0.25512695,1585141651687,-4071477856708,0.21249072,0,1
1585141653001,NaN,-0.13613965,0.2866211,-0.93725586,0.26953125,1585141651767,-4071477856708,0.21249072,0,1
1585141653005,NaN,-0.1813547,0.2590332,-0.8479004,0.2409668,1585141651847,-4071477856708,0.21249072,0,1
1585141653008,NaN,-0.17310338,0.13769531,-0.95996094,0.32226562,1585141651927,-4071477856708,0.21249072,0,1
1585141653011,NaN,-0.18777068,0.2746582,-0.93603516,0.30786133,1585141652007,-4071477856708,0.21249072,0,1
1585141653014,NaN,-0.22253318,0.35595703,-0.9440918,0.26733398,1585141652087,-4071477856708,0.21249072,0,1
1585141653017,NaN,-0.24197386,0.29614258,-0.9128418,0.22607422,1585141652167,-4071477856708,0.21249072,0,1
1585141653020,NaN,-0.24684823,0.21508789,-0.90600586,0.2932129,1585141652247,-4071477856708,0.21249072,0,1
1585141653024,NaN,-0.29222754,0.18017578,-0.9267578,0.33422852,1585141652327,-4071477856708,0.21249072,0,1
1585141653028,NaN,-0.26590598,0.2397461,-0.93969727,0.35961914,1585141652407,-4071477856708,0.21249072,0,1
1585141653030,NaN,-0.2617751,0.27441406,-0.8496094,0.37304688,1585141652487,-4071477856708,0.21249072,0,1
1585141653033,NaN,-0.35704148,0.27685547,-0.88061523,0.40551758,1585141652567,-4071477856708,0.21249072,0,1
1585141653036,NaN,-0.52846044,0.32666016,-0.8354492,0.42578125,1585141652647,-4071477856708,0.21249072,0,1
1585141653041,NaN,-0.6495189,0.32202148,-0.8391113,0.41552734,1585141652727,-4071477856708,0.21249072,0,1
1585141653044,NaN,-0.79555315,0.3071289,-0.84033203,0.42651367,1585141652807,-4071477856708,0.21249072,0,1
1585141653047,NaN,-0.8922401,0.3125,-0.8273926,0.43945312,1585141652887,-4071477856708,0.21249072,0,1
1585141653050,NaN,-1.0154859,0.3017578,-0.8234863,0.4572754,1585141652967,-4071477856708,0.21249072,0,1
1585141655516,NaN,-1.2142233,0.27539062,-0.8312988,0.47924805,1585141653047,8178876079692,0.21249072,0,1
1585141655522,NaN,-1.4961414,0.24194336,-0.80029297,0.5371094,1585141653127,8178876079692,0.21249072,0,1
1585141655527,NaN,-1.7130227,0.25170898,-0.7883301,0.5644531,1585141653207,8178876079692,0.21249072,0,1
1585141655532,NaN,-1.8582296,0.23339844,-0.7993164,0.5644531,1585141653287,8178876079692,0.21249072,0,1
1585141655537,NaN,-2.0534465,0.22851562,-0.76831055,0.59106445,1585141653367,8178876079692,0.21249072,0,1
1585141655541,NaN,-2.2023408,0.18725586,-0.7697754,0.5949707,1585141653447,8178876079692,0.21249072,0,1
1585141655545,NaN,-2.2650678,0.17871094,-0.77612305,0.58251953,1585141653527,8178876079692,0.21249072,0,1
1585141655549,NaN,-2.297269,0.17651367,-0.7548828,0.6213379,1585141653607,8178876079692,0.21249072,0,1
1585141655554,NaN,-2.3829129,0.2006836,-0.7277832,0.63842773,1585141653687,8178876079692,0.21249072,0,1
1585141655558,NaN,-2.4450748,0.19384766,-0.7314453,0.6269531,1585141653767,8178876079692,0.21249072,0,1
1585141655562,NaN,-2.5129182,0.20483398,-0.748291,0.62890625,1585141653847,8178876079692,0.21249072,0,1
1585141655566,NaN,-2.5371666,0.21655273,-0.7331543,0.6274414,1585141653927,8178876079692,0.21249072,0,1
1585141655567,NaN,-2.479466,0.25097656,-0.7355957,0.625,1585141654007,8178876079692,0.18409222,0,1
1585141655571,NaN,-2.2837503,0.23657227,-0.7404785,0.6188965,1585141654087,8178876079692,0.18409222,0,1
1585141655574,NaN,-2.1016784,0.22387695,-0.7402344,0.6130371,1585141654167,8178876079692,0.18409222,0,1
1585141655579,NaN,-1.9478508,0.22241211,-0.7495117,0.6147461,1585141654247,8178876079692,0.18409222,0,1
1585141655583,NaN,-1.7490827,0.20239258,-0.75390625,0.6315918,1585141654327,8178876079692,0.18409222,0,1
1585141655588,NaN,-1.5828366,0.18847656,-0.73828125,0.62719727,1585141654407,8178876079692,0.18409222,0,1
1585141655592,NaN,-1.4540626,0.19750977,-0.74316406,0.64404297,1585141654487,8178876079692,0.13978112,0,1
1585141655596,NaN,-1.2612716,0.18603516,-0.74780273,0.6188965,1585141654567,8178876079692,0.10547129,0,1
1585141655600,NaN,-1.0421834,0.18237305,-0.734375,0.6435547,1585141654647,8178876079692,0.10547129,0,1
1585141655604,NaN,-0.8300705,0.1940918,-0.74853516,0.6291504,1585141654727,8178876079692,0.10547129,0,1
1585141655608,NaN,-0.6440899,0.18286133,-0.75024414,0.61987305,1585141654807,8178876079692,0.097457685,0,1
1585141655610,NaN,-0.44794,0.18798828,-0.7590332,0.6010742,1585141654887,8178876079692,0.097457685,0,1
1585141655614,NaN,-0.29518,0.18530273,-0.7529297,0.61206055,1585141654967,8178876079692,0.097457685,0,1
1585141655616,NaN,-0.21470071,0.18139648,-0.7529297,0.6191406,1585141655047,8178876079692,0.07367507,0,1
1585141655620,NaN,-0.14227553,0.18383789,-0.7680664,0.60498047,1585141655127,8178876079692,0.07367507,0,1
1585141655623,NaN,-0.097735114,0.17919922,-0.74658203,0.62353516,1585141655207,8178876079692,0.07367507,0,1
1585141655626,NaN,-0.04711352,0.18774414,-0.76049805,0.61376953,1585141655287,8178876079692,0.07367507,0,1
1585141655628,NaN,0.0033773668,0.19116211,-0.75219727,0.61694336,1585141655367,8178876079692,0.07367507,0,1
1585141655632,NaN,0.070760064,0.1875,-0.751709,0.6257324,1585141655447,8178876079692,0.07367507,0,1
1585141655635,NaN,0.08413088,0.20239258,-0.7570801,0.61035156,1585141655527,8178876079692,0.07367507,0,1
1585141657902,NaN,0.11013085,0.19091797,-0.74975586,0.6230469,1585141655607,1982485942383,0.07367507,0,1
1585141657908,NaN,0.12092761,0.21240234,-0.75512695,0.61206055,1585141655687,1982485942383,0.044303957,0,1
1585141657911,NaN,0.119998135,0.18896484,-0.75,0.61865234,1585141655767,1982485942383,0.044303957,0,1
1585141657919,NaN,0.088657804,0.19262695,-0.7583008,0.6118164,1585141655847,1982485942383,0.044303957,0,1
