local_ts,breathing_rate,breathing_signal,accel_x,accel_y,accel_z,bs_timestamp,rs_ts,activity_level,current_exercise,pred_exercise
1584207836466,32.608696,-0.18681566,0.17089844,-0.951416,0.26220703,1584207833730,4064766308883,0.045782715,0,1
1584207836468,NaN,-0.3099884,0.20141602,-0.9519043,0.2368164,1584207833810,4064766308883,0.045782715,0,1
1584207836480,NaN,-0.44138333,0.18457031,-0.96240234,0.23071289,1584207833890,4064766308883,0.045782715,0,1
1584207836482,NaN,-0.55205554,0.19995117,-0.9453125,0.20776367,1584207833970,4064766308883,0.045782715,0,1
1584207836507,NaN,-0.62939346,0.1940918,-0.95532227,0.21142578,1584207834050,4064766308883,0.045782715,0,1
1584207836511,NaN,-0.6566379,0.19580078,-0.9555664,0.22265625,1584207834130,4064766308883,0.045782715,0,1
1584207836512,NaN,-0.60236543,0.1887207,-0.95751953,0.21826172,1584207834210,4064766308883,0.045782715,0,1
1584207836514,NaN,-0.4807115,0.20385742,-0.9453125,0.22167969,1584207834290,4064766308883,0.045782715,0,1
1584207836515,NaN,-0.2917596,0.21166992,-0.951416,0.19995117,1584207834370,4064766308883,0.045782715,0,1
1584207836536,NaN,-0.092505515,0.2084961,-0.95581055,0.20483398,1584207834450,4064766308883,0.045782715,0,1
1584207836537,NaN,0.12666063,0.19824219,-0.95751953,0.19995117,1584207834530,4064766308883,0.045782715,0,1
1584207836538,NaN,0.3065318,0.20141602,-0.9526367,0.20214844,1584207834610,4064766308883,0.045782715,0,1
1584207836540,NaN,0.4294732,0.20214844,-0.9572754,0.20117188,1584207834690,4064766308883,0.045782715,0,1
1584207836541,NaN,0.4989678,0.2043457,-0.95996094,0.20166016,1584207834770,4064766308883,0.045782715,0,1
1584207836544,NaN,0.56777006,0.19873047,-0.9536133,0.19262695,1584207834850,4064766308883,0.045782715,0,1
1584207836545,NaN,0.61128145,0.21118164,-0.9577637,0.18432617,1584207834930,4064766308883,0.045782715,0,1
1584207836546,NaN,0.62880534,0.19189453,-0.95751953,0.20239258,1584207835010,4064766308883,0.045782715,0,1
1584207836548,NaN,0.6266511,0.1965332,-0.9609375,0.22875977,1584207835090,4064766308883,0.045782715,0,1
1584207836552,NaN,0.5774654,0.20019531,-0.94189453,0.24243164,1584207835170,4064766308883,0.045782715,0,1
1584207836554,NaN,0.47448155,0.17919922,-0.94189453,0.26708984,1584207835250,4064766308883,0.045782715,0,1
1584207836556,NaN,0.30271265,0.1694336,-0.94799805,0.28125,1584207835330,4064766308883,0.045782715,0,1
1584207836560,NaN,0.123183765,0.1586914,-0.9309082,0.28393555,1584207835410,4064766308883,0.045782715,0,1
1584207836564,NaN,-0.058999058,0.16552734,-0.93188477,0.28295898,1584207835490,4064766308883,0.045782715,0,1
1584207836567,32.608696,-0.21493925,0.18066406,-0.9291992,0.27954102,1584207835570,4064766308883,0.045782715,0,1
1584207836570,NaN,-0.33006632,0.17407227,-0.95214844,0.2668457,1584207835650,4064766308883,0.045782715,0,1
1584207836573,NaN,-0.4050269,0.17871094,-0.94873047,0.24926758,1584207835730,4064766308883,0.045782715,0,1
1584207836577,NaN,-0.46985254,0.18237305,-0.9562988,0.22973633,1584207835810,4064766308883,0.045782715,0,1
1584207836580,NaN,-0.5291502,0.18554688,-0.9523926,0.22216797,1584207835890,4064766308883,0.045782715,0,1
1584207836584,NaN,-0.5419276,0.19335938,-0.9543457,0.20947266,1584207835970,4064766308883,0.045782715,0,1
1584207836586,NaN,-0.5309008,0.1887207,-0.9538574,0.21606445,1584207836050,4064766308883,0.045782715,0,1
1584207836589,NaN,-0.4795469,0.20166016,-0.9641113,0.20629883,1584207836130,4064766308883,0.045782715,0,1
1584207836593,NaN,-0.38362506,0.18945312,-0.9592285,0.20507812,1584207836210,4064766308883,0.045782715,0,1
1584207839034,NaN,-0.24637978,0.19213867,-0.9499512,0.2084961,1584207836290,-2131905303401,0.03970195,0,1
1584207839038,NaN,-0.107761115,0.18603516,-0.96362305,0.22045898,1584207836370,-2131905303401,0.032485384,0,1
1584207839042,NaN,0.012590066,0.17749023,-0.9572754,0.23608398,1584207836450,-2131905303401,0.032485384,0,1
1584207839047,NaN,0.119255245,0.1652832,-0.9494629,0.2319336,1584207836530,-2131905303401,0.032386154,0,1
1584207839050,NaN,0.18192582,0.13574219,-0.9375,0.24902344,1584207836610,-2131905303401,0.036164142,0,1
1584207839055,NaN,0.21294768,0.14697266,-0.954834,0.25927734,1584207836690,-2131905303401,0.036164142,0,1
1584207839059,NaN,0.20238633,0.14990234,-0.9379883,0.27148438,1584207836770,-2131905303401,0.036164142,0,1
1584207839063,NaN,0.17800759,0.14916992,-0.9379883,0.28588867,1584207836850,-2131905303401,0.036164142,0,1
1584207839067,NaN,0.09750137,0.16235352,-0.939209,0.30664062,1584207836930,-2131905303401,0.036164142,0,1
1584207839069,NaN,-0.0044259527,0.14428711,-0.94018555,0.32055664,1584207837010,-2131905303401,0.036164142,0,1
1584207839072,39.473682,-0.14696948,0.16210938,-0.91186523,0.3232422,1584207837090,-2131905303401,0.036164142,0,1
1584207839077,NaN,-0.2937927,0.16455078,-0.9135742,0.30541992,1584207837170,-2131905303401,0.036164142,0,1
1584207839079,NaN,-0.44314674,0.18237305,-0.9238281,0.3095703,1584207837250,-2131905303401,0.036164142,0,1
1584207839082,NaN,-0.5346184,0.15283203,-0.9511719,0.24560547,1584207837330,-2131905303401,0.075576805,0,1
1584207839085,NaN,-0.571948,0.18334961,-0.9621582,0.23120117,1584207837410,-2131905303401,0.075576805,0,1
1584207839088,NaN,-0.5776496,0.20483398,-0.9536133,0.20507812,1584207837490,-2131905303401,0.075576805,0,1
1584207839093,NaN,-0.5143712,0.20019531,-0.95410156,0.18774414,1584207837570,-2131905303401,0.075576805,0,1
1584207839096,NaN,-0.4208398,0.21582031,-0.9667969,0.18261719,1584207837650,-2131905303401,0.075576805,0,1
1584207839100,NaN,-0.2723488,0.21411133,-0.96313477,0.16308594,1584207837730,-2131905303401,0.075576805,0,1
1584207839103,NaN,-0.09548252,0.22216797,-0.95581055,0.16552734,1584207837810,-2131905303401,0.075576805,0,1
1584207839106,NaN,0.12584022,0.22705078,-0.970459,0.1616211,1584207837890,-2131905303401,0.075576805,0,1
1584207839110,NaN,0.3581533,0.21020508,-0.9760742,0.17358398,1584207837970,-2131905303401,0.075576805,0,1
1584207839113,NaN,0.6171014,0.21435547,-0.9650879,0.15942383,1584207838050,-2131905303401,0.075576805,0,1
1584207839117,NaN,0.8229807,0.20385742,-0.9460449,0.17919922,1584207838130,-2131905303401,0.075576805,0,1
1584207839120,NaN,1.0036806,0.1862793,-0.953125,0.1953125,1584207838210,-2131905303401,0.075576805,0,1
1584207839123,NaN,1.0591052,0.16625977,-0.9650879,0.21948242,1584207838290,-2131905303401,0.075576805,0,1
1584207839125,NaN,1.0409867,0.14550781,-0.95043945,0.23291016,1584207838370,-2131905303401,0.075576805,0,1
1584207839128,NaN,0.97198457,0.14648438,-0.9482422,0.2331543,1584207838450,-2131905303401,0.075576805,0,1
1584207839131,NaN,0.84632975,0.1381836,-0.9543457,0.24194336,1584207838530,-2131905303401,0.075576805,0,1
1584207839133,NaN,0.68303925,0.12597656,-0.951416,0.25683594,1584207838610,-2131905303401,0.075576805,0,1
1584207839136,NaN,0.44901824,0.14404297,-0.9316406,0.29833984,1584207838690,-2131905303401,0.075576805,0,1
1584207839139,NaN,0.17784034,0.1303711,-0.9416504,0.32958984,1584207838770,-2131905303401,0.075576805,0,1
1584207841620,NaN,-0.13460985,0.1262207,-0.93969727,0.3479004,1584207838850,-8328295440709,0.075576805,0,1
1584207841640,32.608696,-0.44761506,0.119628906,-0.92041016,0.35620117,1584207838930,-8328295440709,0.075576805,0,1
1584207841645,NaN,-0.77273965,0.13476562,-0.9189453,0.34838867,1584207839010,-8328295440709,0.075576805,0,1
1584207841649,NaN,-1.0611297,0.12963867,-0.8991699,0.36865234,1584207839090,-8328295440709,0.075576805,0,1
1584207841657,NaN,-1.323433,0.119384766,-0.8996582,0.3762207,1584207839170,-8328295440709,0.075576805,0,1
1584207841660,NaN,-1.4967794,0.15039062,-0.88183594,0.3852539,1584207839250,-8328295440709,0.075576805,0,1
1584207841664,NaN,-1.5846506,0.09863281,-0.9411621,0.34375,1584207839330,-8328295440709,0.089000225,0,1
1584207841668,NaN,-1.6566925,0.11206055,-0.9399414,0.36279297,1584207839410,-8328295440709,0.089000225,0,1
1584207841671,NaN,-1.6696014,0.13085938,-0.92871094,0.3269043,1584207839490,-8328295440709,0.089000225,0,1
1584207841674,NaN,-1.6350455,0.13720703,-0.92211914,0.31811523,1584207839570,-8328295440709,0.089000225,0,1
1584207841677,NaN,-1.5106405,0.17016602,-0.9404297,0.31713867,1584207839650,-8328295440709,0.089000225,0,1
1584207841681,NaN,-1.3422619,0.15258789,-0.9399414,0.3203125,1584207839730,-8328295440709,0.089000225,0,1
1584207841684,NaN,-1.1210657,0.15917969,-0.9284668,0.29882812,1584207839810,-8328295440709,0.089000225,0,1
1584207841687,NaN,-0.89442515,0.15283203,-0.9406738,0.3076172,1584207839890,-8328295440709,0.089000225,0,1
1584207841692,NaN,-0.6726641,0.15478516,-0.9445801,0.3034668,1584207839970,-8328295440709,0.089000225,0,1
1584207841696,NaN,-0.428561,0.14477539,-0.9423828,0.29589844,1584207840050,-8328295440709,0.089000225,0,1
1584207841699,NaN,-0.1869183,0.15209961,-0.93310547,0.30078125,1584207840130,-8328295440709,0.089000225,0,1
1584207841703,NaN,0.041359857,0.16113281,-0.9362793,0.2980957,1584207840210,-8328295440709,0.089000225,0,1
1584207841706,NaN,0.18162887,0.14941406,-0.9326172,0.3076172,1584207840290,-8328295440709,0.089000225,0,1
1584207841710,NaN,0.33373737,0.12719727,-0.93481445,0.31103516,1584207840370,-8328295440709,0.089000225,0,1
1584207841713,NaN,0.40875676,0.122558594,-0.9379883,0.32177734,1584207840450,-8328295440709,0.089000225,0,1
1584207841717,NaN,0.4225006,0.1027832,-0.92456055,0.35253906,1584207840530,-8328295440709,0.089000225,0,1
1584207841721,NaN,0.35976052,0.118652344,-0.9069824,0.37646484,1584207840610,-8328295440709,0.089000225,0,1
1584207841725,NaN,0.27092603,0.08935547,-0.9169922,0.38916016,1584207840690,-8328295440709,0.089000225,0,1
1584207841738,NaN,0.12321511,0.08984375,-0.9038086,0.4020996,1584207840770,-8328295440709,0.089000225,0,1
1584207841739,NaN,-0.033845704,0.076416016,-0.904541,0.40722656,1584207840850,-8328295440709,0.089000225,0,1
1584207841740,NaN,-0.19034906,0.072753906,-0.89697266,0.4033203,1584207840930,-8328295440709,0.089000225,0,1
1584207841741,28.846153,-0.38638434,0.07348633,-0.88378906,0.4182129,1584207841010,-8328295440709,0.089000225,0,1
1584207841747,NaN,-0.5692912,0.09277344,-0.89697266,0.4111328,1584207841090,-8328295440709,0.089000225,0,1
1584207841748,NaN,-0.76497936,0.09106445,-0.88549805,0.40673828,1584207841170,-8328295440709,0.089000225,0,1
1584207841749,NaN,-0.8812122,0.087646484,-0.9301758,0.38305664,1584207841250,-8328295440709,0.089000225,0,1
1584207841751,NaN,-0.97854185,0.1015625,-0.9226074,0.37060547,1584207841330,-8328295440709,0.089000225,0,1
1584207844003,NaN,-1.0098754,0.1159668,-0.92407227,0.35229492,1584207841410,3922058495691,0.089000225,0,1
1584207844007,NaN,-0.9652746,0.1081543,-0.92944336,0.34448242,1584207841490,3922058495691,0.089000225,0,1
1584207844011,NaN,-0.8701737,0.12426758,-0.923584,0.34643555,1584207841570,3922058495691,0.089000225,0,1
1584207844017,NaN,-0.74988014,0.11425781,-0.9326172,0.34472656,1584207841650,3922058495691,0.089000225,0,1
1584207844019,NaN,-0.59552234,0.114990234,-0.92407227,0.35131836,1584207841730,3922058495691,0.089000225,0,1
1584207844022,NaN,-0.42390367,0.111572266,-0.92944336,0.34179688,1584207841810,3922058495691,0.089000225,0,1
1584207844026,NaN,-0.25410149,0.110839844,-0.9238281,0.3491211,1584207841890,3922058495691,0.050681382,0,1
1584207844030,NaN,-0.037128597,0.123535156,-0.9291992,0.33325195,1584207841970,3922058495691,0.050681382,0,1
1584207844034,NaN,0.13506453,0.12695312,-0.91381836,0.34594727,1584207842050,3922058495691,0.050681382,0,1
1584207844038,NaN,0.31742582,0.123046875,-0.9326172,0.3449707,1584207842130,3922058495691,0.050681382,0,1
1584207844042,NaN,0.43350676,0.12207031,-0.9226074,0.34106445,1584207842210,3922058495691,0.050681382,0,1
1584207844047,NaN,0.51930845,0.10913086,-0.9326172,0.33496094,1584207842290,3922058495691,0.050681382,0,1
1584207844050,NaN,0.5422645,0.10180664,-0.9230957,0.35253906,1584207842370,3922058495691,0.050681382,0,1
1584207844054,NaN,0.5273476,0.10839844,-0.92333984,0.35083008,1584207842450,3922058495691,0.050681382,0,1
1584207844057,NaN,0.4838002,0.1159668,-0.9182129,0.36206055,1584207842530,3922058495691,0.050681382,0,1
1584207844061,NaN,0.3993934,0.103515625,-0.91137695,0.38745117,1584207842610,3922058495691,0.050681382,0,1
1584207844064,NaN,0.31265974,0.095214844,-0.9147949,0.38891602,1584207842690,3922058495691,0.050681382,0,1
1584207844067,NaN,0.19889593,0.103271484,-0.8967285,0.3930664,1584207842770,3922058495691,0.050681382,0,1
1584207844071,NaN,0.091438,0.10571289,-0.8913574,0.40234375,1584207842850,3922058495691,0.050681382,0,1
1584207844076,NaN,-0.06091969,0.114746094,-0.9016113,0.40551758,1584207842930,3922058495691,0.050681382,0,1
1584207844079,NaN,-0.16645893,0.10839844,-0.8991699,0.39086914,1584207843010,3922058495691,0.050681382,0,1
1584207844082,NaN,-0.26606092,0.106933594,-0.91625977,0.37670898,1584207843090,3922058495691,0.050681382,0,1
1584207844085,27.777779,-0.328722,0.115722656,-0.92041016,0.36816406,1584207843170,3922058495691,0.050681382,0,1
1584207844088,NaN,-0.38122913,0.11645508,-0.92626953,0.36572266,1584207843250,3922058495691,0.050681382,0,1
1584207844091,NaN,-0.36897114,0.12670898,-0.91308594,0.3503418,1584207843330,3922058495691,0.050681382,0,1
1584207844094,NaN,-0.34881273,0.12182617,-0.92871094,0.33935547,1584207843410,3922058495691,0.050681382,0,1
1584207844097,NaN,-0.31773713,0.12182617,-0.9265137,0.3461914,1584207843490,3922058495691,0.050681382,0,1
1584207844099,NaN,-0.23416726,0.12158203,-0.9248047,0.34033203,1584207843570,3922058495691,0.050681382,0,1
1584207844102,NaN,-0.150697,0.12597656,-0.92529297,0.34179688,1584207843650,3922058495691,0.050681382,0,1
1584207844105,NaN,-0.04029858,0.13232422,-0.9296875,0.3322754,1584207843730,3922058495691,0.050681382,0,1
1584207844108,NaN,0.07345234,0.1237793,-0.9267578,0.33325195,1584207843810,3922058495691,0.029093737,0,1
1584207844110,NaN,0.20271643,0.12475586,-0.92871094,0.32788086,1584207843890,3922058495691,0.029093737,0,1
1584207846586,NaN,0.3013104,0.12841797,-0.9279785,0.33276367,1584207843970,-2274613116593,0.029093737,0,1
1584207846592,NaN,0.37666738,0.12988281,-0.9326172,0.33398438,1584207844050,-2274613116593,0.029093737,0,1
1584207846597,NaN,0.42683184,0.1184082,-0.9272461,0.33374023,1584207844130,-2274613116593,0.029093737,0,1
1584207846602,NaN,0.4770225,0.12084961,-0.9350586,0.33154297,1584207844210,-2274613116593,0.029093737,0,1
1584207846608,NaN,0.4811258,0.119628906,-0.92211914,0.3347168,1584207844290,-2274613116593,0.029093737,0,1
1584207846611,NaN,0.4596155,0.13256836,-0.9255371,0.35302734,1584207844370,-2274613116593,0.029093737,0,1
1584207846615,NaN,0.43401495,0.11010742,-0.9279785,0.35498047,1584207844450,-2274613116593,0.029093737,0,1
1584207846618,NaN,0.36878058,0.12207031,-0.9069824,0.3642578,1584207844530,-2274613116593,0.029093737,0,1
1584207846621,NaN,0.29486898,0.12841797,-0.91845703,0.37695312,1584207844610,-2274613116593,0.029093737,0,1
1584207846624,NaN,0.189574,0.12890625,-0.9030762,0.38085938,1584207844690,-2274613116593,0.029093737,0,1
1584207846627,NaN,0.0933219,0.1381836,-0.91137695,0.37695312,1584207844770,-2274613116593,0.029093737,0,1
1584207846630,NaN,-0.010650936,0.13574219,-0.90722656,0.37646484,1584207844850,-2274613116593,0.029093737,0,1
1584207846633,NaN,-0.09972119,0.13769531,-0.9038086,0.3737793,1584207844930,-2274613116593,0.029093737,0,1
1584207846637,32.608696,-0.16986245,0.12890625,-0.9260254,0.36865234,1584207845010,-2274613116593,0.029093737,0,1
1584207846641,NaN,-0.21267061,0.140625,-0.9121094,0.35864258,1584207845090,-2274613116593,0.029093737,0,1
1584207846645,NaN,-0.2506787,0.12841797,-0.92822266,0.34521484,1584207845170,-2274613116593,0.025884664,0,1
1584207846649,NaN,-0.26605657,0.13378906,-0.9267578,0.3479004,1584207845250,-2274613116593,0.025884664,0,1
1584207846652,NaN,-0.2407742,0.1381836,-0.92626953,0.33129883,1584207845330,-2274613116593,0.025884664,0,1
1584207846656,NaN,-0.20842123,0.13452148,-0.92749023,0.33496094,1584207845410,-2274613116593,0.025884664,0,1
1584207846659,NaN,-0.14361809,0.13891602,-0.9343262,0.32177734,1584207845490,-2274613116593,0.025884664,0,1
1584207846661,NaN,-0.07285989,0.13671875,-0.92578125,0.3232422,1584207845570,-2274613116593,0.025884664,0,1
1584207846664,NaN,0.022859445,0.13500977,-0.93774414,0.32348633,1584207845650,-2274613116593,0.025884664,0,1
1584207846667,NaN,0.09915795,0.13305664,-0.9296875,0.31982422,1584207845730,-2274613116593,0.025884664,0,1
1584207846670,NaN,0.19020231,0.14379883,-0.93481445,0.3161621,1584207845810,-2274613116593,0.025884664,0,1
1584207846673,NaN,0.2712224,0.14086914,-0.93188477,0.31933594,1584207845890,-2274613116593,0.025884664,0,1
1584207846676,NaN,0.34107855,0.13623047,-0.93359375,0.31713867,1584207845970,-2274613116593,0.025884664,0,1
1584207846679,NaN,0.39143825,0.13793945,-0.9382324,0.31811523,1584207846050,-2274613116593,0.025884664,0,1
1584207846683,NaN,0.40862402,0.13354492,-0.920166,0.33447266,1584207846130,-2274613116593,0.025884664,0,1
1584207846686,NaN,0.4153116,0.13305664,-0.9362793,0.34692383,1584207846210,-2274613116593,0.025884664,0,1
1584207846691,NaN,0.3711487,0.13232422,-0.9099121,0.35913086,1584207846290,-2274613116593,0.02906504,0,1
1584207846696,NaN,0.3144289,0.11816406,-0.9160156,0.3708496,1584207846370,-2274613116593,0.02906504,0,1
1584207846699,NaN,0.21147418,0.119384766,-0.91430664,0.3876953,1584207846450,-2274613116593,0.02906504,0,1
1584207849171,NaN,0.11574931,0.11791992,-0.9086914,0.37963867,1584207846530,-8471003253901,0.02906504,0,1
1584207849180,NaN,0.001787732,0.123291016,-0.89697266,0.3881836,1584207846610,-8471003253901,0.02906504,0,1
1584207849187,35.714287,-0.09591642,0.13061523,-0.89941406,0.37963867,1584207846690,-8471003253901,0.02906504,0,1
1584207849195,NaN,-0.20752235,0.12402344,-0.90356445,0.37573242,1584207846770,-8471003253901,0.02906504,0,1
1584207849199,NaN,-0.30065927,0.12548828,-0.9189453,0.3696289,1584207846850,-8471003253901,0.02906504,0,1
1584207849205,NaN,-0.37173846,0.12768555,-0.93066406,0.35131836,1584207846930,-8471003253901,0.02906504,0,1
1584207849210,NaN,-0.43193612,0.13378906,-0.92211914,0.34448242,1584207847010,-8471003253901,0.02906504,0,1
1584207849217,NaN,-0.4328538,0.13623047,-0.93066406,0.32983398,1584207847090,-8471003253901,0.02906504,0,1
1584207849220,NaN,-0.42347693,0.13549805,-0.9313965,0.33007812,1584207847170,-8471003253901,0.02906504,0,1
1584207849224,NaN,-0.35447046,0.14379883,-0.9338379,0.31420898,1584207847250,-8471003253901,0.02906504,0,1
1584207849228,NaN,-0.27084067,0.13671875,-0.9313965,0.31713867,1584207847330,-8471003253901,0.02906504,0,1
1584207849232,NaN,-0.14950643,0.1315918,-0.93896484,0.3178711,1584207847410,-8471003253901,0.02906504,0,1
1584207849238,NaN,-0.040290084,0.13647461,-0.93188477,0.3173828,1584207847490,-8471003253901,0.02906504,0,1
1584207849241,NaN,0.08782283,0.1394043,-0.93481445,0.31713867,1584207847570,-8471003253901,0.02906504,0,1
1584207849244,NaN,0.19535248,0.13134766,-0.9338379,0.31713867,1584207847650,-8471003253901,0.02906504,0,1
1584207849247,NaN,0.3122495,0.13305664,-0.9345703,0.3100586,1584207847730,-8471003253901,0.02906504,0,1
1584207849251,NaN,0.41739652,0.14257812,-0.9355469,0.30151367,1584207847810,-8471003253901,0.02906504,0,1
1584207849254,NaN,0.48288593,0.14379883,-0.93725586,0.31054688,1584207847890,-8471003253901,0.02906504,0,1
1584207849256,NaN,0.5407749,0.13720703,-0.9470215,0.30932617,1584207847970,-8471003253901,0.02906504,0,1
1584207849260,NaN,0.54149956,0.1394043,-0.9267578,0.31982422,1584207848050,-8471003253901,0.02906504,0,1
1584207849262,NaN,0.5240071,0.13696289,-0.9255371,0.33618164,1584207848130,-8471003253901,0.02906504,0,1
1584207849266,NaN,0.45213723,0.13232422,-0.9313965,0.34765625,1584207848210,-8471003253901,0.02906504,0,1
1584207849269,NaN,0.37352553,0.13012695,-0.9267578,0.35205078,1584207848290,-8471003253901,0.02906504,0,1
1584207849273,NaN,0.27481577,0.12866211,-0.91430664,0.35839844,1584207848370,-8471003253901,0.02906504,0,1
1584207849276,NaN,0.17284666,0.13500977,-0.91064453,0.36914062,1584207848450,-8471003253901,0.02906504,0,1
1584207849280,NaN,0.038230572,0.115722656,-0.91064453,0.39086914,1584207848530,-8471003253901,0.02906504,0,1
1584207849284,NaN,-0.07885763,0.1237793,-0.91015625,0.38916016,1584207848610,-8471003253901,0.02906504,0,1
1584207849288,30.0,-0.20589574,0.11425781,-0.89624023,0.38110352,1584207848690,-8471003253901,0.02906504,0,1
1584207849292,NaN,-0.34093985,0.10498047,-0.920166,0.3828125,1584207848770,-8471003253901,0.02906504,0,1
1584207849296,NaN,-0.44723067,0.099365234,-0.9157715,0.38012695,1584207848850,-8471003253901,0.02905376,0,1
1584207849298,NaN,-0.56416816,0.08178711,-0.91430664,0.39038086,1584207848930,-8471003253901,0.02905376,0,1
1584207849302,NaN,-0.64083153,0.08642578,-0.90893555,0.38720703,1584207849010,-8471003253901,0.02905376,0,1
1584207851757,NaN,-0.7024637,0.08105469,-0.90649414,0.3996582,1584207849090,3779350682499,0.02905376,0,1
1584207851763,NaN,-0.73711437,0.07470703,-0.9086914,0.40454102,1584207849170,3779350682499,0.02905376,0,1
1584207851768,NaN,-0.78690475,0.05444336,-0.8967285,0.42016602,1584207849250,3779350682499,0.02905376,0,1
1584207851776,NaN,-0.8233399,0.041015625,-0.89990234,0.42016602,1584207849330,3779350682499,0.02905376,0,1
1584207851780,NaN,-0.85398364,0.020019531,-0.89404297,0.42089844,1584207849410,3779350682499,0.02905376,0,1
1584207851784,NaN,-0.8495333,-0.009033203,-0.89697266,0.42138672,1584207849490,3779350682499,0.029204158,0,1
1584207851787,NaN,-0.87147313,-0.028564453,-0.8876953,0.43066406,1584207849570,3779350682499,0.029204158,0,1
1584207851791,NaN,-0.8963582,-0.025146484,-0.88842773,0.44458008,1584207849650,3779350682499,0.029204158,0,1
1584207851794,NaN,-0.9458726,-0.037597656,-0.87353516,0.47094727,1584207849730,3779350682499,0.03274216,0,1
1584207851799,NaN,-1.0124921,-0.044921875,-0.8588867,0.47705078,1584207849810,3779350682499,0.03274216,0,1
1584207851803,NaN,-1.0689205,-0.07714844,-0.8654785,0.4873047,1584207849890,3779350682499,0.034454983,0,1
1584207851806,NaN,-1.1646695,-0.0847168,-0.85302734,0.50878906,1584207849970,3779350682499,0.034454983,0,1
1584207851811,NaN,-1.2580274,-0.08959961,-0.8425293,0.5097656,1584207850050,3779350682499,0.034454983,0,1
1584207851814,NaN,-1.3477521,-0.10986328,-0.8557129,0.49951172,1584207850130,3779350682499,0.034454983,0,1
1584207851817,NaN,-1.3872157,-0.09423828,-0.8444824,0.4819336,1584207850210,3779350682499,0.034454983,0,1
1584207851820,NaN,-1.4386873,-0.09692383,-0.842041,0.49389648,1584207850290,3779350682499,0.034454983,0,1
1584207851823,NaN,-1.4655493,-0.09350586,-0.8535156,0.48339844,1584207850370,3779350682499,0.034454983,0,1
1584207851826,NaN,-1.5057526,-0.08691406,-0.83984375,0.5004883,1584207850450,3779350682499,0.034454983,0,1
1584207851830,NaN,-1.5086797,-0.095947266,-0.8701172,0.5148926,1584207850530,3779350682499,0.034721226,0,1
1584207851833,NaN,-1.5048184,-0.08203125,-0.8432617,0.52246094,1584207850610,3779350682499,0.034721226,0,1
1584207851836,NaN,-1.4325882,-0.07324219,-0.84277344,0.5124512,1584207850690,3779350682499,0.034721226,0,1
1584207851840,NaN,-1.328785,-0.072021484,-0.8474121,0.50390625,1584207850770,3779350682499,0.034721226,0,1
1584207851842,NaN,-1.2146958,-0.07324219,-0.84155273,0.51782227,1584207850850,3779350682499,0.034721226,0,1
1584207851845,NaN,-1.0552938,-0.09838867,-0.8532715,0.5083008,1584207850930,3779350682499,0.034721226,0,1
1584207851848,NaN,-0.9133417,-0.09863281,-0.82958984,0.52563477,1584207851010,3779350682499,0.034721226,0,1
1584207851852,NaN,-0.78128403,-0.109375,-0.83935547,0.52441406,1584207851090,3779350682499,0.034721226,0,1
1584207851856,NaN,-0.7002639,-0.110839844,-0.83447266,0.52612305,1584207851170,3779350682499,0.034721226,0,1
1584207851859,NaN,-0.59844625,-0.106933594,-0.83496094,0.52075195,1584207851250,3779350682499,0.034721226,0,1
1584207851862,NaN,-0.5269723,-0.1027832,-0.83813477,0.517334,1584207851330,3779350682499,0.034721226,0,1
1584207851865,NaN,-0.44035593,-0.09106445,-0.84033203,0.5263672,1584207851410,3779350682499,0.034721226,0,1
1584207851867,NaN,-0.37032863,-0.103515625,-0.83984375,0.51708984,1584207851490,3779350682499,0.034721226,0,1
1584207851870,NaN,-0.28761753,-0.0949707,-0.83691406,0.5197754,1584207851570,3779350682499,0.034721226,0,1
1584207854338,NaN,-0.24311931,-0.092285156,-0.845459,0.5144043,1584207851650,-2417320929785,0.034721226,0,1
1584207854343,NaN,-0.24031228,-0.095458984,-0.83447266,0.5280762,1584207851730,-2417320929785,0.034721226,0,1
1584207854349,NaN,-0.22921677,-0.09301758,-0.83496094,0.52490234,1584207851810,-2417320929785,0.034721226,0,1
1584207854354,NaN,-0.23105997,-0.0949707,-0.84375,0.5161133,1584207851890,-2417320929785,0.034721226,0,1
1584207854359,NaN,-0.18985038,-0.091552734,-0.8535156,0.50927734,1584207851970,-2417320929785,0.034721226,0,1
1584207854364,NaN,-0.14834243,-0.087402344,-0.84521484,0.51000977,1584207852050,-2417320929785,0.034721226,0,1
1584207854369,NaN,-0.07409752,-0.07910156,-0.8540039,0.50024414,1584207852130,-2417320929785,0.034721226,0,1
1584207854373,NaN,-0.023400525,-0.064697266,-0.8359375,0.5048828,1584207852210,-2417320929785,0.034721226,0,1
1584207854377,NaN,0.036281165,-0.060058594,-0.8430176,0.5019531,1584207852290,-2417320929785,0.034721226,0,1
1584207854380,NaN,0.073873095,-0.06933594,-0.8425293,0.50878906,1584207852370,-2417320929785,0.034721226,0,1
1584207854383,NaN,0.10690251,-0.07128906,-0.84521484,0.5168457,1584207852450,-2417320929785,0.034721226,0,1
1584207854388,NaN,0.12511231,-0.07421875,-0.8496094,0.5234375,1584207852530,-2417320929785,0.034721226,0,1
1584207854391,NaN,0.13809498,-0.053710938,-0.8383789,0.52856445,1584207852610,-2417320929785,0.034721226,0,1
1584207854395,NaN,0.19065845,-0.06347656,-0.84765625,0.52124023,1584207852690,-2417320929785,0.034721226,0,1
1584207854399,NaN,0.2261974,-0.056152344,-0.83740234,0.51904297,1584207852770,-2417320929785,0.034721226,0,1
1584207854402,NaN,0.24593027,-0.057617188,-0.8425293,0.52124023,1584207852850,-2417320929785,0.034721226,0,1
1584207854406,NaN,0.22032756,-0.05444336,-0.8378906,0.5300293,1584207852930,-2417320929785,0.034721226,0,1
1584207854411,NaN,0.20517592,-0.055908203,-0.84106445,0.52124023,1584207853010,-2417320929785,0.034721226,0,1
1584207854414,NaN,0.16178413,-0.051513672,-0.8378906,0.52001953,1584207853090,-2417320929785,0.031179348,0,1
1584207854418,NaN,0.14243872,-0.045410156,-0.85131836,0.5151367,1584207853170,-2417320929785,0.029348709,0,1
1584207854422,NaN,0.108286716,-0.048095703,-0.84375,0.51904297,1584207853250,-2417320929785,0.029348709,0,1
1584207854425,NaN,0.09240254,-0.05029297,-0.84936523,0.5187988,1584207853330,-2417320929785,0.029348709,0,1
1584207854428,NaN,0.07456885,-0.05444336,-0.8334961,0.52368164,1584207853410,-2417320929785,0.029348709,0,1
1584207854431,NaN,0.06743118,-0.043945312,-0.83862305,0.5292969,1584207853490,-2417320929785,0.029348709,0,1
1584207854436,NaN,0.0705612,-0.051757812,-0.84472656,0.5205078,1584207853570,-2417320929785,0.023936989,0,1
1584207854438,NaN,0.044359695,-0.053710938,-0.8430176,0.5300293,1584207853650,-2417320929785,0.023936989,0,1
1584207854442,NaN,0.027511187,-0.045166016,-0.84106445,0.52319336,1584207853730,-2417320929785,0.023936989,0,1
1584207854444,NaN,0.013377772,-0.049804688,-0.84399414,0.53027344,1584207853810,-2417320929785,0.023936989,0,1
1584207854447,NaN,0.025171915,-0.052001953,-0.84521484,0.52197266,1584207853890,-2417320929785,0.023936989,0,1
1584207854451,NaN,0.01786665,-0.040283203,-0.82788086,0.5270996,1584207853970,-2417320929785,0.023936989,0,1
1584207854454,NaN,0.042719454,-0.03564453,-0.8425293,0.5041504,1584207854050,-2417320929785,0.027618121,0,1
1584207854460,NaN,0.03441138,-0.041748047,-0.8479004,0.515625,1584207854130,-2417320929785,0.027618121,0,1
1584207856924,NaN,0.04449277,-0.050048828,-0.8520508,0.51464844,1584207854210,-8613711067094,0.027618121,0,1
1584207856929,NaN,0.040894616,-0.03881836,-0.8430176,0.52075195,1584207854290,-8613711067094,0.027618121,0,1
1584207856936,NaN,0.049799997,-0.041015625,-0.84228516,0.5270996,1584207854370,-8613711067094,0.027618121,0,1
1584207856946,NaN,0.054356266,-0.038330078,-0.8466797,0.52319336,1584207854450,-8613711067094,0.027618121,0,1
1584207856947,NaN,0.052764352,-0.029785156,-0.83935547,0.5214844,1584207854530,-8613711067094,0.027618121,0,1
1584207856952,NaN,0.06244387,-0.038330078,-0.8400879,0.5280762,1584207854610,-8613711067094,0.027618121,0,1
1584207856956,NaN,0.052380893,-0.03881836,-0.8383789,0.5366211,1584207854690,-8613711067094,0.027618121,0,1
1584207856962,NaN,0.05946517,-0.036132812,-0.8378906,0.52685547,1584207854770,-8613711067094,0.027618121,0,1
1584207856965,NaN,0.04785806,-0.041748047,-0.8354492,0.52734375,1584207854850,-8613711067094,0.027618121,0,1
1584207856971,NaN,0.058119867,-0.034179688,-0.8378906,0.52490234,1584207854930,-8613711067094,0.027618121,0,1
1584207856974,NaN,0.01409816,-0.046142578,-0.8312988,0.53222656,1584207855010,-8613711067094,0.027618121,0,1
1584207856979,NaN,0.0018629916,-0.040771484,-0.8466797,0.5361328,1584207855090,-8613711067094,0.027618121,0,1
1584207856982,NaN,-0.02533214,-0.04248047,-0.83447266,0.54541016,1584207855170,-8613711067094,0.027618121,0,1
1584207856984,NaN,-0.054535117,-0.056884766,-0.82958984,0.5456543,1584207855250,-8613711067094,0.027618121,0,1
1584207856988,NaN,-0.05731298,-0.031982422,-0.8417969,0.52612305,1584207855330,-8613711067094,0.033920616,0,1
1584207856991,NaN,-0.072291575,-0.04736328,-0.8413086,0.52246094,1584207855410,-8613711067094,0.033920616,0,1
1584207856995,NaN,-0.08461625,-0.037109375,-0.83691406,0.5239258,1584207855490,-8613711067094,0.033920616,0,1
1584207856998,NaN,-0.08978645,-0.03149414,-0.8417969,0.5319824,1584207855570,-8613711067094,0.033920616,0,1
1584207857002,NaN,-0.070247896,-0.041992188,-0.84814453,0.5187988,1584207855650,-8613711067094,0.033920616,0,1
1584207857006,NaN,-0.07983046,-0.036376953,-0.82958984,0.5280762,1584207855730,-8613711067094,0.033920616,0,1
1584207857008,NaN,-0.05978651,-0.016601562,-0.83569336,0.517334,1584207855810,-8613711067094,0.033920616,0,1
1584207857011,NaN,-0.0601493,-0.01977539,-0.82836914,0.5168457,1584207855890,-8613711067094,0.033920616,0,1
1584207857014,NaN,-0.008715796,-0.01977539,-0.8496094,0.5214844,1584207855970,-8613711067094,0.033920616,0,1
1584207857017,NaN,0.009555857,-0.028076172,-0.84277344,0.53344727,1584207856050,-8613711067094,0.033920616,0,1
1584207857020,NaN,0.04775247,-0.029296875,-0.84228516,0.53344727,1584207856130,-8613711067094,0.033920616,0,1
1584207857023,NaN,0.099595904,-0.024902344,-0.8400879,0.53759766,1584207856210,-8613711067094,0.033920616,0,1
1584207857026,NaN,0.10407895,-0.0068359375,-0.8334961,0.5258789,1584207856290,-8613711067094,0.033920616,0,1
1584207857029,NaN,0.112131946,-0.01586914,-0.83325195,0.5383301,1584207856370,-8613711067094,0.033920616,0,1
1584207857032,NaN,0.115340084,-0.0146484375,-0.829834,0.54125977,1584207856450,-8613711067094,0.033920616,0,1
1584207857035,NaN,0.105913244,-0.026123047,-0.83496094,0.54541016,1584207856530,-8613711067094,0.033920616,0,1
1584207857037,NaN,0.077511705,-0.02368164,-0.82666016,0.545166,1584207856610,-8613711067094,0.033920616,0,1
1584207857040,NaN,0.079980694,-0.02319336,-0.83374023,0.5439453,1584207856690,-8613711067094,0.033920616,0,1
1584207859508,NaN,0.034190066,-0.025390625,-0.8198242,0.548584,1584207856770,3636642869306,0.033920616,0,1
1584207859514,NaN,0.0038700178,-0.030761719,-0.83154297,0.5493164,1584207856850,3636642869306,0.033920616,0,1
1584207859519,7.2815533,-0.060332935,-0.028808594,-0.81884766,0.56030273,1584207856930,3636642869306,0.033920616,0,1
1584207859523,NaN,-0.08569267,-0.026123047,-0.82177734,0.55444336,1584207857010,3636642869306,0.033920616,0,1
1584207859526,NaN,-0.1304198,-0.033203125,-0.8154297,0.56152344,1584207857090,3636642869306,0.033920616,0,1
1584207859530,NaN,-0.18250138,-0.03930664,-0.8195801,0.56103516,1584207857170,3636642869306,0.033920616,0,1
1584207859534,NaN,-0.22177547,-0.025390625,-0.8203125,0.5546875,1584207857250,3636642869306,0.033920616,0,1
1584207859537,NaN,-0.2430836,-0.023925781,-0.82177734,0.55688477,1584207857330,3636642869306,0.033920616,0,1
1584207859541,NaN,-0.2508253,-0.03173828,-0.83374023,0.54785156,1584207857410,3636642869306,0.033920616,0,1
1584207859545,NaN,-0.24162368,-0.024414062,-0.82543945,0.53808594,1584207857490,3636642869306,0.033920616,0,1
1584207859550,NaN,-0.22410917,-0.029785156,-0.8354492,0.54248047,1584207857570,3636642869306,0.033920616,0,1
1584207859553,NaN,-0.22155356,-0.024658203,-0.8276367,0.53686523,1584207857650,3636642869306,0.033920616,0,1
1584207859556,NaN,-0.17521483,-0.020507812,-0.8366699,0.532959,1584207857730,3636642869306,0.033920616,0,1
1584207859559,NaN,-0.13125135,-0.014892578,-0.829834,0.5241699,1584207857810,3636642869306,0.033920616,0,1
1584207859564,NaN,-0.06555124,-0.013916016,-0.8276367,0.53125,1584207857890,3636642869306,0.023317667,0,1
1584207859569,NaN,-0.03716631,-0.03149414,-0.8417969,0.5476074,1584207857970,3636642869306,0.027875898,0,1
1584207859573,NaN,0.014347409,-0.021972656,-0.8286133,0.5395508,1584207858050,3636642869306,0.027875898,0,1
1584207859577,NaN,0.0590098,-0.030761719,-0.82836914,0.54541016,1584207858130,3636642869306,0.027875898,0,1
1584207859580,NaN,0.09344497,-0.020507812,-0.82592773,0.55566406,1584207858210,3636642869306,0.027875898,0,1
1584207859584,NaN,0.11710427,-0.024414062,-0.82470703,0.5500488,1584207858290,3636642869306,0.027875898,0,1
1584207859587,NaN,0.12069758,-0.029541016,-0.8210449,0.5529785,1584207858370,3636642869306,0.027875898,0,1
1584207859589,NaN,0.1122421,-0.02319336,-0.8227539,0.55029297,1584207858450,3636642869306,0.027875898,0,1
1584207859593,NaN,0.09958863,-0.024414062,-0.8195801,0.5551758,1584207858530,3636642869306,0.027875898,0,1
1584207859597,NaN,0.09531129,-0.022216797,-0.828125,0.54541016,1584207858610,3636642869306,0.027875898,0,1
1584207859601,NaN,0.057640612,-0.020507812,-0.81884766,0.5563965,1584207858690,3636642869306,0.027875898,0,1
1584207859603,NaN,0.01708293,-0.017089844,-0.82666016,0.55493164,1584207858770,3636642869306,0.027875898,0,1
1584207859607,NaN,-0.028388945,-0.025390625,-0.8269043,0.55371094,1584207858850,3636642869306,0.027875898,0,1
1584207859609,30.0,-0.044924527,-0.025878906,-0.8234863,0.5539551,1584207858930,3636642869306,0.027875898,0,1
1584207859613,NaN,-0.082099475,-0.028320312,-0.82592773,0.5578613,1584207859010,3636642869306,0.027875898,0,1
1584207859616,NaN,-0.1123356,-0.029541016,-0.8144531,0.56225586,1584207859090,3636642869306,0.027875898,0,1
1584207859618,NaN,-0.12080187,-0.029785156,-0.8251953,0.5546875,1584207859170,3636642869306,0.027875898,0,1
1584207859622,NaN,-0.11621461,-0.021728516,-0.83081055,0.5397949,1584207859250,3636642869306,0.027875898,0,1
1584207862089,NaN,-0.097942054,-0.025146484,-0.8310547,0.5427246,1584207859330,-2560028742978,0.027875898,0,1
1584207862097,NaN,-0.08791124,-0.03100586,-0.83740234,0.54833984,1584207859410,-2560028742978,0.027875898,0,1
1584207862103,NaN,-0.056235205,-0.018554688,-0.8305664,0.52978516,1584207859490,-2560028742978,0.027875898,0,1
1584207862108,NaN,-0.04008313,-0.020263672,-0.8354492,0.5292969,1584207859570,-2560028742978,0.027875898,0,1
1584207862111,NaN,0.010264064,-0.012939453,-0.8305664,0.51708984,1584207859650,-2560028742978,0.027875898,0,1
1584207862116,NaN,0.041557822,-0.022216797,-0.83374023,0.53515625,1584207859730,-2560028742978,0.027875898,0,1
1584207862119,NaN,0.0733902,-0.024902344,-0.84033203,0.54052734,1584207859810,-2560028742978,0.027875898,0,1
1584207862123,NaN,0.08986578,-0.023925781,-0.83032227,0.545166,1584207859890,-2560028742978,0.027875898,0,1
1584207862126,NaN,0.11492858,-0.020996094,-0.8305664,0.5480957,1584207859970,-2560028742978,0.027875898,0,1
1584207862131,NaN,0.14493616,-0.025390625,-0.82836914,0.5480957,1584207860050,-2560028742978,0.027875898,0,1
1584207862136,NaN,0.15579005,-0.024169922,-0.8249512,0.5476074,1584207860130,-2560028742978,0.027875898,0,1
1584207862140,NaN,0.14191796,-0.017089844,-0.8273926,0.54711914,1584207860210,-2560028742978,0.027875898,0,1
1584207862144,NaN,0.120350726,-0.017822266,-0.8203125,0.5541992,1584207860290,-2560028742978,0.027875898,0,1
1584207862149,NaN,0.116115265,-0.024414062,-0.83203125,0.54956055,1584207860370,-2560028742978,0.027875898,0,1
1584207862153,NaN,0.073310204,-0.01928711,-0.8198242,0.55444336,1584207860450,-2560028742978,0.027875898,0,1
1584207862157,NaN,0.035872858,-0.023925781,-0.82299805,0.55615234,1584207860530,-2560028742978,0.023367459,0,1
1584207862160,NaN,-0.03108085,-0.026123047,-0.8171387,0.5583496,1584207860610,-2560028742978,0.023367459,0,1
1584207862164,34.090908,-0.06246355,-0.020019531,-0.82128906,0.5554199,1584207860690,-2560028742978,0.023367459,0,1
1584207862168,NaN,-0.09018791,-0.016845703,-0.82421875,0.5515137,1584207860770,-2560028742978,0.023367459,0,1
1584207862172,NaN,-0.11210727,-0.01953125,-0.82128906,0.5583496,1584207860850,-2560028742978,0.023367459,0,1
1584207862175,NaN,-0.13915858,-0.040283203,-0.8215332,0.56347656,1584207860930,-2560028742978,0.023367459,0,1
1584207862180,NaN,-0.15998773,-0.01928711,-0.8154297,0.54663086,1584207861010,-2560028742978,0.027601931,0,1
1584207862183,NaN,-0.16245197,-0.030761719,-0.8366699,0.5493164,1584207861090,-2560028742978,0.027601931,0,1
1584207862187,NaN,-0.15640105,-0.022949219,-0.829834,0.5461426,1584207861170,-2560028742978,0.027601931,0,1
1584207862190,NaN,-0.12997995,-0.03125,-0.8305664,0.53637695,1584207861250,-2560028742978,0.027601931,0,1
1584207862193,NaN,-0.11751164,-0.021972656,-0.8312988,0.53344727,1584207861330,-2560028742978,0.027601931,0,1
1584207862196,NaN,-0.070333034,-0.0126953125,-0.83374023,0.5275879,1584207861410,-2560028742978,0.027601931,0,1
1584207862199,NaN,-0.0140386075,-0.008056641,-0.83203125,0.5180664,1584207861490,-2560028742978,0.027601931,0,1
1584207862202,NaN,0.04972512,-0.008544922,-0.8408203,0.53637695,1584207861570,-2560028742978,0.027601931,0,1
1584207862205,NaN,0.07355453,-0.03100586,-0.8286133,0.55322266,1584207861650,-2560028742978,0.030615078,0,1
1584207862210,NaN,0.09684933,-0.013671875,-0.83447266,0.5456543,1584207861730,-2560028742978,0.030615078,0,1
1584207862213,NaN,0.12013086,-0.028564453,-0.8330078,0.55078125,1584207861810,-2560028742978,0.030615078,0,1
1584207864676,NaN,0.15862794,-0.021484375,-0.82788086,0.53759766,1584207861890,-8828476474324,0.030615078,0,1
1584207864681,NaN,0.18077904,-0.0068359375,-0.8395996,0.5385742,1584207861970,-8828476474324,0.030615078,0,1
1584207864685,NaN,0.17811412,-0.013427734,-0.82910156,0.5437012,1584207862050,-8828476474324,0.030615078,0,1
1584207864690,NaN,0.18036616,-0.020996094,-0.83251953,0.5427246,1584207862130,-8828476474324,0.030615078,0,1
1584207864696,NaN,0.1590578,-0.008544922,-0.82666016,0.54174805,1584207862210,-8828476474324,0.030615078,0,1
1584207864700,NaN,0.13515379,-0.020751953,-0.8251953,0.54785156,1584207862290,-8828476474324,0.030615078,0,1
1584207864703,NaN,0.08426016,-0.01928711,-0.8261719,0.55859375,1584207862370,-8828476474324,0.030615078,0,1
1584207864707,NaN,0.029715633,-0.017578125,-0.82836914,0.54833984,1584207862450,-8828476474324,0.030615078,0,1
1584207864711,NaN,-0.017290281,-0.018310547,-0.8244629,0.5539551,1584207862530,-8828476474324,0.030615078,0,1
1584207864717,NaN,-0.017117793,-0.014892578,-0.8305664,0.5476074,1584207862610,-8828476474324,0.030615078,0,1
1584207864722,30.0,-0.03955463,-0.028076172,-0.8208008,0.5563965,1584207862690,-8828476474324,0.030615078,0,1
1584207864728,NaN,-0.053453904,-0.017089844,-0.82128906,0.5476074,1584207862770,-8828476474324,0.030615078,0,1
1584207864732,NaN,-0.07965452,-0.025146484,-0.8347168,0.54785156,1584207862850,-8828476474324,0.030615078,0,1
1584207864736,NaN,-0.101917446,-0.015380859,-0.83154297,0.54052734,1584207862930,-8828476474324,0.030615078,0,1
1584207864740,NaN,-0.09328457,-0.022705078,-0.8354492,0.5344238,1584207863010,-8828476474324,0.030615078,0,1
1584207864743,NaN,-0.09775925,-0.012939453,-0.82788086,0.5402832,1584207863090,-8828476474324,0.030615078,0,1
1584207864747,NaN,-0.07911241,-0.012207031,-0.83496094,0.5275879,1584207863170,-8828476474324,0.030615078,0,1
1584207864750,NaN,-0.05123472,-0.008056641,-0.83032227,0.52978516,1584207863250,-8828476474324,0.030615078,0,1
1584207864753,NaN,-7.535393E-4,-0.011230469,-0.8347168,0.52856445,1584207863330,-8828476474324,0.030615078,0,1
1584207864757,NaN,0.023118727,-0.022216797,-0.83325195,0.5500488,1584207863410,-8828476474324,0.030615078,0,1
1584207864759,NaN,0.051330563,-0.017089844,-0.8339844,0.5480957,1584207863490,-8828476474324,0.030615078,0,1
1584207864762,NaN,0.043605495,-0.01953125,-0.8239746,0.5476074,1584207863570,-8828476474324,0.030615078,0,1
1584207864765,NaN,0.069075234,-0.017578125,-0.82836914,0.5449219,1584207863650,-8828476474324,0.030615078,0,1
1584207864768,NaN,0.07856933,-0.012939453,-0.8327637,0.54711914,1584207863730,-8828476474324,0.030615078,0,1
1584207864772,NaN,0.08110655,-0.016845703,-0.8276367,0.54589844,1584207863810,-8828476474324,0.030615078,0,1
1584207864774,NaN,0.07969971,-0.021240234,-0.828125,0.54663086,1584207863890,-8828476474324,0.030615078,0,1
1584207864777,NaN,0.05424268,-0.014160156,-0.8234863,0.54956055,1584207863970,-8828476474324,0.030615078,0,1
1584207864780,NaN,0.041841432,-0.01928711,-0.8203125,0.5534668,1584207864050,-8828476474324,0.030615078,0,1
1584207864783,NaN,-7.6554716E-5,-0.01928711,-0.81884766,0.5563965,1584207864130,-8828476474324,0.030615078,0,1
1584207864786,39.473682,-0.039246764,-0.01928711,-0.8208008,0.55688477,1584207864210,-8828476474324,0.024174854,0,1
1584207864788,NaN,-0.09185455,-0.020996094,-0.8195801,0.55688477,1584207864290,-8828476474324,0.024174854,0,1
1584207864791,NaN,-0.095199466,-0.012451172,-0.8276367,0.55078125,1584207864370,-8828476474324,0.024174854,0,1
1584207867071,NaN,-0.1176309,-0.022460938,-0.8210449,0.5588379,1584207864450,3421877462076,0.024174854,0,1
1584207867073,NaN,-0.12629913,-0.030517578,-0.8227539,0.5625,1584207864530,3421877462076,0.024174854,0,1
1584207867074,NaN,-0.15061258,-0.016357422,-0.8195801,0.55688477,1584207864610,3421877462076,0.024174854,0,1
1584207867075,NaN,-0.16076763,-0.018554688,-0.8288574,0.5500488,1584207864690,3421877462076,0.024174854,0,1
1584207867079,NaN,-0.16258849,-0.016601562,-0.82250977,0.54711914,1584207864770,3421877462076,0.024174854,0,1
1584207867090,NaN,-0.15339579,-0.020263672,-0.82958984,0.54345703,1584207864850,3421877462076,0.024174854,0,1
1584207867097,NaN,-0.12606356,-0.0075683594,-0.828125,0.5366211,1584207864930,3421877462076,0.024174854,0,1
1584207867100,NaN,-0.09889289,-0.009277344,-0.828125,0.54003906,1584207865010,3421877462076,0.024174854,0,1
1584207867106,NaN,-0.042948272,-0.015136719,-0.83935547,0.5305176,1584207865090,3421877462076,0.024174854,0,1
1584207867110,NaN,0.0014525378,-0.012207031,-0.8239746,0.53100586,1584207865170,3421877462076,0.024174854,0,1
1584207867114,NaN,0.0452183,-0.018066406,-0.8376465,0.54589844,1584207865250,3421877462076,0.024174854,0,1
1584207867117,NaN,0.041624013,-0.01928711,-0.82299805,0.5551758,1584207865330,3421877462076,0.024174854,0,1
1584207867120,NaN,0.06298674,-0.0126953125,-0.82910156,0.5551758,1584207865410,3421877462076,0.024174854,0,1
1584207867123,NaN,0.08327321,-0.016601562,-0.82299805,0.5529785,1584207865490,3421877462076,0.024174854,0,1
1584207867127,NaN,0.10949781,-0.0107421875,-0.8317871,0.54589844,1584207865570,3421877462076,0.024174854,0,1
1584207867130,NaN,0.10821042,-0.013427734,-0.81933594,0.5527344,1584207865650,3421877462076,0.024174854,0,1
1584207867133,NaN,0.11426436,-0.017333984,-0.82666016,0.5456543,1584207865730,3421877462076,0.024174854,0,1
1584207867137,NaN,0.09915191,-0.016357422,-0.8183594,0.5541992,1584207865810,3421877462076,0.024174854,0,1
1584207867140,NaN,0.071678475,-0.016845703,-0.8251953,0.55566406,1584207865890,3421877462076,0.024174854,0,1
1584207867143,NaN,0.044793073,-0.01928711,-0.8234863,0.55371094,1584207865970,3421877462076,0.021048548,0,1
1584207867147,NaN,-0.0069193393,-0.024169922,-0.8215332,0.5515137,1584207866050,3421877462076,0.021048548,0,1
1584207867151,31.25,-0.038248423,-0.0126953125,-0.82666016,0.5488281,1584207866130,3421877462076,0.021048548,0,1
1584207867154,NaN,-0.06885752,-0.017822266,-0.8220215,0.55615234,1584207866210,3421877462076,0.021048548,0,1
1584207867157,NaN,-0.05960605,-0.024658203,-0.82910156,0.55371094,1584207866290,3421877462076,0.021048548,0,1
1584207867160,NaN,-0.07282075,-0.018310547,-0.81689453,0.55444336,1584207866370,3421877462076,0.021048548,0,1
1584207867163,NaN,-0.08098445,-0.023925781,-0.82788086,0.55493164,1584207866450,3421877462076,0.021048548,0,1
1584207867167,NaN,-0.11949205,-0.026123047,-0.81469727,0.56762695,1584207866530,3421877462076,0.021048548,0,1
1584207867169,NaN,-0.11776645,-0.01928711,-0.8222656,0.5593262,1584207866610,3421877462076,0.021048548,0,1
1584207867172,NaN,-0.12506457,-0.01977539,-0.8249512,0.5505371,1584207866690,3421877462076,0.021048548,0,1
1584207867175,NaN,-0.10666418,-0.017089844,-0.8244629,0.54907227,1584207866770,3421877462076,0.021048548,0,1
1584207867178,NaN,-0.09481916,-0.026367188,-0.8234863,0.55810547,1584207866850,3421877462076,0.021048548,0,1
1584207867181,NaN,-0.07728732,-0.02709961,-0.82128906,0.5437012,1584207866930,3421877462076,0.021048548,0,1
1584207869644,NaN,-0.051582262,-0.022460938,-0.82177734,0.5493164,1584207867010,-2774794150208,0.021048548,0,1
1584207869650,NaN,-0.03560095,-0.021972656,-0.82299805,0.5373535,1584207867090,-2774794150208,0.021048548,0,1
1584207869656,NaN,-0.00838738,-0.026855469,-0.8249512,0.53759766,1584207867170,-2774794150208,0.021048548,0,1
1584207869660,NaN,-0.010921638,-0.021240234,-0.826416,0.5515137,1584207867250,-2774794150208,0.021048548,0,1
1584207869664,NaN,0.0014483345,-0.022705078,-0.82666016,0.5505371,1584207867330,-2774794150208,0.021048548,0,1
1584207869668,NaN,-0.009375811,-0.026123047,-0.8166504,0.56225586,1584207867410,-2774794150208,0.021048548,0,1
1584207869674,NaN,0.03637021,-0.031982422,-0.8378906,0.5515137,1584207867490,-2774794150208,0.02451274,0,1
1584207869677,NaN,0.040647667,-0.02709961,-0.8178711,0.55444336,1584207867570,-2774794150208,0.02451274,0,1
1584207869681,NaN,0.033136453,-0.030761719,-0.81933594,0.56225586,1584207867650,-2774794150208,0.02451274,0,1
1584207869686,NaN,0.004730135,-0.028564453,-0.8120117,0.5708008,1584207867730,-2774794150208,0.02451274,0,1
1584207869691,NaN,-0.0027983375,-0.025390625,-0.8154297,0.56933594,1584207867810,-2774794150208,0.02451274,0,1
1584207869696,NaN,-0.027352214,-0.018066406,-0.8117676,0.56762695,1584207867890,-2774794150208,0.02451274,0,1
1584207869700,NaN,-0.045712914,-0.020019531,-0.81396484,0.5683594,1584207867970,-2774794150208,0.02451274,0,1
1584207869704,NaN,-0.07497493,-0.025634766,-0.81225586,0.5649414,1584207868050,-2774794150208,0.02451274,0,1
1584207869707,NaN,-0.11381337,-0.018310547,-0.8105469,0.5666504,1584207868130,-2774794150208,0.02451274,0,1
1584207869711,NaN,-0.13693419,-0.025390625,-0.810791,0.5727539,1584207868210,-2774794150208,0.02451274,0,1
1584207869714,NaN,-0.16659944,-0.018554688,-0.81640625,0.5776367,1584207868290,-2774794150208,0.02451274,0,1
1584207869718,NaN,-0.17220937,-0.013916016,-0.80029297,0.57592773,1584207868370,-2774794150208,0.02451274,0,1
1584207869721,NaN,-0.21692853,-0.010253906,-0.8117676,0.5698242,1584207868450,-2774794150208,0.02451274,0,1
1584207869723,NaN,-0.21676485,-0.01977539,-0.8232422,0.55810547,1584207868530,-2774794150208,0.02451274,0,1
1584207869727,NaN,-0.20685744,-0.03466797,-0.8166504,0.5629883,1584207868610,-2774794150208,0.02451274,0,1
1584207869730,NaN,-0.16501139,-0.028564453,-0.8195801,0.5473633,1584207868690,-2774794150208,0.02451274,0,1
1584207869734,NaN,-0.14220336,-0.022216797,-0.81640625,0.55371094,1584207868770,-2774794150208,0.02451274,0,1
1584207869736,NaN,-0.101473205,-0.021240234,-0.82177734,0.5439453,1584207868850,-2774794150208,0.02451274,0,1
1584207869739,NaN,-0.06279277,-0.021728516,-0.8198242,0.54003906,1584207868930,-2774794150208,0.02451274,0,1
1584207869742,NaN,-0.026555339,-0.029052734,-0.82592773,0.55688477,1584207869010,-2774794150208,0.02451274,0,1
1584207869745,NaN,0.009811338,-0.028808594,-0.8210449,0.5578613,1584207869090,-2774794150208,0.02451274,0,1
1584207869748,NaN,0.040470332,-0.020751953,-0.81762695,0.56591797,1584207869170,-2774794150208,0.02451274,0,1
1584207869751,NaN,0.079199076,-0.031982422,-0.82543945,0.5600586,1584207869250,-2774794150208,0.02451274,0,1
1584207869753,NaN,0.104782395,-0.022705078,-0.8029785,0.56347656,1584207869330,-2774794150208,0.024540687,0,1
1584207869756,NaN,0.1317647,-0.021484375,-0.814209,0.5656738,1584207869410,-2774794150208,0.024540687,0,1
1584207869761,NaN,0.114053704,-0.015380859,-0.8105469,0.5744629,1584207869490,-2774794150208,0.024540687,0,1
1584207872228,NaN,0.10784637,-0.018554688,-0.814209,0.57421875,1584207869570,-8971184287516,0.024540687,0,1
1584207872236,NaN,0.070122294,-0.015380859,-0.8083496,0.56640625,1584207869650,-8971184287516,0.024540687,0,1
1584207872241,NaN,0.05576223,-0.0034179688,-0.8183594,0.5600586,1584207869730,-8971184287516,0.024540687,0,1
1584207872245,NaN,0.025722891,0.0026855469,-0.82006836,0.5566406,1584207869810,-8971184287516,0.024540687,0,1
1584207872250,NaN,-0.0037159629,0.0,-0.82958984,0.55737305,1584207869890,-8971184287516,0.024540687,0,1
1584207872254,NaN,-0.016351445,0.0017089844,-0.8215332,0.5546875,1584207869970,-8971184287516,0.024540687,0,1
1584207872258,NaN,-0.025888218,-0.009765625,-0.8256836,0.5593262,1584207870050,-8971184287516,0.024540687,0,1
1584207872262,NaN,-0.028226385,-0.008544922,-0.8183594,0.5576172,1584207870130,-8971184287516,0.024540687,0,1
1584207872265,NaN,-0.029929737,-0.0107421875,-0.83374023,0.54541016,1584207870210,-8971184287516,0.024540687,0,1
1584207872268,NaN,-0.013678789,-0.008544922,-0.8286133,0.5439453,1584207870290,-8971184287516,0.024540687,0,1
1584207872272,NaN,0.0045494884,-0.006591797,-0.82373047,0.5410156,1584207870370,-8971184287516,0.024540687,0,1
1584207872275,NaN,0.050688963,-0.0107421875,-0.8251953,0.5427246,1584207870450,-8971184287516,0.024540687,0,1
1584207872279,NaN,0.087737285,0.0026855469,-0.82421875,0.5402832,1584207870530,-8971184287516,0.024540687,0,1
1584207872284,NaN,0.13879387,0.0041503906,-0.82666016,0.53222656,1584207870610,-8971184287516,0.024540687,0,1
1584207872288,NaN,0.15792058,0.007080078,-0.82592773,0.54248047,1584207870690,-8971184287516,0.024540687,0,1
1584207872294,NaN,0.17660636,-0.005126953,-0.828125,0.5480957,1584207870770,-8971184287516,0.024540687,0,1
1584207872298,NaN,0.18627726,0.0056152344,-0.8359375,0.5583496,1584207870850,-8971184287516,0.024540687,0,1
1584207872302,NaN,0.2013122,0.009521484,-0.8347168,0.54345703,1584207870930,-8971184287516,0.024540687,0,1
1584207872305,NaN,0.20713812,0.008544922,-0.8239746,0.5498047,1584207871010,-8971184287516,0.024540687,0,1
1584207872310,NaN,0.21595067,0.009765625,-0.828125,0.5444336,1584207871090,-8971184287516,0.024540687,0,1
1584207872314,NaN,0.19332051,0.008056641,-0.82714844,0.55444336,1584207871170,-8971184287516,0.024540687,0,1
1584207872318,NaN,0.15532334,0.0053710938,-0.8220215,0.5578613,1584207871250,-8971184287516,0.024540687,0,1
1584207872322,NaN,0.12197876,0.0014648438,-0.8208008,0.55615234,1584207871330,-8971184287516,0.024540687,0,1
1584207872326,NaN,0.085624106,0.0043945312,-0.8234863,0.5527344,1584207871410,-8971184287516,0.024540687,0,1
1584207872330,NaN,0.056203652,0.01586914,-0.8293457,0.545166,1584207871490,-8971184287516,0.024540687,0,1
1584207872333,NaN,0.0068038343,0.0107421875,-0.8244629,0.55444336,1584207871570,-8971184287516,0.024540687,0,1
1584207872338,NaN,-0.009568973,0.0043945312,-0.83374023,0.54785156,1584207871650,-8971184287516,0.024540687,0,1
1584207872340,NaN,-0.021110468,0.0043945312,-0.82128906,0.54663086,1584207871730,-8971184287516,0.024540687,0,1
1584207872343,NaN,-0.02369526,0.0,-0.8293457,0.5541992,1584207871810,-8971184287516,0.024540687,0,1
1584207872345,NaN,-0.055937845,-0.0053710938,-0.81762695,0.5576172,1584207871890,-8971184287516,0.019758806,0,1
1584207872348,NaN,-0.058304075,-0.0053710938,-0.83740234,0.55249023,1584207871970,-8971184287516,0.020429188,0,1
1584207872351,NaN,-0.071746916,-0.018554688,-0.84155273,0.5517578,1584207872050,-8971184287516,0.020429188,0,1
1584207874810,NaN,-0.05012235,-0.02368164,-0.8288574,0.5383301,1584207872130,3279169648884,0.020429188,0,1
1584207874815,NaN,-0.012989345,-0.02734375,-0.8300781,0.5300293,1584207872210,3279169648884,0.020429188,0,1
1584207874821,NaN,0.031908873,-0.03125,-0.8232422,0.51293945,1584207872290,3279169648884,0.020429188,0,1
1584207874828,18.75,0.06997488,-0.015625,-0.84277344,0.5234375,1584207872370,3279169648884,0.02712599,0,1
1584207874838,NaN,0.10055747,-0.07470703,-0.8508301,0.5288086,1584207872450,3279169648884,0.059870232,0,1
1584207874842,NaN,0.14455716,-0.07397461,-0.83862305,0.54003906,1584207872530,3279169648884,0.059870232,0,1
1584207874845,NaN,0.13681625,-0.050048828,-0.8215332,0.5600586,1584207872610,3279169648884,0.059870232,0,1
1584207874849,NaN,0.13626425,-0.053466797,-0.80688477,0.548584,1584207872690,3279169648884,0.059870232,0,1
1584207874854,NaN,0.11908495,-0.07714844,-0.8051758,0.5698242,1584207872770,3279169648884,0.059870232,0,1
1584207874858,NaN,0.11413964,-0.071777344,-0.81152344,0.58984375,1584207872850,3279169648884,0.059870232,0,1
1584207874863,NaN,0.07164322,-0.09277344,-0.8000488,0.5827637,1584207872930,3279169648884,0.059870232,0,1
1584207874869,NaN,0.023120224,-0.08691406,-0.77197266,0.5695801,1584207873010,3279169648884,0.059870232,0,1
1584207874871,NaN,-0.040731546,-0.12548828,-0.79785156,0.579834,1584207873090,3279169648884,0.059870232,0,1
1584207874875,NaN,-0.11809597,-0.15307617,-0.8066406,0.5686035,1584207873170,3279169648884,0.059870232,0,1
1584207874878,NaN,-0.22685646,-0.14697266,-0.7980957,0.5793457,1584207873250,3279169648884,0.059870232,0,1
1584207874882,NaN,-0.33148775,-0.13305664,-0.78881836,0.55981445,1584207873330,3279169648884,0.059870232,0,1
1584207874885,NaN,-0.4355334,-0.14257812,-0.7944336,0.5773926,1584207873410,3279169648884,0.059870232,0,1
1584207874888,NaN,-0.526548,-0.1496582,-0.7963867,0.578125,1584207873490,3279169648884,0.059870232,0,1
1584207874891,NaN,-0.58090407,-0.16625977,-0.7792969,0.5749512,1584207873570,3279169648884,0.059870232,0,1
1584207874893,NaN,-0.6381245,-0.15673828,-0.7895508,0.58081055,1584207873650,3279169648884,0.059870232,0,1
1584207874897,NaN,-0.6468985,-0.14111328,-0.80200195,0.5761719,1584207873730,3279169648884,0.059870232,0,1
1584207874900,NaN,-0.6427759,-0.14916992,-0.7963867,0.57055664,1584207873810,3279169648884,0.059870232,0,1
1584207874903,NaN,-0.60762185,-0.140625,-0.79711914,0.56347656,1584207873890,3279169648884,0.059870232,0,1
1584207874906,NaN,-0.5617747,-0.16040039,-0.79785156,0.56225586,1584207873970,3279169648884,0.059870232,0,1
1584207874910,NaN,-0.5047209,-0.1772461,-0.8095703,0.5595703,1584207874050,3279169648884,0.059870232,0,1
1584207874915,NaN,-0.46659377,-0.16870117,-0.7919922,0.5739746,1584207874130,3279169648884,0.059870232,0,1
1584207874917,NaN,-0.39279386,-0.15844727,-0.79248047,0.5732422,1584207874210,3279169648884,0.059870232,0,1
1584207874921,NaN,-0.32974073,-0.1616211,-0.79785156,0.57299805,1584207874290,3279169648884,0.059870232,0,1
1584207874926,NaN,-0.25871745,-0.16308594,-0.7902832,0.5710449,1584207874370,3279169648884,0.059870232,0,1
1584207874929,NaN,-0.1952467,-0.16625977,-0.7961426,0.5715332,1584207874450,3279169648884,0.059870232,0,1
1584207874932,NaN,-0.12182704,-0.15942383,-0.7944336,0.57177734,1584207874530,3279169648884,0.059870232,0,1
1584207874936,NaN,-0.063336834,-0.1652832,-0.79003906,0.5800781,1584207874610,3279169648884,0.059870232,0,1
1584207877395,NaN,-0.044761505,-0.1628418,-0.79296875,0.57250977,1584207874690,-2917501963400,0.059870232,0,1
1584207877399,NaN,-0.037060995,-0.16381836,-0.7871094,0.5751953,1584207874770,-2917501963400,0.059870232,0,1
1584207877406,NaN,-0.05191954,-0.1821289,-0.810791,0.5859375,1584207874850,-2917501963400,0.059870232,0,1
1584207877413,NaN,-0.0710038,-0.17919922,-0.78564453,0.5776367,1584207874930,-2917501963400,0.059870232,0,1
1584207877419,NaN,-0.102417886,-0.19482422,-0.78271484,0.57128906,1584207875010,-2917501963400,0.04756922,0,1
1584207877427,NaN,-0.08821654,-0.20385742,-0.7922363,0.5600586,1584207875090,-2917501963400,0.04756922,0,1
1584207877432,NaN,-0.085963845,-0.2019043,-0.7897949,0.55371094,1584207875170,-2917501963400,0.04756922,0,1
1584207877438,NaN,-0.07444474,-0.20629883,-0.79785156,0.5563965,1584207875250,-2917501963400,0.04756922,0,1
1584207877441,NaN,-0.068256,-0.19970703,-0.7890625,0.55322266,1584207875330,-2917501963400,0.04756922,0,1
1584207877445,NaN,-0.06947956,-0.18823242,-0.78271484,0.5559082,1584207875410,-2917501963400,0.04756922,0,1
1584207877449,NaN,-0.067786716,-0.18847656,-0.79174805,0.54125977,1584207875490,-2917501963400,0.04756922,0,1
1584207877454,NaN,-0.062073693,-0.19091797,-0.8095703,0.58154297,1584207875570,-2917501963400,0.04756922,0,1
1584207877457,NaN,-0.06768694,-0.17749023,-0.7824707,0.58081055,1584207875650,-2917501963400,0.04411723,0,1
1584207877461,NaN,-0.055121403,-0.17700195,-0.796875,0.57714844,1584207875730,-2917501963400,0.04411723,0,1
1584207877465,NaN,-0.036074843,-0.17480469,-0.7902832,0.57006836,1584207875810,-2917501963400,0.04411723,0,1
1584207877469,NaN,-0.01088411,-0.17944336,-0.7819824,0.5673828,1584207875890,-2917501963400,0.04411723,0,1
1584207877472,NaN,0.022434318,-0.17480469,-0.7949219,0.57373047,1584207875970,-2917501963400,0.04411723,0,1
1584207877476,NaN,0.00531851,-0.1730957,-0.7878418,0.5913086,1584207876050,-2917501963400,0.04411723,0,1
1584207877479,NaN,-0.01479162,-0.16235352,-0.7819824,0.5866699,1584207876130,-2917501963400,0.04411723,0,1
1584207877482,NaN,-0.030982027,-0.16723633,-0.7907715,0.5822754,1584207876210,-2917501963400,0.04411723,0,1
1584207877485,NaN,-0.041572284,-0.16186523,-0.78759766,0.5698242,1584207876290,-2917501963400,0.04411723,0,1
1584207877488,NaN,-0.058222625,-0.16577148,-0.7841797,0.58740234,1584207876370,-2917501963400,0.04411723,0,1
1584207877491,NaN,-0.09492099,-0.1640625,-0.7963867,0.5842285,1584207876450,-2917501963400,0.04411723,0,1
1584207877493,NaN,-0.104929656,-0.1574707,-0.78564453,0.57592773,1584207876530,-2917501963400,0.04411723,0,1
1584207877497,NaN,-0.08477742,-0.16479492,-0.7897949,0.5773926,1584207876610,-2917501963400,0.04411723,0,1
1584207877500,NaN,-0.09810995,-0.16552734,-0.7819824,0.5852051,1584207876690,-2917501963400,0.04411723,0,1
1584207877503,NaN,-0.11284021,-0.16259766,-0.7841797,0.5871582,1584207876770,-2917501963400,0.04411723,0,1
1584207877506,NaN,-0.122698784,-0.15942383,-0.7890625,0.5822754,1584207876850,-2917501963400,0.04411723,0,1
1584207877509,NaN,-0.14058161,-0.15258789,-0.7854004,0.5830078,1584207876930,-2917501963400,0.04411723,0,1
1584207877513,NaN,-0.11133046,-0.16552734,-0.7871094,0.5734863,1584207877010,-2917501963400,0.04411723,0,1
1584207877517,NaN,-0.08782816,-0.1652832,-0.78515625,0.5830078,1584207877090,-2917501963400,0.04411723,0,1
1584207877520,NaN,-0.07833203,-0.16821289,-0.78759766,0.5888672,1584207877170,-2917501963400,0.04411723,0,1
1584207879977,NaN,-0.08113857,-0.16552734,-0.78271484,0.5812988,1584207877250,-9113892100709,0.04411723,0,1
1584207879985,NaN,-0.06319918,-0.16894531,-0.78515625,0.5876465,1584207877330,-9113892100709,0.04411723,0,1
1584207879990,NaN,-0.046064366,-0.16357422,-0.7807617,0.58251953,1584207877410,-9113892100709,0.04411723,0,1
1584207879994,NaN,-0.04253346,-0.16210938,-0.7858887,0.5788574,1584207877490,-9113892100709,0.04411723,0,1
1584207879999,NaN,-0.061996084,-0.16503906,-0.7792969,0.58813477,1584207877570,-9113892100709,0.04411723,0,1
1584207880002,NaN,-0.04609951,-0.16992188,-0.78686523,0.58251953,1584207877650,-9113892100709,0.04411723,0,1
1584207880007,NaN,-0.033025526,-0.15942383,-0.7770996,0.5827637,1584207877730,-9113892100709,0.04411723,0,1
1584207880012,NaN,-0.0362334,-0.15795898,-0.7817383,0.58935547,1584207877810,-9113892100709,0.04411723,0,1
1584207880017,NaN,-0.03723639,-0.15991211,-0.77490234,0.5905762,1584207877890,-9113892100709,0.04411723,0,1
1584207880020,NaN,-0.06177059,-0.1784668,-0.7807617,0.5864258,1584207877970,-9113892100709,0.04411723,0,1
1584207880025,NaN,-0.07990112,-0.17773438,-0.78515625,0.6032715,1584207878050,-9113892100709,0.04411723,0,1
1584207880029,NaN,-0.067797504,-0.16210938,-0.7780762,0.57299805,1584207878130,-9113892100709,0.03479582,0,1
1584207880033,NaN,-0.049883436,-0.1574707,-0.7844238,0.5720215,1584207878210,-9113892100709,0.03479582,0,1
1584207880038,NaN,1.4996032E-4,-0.115234375,-0.8391113,0.56103516,1584207878290,-9113892100709,0.06996663,0,1
1584207880052,10.0,0.0646528,-0.039794922,-0.8198242,0.5515137,1584207878370,-9113892100709,0.07844592,0,1
1584207880054,NaN,0.13546942,-0.030029297,-0.829834,0.5449219,1584207878450,-9113892100709,0.07844592,0,1
1584207880055,NaN,0.24062939,-0.0026855469,-0.8234863,0.5378418,1584207878530,-9113892100709,0.07844592,0,1
1584207880055,NaN,0.3702095,0.056884766,-0.83154297,0.5136719,1584207878610,-9113892100709,0.07844592,0,1
1584207880057,NaN,0.5201209,0.078125,-0.83032227,0.52197266,1584207878690,-9113892100709,0.07844592,0,1
1584207880057,NaN,0.6884675,0.05126953,-0.8703613,0.53100586,1584207878770,-9113892100709,0.07844592,0,1
1584207880060,NaN,0.89036494,0.08520508,-0.8823242,0.52856445,1584207878850,-9113892100709,0.07844592,0,1
1584207880064,NaN,1.0675501,0.068115234,-0.79248047,0.5163574,1584207878930,-9113892100709,0.09226578,0,1
1584207880068,NaN,1.2254586,0.03955078,-0.8078613,0.56347656,1584207879010,-9113892100709,0.09226578,0,1
1584207880073,NaN,1.3549808,0.032470703,-0.8330078,0.55493164,1584207879090,-9113892100709,0.09226578,0,1
1584207880076,NaN,1.4834328,0.020751953,-0.8249512,0.5307617,1584207879170,-9113892100709,0.09226578,0,1
1584207880081,NaN,1.538365,0.02734375,-0.8322754,0.51416016,1584207879250,-9113892100709,0.09226578,0,1
1584207880085,NaN,1.5349627,0.030029297,-0.8256836,0.529541,1584207879330,-9113892100709,0.09226578,0,1
1584207880088,NaN,1.5020065,0.0126953125,-0.84643555,0.5344238,1584207879410,-9113892100709,0.09226578,0,1
1584207880091,NaN,1.447217,0.016113281,-0.8581543,0.5058594,1584207879490,-9113892100709,0.09226578,0,1
1584207880095,NaN,1.3291069,0.033691406,-0.86499023,0.47680664,1584207879570,-9113892100709,0.09226578,0,1
1584207880098,NaN,1.1861405,0.030273438,-0.8666992,0.47802734,1584207879650,-9113892100709,0.09226578,0,1
1584207880101,NaN,1.0624961,0.055419922,-0.87768555,0.4711914,1584207879730,-9113892100709,0.09226578,0,1
1584207882562,NaN,0.9046442,0.07836914,-0.87768555,0.4567871,1584207879810,3136461835692,0.09226578,0,1
1584207882571,NaN,0.82937115,0.09277344,-0.8918457,0.43310547,1584207879890,3136461835692,0.09226578,0,1
1584207882575,NaN,0.8267577,0.11035156,-0.9128418,0.43603516,1584207879970,3136461835692,0.09226578,0,1
1584207882579,NaN,0.8421571,0.12597656,-0.8925781,0.4086914,1584207880050,3136461835692,0.09226578,0,1
1584207882583,NaN,0.86675674,0.15209961,-0.8828125,0.40454102,1584207880130,3136461835692,0.09226578,0,1
1584207882588,NaN,0.89772266,0.1303711,-0.9140625,0.41381836,1584207880210,3136461835692,0.09226578,0,1
1584207882593,NaN,0.98369664,0.13134766,-0.89746094,0.41455078,1584207880290,3136461835692,0.09226578,0,1
1584207882597,NaN,1.0765437,0.115722656,-0.8886719,0.42871094,1584207880370,3136461835692,0.09226578,0,1
1584207882601,NaN,1.1369097,0.10498047,-0.9003906,0.4387207,1584207880450,3136461835692,0.09226578,0,1
1584207882606,NaN,1.1519495,0.09643555,-0.8532715,0.4794922,1584207880530,3136461835692,0.09226578,0,1
1584207882615,NaN,1.1378348,0.056884766,-0.8479004,0.5085449,1584207880610,3136461835692,0.09226578,0,1
1584207882619,NaN,1.0500222,0.048828125,-0.8330078,0.53466797,1584207880690,3136461835692,0.09226578,0,1
1584207882622,NaN,0.92523575,0.031982422,-0.826416,0.54833984,1584207880770,3136461835692,0.09226578,0,1
1584207882627,NaN,0.71209544,0.025146484,-0.82470703,0.5527344,1584207880850,3136461835692,0.09226578,0,1
1584207882631,NaN,0.44271174,0.037353516,-0.8234863,0.5476074,1584207880930,3136461835692,0.09226578,0,1
1584207882636,NaN,0.14968075,0.03881836,-0.82006836,0.5373535,1584207881010,3136461835692,0.09226578,0,1
1584207882638,NaN,-0.16282049,0.042236328,-0.83618164,0.5415039,1584207881090,3136461835692,0.09226578,0,1
1584207882642,NaN,-0.43896613,0.04736328,-0.8017578,0.5217285,1584207881170,3136461835692,0.09226578,0,1
1584207882645,NaN,-0.72764087,0.02709961,-0.8430176,0.54663086,1584207881250,3136461835692,0.09226578,0,1
1584207882649,NaN,-0.97516066,0.050048828,-0.8486328,0.5539551,1584207881330,3136461835692,0.09226578,0,1
1584207882651,NaN,-1.1794119,0.06274414,-0.83618164,0.54956055,1584207881410,3136461835692,0.09226578,0,1
1584207882654,NaN,-1.2862297,0.053466797,-0.82299805,0.5571289,1584207881490,3136461835692,0.06289311,0,1
1584207882658,NaN,-1.3370913,0.017578125,-0.81274414,0.55493164,1584207881570,3136461835692,0.06289311,0,1
1584207882661,NaN,-1.3106416,0.035888672,-0.8203125,0.5595703,1584207881650,3136461835692,0.06289311,0,1
1584207882664,NaN,-1.247363,0.010009766,-0.8117676,0.56933594,1584207881730,3136461835692,0.06289311,0,1
1584207882667,NaN,-1.1488701,-0.0029296875,-0.8210449,0.56933594,1584207881810,3136461835692,0.06289311,0,1
1584207882670,NaN,-1.0637896,-0.0075683594,-0.79418945,0.564209,1584207881890,3136461835692,0.06289311,0,1
1584207882673,NaN,-0.9938306,-0.053466797,-0.80810547,0.57055664,1584207881970,3136461835692,0.06289311,0,1
1584207882676,NaN,-0.92561704,-0.068359375,-0.8208008,0.57470703,1584207882050,3136461835692,0.06289311,0,1
1584207882678,NaN,-0.85524565,-0.05078125,-0.8088379,0.5559082,1584207882130,3136461835692,0.06289311,0,1
1584207882681,NaN,-0.7664121,-0.04345703,-0.8208008,0.57055664,1584207882210,3136461835692,0.06289311,0,1
1584207882684,NaN,-0.72066116,-0.029296875,-0.7988281,0.5751953,1584207882290,3136461835692,0.06289311,0,1
1584207885147,NaN,-0.706038,-0.06762695,-0.8117676,0.5656738,1584207882370,-3060209776592,0.06289311,0,1
1584207885153,NaN,-0.7307399,-0.103271484,-0.810791,0.56762695,1584207882450,-3060209776592,0.06289311,0,1
1584207885159,NaN,-0.7334483,-0.084228516,-0.8144531,0.56030273,1584207882530,-3060209776592,0.06289311,0,1
1584207885163,NaN,-0.7957408,-0.09790039,-0.8059082,0.5656738,1584207882610,-3060209776592,0.06289311,0,1
1584207885168,NaN,-0.8322068,-0.091308594,-0.7993164,0.5695801,1584207882690,-3060209776592,0.06289311,0,1
1584207885175,NaN,-0.87355477,-0.09399414,-0.8051758,0.58251953,1584207882770,-3060209776592,0.06289311,0,1
1584207885181,NaN,-0.8775432,-0.087890625,-0.8034668,0.57055664,1584207882850,-3060209776592,0.06289311,0,1
1584207885186,NaN,-0.827568,-0.08618164,-0.8041992,0.5732422,1584207882930,-3060209776592,0.06289311,0,1
1584207885190,NaN,-0.7577633,-0.08105469,-0.80981445,0.5793457,1584207883010,-3060209776592,0.06289311,0,1
1584207885194,NaN,-0.71088797,-0.07373047,-0.8039551,0.5720215,1584207883090,-3060209776592,0.052279167,0,1
1584207885197,NaN,-0.6776712,-0.071777344,-0.80566406,0.5788574,1584207883170,-3060209776592,0.052279167,0,1
1584207885200,NaN,-0.6259691,-0.064208984,-0.80737305,0.5847168,1584207883250,-3060209776592,0.052279167,0,1
1584207885203,NaN,-0.5658968,-0.08544922,-0.7819824,0.58569336,1584207883330,-3060209776592,0.052279167,0,1
1584207885208,NaN,-0.4521897,-0.056640625,-0.79467773,0.5834961,1584207883410,-3060209776592,0.052279167,0,1
1584207885211,NaN,-0.3880031,-0.061767578,-0.80737305,0.57470703,1584207883490,-3060209776592,0.052279167,0,1
1584207885214,NaN,-0.26304305,-0.045898438,-0.8178711,0.55810547,1584207883570,-3060209776592,0.052279167,0,1
1584207885218,NaN,-0.15414716,-0.049072266,-0.8251953,0.548584,1584207883650,-3060209776592,0.052279167,0,1
1584207885220,NaN,-0.024131194,-0.03125,-0.82299805,0.53930664,1584207883730,-3060209776592,0.052279167,0,1
1584207885223,NaN,0.10354957,-0.0061035156,-0.84521484,0.5332031,1584207883810,-3060209776592,0.0483799,0,1
1584207885227,NaN,0.21719009,0.0041503906,-0.8527832,0.5280762,1584207883890,-3060209776592,0.0483799,0,1
1584207885231,10.714286,0.32387722,7.324219E-4,-0.8532715,0.51782227,1584207883970,-3060209776592,0.0483799,0,1
1584207885235,NaN,0.43971,0.0048828125,-0.8442383,0.5046387,1584207884050,-3060209776592,0.0483799,0,1
1584207885238,NaN,0.5908273,0.03857422,-0.85498047,0.4909668,1584207884130,-3060209776592,0.0483799,0,1
1584207885242,NaN,0.73250705,0.03955078,-0.8720703,0.5095215,1584207884210,-3060209776592,0.0483799,0,1
1584207885247,NaN,0.9210124,0.052246094,-0.8540039,0.48095703,1584207884290,-3060209776592,0.0483799,0,1
1584207885251,NaN,1.053407,0.072265625,-0.8623047,0.48950195,1584207884370,-3060209776592,0.0483799,0,1
1584207885254,NaN,1.2076007,0.07543945,-0.8688965,0.46289062,1584207884450,-3060209776592,0.0483799,0,1
1584207885259,NaN,1.3136181,0.0859375,-0.8815918,0.46728516,1584207884530,-3060209776592,0.041560594,0,1
1584207885262,NaN,1.4234467,0.09277344,-0.8769531,0.44262695,1584207884610,-3060209776592,0.041560594,0,1
1584207885266,NaN,1.5064025,0.107177734,-0.87768555,0.44580078,1584207884690,-3060209776592,0.041560594,0,1
1584207885272,NaN,1.5537443,0.10864258,-0.89160156,0.44384766,1584207884770,-3060209776592,0.041560594,0,1
1584207885273,NaN,1.5891423,0.119140625,-0.88378906,0.4333496,1584207884850,-3060209776592,0.041560594,0,1
1584207887731,NaN,1.6315078,0.13378906,-0.89086914,0.43066406,1584207884930,9190144159808,0.037913397,0,1
1584207887737,NaN,1.6577448,0.12670898,-0.8791504,0.4333496,1584207885010,9190144159808,0.037913397,0,1
1584207887742,NaN,1.617762,0.12011719,-0.8791504,0.43432617,1584207885090,9190144159808,0.037913397,0,1
1584207887748,NaN,1.578671,0.111572266,-0.88500977,0.44506836,1584207885170,9190144159808,0.037913397,0,1
1584207887752,NaN,1.4752475,0.12011719,-0.8742676,0.46411133,1584207885250,9190144159808,0.037913397,0,1
1584207887757,NaN,1.3706743,0.12011719,-0.8718262,0.4711914,1584207885330,9190144159808,0.037913397,0,1
1584207887760,NaN,1.2122502,0.10229492,-0.86865234,0.49365234,1584207885410,9190144159808,0.037913397,0,1
1584207887763,NaN,1.0489492,0.099609375,-0.8562012,0.50756836,1584207885490,9190144159808,0.037913397,0,1
1584207887767,NaN,0.8317093,0.07763672,-0.83496094,0.52441406,1584207885570,9190144159808,0.037913397,0,1
1584207887772,NaN,0.61597645,0.07861328,-0.8317871,0.5227051,1584207885650,9190144159808,0.037913397,0,1
1584207887776,NaN,0.4048059,0.072753906,-0.8220215,0.5280762,1584207885730,9190144159808,0.037913397,0,1
1584207887778,NaN,0.19214769,0.06933594,-0.83740234,0.5161133,1584207885810,9190144159808,0.037913397,0,1
1584207887782,NaN,-0.08696192,0.041259766,-0.8010254,0.55371094,1584207885890,9190144159808,0.059372872,0,1
1584207887786,NaN,-0.33052826,0.05078125,-0.8220215,0.5527344,1584207885970,9190144159808,0.059372872,0,1
1584207887791,NaN,-0.5047963,0.064697266,-0.86279297,0.53149414,1584207886050,9190144159808,0.059372872,0,1
1584207887794,NaN,-0.6241499,0.110839844,-0.8408203,0.49316406,1584207886130,9190144159808,0.06388372,0,1
1584207887798,NaN,-0.7194373,0.09667969,-0.861084,0.5090332,1584207886210,9190144159808,0.06388372,0,1
1584207887802,NaN,-0.8471249,0.04296875,-0.82910156,0.5275879,1584207886290,9190144159808,0.06520749,0,1
1584207887805,NaN,-0.8930437,0.05029297,-0.85791016,0.51904297,1584207886370,9190144159808,0.06520749,0,1
1584207887808,NaN,-0.8711118,0.080322266,-0.86035156,0.48364258,1584207886450,9190144159808,0.06520749,0,1
1584207887812,NaN,-0.7782846,0.07861328,-0.85717773,0.48120117,1584207886530,9190144159808,0.06520749,0,1
1584207887815,NaN,-0.6900428,0.07910156,-0.86328125,0.5041504,1584207886610,9190144159808,0.06520749,0,1
1584207887818,NaN,-0.601178,0.048583984,-0.8496094,0.5048828,1584207886690,9190144159808,0.06520749,0,1
1584207887820,NaN,-0.5190272,0.052246094,-0.8547363,0.5126953,1584207886770,9190144159808,0.06520749,0,1
1584207887824,NaN,-0.3195973,0.06347656,-0.86279297,0.5053711,1584207886850,9190144159808,0.06520749,0,1
1584207887827,NaN,-0.16197874,0.055908203,-0.85253906,0.51123047,1584207886930,9190144159808,0.06520749,0,1
1584207887830,NaN,-0.053196896,0.07299805,-0.861084,0.50341797,1584207887010,9190144159808,0.06520749,0,1
1584207887833,NaN,-0.06799647,0.033203125,-0.8574219,0.5148926,1584207887090,9190144159808,0.06520749,0,1
1584207887838,NaN,-0.06938756,0.037597656,-0.84521484,0.515625,1584207887170,9190144159808,0.06520749,0,1
1584207887840,NaN,0.007147589,0.033203125,-0.82543945,0.5349121,1584207887250,9190144159808,0.06520749,0,1
1584207887843,NaN,0.022025587,0.034179688,-0.8293457,0.5476074,1584207887330,9190144159808,0.06520749,0,1
1584207887846,NaN,-0.056415875,0.020996094,-0.8210449,0.5410156,1584207887410,9190144159808,0.06520749,0,1
1584207890114,NaN,-0.15791072,0.01977539,-0.82299805,0.5336914,1584207887490,2993754022499,0.06520749,0,1
1584207890118,NaN,-0.22500236,0.032226562,-0.81103516,0.5144043,1584207887570,2993754022499,0.06520749,0,1
1584207890123,NaN,-0.25916624,0.030029297,-0.8466797,0.5373535,1584207887650,2993754022499,0.06520749,0,1
1584207890130,NaN,-0.27674556,0.03564453,-0.8562012,0.5354004,1584207887730,2993754022499,0.06520749,0,1
1584207890135,NaN,-0.36898887,0.02709961,-0.8532715,0.52905273,1584207887810,2993754022499,0.06520749,0,1
1584207890140,NaN,-0.42167726,0.032470703,-0.8378906,0.5131836,1584207887890,2993754022499,0.06520749,0,1
1584207890144,NaN,-0.47585097,0.03540039,-0.85131836,0.5217285,1584207887970,2993754022499,0.06520749,0,1
1584207890149,NaN,-0.42860433,0.033447266,-0.8449707,0.5192871,1584207888050,2993754022499,0.06520749,0,1
1584207890154,NaN,-0.39277688,0.028808594,-0.85009766,0.52197266,1584207888130,2993754022499,0.06520749,0,1
1584207890160,NaN,-0.35933843,0.03515625,-0.8586426,0.51171875,1584207888210,2993754022499,0.06520749,0,1
1584207890165,NaN,-0.2946757,0.041015625,-0.86279297,0.5114746,1584207888290,2993754022499,0.06520749,0,1
1584207890171,NaN,-0.23202763,-9.765625E-4,-0.78515625,0.52075195,1584207888370,2993754022499,0.08875175,0,1
1584207890174,NaN,-0.16318402,0.0041503906,-0.87231445,0.5500488,1584207888450,2993754022499,0.09209313,0,1
1584207890178,NaN,-0.08271334,0.048583984,-0.8469238,0.49121094,1584207888530,2993754022499,0.09209313,0,1
1584207890181,NaN,-0.01597806,0.053222656,-0.86328125,0.49951172,1584207888610,2993754022499,0.09209313,0,1
1584207890185,NaN,-0.01849784,0.017578125,-0.8117676,0.53515625,1584207888690,2993754022499,0.09209313,0,1
1584207890189,NaN,0.003578823,0.0012207031,-0.8779297,0.5422363,1584207888770,2993754022499,0.09209313,0,1
1584207890193,NaN,0.024756027,0.03515625,-0.8234863,0.50439453,1584207888850,2993754022499,0.09209313,0,1
1584207890196,NaN,0.0800526,0.037109375,-0.87841797,0.5007324,1584207888930,2993754022499,0.09209313,0,1
1584207890199,NaN,0.088262476,0.033691406,-0.8383789,0.51123047,1584207889010,2993754022499,0.09209313,0,1
1584207890203,NaN,0.09007146,0.013916016,-0.861084,0.5227051,1584207889090,2993754022499,0.09209313,0,1
1584207890205,NaN,0.03975391,0.004638672,-0.8479004,0.5251465,1584207889170,2993754022499,0.09209313,0,1
1584207890209,NaN,-0.028858168,0.010498047,-0.8220215,0.52319336,1584207889250,2993754022499,0.09209313,0,1
1584207890211,NaN,-0.013906444,-0.0075683594,-0.8444824,0.546875,1584207889330,2993754022499,0.09209313,0,1
1584207890214,NaN,-0.007762113,0.014160156,-0.83691406,0.532959,1584207889410,2993754022499,0.09209313,0,1
1584207890218,NaN,-0.07146295,0.020507812,-0.8354492,0.5144043,1584207889490,2993754022499,0.09209313,0,1
1584207890221,NaN,-0.14334188,0.02758789,-0.826416,0.5136719,1584207889570,2993754022499,0.09209313,0,1
1584207890225,NaN,-0.10494935,0.024169922,-0.80493164,0.51123047,1584207889650,2993754022499,0.09209313,0,1
1584207890227,NaN,-0.09026935,0.0107421875,-0.8769531,0.5500488,1584207889730,2993754022499,0.09209313,0,1
1584207890230,NaN,-0.08880395,0.053710938,-0.8491211,0.5307617,1584207889810,2993754022499,0.09209313,0,1
1584207890233,NaN,-0.1185418,0.059814453,-0.8413086,0.51538086,1584207889890,2993754022499,0.09209313,0,1
1584207890235,NaN,-0.09012573,0.07739258,-0.8508301,0.50439453,1584207889970,2993754022499,0.09209313,0,1
1584207892697,NaN,-0.04635623,0.075927734,-0.85131836,0.5065918,1584207890050,-3202917589785,0.09209313,0,1
1584207892702,NaN,0.03295894,0.06616211,-0.8647461,0.5012207,1584207890130,-3202917589785,0.09209313,0,1
1584207892707,NaN,0.1253375,0.07714844,-0.85009766,0.5031738,1584207890210,-3202917589785,0.09209313,0,1
1584207892713,9.49367,0.20846207,0.088378906,-0.8569336,0.4958496,1584207890290,-3202917589785,0.09209313,0,1
1584207892719,NaN,0.2558938,0.07348633,-0.84643555,0.5058594,1584207890370,-3202917589785,0.09209313,0,1
1584207892722,NaN,0.32240382,0.068603516,-0.8540039,0.5090332,1584207890450,-3202917589785,0.09209313,0,1
1584207892727,NaN,0.4035816,0.0793457,-0.8527832,0.49389648,1584207890530,-3202917589785,0.09209313,0,1
1584207892731,NaN,0.4183229,0.05834961,-0.84643555,0.513916,1584207890610,-3202917589785,0.09209313,0,1
1584207892738,NaN,0.46427915,0.056152344,-0.8696289,0.5085449,1584207890690,-3202917589785,0.09209313,0,1
1584207892741,NaN,0.46884218,0.05834961,-0.83032227,0.51171875,1584207890770,-3202917589785,0.09209313,0,1
1584207892747,NaN,0.47258416,0.047851562,-0.85668945,0.52124023,1584207890850,-3202917589785,0.09209313,0,1
1584207892751,NaN,0.40918365,0.05029297,-0.84399414,0.53222656,1584207890930,-3202917589785,0.09209313,0,1
1584207892755,NaN,0.33043417,0.028808594,-0.83496094,0.5229492,1584207891010,-3202917589785,0.08291118,0,1
1584207892759,NaN,0.23749709,0.035888672,-0.8496094,0.5371094,1584207891090,-3202917589785,0.08291118,0,1
1584207892762,NaN,0.1297257,0.03540039,-0.8203125,0.5385742,1584207891170,-3202917589785,0.08291118,0,1
1584207892765,NaN,-0.022886584,0.02319336,-0.8469238,0.5473633,1584207891250,-3202917589785,0.08291118,0,1
1584207892769,NaN,-0.122784816,0.029541016,-0.83081055,0.54248047,1584207891330,-3202917589785,0.08291118,0,1
1584207892774,NaN,-0.21804897,0.01953125,-0.81225586,0.54589844,1584207891410,-3202917589785,0.08291118,0,1
1584207892775,NaN,-0.33860335,0.024658203,-0.80688477,0.5463867,1584207891490,-3202917589785,0.08291118,0,1
1584207892778,NaN,-0.4040798,0.021972656,-0.8210449,0.52734375,1584207891570,-3202917589785,0.08291118,0,1
1584207892782,NaN,-0.5002914,0.0107421875,-0.8430176,0.53808594,1584207891650,-3202917589785,0.08291118,0,1
1584207892785,NaN,-0.54387474,0.022460938,-0.83691406,0.5439453,1584207891730,-3202917589785,0.08291118,0,1
1584207892788,NaN,-0.5676419,0.024414062,-0.8366699,0.53930664,1584207891810,-3202917589785,0.08291118,0,1
1584207892792,NaN,-0.5512897,0.03125,-0.8359375,0.53686523,1584207891890,-3202917589785,0.08291118,0,1
1584207892795,NaN,-0.51205295,0.037109375,-0.83569336,0.53515625,1584207891970,-3202917589785,0.08291118,0,1
1584207892797,NaN,-0.47670957,0.024658203,-0.83813477,0.5283203,1584207892050,-3202917589785,0.08291118,0,1
1584207892801,NaN,-0.4139447,0.038330078,-0.83813477,0.53100586,1584207892130,-3202917589785,0.08291118,0,1
1584207892805,NaN,-0.3235305,0.041992188,-0.84155273,0.52197266,1584207892210,-3202917589785,0.08291118,0,1
1584207892808,NaN,-0.24851932,0.049560547,-0.8457031,0.5246582,1584207892290,-3202917589785,0.05470766,0,1
1584207892811,NaN,-0.16091742,0.030273438,-0.84521484,0.5253906,1584207892370,-3202917589785,0.039495736,0,1
1584207892814,NaN,-0.051826775,0.04296875,-0.84106445,0.5185547,1584207892450,-3202917589785,0.039495736,0,1
1584207892818,NaN,-9.300597E-4,0.036865234,-0.8364258,0.52441406,1584207892530,-3202917589785,0.039495736,0,1
1584207895282,NaN,0.06871428,0.03491211,-0.8457031,0.5288086,1584207892610,9047436346615,0.039495736,0,1
1584207895290,25.0,0.122269265,0.028808594,-0.8417969,0.5205078,1584207892690,9047436346615,0.039495736,0,1
1584207895299,NaN,0.15530075,0.021484375,-0.8413086,0.5319824,1584207892770,9047436346615,0.039495736,0,1
1584207895304,NaN,0.17895074,0.02709961,-0.85180664,0.5283203,1584207892850,9047436346615,0.039495736,0,1
1584207895311,NaN,0.18194598,0.024414062,-0.8413086,0.5217285,1584207892930,9047436346615,0.039495736,0,1
1584207895317,NaN,0.19539501,0.021484375,-0.85961914,0.52368164,1584207893010,9047436346615,0.039495736,0,1
1584207895321,NaN,0.1769805,0.016845703,-0.83081055,0.51831055,1584207893090,9047436346615,0.039495736,0,1
1584207895326,NaN,0.12922554,0.0126953125,-0.83618164,0.53564453,1584207893170,9047436346615,0.039495736,0,1
1584207895330,NaN,0.072451286,0.010986328,-0.83740234,0.5378418,1584207893250,9047436346615,0.039495736,0,1
1584207895334,NaN,0.022403235,0.0043945312,-0.8395996,0.53759766,1584207893330,9047436346615,0.030568317,0,1
1584207895338,NaN,-0.04485287,0.008544922,-0.82836914,0.5336914,1584207893410,9047436346615,0.030568317,0,1
1584207895341,NaN,-0.057797432,0.029785156,-0.82006836,0.5036621,1584207893490,9047436346615,0.037706885,0,1
1584207895345,NaN,-0.08099789,0.023925781,-0.84936523,0.5266113,1584207893570,9047436346615,0.037706885,0,1
1584207895349,NaN,-0.110771716,0.016845703,-0.84814453,0.5341797,1584207893650,9047436346615,0.037706885,0,1
1584207895352,NaN,-0.094854325,0.0390625,-0.8535156,0.5209961,1584207893730,9047436346615,0.037706885,0,1
1584207895356,NaN,-0.098355256,0.035888672,-0.84228516,0.52441406,1584207893810,9047436346615,0.037706885,0,1
1584207895360,NaN,-0.08424884,0.04736328,-0.8432617,0.5168457,1584207893890,9047436346615,0.037706885,0,1
1584207895364,NaN,-0.078793496,0.041503906,-0.8479004,0.5131836,1584207893970,9047436346615,0.037706885,0,1
1584207895367,NaN,-0.041869015,0.04248047,-0.8547363,0.5041504,1584207894050,9047436346615,0.037706885,0,1
1584207895372,NaN,0.015164129,0.029296875,-0.8508301,0.5029297,1584207894130,9047436346615,0.037706885,0,1
1584207895375,39.473682,0.0862054,0.03857422,-0.859375,0.50561523,1584207894210,9047436346615,0.037706885,0,1
1584207895378,NaN,0.14629872,0.041259766,-0.85302734,0.5144043,1584207894290,9047436346615,0.037706885,0,1
1584207895381,NaN,0.22117229,0.045166016,-0.8491211,0.5031738,1584207894370,9047436346615,0.037706885,0,1
1584207895385,NaN,0.22675566,0.029052734,-0.85668945,0.51000977,1584207894450,9047436346615,0.037706885,0,1
1584207895388,NaN,0.25549486,0.03491211,-0.86035156,0.49853516,1584207894530,9047436346615,0.037706885,0,1
1584207895391,NaN,0.29478246,0.02709961,-0.8601074,0.5019531,1584207894610,9047436346615,0.037706885,0,1
1584207895395,NaN,0.29501653,0.04296875,-0.85058594,0.48779297,1584207894690,9047436346615,0.037706885,0,1
1584207895397,NaN,0.31107312,0.03173828,-0.86376953,0.49731445,1584207894770,9047436346615,0.037706885,0,1
1584207895401,NaN,0.31592032,0.052978516,-0.86035156,0.49487305,1584207894850,9047436346615,0.037706885,0,1
1584207895404,NaN,0.3233679,0.053710938,-0.86206055,0.4963379,1584207894930,9047436346615,0.037706885,0,1
1584207895408,NaN,0.3024701,0.045166016,-0.86450195,0.49682617,1584207895010,9047436346615,0.037706885,0,1
1584207895411,NaN,0.2918505,0.048828125,-0.8647461,0.49145508,1584207895090,9047436346615,0.037706885,0,1
1584207897864,NaN,0.2669474,0.047851562,-0.86279297,0.48999023,1584207895170,2851046209307,0.037706885,0,1
1584207897870,NaN,0.25311157,0.0546875,-0.86206055,0.4909668,1584207895250,2851046209307,0.037706885,0,1
1584207897883,NaN,0.22185774,0.045654297,-0.85913086,0.4885254,1584207895330,2851046209307,0.037706885,0,1
1584207897885,NaN,0.23852646,0.056884766,-0.8586426,0.4934082,1584207895410,2851046209307,0.037706885,0,1
1584207897888,NaN,0.22006051,0.04663086,-0.8640137,0.49902344,1584207895490,2851046209307,0.037706885,0,1
1584207897890,NaN,0.21009034,0.053466797,-0.86865234,0.4987793,1584207895570,2851046209307,0.037706885,0,1
1584207897896,NaN,0.19956602,0.052978516,-0.8569336,0.48364258,1584207895650,2851046209307,0.037706885,0,1
1584207897898,NaN,0.1977439,0.061279297,-0.86157227,0.49023438,1584207895730,2851046209307,0.037706885,0,1
1584207897902,NaN,0.2032367,0.076416016,-0.8664551,0.47338867,1584207895810,2851046209307,0.037706885,0,1
1584207897906,NaN,0.19006526,0.047851562,-0.8508301,0.47314453,1584207895890,2851046209307,0.037706885,0,1
1584207897910,NaN,0.20076512,0.052001953,-0.8874512,0.48168945,1584207895970,2851046209307,0.03783313,0,1
1584207897913,NaN,0.20753765,0.057128906,-0.8791504,0.45898438,1584207896050,2851046209307,0.03783313,0,1
1584207897917,NaN,0.221686,0.061523438,-0.8688965,0.45581055,1584207896130,2851046209307,0.03783313,0,1
1584207897921,NaN,0.20520145,0.03857422,-0.8737793,0.4711914,1584207896210,2851046209307,0.03783313,0,1
1584207897925,NaN,0.20239387,0.041503906,-0.87109375,0.47509766,1584207896290,2851046209307,0.03783313,0,1
1584207897927,NaN,0.19641457,0.048095703,-0.8779297,0.46484375,1584207896370,2851046209307,0.03783313,0,1
1584207897931,NaN,0.23254214,0.07006836,-0.88012695,0.4555664,1584207896450,2851046209307,0.03783313,0,1
1584207897934,NaN,0.24392892,0.05444336,-0.88305664,0.45898438,1584207896530,2851046209307,0.03783313,0,1
1584207897937,NaN,0.25974092,0.067871094,-0.8618164,0.4567871,1584207896610,2851046209307,0.03783313,0,1
1584207897940,NaN,0.2637739,0.06323242,-0.88500977,0.46655273,1584207896690,2851046209307,0.03783313,0,1
1584207897943,NaN,0.22298099,0.053222656,-0.8684082,0.47851562,1584207896770,2851046209307,0.03783313,0,1
1584207897946,NaN,0.2116599,0.05908203,-0.8691406,0.49804688,1584207896850,2851046209307,0.03783313,0,1
1584207897949,NaN,0.16794968,0.05493164,-0.8618164,0.5124512,1584207896930,2851046209307,0.03783313,0,1
1584207897952,NaN,0.1024833,0.057617188,-0.85839844,0.51220703,1584207897010,2851046209307,0.03783313,0,1
1584207897956,NaN,-0.013738071,0.0075683594,-0.8376465,0.54052734,1584207897090,2851046209307,0.06113566,0,1
1584207897958,NaN,-0.06821157,0.026123047,-0.82958984,0.51831055,1584207897170,2851046209307,0.06113566,0,1
1584207897963,NaN,-0.14908487,0.008544922,-0.79663086,0.5288086,1584207897250,2851046209307,0.06113566,0,1
1584207897966,NaN,-0.21508223,0.037109375,-0.8359375,0.5131836,1584207897330,2851046209307,0.06113566,0,1
1584207897969,NaN,-0.32326028,0.045898438,-0.8774414,0.5432129,1584207897410,2851046209307,0.06113566,0,1
1584207897972,NaN,-0.43329677,-0.022705078,-0.82543945,0.5,1584207897490,2851046209307,0.09632237,0,1
1584207897975,NaN,-0.47886398,0.057373047,-0.86157227,0.48217773,1584207897570,2851046209307,0.09632237,0,1
1584207897978,NaN,-0.49060783,0.057861328,-0.88793945,0.44628906,1584207897650,2851046209307,0.09632237,0,1
1584207900449,NaN,-0.46115044,0.033447266,-0.8845215,0.44677734,1584207897730,-3345625402977,0.09632237,0,1
1584207900471,NaN,-0.43073678,0.045654297,-0.88623047,0.45385742,1584207897810,-3345625402977,0.09632237,0,1
1584207900476,NaN,-0.36727592,0.056152344,-0.8911133,0.4658203,1584207897890,-3345625402977,0.09632237,0,1
1584207900483,NaN,-0.29822147,0.044921875,-0.86035156,0.45336914,1584207897970,-3345625402977,0.09632237,0,1
1584207900488,NaN,-0.1144964,0.052978516,-0.89331055,0.44921875,1584207898050,-3345625402977,0.09632237,0,1
1584207900493,NaN,0.0075414926,0.041259766,-0.88720703,0.44189453,1584207898130,-3345625402977,0.09632237,0,1
1584207900500,15.0,0.18200916,0.048828125,-0.8845215,0.44067383,1584207898210,-3345625402977,0.09632237,0,1
1584207900504,NaN,0.2922183,0.059570312,-0.88012695,0.45361328,1584207898290,-3345625402977,0.09632237,0,1
1584207900508,NaN,0.4211402,0.0715332,-0.873291,0.46044922,1584207898370,-3345625402977,0.09632237,0,1
1584207900513,NaN,0.5738973,0.04345703,-0.88256836,0.46142578,1584207898450,-3345625402977,0.09632237,0,1
1584207900517,NaN,0.6082465,0.044677734,-0.87231445,0.45751953,1584207898530,-3345625402977,0.09632237,0,1
1584207900522,NaN,0.56803805,0.0390625,-0.86987305,0.47094727,1584207898610,-3345625402977,0.09632237,0,1
1584207900526,NaN,0.5519239,0.052246094,-0.8828125,0.4597168,1584207898690,-3345625402977,0.09632237,0,1
1584207900528,NaN,0.515062,0.049560547,-0.873291,0.46606445,1584207898770,-3345625402977,0.09632237,0,1
1584207900531,NaN,0.45634076,0.035888672,-0.8762207,0.4753418,1584207898850,-3345625402977,0.09632237,0,1
1584207900534,NaN,0.40999243,0.037109375,-0.86694336,0.47436523,1584207898930,-3345625402977,0.09632237,0,1
1584207900537,NaN,0.27449444,0.037841797,-0.87158203,0.4885254,1584207899010,-3345625402977,0.09632237,0,1
1584207900540,NaN,0.14717318,0.029541016,-0.8647461,0.50439453,1584207899090,-3345625402977,0.09632237,0,1
1584207900545,NaN,-0.014408171,0.024169922,-0.86035156,0.5029297,1584207899170,-3345625402977,0.09632237,0,1
1584207900550,NaN,-0.13256742,0.020263672,-0.85839844,0.5031738,1584207899250,-3345625402977,0.09632237,0,1
1584207900553,NaN,-0.24390312,0.015380859,-0.8701172,0.4958496,1584207899330,-3345625402977,0.09632237,0,1
1584207900557,NaN,-0.38607347,9.765625E-4,-0.8322754,0.517334,1584207899410,-3345625402977,0.09632237,0,1
1584207900559,NaN,-0.47753128,-0.005859375,-0.8364258,0.52612305,1584207899490,-3345625402977,0.09632237,0,1
1584207900563,NaN,-0.5190697,-0.001953125,-0.81884766,0.52783203,1584207899570,-3345625402977,0.09632237,0,1
1584207900566,NaN,-0.5909886,0.005859375,-0.8222656,0.5097656,1584207899650,-3345625402977,0.09632237,0,1
1584207900569,NaN,-0.64962345,0.0021972656,-0.84887695,0.529541,1584207899730,-3345625402977,0.09632237,0,1
1584207900572,NaN,-0.68093824,0.011474609,-0.8557129,0.5280762,1584207899810,-3345625402977,0.09632237,0,1
1584207900576,NaN,-0.7129335,0.012939453,-0.85131836,0.5239258,1584207899890,-3345625402977,0.09632237,0,1
1584207900579,NaN,-0.70783496,0.025146484,-0.85009766,0.5214844,1584207899970,-3345625402977,0.09632237,0,1
1584207900582,NaN,-0.6673507,0.022460938,-0.8574219,0.5148926,1584207900050,-3345625402977,0.089642175,0,1
1584207900585,NaN,-0.609755,0.04345703,-0.8479004,0.5107422,1584207900130,-3345625402977,0.04583736,0,1
1584207900588,NaN,-0.55093616,0.046142578,-0.84936523,0.5107422,1584207900210,-3345625402977,0.04583736,0,1
1584207903034,NaN,-0.5123063,0.04248047,-0.8491211,0.5161133,1584207900290,8904728533423,0.04583736,0,1
1584207903039,NaN,-0.41628847,0.03930664,-0.8503418,0.5131836,1584207900370,8904728533423,0.04583736,0,1
1584207903046,NaN,-0.31257066,0.032714844,-0.84521484,0.5148926,1584207900450,8904728533423,0.04583736,0,1
1584207903050,NaN,-0.20351315,0.040039062,-0.8491211,0.51293945,1584207900530,8904728533423,0.04583736,0,1
1584207903056,NaN,-0.110061705,0.033691406,-0.8486328,0.51049805,1584207900610,8904728533423,0.04583736,0,1
1584207903058,NaN,-0.009320016,0.03491211,-0.8574219,0.50512695,1584207900690,8904728533423,0.04583736,0,1
1584207903061,NaN,0.04275791,0.018310547,-0.84594727,0.5246582,1584207900770,8904728533423,0.04583736,0,1
1584207903065,NaN,0.09334308,0.029296875,-0.84716797,0.52563477,1584207900850,8904728533423,0.04583736,0,1
1584207903068,22.058823,0.13248296,0.021484375,-0.8647461,0.51953125,1584207900930,8904728533423,0.04583736,0,1
1584207903072,NaN,0.14093639,0.017333984,-0.85375977,0.515625,1584207901010,8904728533423,0.04583736,0,1
1584207903077,NaN,0.10909022,0.0024414062,-0.82788086,0.5253906,1584207901090,8904728533423,0.04583736,0,1
1584207903079,NaN,0.06747011,0.010986328,-0.828125,0.5371094,1584207901170,8904728533423,0.04583736,0,1
1584207903084,NaN,0.038893845,-0.0012207031,-0.81469727,0.5283203,1584207901250,8904728533423,0.04583736,0,1
1584207903089,NaN,-0.01785396,0.010253906,-0.80444336,0.51708984,1584207901330,8904728533423,0.04583736,0,1
1584207903094,NaN,-0.04977159,0.021484375,-0.86206055,0.5270996,1584207901410,8904728533423,0.059548795,0,1
1584207903097,NaN,-0.11355814,0.016601562,-0.8540039,0.54248047,1584207901490,8904728533423,0.059548795,0,1
1584207903101,NaN,-0.1497795,0.02758789,-0.8483887,0.53125,1584207901570,8904728533423,0.059548795,0,1
1584207903105,NaN,-0.19891047,0.037109375,-0.8432617,0.52490234,1584207901650,8904728533423,0.059548795,0,1
1584207903108,NaN,-0.19552684,0.043701172,-0.8376465,0.52685547,1584207901730,8904728533423,0.059548795,0,1
1584207903112,NaN,-0.19604564,0.0390625,-0.85180664,0.52905273,1584207901810,8904728533423,0.059548795,0,1
1584207903115,NaN,-0.2178417,0.03540039,-0.826416,0.5288086,1584207901890,8904728533423,0.059548795,0,1
1584207903119,NaN,-0.23304357,0.024658203,-0.83081055,0.5344238,1584207901970,8904728533423,0.059548795,0,1
1584207903122,NaN,-0.19733448,0.03466797,-0.83862305,0.54418945,1584207902050,8904728533423,0.059548795,0,1
1584207903126,NaN,-0.13896607,0.034179688,-0.8364258,0.5239258,1584207902130,8904728533423,0.059548795,0,1
1584207903129,NaN,-0.08206684,0.028076172,-0.83984375,0.5300293,1584207902210,8904728533423,0.059548795,0,1
1584207903134,NaN,-0.03269234,0.032470703,-0.8425293,0.5246582,1584207902290,8904728533423,0.059548795,0,1
1584207903138,NaN,-0.036099274,0.026367188,-0.8405762,0.5305176,1584207902370,8904728533423,0.059548795,0,1
1584207903140,NaN,-0.011456731,0.024414062,-0.84350586,0.5422363,1584207902450,8904728533423,0.059548795,0,1
1584207903144,NaN,-0.016177999,0.015136719,-0.8239746,0.5410156,1584207902530,8904728533423,0.059548795,0,1
1584207903148,NaN,-0.018377252,0.017822266,-0.8378906,0.5415039,1584207902610,8904728533423,0.059548795,0,1
1584207903152,NaN,-0.03411619,0.011230469,-0.859375,0.54052734,1584207902690,8904728533423,0.059548795,0,1
1584207903155,NaN,-0.05292363,0.017578125,-0.82836914,0.52734375,1584207902770,8904728533423,0.059548795,0,1
1584207905616,NaN,-0.046070915,0.010498047,-0.82592773,0.5305176,1584207902850,2708338396115,0.059548795,0,1
1584207905624,NaN,-0.04703952,0.009521484,-0.81884766,0.5498047,1584207902930,2708338396115,0.059548795,0,1
1584207905632,NaN,-0.07146883,-0.005859375,-0.8093262,0.53759766,1584207903010,2708338396115,0.059548795,0,1
1584207905641,NaN,-0.110304914,0.0146484375,-0.81152344,0.5270996,1584207903090,2708338396115,0.059548795,0,1
1584207905653,NaN,-0.12647876,0.024902344,-0.861084,0.5373535,1584207903170,2708338396115,0.059548795,0,1
1584207905654,NaN,-0.15575357,0.008544922,-0.8527832,0.53564453,1584207903250,2708338396115,0.059548795,0,1
1584207905657,NaN,-0.1543325,0.024414062,-0.83618164,0.5385742,1584207903330,2708338396115,0.059548795,0,1
1584207905660,NaN,-0.13679598,0.032470703,-0.84033203,0.51953125,1584207903410,2708338396115,0.059548795,0,1
1584207905663,NaN,-0.08569157,0.04272461,-0.8508301,0.5253906,1584207903490,2708338396115,0.059548795,0,1
1584207905667,NaN,-0.04094642,0.041015625,-0.84521484,0.5197754,1584207903570,2708338396115,0.059548795,0,1
1584207905670,NaN,-0.009165307,0.044433594,-0.84643555,0.5185547,1584207903650,2708338396115,0.059548795,0,1
1584207905674,NaN,0.024883851,0.04321289,-0.84521484,0.5234375,1584207903730,2708338396115,0.059548795,0,1
1584207905678,20.833334,0.05223012,0.036132812,-0.83862305,0.5251465,1584207903810,2708338396115,0.059548795,0,1
1584207905683,NaN,0.101204604,0.032226562,-0.8391113,0.5300293,1584207903890,2708338396115,0.059548795,0,1
1584207905685,NaN,0.15622297,0.03466797,-0.84155273,0.5280762,1584207903970,2708338396115,0.051638484,0,1
1584207905688,NaN,0.20585327,0.042236328,-0.8408203,0.51293945,1584207904050,2708338396115,0.051638484,0,1
1584207905692,NaN,0.20875438,0.036865234,-0.84228516,0.5239258,1584207904130,2708338396115,0.051638484,0,1
1584207905695,NaN,0.2365898,0.034179688,-0.8491211,0.52246094,1584207904210,2708338396115,0.051638484,0,1
1584207905698,NaN,0.25683293,0.038330078,-0.8371582,0.5275879,1584207904290,2708338396115,0.051638484,0,1
1584207905701,NaN,0.23508601,0.034179688,-0.84399414,0.53125,1584207904370,2708338396115,0.051638484,0,1
1584207905704,NaN,0.18970591,0.030273438,-0.8442383,0.5371094,1584207904450,2708338396115,0.051638484,0,1
1584207905707,NaN,0.15817775,0.03515625,-0.84399414,0.52563477,1584207904530,2708338396115,0.051638484,0,1
1584207905710,NaN,0.120146185,0.025634766,-0.8378906,0.52978516,1584207904610,2708338396115,0.051638484,0,1
1584207905713,NaN,0.08763797,0.017578125,-0.84106445,0.5283203,1584207904690,2708338396115,0.051638484,0,1
1584207905715,NaN,0.058481585,0.022949219,-0.8359375,0.5336914,1584207904770,2708338396115,0.051638484,0,1
1584207905718,NaN,0.021881923,0.024658203,-0.8171387,0.5241699,1584207904850,2708338396115,0.051638484,0,1
1584207905721,NaN,-0.009030572,0.037109375,-0.82250977,0.513916,1584207904930,2708338396115,0.051638484,0,1
1584207905725,NaN,-0.05251926,0.03564453,-0.8359375,0.52612305,1584207905010,2708338396115,0.051638484,0,1
1584207905728,NaN,-0.059134323,0.028564453,-0.86206055,0.5324707,1584207905090,2708338396115,0.051638484,0,1
1584207905732,NaN,-0.07092745,0.044921875,-0.857666,0.5266113,1584207905170,2708338396115,0.051638484,0,1
1584207905736,NaN,-0.05685996,0.059326172,-0.8466797,0.5041504,1584207905250,2708338396115,0.051638484,0,1
1584207905739,NaN,-0.024903119,0.068847656,-0.8449707,0.51123047,1584207905330,2708338396115,0.051638484,0,1
1584207908399,NaN,0.02896484,0.06762695,-0.8613281,0.5085449,1584207905410,-3488333216169,0.051638484,0,1
1584207908404,35.714287,0.052633077,0.0625,-0.83813477,0.51171875,1584207905503,-3488333216169,0.051638484,0,1
1584207908410,NaN,0.09313872,0.055664062,-0.84814453,0.5180664,1584207905596,-3488333216169,0.051638484,0,1
1584207908416,NaN,0.13349305,0.05126953,-0.8474121,0.51171875,1584207905689,-3488333216169,0.051638484,0,1
1584207908420,NaN,0.17315151,0.051513672,-0.85009766,0.51538086,1584207905783,-3488333216169,0.028856141,0,1
1584207908425,NaN,0.21541305,0.056884766,-0.85253906,0.5102539,1584207905876,-3488333216169,0.028856141,0,1
1584207908429,NaN,0.22567512,0.05883789,-0.842041,0.51831055,1584207905969,-3488333216169,0.028856141,0,1
1584207908432,NaN,0.26070416,0.049316406,-0.8557129,0.51123047,1584207906062,-3488333216169,0.028856141,0,1
1584207908436,NaN,0.26971838,0.04711914,-0.8391113,0.51782227,1584207906156,-3488333216169,0.028856141,0,1
1584207908441,NaN,0.27187654,0.048583984,-0.8496094,0.5136719,1584207906249,-3488333216169,0.028856141,0,1
1584207908444,NaN,0.21983606,0.037109375,-0.8461914,0.52978516,1584207906342,-3488333216169,0.028856141,0,1
1584207908447,NaN,0.17014427,0.037353516,-0.8413086,0.52612305,1584207906436,-3488333216169,0.028856141,0,1
1584207908452,NaN,0.0990797,0.045654297,-0.8378906,0.53125,1584207906529,-3488333216169,0.028856141,0,1
1584207908456,NaN,0.07160367,0.040527344,-0.84887695,0.5202637,1584207906622,-3488333216169,0.028856141,0,1
1584207908460,NaN,0.024982138,0.030517578,-0.84716797,0.5385742,1584207906715,-3488333216169,0.028856141,0,1
1584207908463,NaN,-0.018239683,0.023925781,-0.8378906,0.51538086,1584207906809,-3488333216169,0.028856141,0,1
1584207908466,NaN,-0.07034096,0.029785156,-0.8347168,0.5300293,1584207906902,-3488333216169,0.028856141,0,1
1584207908469,NaN,-0.13328941,0.029296875,-0.8273926,0.5222168,1584207906995,-3488333216169,0.028856141,0,1
1584207908472,NaN,-0.15718354,0.037109375,-0.829834,0.51416016,1584207907089,-3488333216169,0.028856141,0,1
1584207908476,NaN,-0.20557016,0.03564453,-0.8425293,0.5361328,1584207907182,-3488333216169,0.028856141,0,1
1584207908479,NaN,-0.22315502,0.033203125,-0.8544922,0.53271484,1584207907275,-3488333216169,0.028856141,0,1
1584207908483,NaN,-0.24832197,0.03491211,-0.8395996,0.52783203,1584207907368,-3488333216169,0.028856141,0,1
1584207908486,NaN,-0.22153024,0.037841797,-0.845459,0.5275879,1584207907462,-3488333216169,0.028856141,0,1
1584207908489,NaN,-0.2079472,0.028320312,-0.83496094,0.5317383,1584207907555,-3488333216169,0.028856141,0,1
1584207908493,NaN,-0.18846779,0.03491211,-0.83081055,0.5395508,1584207907648,-3488333216169,0.028856141,0,1
1584207908496,NaN,-0.2115624,0.021728516,-0.828125,0.548584,1584207907742,-3488333216169,0.028856141,0,1
1584207908499,NaN,-0.19828294,0.026367188,-0.8286133,0.5410156,1584207907835,-3488333216169,0.028856141,0,1
1584207908502,NaN,-0.18887216,0.036376953,-0.8364258,0.5358887,1584207907928,-3488333216169,0.028856141,0,1
1584207908505,NaN,-0.17064363,0.039794922,-0.8249512,0.54052734,1584207908021,-3488333216169,0.028856141,0,1
1584207908508,NaN,-0.14589232,0.037109375,-0.8413086,0.5419922,1584207908115,-3488333216169,0.028856141,0,1
1584207908511,NaN,-0.1517071,0.037109375,-0.826416,0.5395508,1584207908208,-3488333216169,0.025835108,0,1
1584207908514,NaN,-0.13045885,0.03491211,-0.83447266,0.53881836,1584207908301,-3488333216169,0.025835108,0,1
1584207910786,NaN,-0.13651161,0.03491211,-0.829834,0.54418945,1584207908395,8762020720231,0.025835108,0,1
1584207910791,NaN,-0.12789519,0.03564453,-0.8317871,0.5395508,1584207908475,8762020720231,0.025835108,0,1
1584207910798,NaN,-0.14826506,0.030029297,-0.8352051,0.546875,1584207908555,8762020720231,0.025835108,0,1
1584207910804,NaN,-0.14546998,0.03540039,-0.8273926,0.5439453,1584207908635,8762020720231,0.025835108,0,1
1584207910809,NaN,-0.13942762,0.036132812,-0.82910156,0.5500488,1584207908715,8762020720231,0.025835108,0,1
1584207910813,NaN,-0.08573415,0.036621094,-0.84350586,0.5354004,1584207908795,8762020720231,0.025835108,0,1
1584207910818,NaN,-0.077093504,0.024658203,-0.8300781,0.5432129,1584207908875,8762020720231,0.025835108,0,1
1584207910824,NaN,-0.077633604,0.02709961,-0.8330078,0.54003906,1584207908955,8762020720231,0.025835108,0,1
1584207910829,NaN,-0.07558119,0.029541016,-0.8251953,0.5383301,1584207909035,8762020720231,0.025835108,0,1
1584207910834,NaN,-0.068506055,0.03540039,-0.8327637,0.5292969,1584207909115,8762020720231,0.025835108,0,1
1584207910838,NaN,-0.03457882,0.04663086,-0.82177734,0.51538086,1584207909195,8762020720231,0.025835108,0,1
1584207910842,NaN,-0.02667325,0.037597656,-0.8405762,0.5397949,1584207909275,8762020720231,0.03210983,0,1
1584207910846,NaN,-0.0068410984,0.03466797,-0.8391113,0.5422363,1584207909355,8762020720231,0.03210983,0,1
1584207910850,NaN,0.006532585,0.041748047,-0.83569336,0.5407715,1584207909435,8762020720231,0.03210983,0,1
1584207910853,NaN,0.0473467,0.053955078,-0.8388672,0.5317383,1584207909515,8762020720231,0.03210983,0,1
1584207910857,16.304348,0.078765586,0.06982422,-0.8327637,0.5344238,1584207909595,8762020720231,0.03210983,0,1
1584207910860,NaN,0.11645588,0.067871094,-0.83691406,0.5280762,1584207909675,8762020720231,0.03210983,0,1
1584207910863,NaN,0.11909451,0.07006836,-0.8430176,0.52490234,1584207909755,8762020720231,0.03210983,0,1
1584207910866,NaN,0.1623577,0.06933594,-0.84350586,0.5187988,1584207909835,8762020720231,0.03210983,0,1
1584207910869,NaN,0.21334982,0.06616211,-0.8496094,0.5102539,1584207909915,8762020720231,0.03210983,0,1
1584207910872,NaN,0.26384792,0.076171875,-0.8430176,0.5090332,1584207909995,8762020720231,0.03210983,0,1
1584207910875,NaN,0.30301204,0.079833984,-0.85717773,0.50927734,1584207910075,8762020720231,0.03210983,0,1
1584207910879,NaN,0.31928885,0.0847168,-0.8491211,0.50756836,1584207910155,8762020720231,0.03210983,0,1
1584207910882,NaN,0.37148026,0.092041016,-0.8508301,0.49975586,1584207910235,8762020720231,0.03210983,0,1
1584207910885,NaN,0.42920992,0.088378906,-0.8642578,0.49731445,1584207910315,8762020720231,0.03210983,0,1
1584207910888,NaN,0.4850568,0.08984375,-0.85180664,0.49023438,1584207910395,8762020720231,0.03210983,0,1
1584207910892,NaN,0.48383388,0.068115234,-0.85424805,0.5168457,1584207910475,8762020720231,0.034442004,0,1
1584207910895,NaN,0.490703,0.08520508,-0.8503418,0.50268555,1584207910555,8762020720231,0.034442004,0,1
1584207910898,NaN,0.47142562,0.072509766,-0.84716797,0.5163574,1584207910635,8762020720231,0.034442004,0,1
1584207910901,NaN,0.46258438,0.08081055,-0.8508301,0.51416016,1584207910715,8762020720231,0.034442004,0,1
1584207910904,NaN,0.42927656,0.0715332,-0.8496094,0.5090332,1584207910795,8762020720231,0.034442004,0,1
1584207910907,NaN,0.38934228,0.07006836,-0.8400879,0.5041504,1584207910875,8762020720231,0.034442004,0,1
1584207913168,NaN,0.35466608,0.07885742,-0.84594727,0.4909668,1584207910955,2565630582922,0.034442004,0,1
1584207913173,NaN,0.31035483,0.07519531,-0.84765625,0.50268555,1584207911035,2565630582922,0.034442004,0,1
1584207913178,NaN,0.27165624,0.075683594,-0.8618164,0.5144043,1584207911115,2565630582922,0.034442004,0,1
1584207913182,NaN,0.1883325,0.06542969,-0.84033203,0.51831055,1584207911195,2565630582922,0.034442004,0,1
1584207913187,NaN,0.099513866,0.07055664,-0.8498535,0.52001953,1584207911275,2565630582922,0.034442004,0,1
1584207913193,NaN,0.0068213292,0.0637207,-0.8491211,0.5222168,1584207911355,2565630582922,0.034442004,0,1
1584207913197,NaN,-0.020378811,0.05859375,-0.8417969,0.5126953,1584207911435,2565630582922,0.034442004,0,1
1584207913201,NaN,-0.07385782,0.06567383,-0.8444824,0.5197754,1584207911515,2565630582922,0.034442004,0,1
1584207913206,NaN,-0.090505786,0.068847656,-0.84399414,0.5192871,1584207911595,2565630582922,0.034442004,0,1
1584207913210,NaN,-0.12769847,0.053955078,-0.8391113,0.5222168,1584207911675,2565630582922,0.034442004,0,1
1584207913213,NaN,-0.15414111,0.057128906,-0.8417969,0.5229492,1584207911755,2565630582922,0.034442004,0,1
1584207913217,NaN,-0.17716593,0.053466797,-0.842041,0.5246582,1584207911835,2565630582922,0.034442004,0,1
1584207913221,NaN,-0.22681586,0.051757812,-0.83862305,0.52734375,1584207911915,2565630582922,0.034442004,0,1
1584207913224,NaN,-0.25152135,0.053222656,-0.84155273,0.52490234,1584207911995,2565630582922,0.034442004,0,1
1584207913229,NaN,-0.27434197,0.05029297,-0.85131836,0.5341797,1584207912075,2565630582922,0.034442004,0,1
1584207913233,NaN,-0.2548051,0.048583984,-0.83935547,0.51660156,1584207912155,2565630582922,0.034442004,0,1
1584207913237,NaN,-0.2476107,0.04663086,-0.84350586,0.52783203,1584207912235,2565630582922,0.034442004,0,1
1584207913241,NaN,-0.22250403,0.03881836,-0.8676758,0.52197266,1584207912315,2565630582922,0.034442004,0,1
1584207913245,NaN,-0.23414181,0.040527344,-0.8317871,0.52197266,1584207912395,2565630582922,0.035929337,0,1
1584207913248,NaN,-0.22109021,0.041503906,-0.84594727,0.5124512,1584207912475,2565630582922,0.035929337,0,1
1584207913251,NaN,-0.23489891,0.041503906,-0.8359375,0.52001953,1584207912555,2565630582922,0.035929337,0,1
1584207913254,NaN,-0.2102539,0.041748047,-0.82910156,0.5004883,1584207912635,2565630582922,0.035929337,0,1
1584207913257,NaN,-0.18677352,0.05444336,-0.83813477,0.5078125,1584207912715,2565630582922,0.035929337,0,1
1584207913260,NaN,-0.16672055,0.049072266,-0.8640137,0.53222656,1584207912795,2565630582922,0.035980728,0,1
1584207913263,NaN,-0.12621208,0.04711914,-0.85253906,0.52441406,1584207912875,2565630582922,0.035980728,0,1
1584207913266,NaN,-0.09582854,0.056884766,-0.8359375,0.5180664,1584207912955,2565630582922,0.035980728,0,1
1584207913269,NaN,-0.058557704,0.056884766,-0.8432617,0.5197754,1584207913035,2565630582922,0.035980728,0,1
1584207913272,NaN,-0.057424974,0.05102539,-0.84375,0.53564453,1584207913115,2565630582922,0.035980728,0,1
1584207913276,NaN,-0.03764811,0.041992188,-0.8408203,0.5209961,1584207913195,2565630582922,0.035980728,0,1
1584207913279,NaN,-0.03396332,0.04711914,-0.842041,0.52441406,1584207913275,2565630582922,0.035980728,0,1
1584207913281,NaN,-6.7270297E-4,0.05517578,-0.84887695,0.51904297,1584207913355,2565630582922,0.035980728,0,1
1584207913284,NaN,0.00411275,0.04663086,-0.8395996,0.5222168,1584207913435,2565630582922,0.035980728,0,1
1584207915753,NaN,0.02666189,0.05029297,-0.8400879,0.5239258,1584207913515,-3631041029362,0.035980728,0,1
1584207915760,NaN,0.01610295,0.04736328,-0.8376465,0.5275879,1584207913595,-3631041029362,0.035980728,0,1
1584207915766,NaN,-0.0014810897,0.05029297,-0.84033203,0.5270996,1584207913675,-3631041029362,0.035980728,0,1
1584207915771,NaN,-0.0062382,0.04736328,-0.84155273,0.5266113,1584207913755,-3631041029362,0.035980728,0,1
1584207915778,NaN,-0.018309584,0.044433594,-0.8378906,0.52978516,1584207913835,-3631041029362,0.035980728,0,1
1584207915783,NaN,-0.026649987,0.049072266,-0.84472656,0.5229492,1584207913915,-3631041029362,0.035980728,0,1
1584207915787,NaN,-0.057887424,0.041259766,-0.8334961,0.53881836,1584207913995,-3631041029362,0.035980728,0,1
1584207915791,NaN,-0.048244935,0.043945312,-0.8496094,0.5280762,1584207914075,-3631041029362,0.035980728,0,1
1584207915795,NaN,-0.056709345,0.03930664,-0.8330078,0.5288086,1584207914155,-3631041029362,0.035980728,0,1
1584207915800,NaN,-0.05790271,0.040039062,-0.8520508,0.5332031,1584207914235,-3631041029362,0.035980728,0,1
1584207915805,NaN,-0.08976952,0.03881836,-0.83935547,0.52783203,1584207914315,-3631041029362,0.035980728,0,1
1584207915809,NaN,-0.082580104,0.051757812,-0.829834,0.5163574,1584207914395,-3631041029362,0.035980728,0,1
1584207915814,NaN,-0.08210035,0.05102539,-0.83374023,0.5126953,1584207914475,-3631041029362,0.035980728,0,1
1584207915820,NaN,-0.05433028,0.060058594,-0.8342285,0.5041504,1584207914555,-3631041029362,0.035980728,0,1
1584207915826,NaN,-0.037870266,0.049804688,-0.8540039,0.52685547,1584207914635,-3631041029362,0.035980728,0,1
1584207915830,NaN,-0.030561903,0.053222656,-0.8444824,0.5292969,1584207914715,-3631041029362,0.035980728,0,1
1584207915833,NaN,-0.008584795,0.05493164,-0.85546875,0.5266113,1584207914795,-3631041029362,0.035980728,0,1
1584207915836,NaN,0.0019376479,0.06201172,-0.83862305,0.5202637,1584207914875,-3631041029362,0.035980728,0,1
1584207915840,NaN,0.053159595,0.0625,-0.84594727,0.5144043,1584207914955,-3631041029362,0.035980728,0,1
1584207915845,NaN,0.06449203,0.06518555,-0.84594727,0.52197266,1584207915035,-3631041029362,0.035980728,0,1
1584207915856,10.869565,0.10098808,0.067871094,-0.8469238,0.51342773,1584207915115,-3631041029362,0.035980728,0,1
1584207915860,NaN,0.11908174,0.059326172,-0.8391113,0.52197266,1584207915195,-3631041029362,0.035980728,0,1
1584207915864,NaN,0.15553728,0.064208984,-0.84521484,0.5202637,1584207915275,-3631041029362,0.035980728,0,1
1584207915867,NaN,0.15531527,0.06616211,-0.8366699,0.52856445,1584207915355,-3631041029362,0.03180769,0,1
1584207915870,NaN,0.1524157,0.06640625,-0.83862305,0.52612305,1584207915435,-3631041029362,0.03180769,0,1
1584207915873,NaN,0.12694809,0.06518555,-0.84033203,0.5234375,1584207915515,-3631041029362,0.03180769,0,1
1584207915878,NaN,0.1271417,0.06542969,-0.83862305,0.5241699,1584207915595,-3631041029362,0.03180769,0,1
1584207915881,NaN,0.14109798,0.068847656,-0.84887695,0.51708984,1584207915675,-3631041029362,0.03180769,0,1
1584207915883,NaN,0.113521725,0.055908203,-0.8376465,0.54248047,1584207915755,-3631041029362,0.03180769,0,1
1584207915886,NaN,0.10089785,0.055419922,-0.8442383,0.52856445,1584207915835,-3631041029362,0.03180769,0,1
1584207915889,NaN,0.056167524,0.052978516,-0.83374023,0.52612305,1584207915915,-3631041029362,0.03180769,0,1
1584207915891,NaN,0.021362504,0.045166016,-0.8354492,0.5354004,1584207915995,-3631041029362,0.03180769,0,1
1584207918339,NaN,-0.034783397,0.04638672,-0.8383789,0.5378418,1584207916075,8619312907039,0.03180769,0,1
1584207918346,NaN,-0.048971,0.05444336,-0.8430176,0.5229492,1584207916155,8619312907039,0.03180769,0,1
1584207918351,NaN,-0.07561382,0.05517578,-0.8376465,0.5202637,1584207916235,8619312907039,0.03180769,0,1
1584207918355,NaN,-0.06795386,0.0625,-0.83154297,0.5053711,1584207916315,8619312907039,0.03180769,0,1
1584207918359,NaN,-0.065705195,0.0546875,-0.84399414,0.51342773,1584207916395,8619312907039,0.03180769,0,1
1584207918361,NaN,-0.06434046,0.048828125,-0.84155273,0.5202637,1584207916475,8619312907039,0.03180769,0,1
1584207918364,NaN,-0.067780726,0.057861328,-0.8569336,0.52734375,1584207916555,8619312907039,0.03180769,0,1
1584207918369,NaN,-0.09654307,0.064941406,-0.83984375,0.52905273,1584207916635,8619312907039,0.03180769,0,1
1584207918372,NaN,-0.059566576,0.06518555,-0.84277344,0.515625,1584207916715,8619312907039,0.03180769,0,1
1584207918375,NaN,-0.042170342,0.068603516,-0.84521484,0.5209961,1584207916795,8619312907039,0.03180769,0,1
1584207918379,NaN,9.0534486E-5,0.0703125,-0.8496094,0.5046387,1584207916875,8619312907039,0.03180769,0,1
1584207918381,32.608696,0.05270501,0.07470703,-0.8469238,0.51293945,1584207916955,8619312907039,0.03180769,0,1
1584207918384,NaN,0.115783416,0.07861328,-0.8466797,0.50927734,1584207917035,8619312907039,0.03180769,0,1
1584207918387,NaN,0.13694666,0.076660156,-0.8496094,0.51171875,1584207917115,8619312907039,0.03180769,0,1
1584207918390,NaN,0.16191156,0.079589844,-0.84375,0.51293945,1584207917195,8619312907039,0.03063065,0,1
1584207918394,NaN,0.15487732,0.072509766,-0.84765625,0.5163574,1584207917275,8619312907039,0.03063065,0,1
1584207918399,NaN,0.16061887,0.0769043,-0.84350586,0.5136719,1584207917355,8619312907039,0.03063065,0,1
1584207918402,NaN,0.19064851,0.080322266,-0.85424805,0.5102539,1584207917435,8619312907039,0.03063065,0,1
1584207918406,NaN,0.20195849,0.07910156,-0.8457031,0.5168457,1584207917515,8619312907039,0.03063065,0,1
1584207918410,NaN,0.23667718,0.07421875,-0.85668945,0.50878906,1584207917595,8619312907039,0.03063065,0,1
1584207918414,NaN,0.22109419,0.07373047,-0.84399414,0.5114746,1584207917675,8619312907039,0.03063065,0,1
1584207918417,NaN,0.21841903,0.076416016,-0.85009766,0.51586914,1584207917755,8619312907039,0.03063065,0,1
1584207918421,NaN,0.17521395,0.067871094,-0.8474121,0.5283203,1584207917835,8619312907039,0.03063065,0,1
1584207918424,NaN,0.14860414,0.079589844,-0.8474121,0.50927734,1584207917915,8619312907039,0.03063065,0,1
1584207918427,NaN,0.113883734,0.07421875,-0.85791016,0.5114746,1584207917995,8619312907039,0.03063065,0,1
1584207918430,NaN,0.1027534,0.08544922,-0.85058594,0.50512695,1584207918075,8619312907039,0.03063065,0,1
1584207918434,NaN,0.086983174,0.07055664,-0.85180664,0.5073242,1584207918155,8619312907039,0.03063065,0,1
1584207918437,NaN,0.09529632,0.06982422,-0.8522949,0.49829102,1584207918235,8619312907039,0.03063065,0,1
1584207918440,NaN,0.09757149,0.076171875,-0.84350586,0.49389648,1584207918315,8619312907039,0.022359869,0,1
1584207918443,NaN,0.07960116,0.08178711,-0.83984375,0.49267578,1584207918395,8619312907039,0.022359869,0,1
1584207918446,NaN,0.07614112,0.08300781,-0.84472656,0.5048828,1584207918475,8619312907039,0.022359869,0,1
1584207918449,NaN,0.045430604,0.056396484,-0.86572266,0.513916,1584207918555,8619312907039,0.035079874,0,1
1584207920918,NaN,0.065114185,0.08129883,-0.8769531,0.49194336,1584207918635,2422922769730,0.035079874,1,1
1584207920922,NaN,0.07965859,0.08300781,-0.8466797,0.48217773,1584207918715,2422922769730,0.035079874,1,1
1584207920928,NaN,0.14270662,0.106933594,-0.86450195,0.49145508,1584207918795,2422922769730,0.035079874,1,1
1584207920932,NaN,0.17202061,0.10644531,-0.86279297,0.48266602,1584207918875,2422922769730,0.035079874,1,1
1584207920936,NaN,0.21837433,0.11279297,-0.8720703,0.4724121,1584207918955,2422922769730,0.035079874,1,1
1584207920940,NaN,0.25550726,0.12207031,-0.8671875,0.46801758,1584207919035,2422922769730,0.035079874,1,1
1584207920943,NaN,0.30811557,0.115234375,-0.8684082,0.46142578,1584207919115,2422922769730,0.035079874,1,1
1584207920947,NaN,0.35073277,0.12915039,-0.8688965,0.46484375,1584207919195,2422922769730,0.035079874,1,1
1584207920949,NaN,0.37707248,0.11791992,-0.8605957,0.4729004,1584207919275,2422922769730,0.035079874,1,1
1584207920953,NaN,0.40122747,0.107910156,-0.87109375,0.4777832,1584207919355,2422922769730,0.035079874,1,1
1584207920956,NaN,0.42236665,0.10888672,-0.85595703,0.4819336,1584207919435,2422922769730,0.035079874,1,1
1584207920960,NaN,0.47865883,0.107910156,-0.8659668,0.47753906,1584207919515,2422922769730,0.035079874,1,1
1584207920963,NaN,0.45862293,0.10424805,-0.857666,0.4909668,1584207919595,2422922769730,0.035079874,1,1
1584207920966,NaN,0.4528667,0.1081543,-0.8647461,0.48266602,1584207919675,2422922769730,0.035079874,1,1
1584207920969,NaN,0.40988973,0.10620117,-0.86035156,0.48339844,1584207919755,2422922769730,0.035079874,1,1
1584207920972,NaN,0.38547516,0.11035156,-0.8671875,0.4724121,1584207919835,2422922769730,0.035079874,1,1
1584207920976,NaN,0.3284646,0.10571289,-0.86376953,0.4794922,1584207919915,2422922769730,0.035079874,1,1
1584207920980,NaN,0.26193893,0.09790039,-0.86938477,0.48413086,1584207919995,2422922769730,0.035079874,1,1
1584207920983,NaN,0.17337574,0.095703125,-0.87231445,0.50219727,1584207920075,2422922769730,0.035079874,1,1
1584207920987,NaN,0.10191363,0.08276367,-0.8569336,0.453125,1584207920155,2422922769730,0.05302912,1,1
1584207920992,NaN,0.06344881,0.08520508,-0.86572266,0.45336914,1584207920235,2422922769730,0.05302912,1,1
1584207920995,NaN,0.04402845,0.07495117,-0.8881836,0.44750977,1584207920315,2422922769730,0.05302912,1,1
1584207920998,NaN,0.032724164,0.07763672,-0.87939453,0.44677734,1584207920395,2422922769730,0.05302912,1,1
1584207921002,NaN,7.609253E-4,0.091796875,-0.8718262,0.4477539,1584207920475,2422922769730,0.05302912,1,1
1584207921005,NaN,0.03897877,0.10449219,-0.8828125,0.43798828,1584207920555,2422922769730,0.05302912,1,1
1584207921008,NaN,0.0495,0.1003418,-0.8811035,0.44677734,1584207920635,2422922769730,0.05302912,1,1
1584207921012,NaN,0.07318618,0.10131836,-0.8757324,0.4494629,1584207920715,2422922769730,0.05302912,1,1
1584207921017,NaN,0.072034575,0.10424805,-0.88500977,0.46606445,1584207920795,2422922769730,0.05302912,1,1
1584207921018,NaN,0.095605634,0.103759766,-0.87353516,0.46411133,1584207920875,2422922769730,0.05302912,1,1
1584207921021,NaN,0.12908621,0.1015625,-0.8708496,0.46875,1584207920955,2422922769730,0.05302912,1,1
1584207921025,NaN,0.18983753,0.09790039,-0.875,0.46606445,1584207921035,2422922769730,0.05302912,1,1
1584207921028,NaN,0.20308734,0.09350586,-0.8720703,0.47070312,1584207921115,2422922769730,0.05302912,1,1
1584207923504,NaN,0.20020036,0.1027832,-0.8713379,0.46801758,1584207921195,-3773748842554,0.05302912,1,1
1584207923510,NaN,0.18404448,0.10449219,-0.8745117,0.45996094,1584207921275,-3773748842554,0.05302912,1,1
1584207923518,NaN,0.15672654,0.096191406,-0.86816406,0.46118164,1584207921355,-3773748842554,0.05302912,1,1
1584207923522,NaN,0.13177167,0.092041016,-0.8730469,0.4609375,1584207921435,-3773748842554,0.05302912,1,1
1584207923528,NaN,0.061869085,0.09326172,-0.873291,0.46435547,1584207921515,-3773748842554,0.05302912,1,1
1584207923532,NaN,0.021943195,0.1003418,-0.87280273,0.45996094,1584207921595,-3773748842554,0.05302912,1,1
1584207923538,NaN,-0.024877844,0.09033203,-0.8808594,0.4753418,1584207921675,-3773748842554,0.05302912,1,1
1584207923542,NaN,-0.030011984,0.10839844,-0.8586426,0.4501953,1584207921755,-3773748842554,0.05302912,1,1
1584207923546,NaN,-0.04848059,0.096191406,-0.8798828,0.47143555,1584207921835,-3773748842554,0.05302912,1,1
1584207923549,NaN,-0.06865724,0.09277344,-0.87841797,0.47998047,1584207921915,-3773748842554,0.05302912,1,1
1584207923554,NaN,-0.10550212,0.09277344,-0.86279297,0.47192383,1584207921995,-3773748842554,0.05302912,1,1
1584207923558,NaN,-0.10656374,0.08911133,-0.86157227,0.47094727,1584207922075,-3773748842554,0.05302912,1,1
1584207923562,NaN,-0.107107036,0.095947266,-0.85839844,0.46411133,1584207922155,-3773748842554,0.05302912,1,1
1584207923566,NaN,-0.108008884,0.09448242,-0.86035156,0.45703125,1584207922235,-3773748842554,0.05302912,1,1
1584207923568,NaN,-0.103894286,0.09277344,-0.876709,0.47045898,1584207922315,-3773748842554,0.05302912,1,1
1584207923571,NaN,-0.10794646,0.092041016,-0.8730469,0.4790039,1584207922395,-3773748842554,0.05302912,1,1
1584207923574,NaN,-0.07772004,0.095214844,-0.88061523,0.46166992,1584207922475,-3773748842554,0.05302912,1,1
1584207923577,NaN,-0.068010144,0.099609375,-0.8769531,0.46533203,1584207922555,-3773748842554,0.05302912,1,1
1584207923580,NaN,-0.030886216,0.110839844,-0.87475586,0.45532227,1584207922635,-3773748842554,0.05302912,1,1
1584207923584,NaN,-0.03242517,0.107910156,-0.876709,0.45654297,1584207922715,-3773748842554,0.038109407,1,1
1584207923588,NaN,-0.011345581,0.111083984,-0.87109375,0.4501953,1584207922795,-3773748842554,0.038109407,1,1
1584207923592,NaN,0.009721085,0.09716797,-0.873291,0.46044922,1584207922875,-3773748842554,0.038109407,1,1
1584207923595,NaN,0.035103153,0.107177734,-0.8730469,0.46069336,1584207922955,-3773748842554,0.038109407,1,1
1584207923598,NaN,0.051562484,0.10595703,-0.8718262,0.46655273,1584207923035,-3773748842554,0.038109407,1,1
1584207923602,NaN,0.063169874,0.10644531,-0.8725586,0.4638672,1584207923115,-3773748842554,0.038109407,1,1
1584207923605,NaN,0.07041039,0.1015625,-0.86865234,0.46142578,1584207923195,-3773748842554,0.038109407,1,1
1584207923608,NaN,0.08399409,0.10131836,-0.87597656,0.46069336,1584207923275,-3773748842554,0.038109407,1,1
1584207923611,NaN,0.11907711,0.111083984,-0.8754883,0.4567871,1584207923355,-3773748842554,0.038109407,1,1
