local_ts,breathing_rate,breathing_signal,accel_x,accel_y,accel_z,bs_timestamp,rs_ts,activity_level,current_exercise,pred_exercise
1585488210907,NaN,-0.33014312,0.5119629,-0.8684082,-0.08276367,1585488208598,-3563011990093,0.016480848,0,1
1585488210909,NaN,-0.32432196,0.5107422,-0.8676758,-0.0847168,1585488208678,-3563011990093,0.016480848,0,1
1585488210910,NaN,-0.29749915,0.5070801,-0.86743164,-0.0859375,1585488208758,-3563011990093,0.016480848,0,1
1585488210912,NaN,-0.26185226,0.50878906,-0.8708496,-0.088378906,1585488208838,-3563011990093,0.016480848,0,1
1585488210913,NaN,-0.21125628,0.5061035,-0.86743164,-0.08959961,1585488208918,-3563011990093,0.016480848,0,1
1585488210937,NaN,-0.13983089,0.50268555,-0.86816406,-0.09667969,1585488208998,-3563011990093,0.016480848,0,1
1585488210938,NaN,-0.05843069,0.5058594,-0.86938477,-0.09350586,1585488209078,-3563011990093,0.016480848,0,1
1585488210939,NaN,0.01878543,0.5065918,-0.8654785,-0.095458984,1585488209158,-3563011990093,0.016480848,0,1
1585488210942,NaN,0.093456216,0.5036621,-0.86694336,-0.10131836,1585488209238,-3563011990093,0.016357422,0,1
1585488210961,NaN,0.14440614,0.50805664,-0.8720703,-0.095947266,1585488209318,-3563011990093,0.016357422,0,1
1585488210965,NaN,0.19573069,0.49902344,-0.86816406,-0.104003906,1585488209398,-3563011990093,0.016357422,0,1
1585488210969,NaN,0.23966306,0.5,-0.87231445,-0.103271484,1585488209478,-3563011990093,0.016357422,0,1
1585488210970,NaN,0.2694621,0.50390625,-0.86816406,-0.103027344,1585488209558,-3563011990093,0.016357422,0,1
1585488210971,NaN,0.2854652,0.501709,-0.8696289,-0.099121094,1585488209638,-3563011990093,0.016357422,0,1
1585488210973,NaN,0.28446063,0.501709,-0.8671875,-0.09277344,1585488209718,-3563011990093,0.016357422,0,1
1585488210975,NaN,0.26793674,0.5073242,-0.8696289,-0.083740234,1585488209798,-3563011990093,0.016357422,0,1
1585488210978,NaN,0.23651493,0.5131836,-0.8676758,-0.079589844,1585488209878,-3563011990093,0.016357422,0,1
1585488210979,NaN,0.18231879,0.5148926,-0.87060547,-0.0793457,1585488209958,-3563011990093,0.016357422,0,1
1585488210991,NaN,0.12198187,0.5102539,-0.8688965,-0.06640625,1585488210038,-3563011990093,0.016357422,0,1
1585488210993,NaN,0.053519767,0.5161133,-0.86279297,-0.05834961,1585488210118,-3563011990093,0.016357422,0,1
1585488210994,NaN,-0.01631699,0.5144043,-0.8659668,-0.061767578,1585488210198,-3563011990093,0.014191691,0,1
1585488210995,16.304348,-0.06608967,0.51416016,-0.8635254,-0.061035156,1585488210278,-3563011990093,0.014018435,0,1
1585488210997,NaN,-0.11802275,0.5161133,-0.8659668,-0.07299805,1585488210358,-3563011990093,0.014018435,0,1
1585488210998,NaN,-0.16374026,0.5222168,-0.8659668,-0.07714844,1585488210438,-3563011990093,0.014018435,0,1
1585488211001,NaN,-0.1839984,0.4958496,-0.8640137,-0.09790039,1585488210518,-3563011990093,0.033610813,0,1
1585488211004,NaN,-0.19960152,0.50805664,-0.87158203,-0.09838867,1585488210598,-3563011990093,0.033610813,0,1
1585488211007,NaN,-0.21663429,0.51464844,-0.86328125,-0.083984375,1585488210678,-3563011990093,0.033610813,0,1
1585488211012,NaN,-0.19589205,0.501709,-0.8684082,-0.10424805,1585488210758,-3563011990093,0.033610813,0,1
1585488211015,NaN,-0.1725109,0.5095215,-0.87109375,-0.095703125,1585488210838,-3563011990093,0.033610813,0,1
1585488211018,NaN,-0.13757782,0.5036621,-0.86499023,-0.099853516,1585488210918,-3563011990093,0.033610813,0,1
1585488211021,NaN,-0.08075715,0.50390625,-0.86987305,-0.1081543,1585488210998,-3563011990093,0.033610813,0,1
1585488211023,NaN,-0.013913356,0.5078125,-0.87109375,-0.099853516,1585488211078,-3563011990093,0.033610813,0,1
1585488213447,NaN,0.050707072,0.50756836,-0.8666992,-0.09887695,1585488211158,8687341946307,0.033610813,0,1
1585488213453,NaN,0.115540974,0.515625,-0.8652344,-0.10644531,1585488211238,8687341946307,0.033610813,0,1
1585488213459,NaN,0.17257285,0.5124512,-0.86694336,-0.107910156,1585488211318,8687341946307,0.033610813,0,1
1585488213465,NaN,0.2255779,0.51660156,-0.8642578,-0.109375,1585488211398,8687341946307,0.033610813,0,1
1585488213470,NaN,0.20552482,0.5292969,-0.87890625,-0.07885742,1585488211478,8687341946307,0.03615343,0,1
1585488213476,NaN,0.17865138,0.5385742,-0.86206055,-0.072021484,1585488211558,8687341946307,0.03615343,0,1
1585488213482,NaN,0.11752363,0.5480957,-0.88305664,-0.0014648438,1585488211638,8687341946307,0.07422759,0,1
1585488213486,NaN,0.0019630194,0.48486328,-0.8762207,0.026367188,1585488211718,8687341946307,0.07422759,0,1
1585488213492,39.473682,-0.17153193,0.45751953,-0.8996582,0.12060547,1585488211798,8687341946307,0.10088533,0,1
1585488213496,NaN,-0.3565384,0.46850586,-0.88378906,0.1171875,1585488211878,8687341946307,0.10088533,0,1
1585488213500,NaN,-0.6190711,0.41308594,-0.8442383,0.18847656,1585488211958,8687341946307,0.10088533,0,1
1585488213503,NaN,-0.81904054,0.46899414,-0.90527344,0.110839844,1585488212038,8687341946307,0.11348338,0,1
1585488213506,NaN,-1.093717,0.51000977,-0.9345703,0.2055664,1585488212118,8687341946307,0.11348338,0,1
1585488213510,NaN,-1.339773,0.42504883,-0.8852539,0.1616211,1585488212198,8687341946307,0.11348338,0,1
1585488213514,NaN,-1.5907922,0.36206055,-0.9243164,0.17553711,1585488212278,8687341946307,0.11348338,0,1
1585488213517,NaN,-1.8366604,0.41870117,-0.9147949,0.16381836,1585488212358,8687341946307,0.11348338,0,1
1585488213520,NaN,-2.1688573,0.21850586,-0.85668945,0.33374023,1585488212438,8687341946307,0.2689384,0,1
1585488213523,NaN,-2.4008605,0.32421875,-0.9230957,0.22924805,1585488212518,8687341946307,0.2689384,0,1
1585488213527,NaN,-2.5857887,0.3071289,-0.90356445,0.27783203,1585488212598,8687341946307,0.2689384,0,1
1585488213529,NaN,-2.7286813,0.30493164,-0.9345703,0.29663086,1585488212678,8687341946307,0.2689384,0,1
1585488213533,NaN,-2.7336702,0.21777344,-0.90844727,0.27001953,1585488212758,8687341946307,0.2689384,0,1
1585488213536,NaN,-2.7469456,0.22827148,-0.89086914,0.2770996,1585488212838,8687341946307,0.2689384,0,1
1585488213540,NaN,-2.6090806,0.2758789,-0.8781738,0.26513672,1585488212918,8687341946307,0.2689384,0,1
1585488213542,NaN,-2.6341686,0.1784668,-0.8972168,0.25097656,1585488212998,8687341946307,0.2689384,0,1
1585488213545,NaN,-2.5232918,0.14086914,-0.9511719,0.22851562,1585488213078,8687341946307,0.2689384,0,1
1585488213548,NaN,-2.3656344,0.18920898,-0.9777832,0.15454102,1585488213158,8687341946307,0.2689384,0,1
1585488213564,NaN,-2.1404386,0.21533203,-0.9855957,0.12963867,1585488213238,8687341946307,0.2689384,0,1
1585488213565,NaN,-1.9273366,0.14624023,-0.95581055,0.09277344,1585488213318,8687341946307,0.2689384,0,1
1585488213566,NaN,-1.3581438,0.1105957,-1.0488281,0.06298828,1585488213398,8687341946307,0.2689384,0,1
1585488213567,NaN,-0.9780977,0.080322266,-1.0432129,0.042236328,1585488213478,8687341946307,0.2689384,0,1
1585488213568,NaN,-0.55844206,0.075683594,-0.9406738,0.03564453,1585488213558,8687341946307,0.2689384,0,1
1585488213569,NaN,-0.085760795,0.13305664,-1.0305176,-0.00390625,1585488213638,8687341946307,0.2689384,0,1
1585488216031,NaN,0.31691343,0.06982422,-0.9790039,-0.033447266,1585488213718,2490951808998,0.2689384,0,1
1585488216035,NaN,0.7353254,0.118896484,-1.0214844,-0.0146484375,1585488213798,2490951808998,0.2689384,0,1
1585488216040,NaN,1.0564812,0.09790039,-1.0119629,-0.019042969,1585488213878,2490951808998,0.2689384,0,1
1585488216046,NaN,1.4631401,0.114746094,-0.9904785,-0.016845703,1585488213958,2490951808998,0.2689384,0,1
1585488216052,NaN,1.7348047,0.16455078,-1.0349121,0.057617188,1585488214038,2490951808998,0.2689384,0,1
1585488216056,NaN,1.7648854,0.17114258,-0.9470215,0.1821289,1585488214118,2490951808998,0.2689384,0,1
1585488216060,NaN,1.6008935,0.11450195,-0.8601074,0.32348633,1585488214198,2490951808998,0.2689384,0,1
1585488216064,NaN,1.3581146,0.080322266,-0.87109375,0.3942871,1585488214278,2490951808998,0.2689384,0,1
1585488216069,NaN,0.87181324,0.080322266,-0.94091797,0.3876953,1585488214358,2490951808998,0.2689384,0,1
1585488216074,NaN,0.4767944,0.14257812,-0.9326172,0.37158203,1585488214438,2490951808998,0.2689384,0,1
1585488216079,NaN,0.046110433,0.09863281,-0.89160156,0.3581543,1585488214518,2490951808998,0.2689384,0,1
1585488216083,NaN,-0.45278704,0.15893555,-0.95410156,0.31298828,1585488214598,2490951808998,0.2689384,0,1
1585488216086,NaN,-0.9552421,0.114990234,-0.9460449,0.28955078,1585488214678,2490951808998,0.2689384,0,1
1585488216089,NaN,-1.4570287,-0.0061035156,-0.97436523,0.2902832,1585488214758,2490951808998,0.2689384,0,1
1585488216093,NaN,-1.9723903,-0.0034179688,-0.93115234,0.30566406,1585488214838,2490951808998,0.2689384,0,1
1585488216097,NaN,-2.4161713,0.020751953,-0.9580078,0.24951172,1585488214918,2490951808998,0.2689384,0,1
1585488216100,NaN,-2.7345524,-0.07714844,-0.9753418,0.23168945,1585488214998,2490951808998,0.17534006,0,1
1585488216103,NaN,-2.8213174,-0.060302734,-0.9641113,0.28759766,1585488215078,2490951808998,0.17534006,0,1
1585488216107,NaN,-2.562384,-0.09667969,-0.94799805,0.19067383,1585488215158,2490951808998,0.17534006,0,1
1585488216110,NaN,-2.1056383,-0.020751953,-0.96606445,0.13916016,1585488215238,2490951808998,0.17534006,0,1
1585488216113,NaN,-1.59799,-0.12426758,-1.0097656,0.080078125,1585488215318,2490951808998,0.17534006,0,1
1585488216116,NaN,-1.0767101,-0.041748047,-1.0151367,0.06274414,1585488215398,2490951808998,0.17534006,0,1
1585488216119,NaN,-0.5476745,-0.06665039,-1.0195312,0.04345703,1585488215478,2490951808998,0.17534006,0,1
1585488216122,NaN,-0.01725181,0.0390625,-0.98657227,-0.020019531,1585488215558,2490951808998,0.17534006,0,1
1585488216125,NaN,0.4803976,0.022705078,-0.9453125,-0.007080078,1585488215638,2490951808998,0.17534006,0,1
1585488216129,NaN,0.8926654,0.015380859,-1.0585938,0.11621094,1585488215718,2490951808998,0.17534006,0,1
1585488216132,NaN,1.3829278,0.08300781,-0.98413086,0.056884766,1585488215798,2490951808998,0.17534006,0,1
1585488216134,NaN,1.7595716,0.13916016,-0.9782715,0.068603516,1585488215878,2490951808998,0.17534006,0,1
1585488216138,NaN,2.0240366,0.10180664,-0.9902344,0.13500977,1585488215958,2490951808998,0.17534006,0,1
1585488216141,NaN,2.2712238,0.22460938,-0.97265625,0.13500977,1585488216038,2490951808998,0.17534006,0,1
1585488216144,NaN,2.147876,0.15454102,-0.91015625,0.22851562,1585488216118,2490951808998,0.17534006,0,1
1585488216149,NaN,1.8763043,0.2529297,-0.9333496,0.21899414,1585488216198,2490951808998,0.17534006,0,1
1585488218627,NaN,1.521852,0.203125,-0.98339844,0.22045898,1585488216278,-3705719803286,0.17534006,0,1
1585488218629,NaN,1.182684,0.05053711,-1.0256348,0.17700195,1585488216358,-3705719803286,0.17534006,0,1
1585488218630,NaN,0.8089692,-0.020996094,-0.9875488,0.17529297,1585488216438,-3705719803286,0.17534006,0,1
1585488218631,NaN,0.41869402,-0.06958008,-1.0134277,0.13769531,1585488216518,-3705719803286,0.17534006,0,1
1585488218634,NaN,0.013157129,-0.06298828,-0.9421387,0.2019043,1585488216598,-3705719803286,0.17534006,0,1
1585488218641,NaN,-0.27995995,-0.048339844,-0.9279785,0.2692871,1585488216678,-3705719803286,0.17534006,0,1
1585488218646,NaN,-0.7065193,-0.20678711,-0.98950195,0.31445312,1585488216758,-3705719803286,0.17587109,0,1
1585488218649,NaN,-1.0378081,-0.15063477,-0.9621582,0.2692871,1585488216838,-3705719803286,0.17587109,0,1
1585488218654,NaN,-1.2789437,-0.16821289,-0.9506836,0.29638672,1585488216918,-3705719803286,0.17587109,0,1
1585488218660,NaN,-1.5990087,-0.052490234,-0.8894043,0.31323242,1585488216998,-3705719803286,0.17587109,0,1
1585488218663,NaN,-1.6612128,-0.061523438,-0.89624023,0.30810547,1585488217078,-3705719803286,0.17587109,0,1
1585488218667,NaN,-1.7308494,-0.08935547,-0.8520508,0.31445312,1585488217158,-3705719803286,0.17587109,0,1
1585488218671,NaN,-1.7598376,-0.14575195,-0.8955078,0.3227539,1585488217238,-3705719803286,0.17587109,0,1
1585488218675,NaN,-1.7287536,0.035888672,-1.0095215,0.2512207,1585488217318,-3705719803286,0.22607395,0,1
1585488218680,NaN,-1.6302286,0.21875,-1.0400391,0.24951172,1585488217398,-3705719803286,0.22607395,0,1
1585488218683,NaN,-1.4269861,0.15942383,-1.0568848,0.09399414,1585488217478,-3705719803286,0.22607395,0,1
1585488218686,NaN,-1.1050949,0.025146484,-0.9929199,0.03955078,1585488217558,-3705719803286,0.22607395,0,1
1585488218690,NaN,-0.68141985,0.026855469,-0.95410156,-0.06738281,1585488217638,-3705719803286,0.22607395,0,1
1585488218694,NaN,-0.073883176,0.15112305,-1.0236816,-0.095458984,1585488217718,-3705719803286,0.22607395,0,1
1585488218697,NaN,0.43957138,0.14648438,-0.98413086,-0.07836914,1585488217798,-3705719803286,0.22607395,0,1
1585488218701,NaN,0.9254067,0.1418457,-0.9777832,-0.03955078,1585488217878,-3705719803286,0.22607395,0,1
1585488218705,NaN,1.4390454,0.21875,-0.95996094,-0.025390625,1585488217958,-3705719803286,0.22607395,0,1
1585488218709,NaN,1.8161241,0.24145508,-0.91552734,0.0234375,1585488218038,-3705719803286,0.22607395,0,1
1585488218712,NaN,2.2675884,0.13891602,-0.92211914,-0.01928711,1585488218118,-3705719803286,0.22607395,0,1
1585488218716,NaN,2.7339728,0.31445312,-0.84106445,0.039794922,1585488218198,-3705719803286,0.22607395,0,1
1585488218720,NaN,3.0456047,0.3005371,-0.8469238,0.015380859,1585488218278,-3705719803286,0.22607395,0,1
1585488218723,NaN,3.2487347,0.34448242,-0.8195801,0.06225586,1585488218358,-3705719803286,0.22607395,0,1
1585488218726,NaN,3.201071,0.4074707,-0.8647461,0.12548828,1585488218438,-3705719803286,0.22607395,0,1
1585488218730,NaN,3.1603184,0.4272461,-0.84887695,0.01953125,1585488218518,-3705719803286,0.22607395,0,1
1585488218733,NaN,2.8346689,0.484375,-0.9645996,0.08666992,1585488218598,-3705719803286,0.22607395,0,1
1585488218736,NaN,2.3018494,0.33325195,-1.0993652,0.11279297,1585488218678,-3705719803286,0.22607395,0,1
1585488218739,NaN,1.7656518,0.27734375,-1.3291016,0.1875,1585488218758,-3705719803286,0.247963,0,1
1585488221200,NaN,NaN,-0.0026855469,-1.0192871,0.23486328,1585488218838,8544634133115,0.4202912,0,1
1585488221207,NaN,NaN,-0.053222656,-0.84375,0.26635742,1585488218918,8544634133115,0.4202912,0,1
1585488221211,NaN,NaN,-0.04736328,-0.9284668,0.18701172,1585488218998,8544634133115,0.4202912,0,1
1585488221216,NaN,NaN,-0.091552734,-1.0510254,0.23168945,1585488219078,8544634133115,0.4202912,0,1
1585488221220,NaN,NaN,-0.16357422,-0.986084,0.20629883,1585488219158,8544634133115,0.4202912,0,1
1585488221226,NaN,NaN,-0.14526367,-0.91381836,0.16210938,1585488219238,8544634133115,0.4202912,0,1
1585488221232,NaN,NaN,-0.10571289,-0.94750977,0.1965332,1585488219318,8544634133115,0.4202912,0,1
1585488221236,NaN,NaN,-0.0715332,-0.9550781,0.20605469,1585488219398,8544634133115,0.4202912,0,1
1585488221241,NaN,NaN,-0.0107421875,-1.0458984,0.17626953,1585488219478,8544634133115,0.4202912,0,1
1585488221245,NaN,NaN,0.12988281,-1.2092285,0.114746094,1585488219558,8544634133115,0.4202912,0,1
1585488221249,NaN,NaN,0.3569336,-1.1853027,0.057861328,1585488219638,8544634133115,0.4202912,0,1
1585488221255,NaN,NaN,0.37817383,-1.0458984,0.026611328,1585488219718,8544634133115,0.4202912,0,1
1585488221257,NaN,NaN,0.3076172,-1.0136719,0.020507812,1585488219798,8544634133115,0.4202912,0,1
1585488221261,NaN,NaN,0.27001953,-0.9536133,0.033935547,1585488219878,8544634133115,0.4202912,0,1
1585488221265,NaN,NaN,0.23413086,-0.96484375,0.08959961,1585488219958,8544634133115,0.4202912,0,1
1585488221268,NaN,NaN,0.16455078,-0.859375,0.06713867,1585488220038,8544634133115,0.4202912,0,1
1585488221271,NaN,NaN,0.13330078,-0.8352051,0.09423828,1585488220118,8544634133115,0.4202912,0,1
1585488221274,NaN,NaN,0.11425781,-0.87719727,0.12109375,1585488220198,8544634133115,0.4202912,0,1
1585488221278,NaN,NaN,0.08105469,-0.92407227,0.14648438,1585488220278,8544634133115,0.4202912,0,1
1585488221282,NaN,NaN,0.044189453,-0.9025879,0.19702148,1585488220358,8544634133115,0.4202912,0,1
1585488221285,NaN,NaN,7.324219E-4,-0.94873047,0.20776367,1585488220438,8544634133115,0.4202912,0,1
1585488221289,NaN,NaN,-0.0031738281,-0.9562988,0.2434082,1585488220518,8544634133115,0.4202912,0,1
1585488221293,NaN,NaN,-0.010009766,-0.9423828,0.25708008,1585488220598,8544634133115,0.4202912,0,1
1585488221296,NaN,NaN,-0.022949219,-0.92529297,0.26245117,1585488220678,8544634133115,0.4202912,0,1
1585488221301,NaN,NaN,-0.021484375,-0.9416504,0.2626953,1585488220758,8544634133115,0.4202912,0,1
1585488221304,NaN,NaN,-0.018310547,-0.94384766,0.27124023,1585488220838,8544634133115,0.4202912,0,1
1585488221307,NaN,NaN,-0.012207031,-0.91967773,0.25073242,1585488220918,8544634133115,0.4202912,0,1
1585488221310,NaN,NaN,0.011962891,-0.9692383,0.26953125,1585488220998,8544634133115,0.4202912,0,1
1585488221314,NaN,NaN,0.0014648438,-0.9663086,0.25048828,1585488221078,8544634133115,0.4202912,0,1
1585488221318,NaN,NaN,0.008300781,-0.96655273,0.25195312,1585488221158,8544634133115,0.4202912,0,1
1585488221321,NaN,NaN,0.033691406,-0.8996582,0.21850586,1585488221238,8544634133115,0.4202912,0,1
1585488221323,NaN,NaN,0.07080078,-0.87231445,0.18603516,1585488221318,8544634133115,0.4202912,0,1
1585488223782,NaN,1.2591051,0.12890625,-0.8015137,0.17529297,1585488221398,2348243995806,0.23528786,0,1
1585488223795,NaN,0.7350586,0.10644531,-0.8430176,0.18188477,1585488221478,2348243995806,0.23528786,0,1
1585488223800,NaN,0.35743237,0.16503906,-0.8659668,0.111328125,1585488221558,2348243995806,0.23528786,0,1
1585488223810,NaN,-0.08072186,0.22949219,-0.9182129,0.14477539,1585488221638,2348243995806,0.23528786,0,1
1585488223813,NaN,-0.44662714,0.30126953,-0.98999023,0.1003418,1585488221718,2348243995806,0.23528786,0,1
1585488223822,NaN,-0.7902104,0.46118164,-1.0869141,0.1809082,1585488221798,2348243995806,0.23528786,0,1
1585488223827,NaN,-1.0284958,0.3388672,-1.0444336,0.13574219,1585488221878,2348243995806,0.23528786,0,1
1585488223830,NaN,-1.1580453,0.20361328,-0.93603516,0.2097168,1585488221958,2348243995806,0.23528786,0,1
1585488223834,NaN,-1.4455371,0.17114258,-0.9868164,0.19360352,1585488222038,2348243995806,0.23528786,0,1
1585488223841,NaN,-1.6043202,0.1730957,-1.2524414,0.29418945,1585488222118,2348243995806,0.2840387,0,1
1585488223844,NaN,-1.6525341,-0.005126953,-1.1064453,0.2709961,1585488222198,2348243995806,0.2840387,0,1
1585488223847,NaN,-1.648158,-0.12133789,-0.85131836,0.26391602,1585488222278,2348243995806,0.2840387,0,1
1585488223851,NaN,-1.5823965,-0.08959961,-0.8864746,0.2590332,1585488222358,2348243995806,0.2840387,0,1
1585488223854,NaN,-1.5199004,-0.10986328,-0.9880371,0.3005371,1585488222438,2348243995806,0.2840387,0,1
1585488223857,NaN,-1.6604878,-0.17602539,-0.94628906,0.30688477,1585488222518,2348243995806,0.2840387,0,1
1585488223860,NaN,-1.7932014,-0.1899414,-0.87231445,0.31640625,1585488222598,2348243995806,0.2840387,0,1
1585488223864,NaN,-2.0668323,-0.13134766,-0.8901367,0.33911133,1585488222678,2348243995806,0.2840387,0,1
1585488223867,NaN,-2.3268936,-0.12402344,-0.92456055,0.37182617,1585488222758,2348243995806,0.2840387,0,1
1585488223870,NaN,-2.6281788,-0.09301758,-0.8869629,0.3774414,1585488222838,2348243995806,0.2840387,0,1
1585488223873,NaN,-2.74477,-0.080566406,-0.90478516,0.3713379,1585488222918,2348243995806,0.2840387,0,1
1585488223877,NaN,-2.7775838,-0.059814453,-0.91430664,0.35742188,1585488222998,2348243995806,0.2840387,0,1
1585488223881,NaN,-2.768974,-0.020751953,-0.9494629,0.36010742,1585488223078,2348243995806,0.2840387,0,1
1585488223883,NaN,-2.5963883,0.057861328,-0.9838867,0.28442383,1585488223158,2348243995806,0.2840387,0,1
1585488223886,NaN,-2.163585,0.2006836,-1.2062988,0.23730469,1585488223238,2348243995806,0.2840387,0,1
1585488223890,NaN,-1.7746701,0.44677734,-1.1467285,0.2368164,1585488223318,2348243995806,0.2840387,0,1
1585488223892,NaN,-1.2951311,0.41992188,-1.013916,0.09082031,1585488223398,2348243995806,0.2840387,0,1
1585488223895,NaN,-0.6849416,0.3955078,-1.0161133,0.09472656,1585488223478,2348243995806,0.2840387,0,1
1585488223898,NaN,-0.038810134,0.36499023,-0.9975586,0.09106445,1585488223558,2348243995806,0.2840387,0,1
1585488223901,NaN,0.62745196,0.29101562,-0.9250488,0.08666992,1585488223638,2348243995806,0.2840387,0,1
1585488223904,NaN,1.3166385,0.2434082,-0.83691406,0.08886719,1585488223718,2348243995806,0.2840387,0,1
1585488223909,NaN,1.9634618,0.15185547,-0.75634766,0.08325195,1585488223798,2348243995806,0.2840387,0,1
1585488223910,NaN,2.4589,0.14575195,-0.8161621,0.10522461,1585488223878,2348243995806,0.2840387,0,1
1585488226165,NaN,2.9086618,0.12719727,-0.9628906,0.13354492,1585488223958,-3848427616478,0.2840387,0,1
1585488226169,NaN,3.2914143,0.0625,-0.8815918,0.14770508,1585488224038,-3848427616478,0.2840387,0,1
1585488226174,NaN,3.3715837,0.044189453,-0.97631836,0.19726562,1585488224118,-3848427616478,0.2840387,0,1
1585488226177,NaN,3.069357,-0.014892578,-0.9482422,0.21240234,1585488224198,-3848427616478,0.2840387,0,1
1585488226183,NaN,2.5983145,0.0017089844,-0.9663086,0.23999023,1585488224278,-3848427616478,0.2840387,0,1
1585488226187,NaN,1.9373585,-0.020263672,-0.94628906,0.24145508,1585488224358,-3848427616478,0.2840387,0,1
1585488226190,NaN,1.2469373,-0.010986328,-0.9555664,0.25146484,1585488224438,-3848427616478,0.2840387,0,1
1585488226193,NaN,0.55522186,-0.024658203,-0.9523926,0.23657227,1585488224518,-3848427616478,0.2840387,0,1
1585488226196,NaN,-0.057459474,-0.02709961,-0.954834,0.24267578,1585488224598,-3848427616478,0.2840387,0,1
1585488226199,NaN,-0.6124665,-0.01586914,-0.9638672,0.23925781,1585488224678,-3848427616478,0.28043693,0,1
1585488226202,NaN,-1.0680507,-0.006591797,-0.96533203,0.23925781,1585488224758,-3848427616478,0.28043693,0,1
1585488226207,NaN,-1.4924034,-0.009277344,-0.94018555,0.2355957,1585488224838,-3848427616478,0.26848754,0,1
1585488226210,NaN,-1.88947,-0.018554688,-0.9343262,0.2565918,1585488224918,-3848427616478,0.26848754,0,1
1585488226216,NaN,-2.1468813,-0.010009766,-0.97387695,0.22363281,1585488224998,-3848427616478,0.26848754,0,1
1585488226218,NaN,-2.2225697,0.03100586,-0.93188477,0.20214844,1585488225078,-3848427616478,0.26848754,0,1
1585488226222,NaN,-2.081191,0.091552734,-0.9182129,0.17504883,1585488225158,-3848427616478,0.26848754,0,1
1585488226225,NaN,-1.7642833,0.12988281,-0.87402344,0.12890625,1585488225238,-3848427616478,0.26848754,0,1
1585488226230,NaN,-1.28717,0.19335938,-0.8322754,0.13110352,1585488225318,-3848427616478,0.26848754,0,1
1585488226233,NaN,-0.7725647,0.21191406,-0.84350586,0.09716797,1585488225398,-3848427616478,0.26848754,0,1
1585488226237,NaN,-0.26987875,0.18945312,-0.90234375,0.09399414,1585488225478,-3848427616478,0.26848754,0,1
1585488226242,NaN,0.2611632,0.33129883,-0.9453125,0.12890625,1585488225558,-3848427616478,0.26848754,0,1
1585488226245,NaN,0.8083218,0.47631836,-1.0170898,0.14086914,1585488225638,-3848427616478,0.26848754,0,1
1585488226249,NaN,1.273786,0.42041016,-1.0141602,0.11694336,1585488225718,-3848427616478,0.26848754,0,1
1585488226252,NaN,1.7045159,0.3942871,-0.9633789,0.12207031,1585488225798,-3848427616478,0.25320148,0,1
1585488226255,NaN,2.092015,0.32226562,-0.94628906,0.17163086,1585488225878,-3848427616478,0.19918643,0,1
1585488226258,NaN,2.271574,0.25610352,-1.0244141,0.2529297,1585488225958,-3848427616478,0.16225216,0,1
1585488226261,NaN,2.269515,0.22265625,-1.1550293,0.35717773,1585488226038,-3848427616478,0.17043097,0,1
1585488226264,NaN,2.0630767,0.03881836,-1.0571289,0.33520508,1585488226118,-3848427616478,0.20943652,0,1
1585488226268,NaN,1.7566072,-0.033935547,-0.8754883,0.2866211,1585488226198,-3848427616478,0.20943652,0,1
1585488226271,NaN,1.3887529,0.013427734,-0.8664551,0.30639648,1585488226278,-3848427616478,0.20943652,0,1
1585488226274,NaN,0.91679674,-0.005126953,-0.94384766,0.3474121,1585488226358,-3848427616478,0.20943652,0,1
1585488226276,NaN,0.40597728,-0.06347656,-0.94555664,0.38061523,1585488226438,-3848427616478,0.20943652,0,1
1585488228751,NaN,-0.22754465,-0.087402344,-0.90283203,0.3696289,1585488226518,8401926319922,0.20943652,0,1
1585488228758,NaN,-0.9981205,-0.06933594,-0.9042969,0.3696289,1585488226598,8401926319922,0.20943652,0,1
1585488228763,NaN,-1.7434015,-0.07543945,-0.9099121,0.36816406,1585488226678,8401926319922,0.20943652,0,1
1585488228766,NaN,-2.4491851,-0.07861328,-0.904541,0.3696289,1585488226758,8401926319922,0.20943652,0,1
1585488228771,NaN,-3.0306184,-0.07128906,-0.9067383,0.38330078,1585488226838,8401926319922,0.20943652,0,1
1585488228774,NaN,-3.4174833,-0.049560547,-0.9123535,0.39404297,1585488226918,8401926319922,0.20943652,0,1
1585488228776,NaN,-3.630744,-0.04321289,-0.90185547,0.38964844,1585488226998,8401926319922,0.20943652,0,1
1585488228780,NaN,-3.6142156,-0.038085938,-0.89404297,0.39282227,1585488227078,8401926319922,0.20943652,0,1
1585488228784,NaN,-3.4669945,-0.01953125,-0.9116211,0.38500977,1585488227158,8401926319922,0.20943652,0,1
1585488228791,NaN,-3.3066757,-0.007080078,-0.90185547,0.3791504,1585488227238,8401926319922,0.20943652,0,1
1585488228794,NaN,-3.0407455,0.017822266,-0.92285156,0.36523438,1585488227318,8401926319922,0.20943652,0,1
1585488228798,NaN,-2.6255617,0.056396484,-1.0351562,0.35498047,1585488227398,8401926319922,0.20943652,0,1
1585488228802,NaN,-1.9492997,0.28271484,-1.2258301,0.35229492,1585488227478,8401926319922,0.29594547,0,1
1585488228804,NaN,-1.1277064,0.43725586,-1.0180664,0.27490234,1585488227558,8401926319922,0.29594547,0,1
1585488228808,NaN,-0.2670356,0.40039062,-1.0332031,0.1472168,1585488227638,8401926319922,0.29594547,0,1
1585488228810,NaN,0.56383806,0.3684082,-1.0102539,0.12792969,1585488227718,8401926319922,0.29594547,0,1
1585488228814,NaN,1.2868563,0.2927246,-0.9736328,0.10668945,1585488227798,8401926319922,0.29594547,0,1
1585488228817,NaN,1.8969493,0.25,-0.8786621,0.104003906,1585488227878,8401926319922,0.29594547,0,1
1585488228821,NaN,2.4056942,0.16552734,-0.78930664,0.103271484,1585488227958,8401926319922,0.29594547,0,1
1585488228825,NaN,2.800275,0.14282227,-0.80981445,0.08642578,1585488228038,8401926319922,0.29594547,0,1
1585488228830,NaN,3.0906303,0.1616211,-0.8535156,0.12646484,1585488228118,8401926319922,0.29594547,0,1
1585488228833,NaN,3.307544,0.08984375,-0.9160156,0.17041016,1585488228198,8401926319922,0.29594547,0,1
1585488228837,NaN,3.4468458,0.092041016,-0.9526367,0.19433594,1585488228278,8401926319922,0.29594547,0,1
1585488228840,NaN,3.3992796,0.029785156,-0.9616699,0.21875,1585488228358,8401926319922,0.29594547,0,1
1585488228843,NaN,3.022567,0.04736328,-0.9284668,0.23217773,1585488228438,8401926319922,0.29594547,0,1
1585488228845,NaN,2.3830264,0.026367188,-0.9577637,0.2614746,1585488228518,8401926319922,0.29594547,0,1
1585488228848,NaN,1.6525927,0.035888672,-0.9404297,0.25878906,1585488228598,8401926319922,0.29594547,0,1
1585488228852,NaN,0.93188596,0.02758789,-0.9604492,0.26293945,1585488228678,8401926319922,0.29594547,0,1
1585488228855,NaN,0.29999134,0.033447266,-0.9460449,0.25024414,1585488228758,8401926319922,0.29594547,0,1
1585488228858,NaN,-0.25242916,0.044677734,-0.96655273,0.25317383,1585488228838,8401926319922,0.29594547,0,1
1585488228861,NaN,-0.67662406,0.04296875,-0.9604492,0.24267578,1585488228918,8401926319922,0.29594547,0,1
1585488228866,NaN,-1.0832051,0.046875,-0.96069336,0.23217773,1585488228998,8401926319922,0.29594547,0,1
1585488231335,NaN,-1.4569925,0.048828125,-0.94799805,0.22558594,1585488229078,2205536182614,0.29594547,0,1
1585488231342,NaN,-1.654483,0.07446289,-0.9382324,0.19946289,1585488229158,2205536182614,0.29594547,0,1
1585488231349,NaN,-1.7924482,0.09423828,-0.9477539,0.19555664,1585488229238,2205536182614,0.29594547,0,1
1585488231355,NaN,-1.7743417,0.11206055,-0.9470215,0.17016602,1585488229318,2205536182614,0.29594547,0,1
1585488231362,NaN,-1.5998487,0.16333008,-0.9355469,0.18334961,1585488229398,2205536182614,0.29594547,0,1
1585488231366,NaN,-1.1379648,0.23217773,-0.91186523,0.13867188,1585488229478,2205536182614,0.29594547,0,1
1585488231371,NaN,-0.5977027,0.2705078,-0.888916,0.1159668,1585488229558,2205536182614,0.29594547,0,1
1585488231376,NaN,0.022515913,0.33984375,-0.8857422,0.0793457,1585488229638,2205536182614,0.29594547,0,1
1585488231382,NaN,0.6476719,0.41381836,-0.9111328,0.05810547,1585488229718,2205536182614,0.29594547,0,1
1585488231387,NaN,1.2835141,0.46362305,-0.87109375,0.020019531,1585488229798,2205536182614,0.29594547,0,1
1585488231390,NaN,1.8858671,0.5202637,-0.86499023,0.017822266,1585488229878,2205536182614,0.29594547,0,1
1585488231394,NaN,2.483687,0.52246094,-0.83691406,-0.01171875,1585488229958,2205536182614,0.29594547,0,1
1585488231397,NaN,3.1125143,0.56103516,-0.77783203,-0.033691406,1585488230038,2205536182614,0.27025595,0,1
1585488231402,NaN,3.62045,0.5986328,-0.8041992,-0.010253906,1585488230118,2205536182614,0.1337601,0,1
1585488231405,NaN,4.0855217,0.5900879,-0.84155273,-0.03125,1585488230198,2205536182614,0.12296571,0,1
1585488231408,NaN,4.3817143,0.55444336,-0.859375,0.028320312,1585488230278,2205536182614,0.12296571,0,1
1585488231411,NaN,4.4650617,0.4501953,-1.0617676,0.087402344,1585488230358,2205536182614,0.23520437,0,1
1585488231414,NaN,NaN,0.38085938,-1.3806152,0.265625,1585488230438,2205536182614,0.37179917,0,1
1585488231418,NaN,NaN,-0.125,-1.1108398,0.33666992,1585488230518,2205536182614,0.5776849,0,1
1585488231421,NaN,NaN,-0.08959961,-0.71972656,0.18896484,1585488230598,2205536182614,0.5776849,0,1
1585488231423,NaN,NaN,0.0847168,-0.8300781,0.18164062,1585488230678,2205536182614,0.5776849,0,1
1585488231426,NaN,NaN,-0.013427734,-1.0180664,0.29541016,1585488230758,2205536182614,0.5776849,0,1
1585488231430,NaN,NaN,-0.13989258,-0.986084,0.34375,1585488230838,2205536182614,0.5776849,0,1
1585488231433,NaN,NaN,-0.09667969,-0.8823242,0.3269043,1585488230918,2205536182614,0.5776849,0,1
1585488231436,NaN,NaN,-0.0031738281,-0.9243164,0.31103516,1585488230998,2205536182614,0.5776849,0,1
1585488231440,NaN,NaN,-0.051757812,-0.9577637,0.30078125,1585488231078,2205536182614,0.5776849,0,1
1585488231443,NaN,NaN,-0.12426758,-0.9182129,0.30444336,1585488231158,2205536182614,0.5776849,0,1
1585488231446,NaN,NaN,-0.109375,-0.9020996,0.33740234,1585488231238,2205536182614,0.5776849,0,1
1585488231449,NaN,NaN,-0.032958984,-0.9382324,0.32006836,1585488231318,2205536182614,0.5776849,0,1
1585488231451,NaN,NaN,-0.05883789,-0.8959961,0.32177734,1585488231398,2205536182614,0.5776849,0,1
1585488231454,NaN,NaN,-0.015136719,-0.90185547,0.36083984,1585488231478,2205536182614,0.5776849,0,1
1585488231457,NaN,NaN,0.04638672,-0.9304199,0.34594727,1585488231558,2205536182614,0.5776849,0,1
1585488234113,NaN,NaN,0.055664062,-0.9448242,0.3762207,1585488231638,-3991135429670,0.5776849,0,1
1585488234119,NaN,NaN,0.08178711,-0.89160156,0.36279297,1585488231718,-3991135429670,0.5776849,0,1
1585488234127,NaN,NaN,0.09448242,-0.8881836,0.3088379,1585488231798,-3991135429670,0.5776849,0,1
1585488234135,NaN,NaN,0.13623047,-0.94799805,0.24121094,1585488231878,-3991135429670,0.5776849,0,1
1585488234142,NaN,NaN,0.2512207,-1.0002441,0.16455078,1585488231958,-3991135429670,0.5776849,0,1
1585488234150,NaN,NaN,0.47827148,-1.0891113,-0.00390625,1585488232038,-3991135429670,0.5776849,0,1
1585488234155,NaN,NaN,0.6921387,-0.9909668,-0.15600586,1585488232118,-3991135429670,0.5776849,0,1
1585488234159,NaN,NaN,0.7019043,-0.8688965,-0.2109375,1585488232198,-3991135429670,0.5776849,0,1
1585488234165,NaN,NaN,0.717041,-0.80322266,-0.1850586,1585488232278,-3991135429670,0.5776849,0,1
1585488234168,NaN,NaN,0.60791016,-0.80981445,-0.22509766,1585488232358,-3991135429670,0.5776849,0,1
1585488234171,NaN,NaN,0.6179199,-0.85498047,-0.16137695,1585488232438,-3991135429670,0.5776849,0,1
1585488234176,NaN,NaN,0.46655273,-0.888916,-0.1640625,1585488232518,-3991135429670,0.5776849,0,1
1585488234180,NaN,NaN,0.46411133,-0.91918945,-0.05517578,1585488232598,-3991135429670,0.5776849,0,1
1585488234184,NaN,NaN,0.3413086,-0.8811035,-0.0126953125,1585488232678,-3991135429670,0.5776849,0,1
1585488234186,NaN,NaN,0.25561523,-0.82006836,0.040039062,1585488232758,-3991135429670,0.5776849,0,1
1585488234189,NaN,NaN,0.1977539,-0.82055664,0.04711914,1585488232838,-3991135429670,0.5776849,0,1
1585488234192,NaN,NaN,0.1965332,-0.86621094,0.08935547,1585488232918,-3991135429670,0.5776849,0,1
1585488234194,NaN,NaN,0.14550781,-0.95336914,0.14428711,1585488232998,-3991135429670,0.5776849,0,1
1585488234198,NaN,NaN,0.11621094,-0.9211426,0.15917969,1585488233078,-3991135429670,0.4195707,0,1
1585488234201,NaN,4.1249156,0.08496094,-0.9602051,0.21166992,1585488233158,-3991135429670,0.29635656,0,1
1585488234203,NaN,3.676985,0.044189453,-0.95043945,0.23413086,1585488233238,-3991135429670,0.29635656,0,1
1585488234207,NaN,3.079902,0.044433594,-0.9440918,0.25268555,1585488233318,-3991135429670,0.29635656,0,1
1585488234211,NaN,2.3631172,0.040527344,-0.9538574,0.2607422,1585488233398,-3991135429670,0.29635656,0,1
1585488234214,NaN,1.5370392,0.03540039,-0.9526367,0.23754883,1585488233478,-3991135429670,0.29635656,0,1
1585488234218,NaN,0.6299775,0.037353516,-0.95092773,0.23486328,1585488233558,-3991135429670,0.29635656,0,1
1585488234221,NaN,-0.3047619,0.036621094,-0.9511719,0.21533203,1585488233638,-3991135429670,0.29635656,0,1
1585488234225,NaN,-1.3023051,0.060302734,-0.9394531,0.20874023,1585488233718,-3991135429670,0.29635656,0,1
1585488234229,NaN,-2.2472072,0.096191406,-0.9226074,0.1875,1585488233798,-3991135429670,0.29635656,0,1
1585488234233,NaN,-3.134318,0.13330078,-0.89453125,0.16552734,1585488233878,-3991135429670,0.29635656,0,1
1585488234239,NaN,-3.8329346,0.17944336,-0.8979492,0.13989258,1585488233958,-3991135429670,0.29635656,0,1
1585488234242,NaN,-4.1670327,0.27148438,-0.9008789,0.11303711,1585488234038,-3991135429670,0.29635656,0,1
1585488234246,NaN,-3.7983735,0.3017578,-0.90283203,0.059326172,1585488234118,-3991135429670,0.29635656,0,1
1585488236500,NaN,-3.2139328,0.4020996,-0.85839844,0.013916016,1585488234198,8259218506730,0.29635656,0,1
1585488236507,NaN,-2.511284,0.4362793,-0.8720703,-0.0034179688,1585488234278,8259218506730,0.29635656,0,1
1585488236512,NaN,-1.6697854,0.52734375,-0.8811035,0.004638672,1585488234358,8259218506730,0.29635656,0,1
1585488236520,NaN,-0.76912546,0.5107422,-0.8989258,-0.04663086,1585488234438,8259218506730,0.29635656,0,1
1585488236524,NaN,0.20766754,0.59765625,-0.8869629,0.005126953,1585488234518,8259218506730,0.29635656,0,1
1585488236528,NaN,1.1466122,0.5800781,-0.90600586,0.04736328,1585488234598,8259218506730,0.2801889,0,1
1585488236533,NaN,2.0295665,0.54711914,-0.90527344,0.09643555,1585488234678,8259218506730,0.15514787,0,1
1585488236537,NaN,2.7693996,0.42407227,-0.89208984,0.07373047,1585488234758,8259218506730,0.15514787,0,1
1585488236542,NaN,3.3034189,0.32104492,-0.89038086,0.19433594,1585488234838,8259218506730,0.15862924,0,1
1585488236547,NaN,3.574402,0.29370117,-1.1223145,0.28466797,1585488234918,8259218506730,0.25040117,0,1
1585488236550,NaN,3.4752681,0.123535156,-1.2224121,0.2668457,1585488234998,8259218506730,0.25040117,0,1
1585488236554,NaN,NaN,-0.083496094,-0.9699707,0.26000977,1585488235078,8259218506730,0.32655066,0,1
1585488236557,NaN,NaN,-0.056152344,-0.81152344,0.20703125,1585488235158,8259218506730,0.32655066,0,1
1585488236560,NaN,NaN,-0.024169922,-0.92163086,0.22363281,1585488235238,8259218506730,0.32655066,0,1
1585488236564,NaN,NaN,-0.06542969,-0.9951172,0.2705078,1585488235318,8259218506730,0.32655066,0,1
1585488236568,NaN,NaN,-0.15356445,-0.9692383,0.30908203,1585488235398,8259218506730,0.32655066,0,1
1585488236572,NaN,NaN,-0.12524414,-0.8991699,0.34106445,1585488235478,8259218506730,0.32655066,0,1
1585488236576,NaN,NaN,-0.07421875,-0.92211914,0.34716797,1585488235558,8259218506730,0.32655066,0,1
1585488236580,NaN,NaN,-0.07299805,-0.9321289,0.37353516,1585488235638,8259218506730,0.32655066,0,1
1585488236582,NaN,NaN,-0.09423828,-0.8996582,0.35131836,1585488235718,8259218506730,0.32655066,0,1
1585488236585,NaN,NaN,-0.09692383,-0.9145508,0.3569336,1585488235798,8259218506730,0.32655066,0,1
1585488236588,NaN,NaN,-0.09716797,-0.923584,0.36938477,1585488235878,8259218506730,0.32655066,0,1
1585488236591,NaN,NaN,-0.09887695,-0.91064453,0.37109375,1585488235958,8259218506730,0.32655066,0,1
1585488236593,NaN,NaN,-0.08544922,-0.90063477,0.3713379,1585488236038,8259218506730,0.32655066,0,1
1585488236596,NaN,NaN,-0.09863281,-0.9099121,0.36450195,1585488236118,8259218506730,0.32655066,0,1
1585488236599,NaN,NaN,-0.10058594,-0.9082031,0.36376953,1585488236198,8259218506730,0.32655066,0,1
1585488236601,NaN,NaN,-0.103759766,-0.9172363,0.37182617,1585488236278,8259218506730,0.32655066,0,1
1585488236605,NaN,NaN,-0.103027344,-0.9206543,0.37963867,1585488236358,8259218506730,0.32655066,0,1
1585488236608,NaN,NaN,-0.096191406,-0.9128418,0.3815918,1585488236438,8259218506730,0.32655066,0,1
1585488236610,NaN,NaN,-0.099853516,-0.9086914,0.37475586,1585488236518,8259218506730,0.32655066,0,1
1585488236613,NaN,NaN,-0.091796875,-0.9108887,0.3935547,1585488236598,8259218506730,0.32655066,0,1
1585488236616,NaN,NaN,-0.09667969,-0.90649414,0.39086914,1585488236678,8259218506730,0.32655066,0,1
1585488239086,NaN,NaN,-0.09765625,-0.904541,0.3955078,1585488236758,2062828369422,0.32655066,0,1
1585488239092,NaN,NaN,-0.09692383,-0.8984375,0.39697266,1585488236838,2062828369422,0.32655066,0,1
1585488239098,NaN,NaN,-0.092285156,-0.89331055,0.39794922,1585488236918,2062828369422,0.32655066,0,1
1585488239103,NaN,NaN,-0.07788086,-0.9013672,0.40942383,1585488236998,2062828369422,0.32655066,0,1
1585488239107,NaN,NaN,-0.075683594,-0.8979492,0.4033203,1585488237078,2062828369422,0.32655066,0,1
1585488239110,NaN,NaN,-0.088134766,-0.9187012,0.38183594,1585488237158,2062828369422,0.32655066,0,1
1585488239114,NaN,NaN,-0.05908203,-0.92993164,0.37695312,1585488237238,2062828369422,0.32655066,0,1
1585488239117,NaN,NaN,-0.068847656,-0.88964844,0.35668945,1585488237318,2062828369422,0.32655066,0,1
1585488239121,NaN,NaN,-0.057373047,-0.9592285,0.31323242,1585488237398,2062828369422,0.32655066,0,1
1585488239125,NaN,NaN,-0.004638672,-0.92285156,0.31225586,1585488237478,2062828369422,0.32655066,0,1
1585488239128,NaN,NaN,0.046142578,-0.9394531,0.30932617,1585488237558,2062828369422,0.32655066,0,1
1585488239132,NaN,2.9622746,0.050048828,-0.94140625,0.3232422,1585488237638,2062828369422,0.16929246,0,1
1585488239135,NaN,2.2233665,0.056640625,-0.8991699,0.32885742,1585488237718,2062828369422,0.11585392,0,1
1585488239139,NaN,1.3990778,0.06567383,-0.9082031,0.35864258,1585488237798,2062828369422,0.09962643,0,1
1585488239142,NaN,0.40239778,0.056396484,-0.9020996,0.4345703,1585488237878,2062828369422,0.09962643,0,1
1585488239145,NaN,-0.48986837,0.23510742,-1.1235352,0.39746094,1585488237958,2062828369422,0.28696412,0,1
1585488239148,NaN,-1.2686977,0.41479492,-1.0119629,0.29370117,1585488238038,2062828369422,0.28696412,0,1
1585488239151,NaN,-1.8939209,0.42578125,-0.91748047,0.16381836,1585488238118,2062828369422,0.28696412,0,1
1585488239154,NaN,-2.3483741,0.4404297,-1.0007324,0.052490234,1585488238198,2062828369422,0.28696412,0,1
1585488239157,NaN,-2.561591,0.5263672,-1.0031738,0.06274414,1585488238278,2062828369422,0.28696412,0,1
1585488239160,NaN,-2.52349,0.42700195,-0.9621582,-0.01171875,1585488238358,2062828369422,0.28696412,0,1
1585488239163,NaN,-2.323459,0.359375,-0.9941406,0.05834961,1585488238438,2062828369422,0.28696412,0,1
1585488239166,NaN,-1.8578782,0.30322266,-0.93530273,0.09472656,1585488238518,2062828369422,0.28696412,0,1
1585488239169,NaN,-1.3726155,0.19824219,-0.8654785,0.111083984,1585488238598,2062828369422,0.28696412,0,1
1585488239172,NaN,-0.7920451,0.21655273,-0.7915039,0.12841797,1585488238678,2062828369422,0.28696412,0,1
1585488239175,NaN,-0.22644977,0.1484375,-0.87524414,0.14648438,1585488238758,2062828369422,0.28696412,0,1
1585488239178,NaN,0.43715847,0.10473633,-0.8964844,0.16821289,1585488238838,2062828369422,0.28696412,0,1
1585488239181,NaN,0.8590974,0.08300781,-0.90405273,0.2109375,1585488238918,2062828369422,0.28696412,0,1
1585488239183,NaN,0.8818734,0.03515625,-0.93652344,0.25830078,1585488238998,2062828369422,0.28696412,0,1
1585488239186,NaN,0.6993665,0.008300781,-0.9343262,0.24780273,1585488239078,2062828369422,0.28696412,0,1
1585488239189,NaN,0.30699196,-0.034179688,-0.93774414,0.29638672,1585488239158,2062828369422,0.28696412,0,1
1585488239192,NaN,-0.2816326,-0.033447266,-0.9382324,0.30078125,1585488239238,2062828369422,0.28696412,0,1
1585488241666,NaN,-0.92786837,-0.0390625,-0.9362793,0.2998047,1585488239318,-4133843242863,0.28696412,0,1
1585488241685,NaN,-1.4835314,-0.020019531,-0.92456055,0.31445312,1585488239398,-4133843242863,0.28696412,0,1
1585488241688,NaN,-2.064286,-0.041503906,-0.93774414,0.30981445,1585488239478,-4133843242863,0.28696412,0,1
1585488241692,NaN,-2.5344827,-0.041748047,-0.9436035,0.32177734,1585488239558,-4133843242863,0.28696412,0,1
1585488241698,NaN,-2.9968278,-0.034179688,-0.9470215,0.31396484,1585488239638,-4133843242863,0.28696412,0,1
1585488241703,NaN,-3.358535,-0.043701172,-0.9423828,0.31762695,1585488239718,-4133843242863,0.28696412,0,1
1585488241707,NaN,-3.6833467,-0.049072266,-0.9406738,0.32006836,1585488239798,-4133843242863,0.28696412,0,1
1585488241711,NaN,-3.8418787,-0.053222656,-0.92944336,0.3173828,1585488239878,-4133843242863,0.28696412,0,1
1585488241714,NaN,-3.6957474,-0.049560547,-0.92993164,0.31591797,1585488239958,-4133843242863,0.28696412,0,1
1585488241719,NaN,-3.4163933,-0.03564453,-0.9284668,0.30615234,1585488240038,-4133843242863,0.28696412,0,1
1585488241722,NaN,-2.9571087,-0.02368164,-0.92041016,0.28955078,1585488240118,-4133843242863,0.28696412,0,1
1585488241725,NaN,-2.3937206,0.01977539,-0.8876953,0.2734375,1585488240198,-4133843242863,0.28696412,0,1
1585488241728,NaN,-1.7998303,0.0715332,-0.8959961,0.24145508,1585488240278,-4133843242863,0.28696412,0,1
1585488241731,NaN,-1.2497607,0.1159668,-0.89501953,0.20166016,1585488240358,-4133843242863,0.28696412,0,1
1585488241735,NaN,-0.6503183,0.20947266,-0.8901367,0.16821289,1585488240438,-4133843242863,0.28696412,0,1
1585488241740,NaN,-0.054561853,0.28271484,-0.9248047,0.12011719,1585488240518,-4133843242863,0.23558874,0,1
1585488241744,NaN,0.58317584,0.33740234,-0.8989258,0.06274414,1585488240598,-4133843242863,0.1609881,0,1
1585488241749,NaN,1.2625904,0.43701172,-0.9243164,0.067871094,1585488240678,-4133843242863,0.13978346,0,1
1585488241753,NaN,1.932938,0.44604492,-0.93725586,0.03857422,1585488240758,-4133843242863,0.1307687,0,1
1585488241756,NaN,2.6153738,0.49560547,-0.907959,0.028320312,1585488240838,-4133843242863,0.1307687,0,1
1585488241761,NaN,3.2672899,0.53271484,-0.85839844,0.033935547,1585488240918,-4133843242863,0.12713727,0,1
1585488241764,NaN,3.9054058,0.51538086,-0.83081055,-0.05078125,1585488240998,-4133843242863,0.12713727,0,1
1585488241766,NaN,4.4395275,0.56689453,-0.90625,0.028564453,1585488241078,-4133843242863,0.12713727,0,1
1585488241769,NaN,4.847839,0.5095215,-0.91625977,0.013183594,1585488241158,-4133843242863,0.12099797,0,1
1585488241773,NaN,5.0726523,0.44335938,-0.9272461,0.056884766,1585488241238,-4133843242863,0.12099797,0,1
1585488241775,NaN,5.0846143,0.3088379,-0.9296875,0.11621094,1585488241318,-4133843242863,0.1470428,0,1
1585488241778,NaN,4.8142805,0.27539062,-1.1091309,0.20092773,1585488241398,-4133843242863,0.20123512,0,1
1585488241782,NaN,4.2592025,0.09643555,-1.1835938,0.22802734,1585488241478,-4133843242863,0.20123512,0,1
1585488241785,NaN,3.4997299,-0.08520508,-0.94970703,0.27539062,1585488241558,-4133843242863,0.2998993,0,1
1585488241789,NaN,2.6214156,-0.07836914,-0.828125,0.26245117,1585488241638,-4133843242863,0.2998993,0,1
1585488241792,NaN,1.6683375,-0.06762695,-0.9436035,0.26733398,1585488241718,-4133843242863,0.2998993,0,1
1585488241796,NaN,0.5526032,-0.12011719,-0.953125,0.3330078,1585488241798,-4133843242863,0.2998993,0,1
1585488244254,NaN,-0.70519835,-0.21459961,-0.8984375,0.38183594,1585488241878,8116510693538,0.2998993,0,1
1585488244260,NaN,-2.0318248,-0.2319336,-0.86083984,0.40844727,1585488241958,8116510693538,0.2998993,0,1
1585488244264,NaN,-3.294694,-0.1887207,-0.86938477,0.4182129,1585488242038,8116510693538,0.2998993,0,1
1585488244267,NaN,-4.4386735,-0.19140625,-0.8781738,0.44091797,1585488242118,8116510693538,0.2998993,0,1
1585488244277,NaN,-5.396644,-0.20581055,-0.85717773,0.4399414,1585488242198,8116510693538,0.2998993,0,1
1585488244281,NaN,-6.0586553,-0.203125,-0.8486328,0.44067383,1585488242278,8116510693538,0.2998993,0,1
1585488244285,NaN,-6.5169606,-0.20581055,-0.86865234,0.44360352,1585488242358,8116510693538,0.2998993,0,1
1585488244289,NaN,-6.6747556,-0.20825195,-0.85595703,0.44995117,1585488242438,8116510693538,0.2998993,0,1
1585488244295,NaN,-6.474945,-0.203125,-0.84936523,0.44628906,1585488242518,8116510693538,0.2998993,0,1
1585488244298,NaN,-6.2172074,-0.2043457,-0.8588867,0.4572754,1585488242598,8116510693538,0.2998993,0,1
1585488244302,NaN,-5.9464498,-0.19897461,-0.85839844,0.45239258,1585488242678,8116510693538,0.2998993,0,1
1585488244305,NaN,-5.5016026,-0.2043457,-0.86035156,0.4477539,1585488242758,8116510693538,0.2998993,0,1
1585488244309,NaN,-4.833248,-0.19677734,-0.87109375,0.46313477,1585488242838,8116510693538,0.2998993,0,1
1585488244313,NaN,-4.0809064,-0.1953125,-0.84350586,0.44580078,1585488242918,8116510693538,0.2998993,0,1
1585488244316,NaN,-3.396307,-0.19921875,-0.8457031,0.48291016,1585488242998,8116510693538,0.2998993,0,1
1585488244320,NaN,-2.723395,-0.19555664,-0.8520508,0.46972656,1585488243078,8116510693538,0.2998993,0,1
1585488244323,NaN,-2.044731,-0.14575195,-0.8708496,0.4477539,1585488243158,8116510693538,0.2998993,0,1
1585488244327,NaN,-1.4907418,-0.15698242,-0.8720703,0.42211914,1585488243238,8116510693538,0.2998993,0,1
1585488244330,NaN,-0.9462506,-0.1381836,-0.87475586,0.42700195,1585488243318,8116510693538,0.2998993,0,1
1585488244333,NaN,-0.464425,-0.10229492,-0.8894043,0.41918945,1585488243398,8116510693538,0.2998993,0,1
1585488244335,NaN,-0.19476278,-0.08203125,-0.87646484,0.44091797,1585488243478,8116510693538,0.2998993,0,1
1585488244338,NaN,0.09049798,-0.052978516,-0.9128418,0.41430664,1585488243558,8116510693538,0.2998993,0,1
1585488244341,NaN,0.4116987,-0.033935547,-0.89160156,0.4152832,1585488243638,8116510693538,0.2998993,0,1
1585488244344,NaN,0.71871805,0.014160156,-0.8913574,0.40478516,1585488243718,8116510693538,0.2998993,0,1
1585488244347,NaN,0.93559295,0.032958984,-0.8676758,0.38061523,1585488243798,8116510693538,0.2998993,0,1
1585488244350,NaN,1.1566285,0.06665039,-0.8835449,0.3671875,1585488243878,8116510693538,0.2998993,0,1
1585488244353,NaN,1.4895121,0.11010742,-1.0004883,0.3857422,1585488243958,8116510693538,0.2998993,0,1
1585488244355,NaN,NaN,0.38500977,-1.1848145,0.34399414,1585488244038,8116510693538,0.33360207,0,1
1585488244358,NaN,NaN,0.513916,-1.0251465,0.20263672,1585488244118,8116510693538,0.33360207,0,1
1585488244362,NaN,NaN,0.49389648,-0.9584961,0.08227539,1585488244198,8116510693538,0.33360207,0,1
1585488244364,NaN,NaN,0.5119629,-0.91967773,0.052001953,1585488244278,8116510693538,0.33360207,0,1
1585488244367,NaN,NaN,0.49609375,-0.9238281,0.016113281,1585488244358,8116510693538,0.33360207,0,1
1585488246836,NaN,NaN,0.4169922,-0.939209,0.036621094,1585488244438,1920120556229,0.33360207,0,1
1585488246842,NaN,NaN,0.42797852,-0.8779297,0.119384766,1585488244518,1920120556229,0.33360207,0,1
1585488246849,NaN,NaN,0.29077148,-0.89868164,0.118652344,1585488244598,1920120556229,0.33360207,0,1
1585488246856,NaN,NaN,0.21264648,-0.796875,0.1262207,1585488244678,1920120556229,0.33360207,0,1
1585488246860,NaN,NaN,0.21948242,-0.8083496,0.16210938,1585488244758,1920120556229,0.33360207,0,1
1585488246867,NaN,NaN,0.16601562,-0.90478516,0.21313477,1585488244838,1920120556229,0.33360207,0,1
1585488246874,NaN,NaN,0.095703125,-0.9187012,0.24707031,1585488244918,1920120556229,0.33360207,0,1
1585488246878,NaN,NaN,0.08959961,-0.8859863,0.25170898,1585488244998,1920120556229,0.33360207,0,1
1585488246882,NaN,NaN,0.09790039,-0.94311523,0.27124023,1585488245078,1920120556229,0.33360207,0,1
1585488246885,NaN,NaN,0.032470703,-0.9577637,0.25097656,1585488245158,1920120556229,0.33360207,0,1
1585488246890,NaN,NaN,0.026123047,-0.95288086,0.26879883,1585488245238,1920120556229,0.33360207,0,1
1585488246895,NaN,NaN,0.026123047,-0.94311523,0.26879883,1585488245318,1920120556229,0.33360207,0,1
1585488246901,NaN,NaN,0.02319336,-0.94677734,0.27026367,1585488245398,1920120556229,0.33360207,0,1
1585488246905,NaN,NaN,0.009033203,-0.9448242,0.28857422,1585488245478,1920120556229,0.33360207,0,1
1585488246909,NaN,NaN,0.018798828,-0.94091797,0.28979492,1585488245558,1920120556229,0.33360207,0,1
1585488246913,NaN,NaN,0.0068359375,-0.939209,0.28222656,1585488245638,1920120556229,0.33360207,0,1
1585488246917,NaN,NaN,0.02368164,-0.94091797,0.2788086,1585488245718,1920120556229,0.33360207,0,1
1585488246920,NaN,NaN,0.020019531,-0.94750977,0.28344727,1585488245798,1920120556229,0.33360207,0,1
1585488246924,NaN,NaN,0.038085938,-0.9284668,0.26342773,1585488245878,1920120556229,0.33360207,0,1
1585488246928,NaN,NaN,0.045654297,-0.91625977,0.25561523,1585488245958,1920120556229,0.33360207,0,1
1585488246932,NaN,NaN,0.08154297,-0.9255371,0.23730469,1585488246038,1920120556229,0.33360207,0,1
1585488246936,NaN,NaN,0.12890625,-0.9108887,0.21899414,1585488246118,1920120556229,0.33360207,0,1
1585488246940,NaN,NaN,0.18920898,-0.92041016,0.18847656,1585488246198,1920120556229,0.33360207,0,1
1585488246942,NaN,NaN,0.25952148,-0.9458008,0.16845703,1585488246278,1920120556229,0.33360207,0,1
1585488246945,NaN,NaN,0.26000977,-0.9121094,0.11816406,1585488246358,1920120556229,0.33360207,0,1
1585488246949,NaN,NaN,0.34936523,-0.87109375,0.10913086,1585488246438,1920120556229,0.33360207,0,1
1585488246952,NaN,NaN,0.41967773,-0.88378906,0.088378906,1585488246518,1920120556229,0.33360207,0,1
1585488246955,NaN,2.1436317,0.4482422,-0.9025879,0.07006836,1585488246598,1920120556229,0.24918388,0,1
1585488246958,NaN,2.7180748,0.49414062,-0.8737793,0.09375,1585488246678,1920120556229,0.13903204,0,1
1585488246962,NaN,3.2853777,0.49267578,-0.85375977,0.1171875,1585488246758,1920120556229,0.13876942,0,1
1585488246964,NaN,3.8444245,0.53759766,-0.8210449,0.17797852,1585488246838,1920120556229,0.13876942,0,1
1585488246967,NaN,4.3646927,0.5859375,-0.873291,0.1887207,1585488246918,1920120556229,0.13876942,0,1
1585488249220,NaN,4.817452,0.5266113,-0.89624023,0.20947266,1585488246998,-4276551056055,0.13876942,0,1
1585488249225,NaN,5.1492586,0.49804688,-0.92626953,0.24414062,1585488247078,-4276551056055,0.13876942,0,1
1585488249231,NaN,5.3311286,0.35424805,-0.8996582,0.30249023,1585488247158,-4276551056055,0.15745139,0,1
1585488249241,NaN,5.323525,0.25317383,-0.9411621,0.3708496,1585488247238,-4276551056055,0.15745139,0,1
1585488249245,NaN,5.170586,0.17382812,-1.041748,0.44189453,1585488247318,-4276551056055,0.15745139,0,1
1585488249249,NaN,4.8906007,0.044677734,-1.0056152,0.40771484,1585488247398,-4276551056055,0.15745139,0,1
1585488249253,NaN,4.5186377,-0.032226562,-0.8574219,0.39111328,1585488247478,-4276551056055,0.16778305,0,1
1585488249257,NaN,3.4128332,-0.061523438,-0.85424805,0.37060547,1585488247558,-4276551056055,0.16778305,0,1
1585488249262,NaN,2.2815464,-0.045898438,-0.8937988,0.40161133,1585488247638,-4276551056055,0.16778305,0,1
1585488249266,NaN,1.0999852,-0.111328125,-0.90844727,0.43530273,1585488247718,-4276551056055,0.16778305,0,1
1585488249270,NaN,-0.09824995,-0.12939453,-0.88061523,0.4255371,1585488247798,-4276551056055,0.16778305,0,1
1585488249274,NaN,-1.3440452,-0.14135742,-0.87646484,0.43652344,1585488247878,-4276551056055,0.16778305,0,1
1585488249278,NaN,-2.4684114,-0.13989258,-0.8737793,0.42749023,1585488247958,-4276551056055,0.16778305,0,1
1585488249283,NaN,-3.4885242,-0.14819336,-0.8811035,0.42773438,1585488248038,-4276551056055,0.16778305,0,1
1585488249286,NaN,-4.2293243,-0.14941406,-0.8745117,0.42773438,1585488248118,-4276551056055,0.16778305,0,1
1585488249290,NaN,-4.721128,-0.14013672,-0.88623047,0.42919922,1585488248198,-4276551056055,0.16778305,0,1
1585488249294,NaN,-5.0206656,-0.12939453,-0.87939453,0.4387207,1585488248278,-4276551056055,0.16778305,0,1
1585488249297,NaN,-5.133686,-0.122558594,-0.8820801,0.43969727,1585488248358,-4276551056055,0.16778305,0,1
1585488249300,NaN,-5.1358128,-0.12817383,-0.8874512,0.43579102,1585488248438,-4276551056055,0.16778305,0,1
1585488249303,NaN,-4.727553,-0.1303711,-0.88793945,0.44189453,1585488248518,-4276551056055,0.16778305,0,1
1585488249306,NaN,-4.289925,-0.119384766,-0.87158203,0.4519043,1585488248598,-4276551056055,0.16778305,0,1
1585488249310,NaN,-3.7455857,-0.12475586,-0.87646484,0.45263672,1585488248678,-4276551056055,0.16778305,0,1
1585488249312,NaN,-3.1667204,-0.12548828,-0.87890625,0.45092773,1585488248758,-4276551056055,0.16778305,0,1
1585488249315,NaN,-2.5419772,-0.14453125,-0.87890625,0.44848633,1585488248838,-4276551056055,0.16778305,0,1
1585488249319,NaN,-1.9867944,-0.15966797,-0.8625488,0.4387207,1585488248918,-4276551056055,0.16778305,0,1
1585488249323,NaN,-1.4506192,-0.15136719,-0.8522949,0.4404297,1585488248998,-4276551056055,0.16778305,0,1
1585488249326,NaN,-1.030677,-0.14135742,-0.8642578,0.43554688,1585488249078,-4276551056055,0.16778305,0,1
1585488249329,NaN,-0.7172373,-0.15039062,-0.8852539,0.4248047,1585488249158,-4276551056055,0.16778305,0,1
1585488249332,NaN,-0.45176032,-0.12451172,-0.8808594,0.43066406,1585488249238,-4276551056055,0.16778305,0,1
1585488249335,NaN,-0.30950376,-0.13989258,-0.8635254,0.45361328,1585488249318,-4276551056055,0.16778305,0,1
1585488249339,NaN,-0.21792078,-0.10131836,-0.88134766,0.44848633,1585488249398,-4276551056055,0.16778305,0,1
1585488249343,NaN,-0.12325671,-0.08081055,-0.876709,0.45117188,1585488249478,-4276551056055,0.16778305,0,1
1585488252001,NaN,0.00485455,-0.052246094,-0.8781738,0.44604492,1585488249558,7973802880345,0.16778305,0,1
1585488252006,NaN,0.10662409,-0.02758789,-0.8820801,0.43579102,1585488249638,7973802880345,0.16778305,0,1
1585488252012,NaN,0.21082985,-0.020996094,-0.8991699,0.40014648,1585488249718,7973802880345,0.16778305,0,1
1585488252017,NaN,0.35873398,0.018798828,-0.88500977,0.3864746,1585488249798,7973802880345,0.16778305,0,1
1585488252023,NaN,0.55376214,0.03930664,-0.8803711,0.37231445,1585488249878,7973802880345,0.16778305,0,1
1585488252027,NaN,0.76420707,0.047607422,-0.94506836,0.36010742,1585488249958,7973802880345,0.16778305,0,1
1585488252031,NaN,1.095145,0.19189453,-1.1149902,0.33618164,1585488250038,7973802880345,0.2241978,0,1
1585488252035,NaN,1.5987349,0.40844727,-1.0710449,0.26342773,1585488250118,7973802880345,0.23263578,0,1
1585488252038,NaN,2.1349466,0.47851562,-0.9729004,0.18334961,1585488250198,7973802880345,0.23263578,0,1
1585488252042,NaN,2.7297058,0.49853516,-0.9433594,0.18701172,1585488250278,7973802880345,0.23263578,0,1
1585488252046,NaN,3.2386653,0.45922852,-0.9338379,0.1550293,1585488250358,7973802880345,0.23263578,0,1
1585488252049,NaN,3.7149172,0.4663086,-0.9082031,0.16674805,1585488250438,7973802880345,0.23263578,0,1
1585488252052,NaN,4.1221824,0.44433594,-0.8959961,0.17919922,1585488250518,7973802880345,0.23263578,0,1
1585488252056,NaN,4.449734,0.3786621,-0.8623047,0.14819336,1585488250598,7973802880345,0.23263578,0,1
1585488252059,NaN,4.730972,0.36621094,-0.861084,0.14355469,1585488250678,7973802880345,0.23263578,0,1
1585488252063,NaN,4.876416,0.26416016,-0.84155273,0.12036133,1585488250758,7973802880345,0.23263578,0,1
1585488252065,NaN,4.9629874,0.25878906,-0.87402344,0.11694336,1585488250838,7973802880345,0.23263578,0,1
1585488252068,NaN,4.979976,0.21313477,-0.89941406,0.14501953,1585488250918,7973802880345,0.23263578,0,1
1585488252071,NaN,4.7594075,0.18676758,-0.9272461,0.15820312,1585488250998,7973802880345,0.23263578,0,1
1585488252075,NaN,4.151882,0.16308594,-0.9145508,0.20410156,1585488251078,7973802880345,0.23263578,0,1
1585488252080,NaN,3.3468943,0.1237793,-0.93896484,0.2277832,1585488251158,7973802880345,0.23263578,0,1
1585488252083,NaN,2.4697978,0.114990234,-0.9445801,0.25170898,1585488251238,7973802880345,0.23263578,0,1
1585488252086,NaN,1.6272069,0.091552734,-0.9382324,0.26611328,1585488251318,7973802880345,0.23263578,0,1
1585488252088,NaN,0.7995095,0.09863281,-0.93774414,0.26611328,1585488251398,7973802880345,0.23263578,0,1
1585488252091,NaN,0.031468313,0.095703125,-0.9445801,0.2722168,1585488251478,7973802880345,0.23263578,0,1
1585488252094,NaN,-0.6553047,0.08911133,-0.9343262,0.27929688,1585488251558,7973802880345,0.23263578,0,1
1585488252097,NaN,-1.2924601,0.104003906,-0.9406738,0.27172852,1585488251638,7973802880345,0.23263578,0,1
1585488252100,NaN,-1.7693418,0.104003906,-0.9494629,0.27783203,1585488251718,7973802880345,0.23263578,0,1
1585488252102,NaN,-2.207133,0.111572266,-0.9526367,0.27905273,1585488251798,7973802880345,0.23263578,0,1
1585488252105,NaN,-2.5556324,0.103759766,-0.951416,0.2788086,1585488251878,7973802880345,0.23263578,0,1
1585488252108,NaN,-2.7713273,0.10961914,-0.9440918,0.27783203,1585488251958,7973802880345,0.23263578,0,1
1585488252110,NaN,-2.7265842,0.107910156,-0.9519043,0.26831055,1585488252038,7973802880345,0.23263578,0,1
1585488254390,NaN,-2.4794872,0.1184082,-0.95410156,0.25756836,1585488252118,1777412743037,0.23263578,0,1
1585488254401,NaN,-2.1653314,0.12402344,-0.9458008,0.24438477,1585488252198,1777412743037,0.23263578,0,1
1585488254406,NaN,-1.7960788,0.13793945,-0.9301758,0.2277832,1585488252278,1777412743037,0.23263578,0,1
1585488254412,NaN,-1.4201308,0.1496582,-0.89404297,0.22216797,1585488252358,1777412743037,0.23263578,0,1
1585488254420,NaN,-1.0180126,0.17797852,-0.88793945,0.18847656,1585488252438,1777412743037,0.23263578,0,1
1585488254424,NaN,-0.5760072,0.2548828,-0.90112305,0.18920898,1585488252518,1777412743037,0.23263578,0,1
1585488254430,NaN,-0.1042091,0.31103516,-0.9111328,0.12768555,1585488252598,1777412743037,0.23263578,0,1
1585488254434,NaN,0.32427424,0.32470703,-0.9279785,0.099853516,1585488252678,1777412743037,0.14475645,0,1
1585488254437,NaN,0.7985175,0.3852539,-0.875,0.0690918,1585488252758,1777412743037,0.10646015,0,1
1585488254441,NaN,1.3216988,0.47387695,-0.88842773,0.029541016,1585488252838,1777412743037,0.10646015,0,1
1585488254446,NaN,1.775714,0.41674805,-0.83081055,0.028320312,1585488252918,1777412743037,0.10646015,0,1
1585488254450,NaN,2.199309,0.42041016,-0.8178711,0.024902344,1585488252998,1777412743037,0.10646015,0,1
1585488254454,NaN,2.5823257,0.47875977,-0.8701172,0.059326172,1585488253078,1777412743037,0.10646015,0,1
1585488254458,NaN,2.9219,0.5239258,-0.9470215,0.1081543,1585488253158,1777412743037,0.10646015,0,1
1585488254461,NaN,3.170414,0.5119629,-0.9782715,0.125,1585488253238,1777412743037,0.10646015,0,1
1585488254464,NaN,3.2601907,0.38305664,-1.0,0.2006836,1585488253318,1777412743037,0.15105283,0,1
1585488254467,NaN,3.1288164,0.21484375,-1.020752,0.25854492,1585488253398,1777412743037,0.17909259,0,1
1585488254470,NaN,2.8004248,0.18261719,-1.1416016,0.3400879,1585488253478,1777412743037,0.17909259,0,1
1585488254473,NaN,2.2606018,-0.0068359375,-1.0373535,0.3330078,1585488253558,1777412743037,0.21635681,0,1
1585488254476,NaN,1.6681467,-0.080078125,-0.8479004,0.31591797,1585488253638,1777412743037,0.21635681,0,1
1585488254479,NaN,0.93228847,-0.111083984,-0.87402344,0.28442383,1585488253718,1777412743037,0.21635681,0,1
1585488254482,NaN,-0.04204003,-0.14257812,-0.93896484,0.36010742,1585488253798,1777412743037,0.21635681,0,1
1585488254486,NaN,-0.9840986,-0.18432617,-0.920166,0.3918457,1585488253878,1777412743037,0.21635681,0,1
1585488254491,NaN,-1.9785067,-0.23413086,-0.8503418,0.41357422,1585488253958,1777412743037,0.21635681,0,1
1585488254494,NaN,-2.9975526,-0.20385742,-0.86035156,0.43945312,1585488254038,1777412743037,0.21635681,0,1
1585488254498,NaN,-4.0330276,-0.21264648,-0.8510742,0.4633789,1585488254118,1777412743037,0.21635681,0,1
1585488254502,NaN,-5.018994,-0.2211914,-0.82714844,0.47192383,1585488254198,1777412743037,0.21635681,0,1
1585488254504,NaN,-5.7284055,-0.21582031,-0.826416,0.46435547,1585488254278,1777412743037,0.21635681,0,1
1585488254508,NaN,-6.122458,-0.21948242,-0.8317871,0.46948242,1585488254358,1777412743037,0.21635681,0,1
1585488254512,NaN,-6.3673263,-0.21459961,-0.8405762,0.46533203,1585488254438,1777412743037,0.21635681,0,1
1585488254515,NaN,-6.3103333,-0.23144531,-0.84155273,0.48291016,1585488254518,1777412743037,0.21635681,0,1
1585488254520,NaN,-6.1139107,-0.21435547,-0.8334961,0.50146484,1585488254598,1777412743037,0.21635681,0,1
1585488256970,NaN,-5.8210206,-0.2109375,-0.82958984,0.49536133,1585488254678,-4419258869247,0.21635681,0,1
1585488256977,NaN,-5.354338,-0.203125,-0.82055664,0.4946289,1585488254758,-4419258869247,0.21635681,0,1
1585488256981,NaN,-4.8320565,-0.19970703,-0.82299805,0.4897461,1585488254838,-4419258869247,0.21635681,0,1
1585488256986,NaN,-4.2058587,-0.21557617,-0.84814453,0.49804688,1585488254918,-4419258869247,0.21635681,0,1
1585488256993,NaN,-3.5766408,-0.19555664,-0.83618164,0.5126953,1585488254998,-4419258869247,0.21635681,0,1
1585488256998,NaN,-2.8745553,-0.16967773,-0.8300781,0.49365234,1585488255078,-4419258869247,0.21635681,0,1
1585488257004,NaN,-2.1292055,-0.14160156,-0.8532715,0.5058594,1585488255158,-4419258869247,0.21635681,0,1
1585488257010,NaN,-1.5229907,-0.15771484,-0.8417969,0.4873047,1585488255238,-4419258869247,0.21635681,0,1
1585488257015,NaN,-1.0357006,-0.14526367,-0.8569336,0.49267578,1585488255318,-4419258869247,0.21635681,0,1
1585488257020,NaN,-0.5713427,-0.1340332,-0.84399414,0.49389648,1585488255398,-4419258869247,0.21635681,0,1
1585488257023,NaN,-0.20733626,-0.10424805,-0.86694336,0.50097656,1585488255478,-4419258869247,0.21635681,0,1
1585488257028,NaN,0.041474592,-0.08935547,-0.84350586,0.5085449,1585488255558,-4419258869247,0.21635681,0,1
1585488257030,NaN,0.28132477,-0.078125,-0.84228516,0.5202637,1585488255638,-4419258869247,0.21635681,0,1
1585488257033,NaN,0.5017235,-0.060302734,-0.83740234,0.5253906,1585488255718,-4419258869247,0.21635681,0,1
1585488257038,NaN,0.6400558,-0.10449219,-0.829834,0.5031738,1585488255798,-4419258869247,0.21635681,0,1
1585488257041,NaN,0.76727223,-0.055664062,-0.8671875,0.51660156,1585488255878,-4419258869247,0.21635681,0,1
1585488257045,NaN,0.90599966,-0.036865234,-0.8366699,0.51171875,1585488255958,-4419258869247,0.21635681,0,1
1585488257049,NaN,1.0214754,0.018554688,-0.8100586,0.49926758,1585488256038,-4419258869247,0.21635681,0,1
1585488257052,NaN,1.1068045,0.044433594,-0.84399414,0.48120117,1585488256118,-4419258869247,0.20383564,0,1
1585488257056,NaN,1.242408,0.03515625,-0.8833008,0.41210938,1585488256198,-4419258869247,0.10458142,0,1
1585488257060,NaN,1.4296144,0.11035156,-0.9987793,0.4260254,1585488256278,-4419258869247,0.13850372,0,1
1585488257063,NaN,1.8291065,0.36621094,-1.0808105,0.38500977,1585488256358,-4419258869247,0.27180034,0,1
1585488257066,NaN,2.268946,0.48339844,-1.0131836,0.2626953,1585488256438,-4419258869247,0.27180034,0,1
1585488257069,NaN,2.7334185,0.49951172,-0.94018555,0.1899414,1585488256518,-4419258869247,0.27180034,0,1
1585488257073,NaN,3.2077808,0.4794922,-0.98535156,0.118896484,1585488256598,-4419258869247,0.27180034,0,1
1585488257076,NaN,3.6636257,0.48217773,-0.923584,0.11425781,1585488256678,-4419258869247,0.27180034,0,1
1585488257079,NaN,4.135194,0.40771484,-0.92529297,0.07543945,1585488256758,-4419258869247,0.27180034,0,1
1585488257082,NaN,4.480892,0.36376953,-0.857666,0.12109375,1585488256838,-4419258869247,0.27180034,0,1
1585488257085,NaN,4.742508,0.28125,-0.87231445,0.1430664,1585488256918,-4419258869247,0.27180034,0,1
1585488257088,NaN,4.924975,0.2541504,-0.8408203,0.14941406,1585488256998,-4419258869247,0.27180034,0,1
1585488257092,NaN,5.0569487,0.24194336,-0.82714844,0.17578125,1585488257078,-4419258869247,0.27180034,0,1
1585488257094,NaN,5.075107,0.20117188,-0.89208984,0.2277832,1585488257158,-4419258869247,0.27180034,0,1
1585488259557,NaN,4.961948,0.17749023,-0.91186523,0.27246094,1585488257238,7831095067153,0.27180034,0,1
1585488259569,NaN,4.4176006,0.1394043,-0.90966797,0.31835938,1585488257318,7831095067153,0.27180034,0,1
1585488259574,NaN,3.6079113,0.107666016,-0.9177246,0.3244629,1585488257398,7831095067153,0.27180034,0,1
1585488259583,NaN,2.69408,0.08276367,-0.89453125,0.33081055,1585488257478,7831095067153,0.27180034,0,1
1585488259590,NaN,1.7241825,0.072753906,-0.8955078,0.35620117,1585488257558,7831095067153,0.27180034,0,1
1585488259596,NaN,0.7243661,0.03930664,-0.8991699,0.35742188,1585488257638,7831095067153,0.27180034,0,1
1585488259600,NaN,-0.24427958,0.01586914,-0.9128418,0.36132812,1585488257718,7831095067153,0.27180034,0,1
1585488259607,NaN,-1.069348,0.025878906,-0.91308594,0.3544922,1585488257798,7831095067153,0.27180034,0,1
1585488259612,NaN,-1.7228707,0.0390625,-0.93310547,0.35327148,1585488257878,7831095067153,0.27180034,0,1
1585488259615,NaN,-2.2637913,0.055908203,-0.93725586,0.3408203,1585488257958,7831095067153,0.27180034,0,1
1585488259620,NaN,-2.7362683,0.05810547,-0.92700195,0.33642578,1585488258038,7831095067153,0.27180034,0,1
1585488259623,NaN,-3.0545568,0.083984375,-0.91625977,0.3203125,1585488258118,7831095067153,0.27180034,0,1
1585488259627,NaN,-3.2761633,0.07885742,-0.907959,0.31762695,1585488258198,7831095067153,0.27180034,0,1
1585488259631,NaN,-3.194698,0.10620117,-0.9001465,0.28710938,1585488258278,7831095067153,0.27180034,0,1
1585488259634,NaN,-2.8518496,0.16308594,-0.9030762,0.25634766,1585488258358,7831095067153,0.27180034,0,1
1585488259638,NaN,-2.3533084,0.19116211,-0.92285156,0.19677734,1585488258438,7831095067153,0.27180034,0,1
1585488259648,NaN,-1.7386354,0.24316406,-0.93725586,0.16699219,1585488258518,7831095067153,0.27180034,0,1
1585488259649,NaN,-1.0185355,0.29638672,-0.8840332,0.15795898,1585488258598,7831095067153,0.27180034,0,1
1585488259650,NaN,-0.26128474,0.31567383,-0.87524414,0.12207031,1585488258678,7831095067153,0.27180034,0,1
1585488259654,NaN,0.48851395,0.39624023,-0.9067383,0.104003906,1585488258758,7831095067153,0.27180034,0,1
1585488259658,NaN,1.1815637,0.41308594,-0.8696289,0.051757812,1585488258838,7831095067153,0.27180034,0,1
1585488259662,NaN,1.8519768,0.4934082,-0.91137695,0.0793457,1585488258918,7831095067153,0.18239282,0,1
1585488259665,NaN,2.539471,0.47314453,-0.9013672,-0.048828125,1585488258998,7831095067153,0.13015123,0,1
1585488259668,NaN,3.144783,0.48095703,-0.8063965,-0.053466797,1585488259078,7831095067153,0.13015123,0,1
1585488259671,NaN,3.740674,0.5410156,-0.92089844,-0.056152344,1585488259158,7831095067153,0.13015123,0,1
1585488259675,NaN,4.1964145,0.5241699,-0.9313965,-0.055664062,1585488259238,7831095067153,0.13015123,0,1
1585488259679,NaN,4.478378,0.5031738,-0.9436035,-0.025878906,1585488259318,7831095067153,0.13015123,0,1
1585488259682,NaN,4.5611105,0.42382812,-0.94140625,0.028076172,1585488259398,7831095067153,0.13015123,0,1
1585488259685,NaN,4.4154205,0.3190918,-0.96362305,0.111083984,1585488259478,7831095067153,0.1354754,0,1
1585488259687,NaN,4.0181828,0.22241211,-1.057373,0.2199707,1585488259558,7831095067153,0.17318298,0,1
1585488259690,NaN,3.4276078,0.10913086,-1.1257324,0.27929688,1585488259638,7831095067153,0.17318298,0,1
1585488259693,NaN,2.6905577,-0.01586914,-0.9458008,0.28759766,1585488259718,7831095067153,0.21924712,0,1
1585488262141,NaN,1.8863468,-0.015380859,-0.8408203,0.30004883,1585488259798,1634704929845,0.21924712,0,1
1585488262145,NaN,0.9531417,-0.0769043,-0.8989258,0.32543945,1585488259878,1634704929845,0.21924712,0,1
1585488262150,NaN,-0.15212925,-0.10546875,-0.96191406,0.39648438,1585488259958,1634704929845,0.21924712,0,1
1585488262156,NaN,-1.3401729,-0.19116211,-0.8798828,0.4411621,1585488260038,1634704929845,0.21924712,0,1
1585488262161,NaN,-2.6347773,-0.21923828,-0.8100586,0.4873047,1585488260118,1634704929845,0.21924712,0,1
1585488262165,NaN,-3.8641217,-0.21191406,-0.8479004,0.49731445,1585488260198,1634704929845,0.21924712,0,1
1585488262170,NaN,-4.9773803,-0.21777344,-0.82592773,0.4975586,1585488260278,1634704929845,0.21924712,0,1
1585488262174,NaN,-5.9036255,-0.23828125,-0.79589844,0.50927734,1585488260358,1634704929845,0.21924712,0,1
1585488262178,NaN,-6.5678687,-0.24072266,-0.8095703,0.52319336,1585488260438,1634704929845,0.21924712,0,1
1585488262181,NaN,-6.9682527,-0.25195312,-0.8120117,0.53637695,1585488260518,1634704929845,0.21924712,0,1
1585488262184,NaN,-7.1543794,-0.24682617,-0.78637695,0.53222656,1585488260598,1634704929845,0.21924712,0,1
1585488262189,NaN,-7.090752,-0.21362305,-0.78466797,0.5432129,1585488260678,1634704929845,0.21924712,0,1
1585488262192,NaN,-6.9341908,-0.20678711,-0.78808594,0.52441406,1585488260758,1634704929845,0.21924712,0,1
1585488262196,NaN,-6.604014,-0.18066406,-0.82128906,0.49975586,1585488260838,1634704929845,0.21924712,0,1
1585488262201,NaN,-6.089218,-0.1381836,-0.84936523,0.49975586,1585488260918,1634704929845,0.21924712,0,1
1585488262204,NaN,-5.394833,-0.1496582,-0.8354492,0.50512695,1585488260998,1634704929845,0.21924712,0,1
1585488262208,NaN,-4.5316367,-0.13256836,-0.8708496,0.51171875,1585488261078,1634704929845,0.21924712,0,1
1585488262213,NaN,-3.6879027,-0.1159668,-0.8479004,0.5124512,1585488261158,1634704929845,0.21924712,0,1
1585488262216,NaN,-2.824475,-0.087890625,-0.84814453,0.48168945,1585488261238,1634704929845,0.21924712,0,1
1585488262220,NaN,-1.9771217,-0.06738281,-0.85961914,0.4892578,1585488261318,1634704929845,0.21924712,0,1
1585488262222,NaN,-1.2317674,-0.06591797,-0.86157227,0.4892578,1585488261398,1634704929845,0.21924712,0,1
1585488262226,NaN,-0.5308401,-0.041748047,-0.861084,0.4790039,1585488261478,1634704929845,0.21924712,0,1
1585488262229,NaN,0.1336021,-0.0126953125,-0.8742676,0.45825195,1585488261558,1634704929845,0.21924712,0,1
1585488262232,NaN,0.6488655,0.022460938,-0.86816406,0.4333496,1585488261638,1634704929845,0.21924712,0,1
1585488262236,NaN,1.1255983,0.049316406,-0.8791504,0.41064453,1585488261718,1634704929845,0.21924712,0,1
1585488262239,NaN,1.4813925,0.014892578,-0.907959,0.40600586,1585488261798,1634704929845,0.21924712,0,1
1585488262243,NaN,1.8674473,0.16894531,-0.9873047,0.40454102,1585488261878,1634704929845,0.21924712,0,1
1585488262246,NaN,2.3406556,0.35009766,-1.0478516,0.33447266,1585488261958,1634704929845,0.21924712,0,1
1585488262250,NaN,2.7852993,0.45825195,-0.9868164,0.29638672,1585488262038,1634704929845,0.21924712,0,1
1585488262256,NaN,3.2605803,0.4362793,-0.9753418,0.19921875,1585488262118,1634704929845,0.21924712,0,1
1585488262260,NaN,3.6517012,0.44311523,-0.9567871,0.2163086,1585488262198,1634704929845,0.21924712,0,1
1585488262264,NaN,3.963416,0.4243164,-0.9147949,0.22436523,1585488262278,1634704929845,0.20344943,0,1
1585488264722,NaN,4.2682652,0.4284668,-0.9345703,0.22924805,1585488262358,-4561966682439,0.20344943,0,1
1585488264727,NaN,4.4626713,0.3503418,-0.86157227,0.23413086,1585488262438,-4561966682439,0.20344943,0,1
1585488264731,NaN,4.587541,0.30493164,-0.8967285,0.18041992,1585488262518,-4561966682439,0.20344943,0,1
1585488264735,NaN,4.6130643,0.24365234,-0.90527344,0.19995117,1585488262598,-4561966682439,0.20344943,0,1
1585488264739,NaN,4.577629,0.25073242,-0.8605957,0.24487305,1585488262678,-4561966682439,0.20344943,0,1
1585488264743,NaN,4.5509934,0.16040039,-0.86206055,0.2590332,1585488262758,-4561966682439,0.20344943,0,1
1585488264748,NaN,4.3265643,0.1315918,-0.8691406,0.26000977,1585488262838,-4561966682439,0.20344943,0,1
1585488264752,NaN,3.756429,0.111083984,-0.8457031,0.28295898,1585488262918,-4561966682439,0.20344943,0,1
1585488264755,NaN,3.0047915,0.10986328,-0.89404297,0.31689453,1585488262998,-4561966682439,0.20344943,0,1
1585488264758,NaN,2.162778,0.0769043,-0.9199219,0.32763672,1585488263078,-4561966682439,0.20344943,0,1
1585488264761,NaN,1.350433,0.06616211,-0.92871094,0.33154297,1585488263158,-4561966682439,0.20344943,0,1
1585488264765,NaN,0.5859944,0.067871094,-0.9243164,0.33325195,1585488263238,-4561966682439,0.20344943,0,1
1585488264769,NaN,-0.18059702,0.064697266,-0.91845703,0.33422852,1585488263318,-4561966682439,0.20344943,0,1
1585488264772,NaN,-0.7989443,0.071777344,-0.9265137,0.32617188,1585488263398,-4561966682439,0.20344943,0,1
1585488264775,NaN,-1.3719405,0.08251953,-0.93237305,0.33081055,1585488263478,-4561966682439,0.20344943,0,1
1585488264778,NaN,-1.8016729,0.087890625,-0.9421387,0.33447266,1585488263558,-4561966682439,0.20344943,0,1
1585488264783,NaN,-2.1613584,0.09277344,-0.93066406,0.3310547,1585488263638,-4561966682439,0.20344943,0,1
1585488264786,NaN,-2.407159,0.08935547,-0.91918945,0.32495117,1585488263718,-4561966682439,0.20344943,0,1
1585488264791,NaN,-2.5122268,0.10205078,-0.91015625,0.31811523,1585488263798,-4561966682439,0.20344943,0,1
1585488264795,NaN,-2.389158,0.12939453,-0.91796875,0.29541016,1585488263878,-4561966682439,0.20344943,0,1
1585488264799,NaN,-2.1064508,0.15625,-0.9355469,0.2915039,1585488263958,-4561966682439,0.20344943,0,1
1585488264803,NaN,-1.6977534,0.18847656,-0.91186523,0.27734375,1585488264038,-4561966682439,0.20344943,0,1
1585488264807,NaN,-1.2447783,0.20776367,-0.91503906,0.25756836,1585488264118,-4561966682439,0.20344943,0,1
1585488264812,NaN,-0.776376,0.23632812,-0.9267578,0.2421875,1585488264198,-4561966682439,0.20344943,0,1
1585488264815,NaN,-0.26794747,0.27001953,-0.9104004,0.22436523,1585488264278,-4561966682439,0.20344943,0,1
1585488264820,NaN,0.21883959,0.33251953,-0.90283203,0.19628906,1585488264358,-4561966682439,0.20344943,0,1
1585488264822,NaN,0.73737293,0.34936523,-0.8745117,0.12524414,1585488264438,-4561966682439,0.20344943,0,1
1585488264825,NaN,1.2623323,0.42138672,-0.8972168,0.09863281,1585488264518,-4561966682439,0.1298968,0,1
1585488264828,NaN,1.7824596,0.43847656,-0.8725586,0.07397461,1585488264598,-4561966682439,0.107033044,0,1
1585488264831,NaN,2.2526886,0.47192383,-0.85791016,0.076660156,1585488264678,-4561966682439,0.107033044,0,1
1585488264834,NaN,2.6937752,0.4802246,-0.8654785,0.056152344,1585488264758,-4561966682439,0.107033044,0,1
1585488264837,NaN,3.038828,0.49194336,-0.8557129,0.084472656,1585488264838,-4561966682439,0.107033044,0,1
1585488267308,NaN,3.3578951,0.5148926,-0.86035156,0.06201172,1585488264918,7688387253961,0.107033044,0,1
1585488267313,NaN,3.603577,0.5385742,-0.9057617,0.048583984,1585488264998,7688387253961,0.09144688,0,1
1585488267320,NaN,3.767706,0.52783203,-0.9350586,0.064941406,1585488265078,7688387253961,0.09144688,0,1
1585488267324,NaN,3.8299656,0.48364258,-0.9328613,0.1003418,1585488265158,7688387253961,0.09144688,0,1
1585488267329,NaN,3.7250235,0.36669922,-0.91308594,0.16137695,1585488265238,7688387253961,0.13338706,0,1
1585488267333,NaN,3.4106026,0.25561523,-0.9506836,0.22363281,1585488265318,7688387253961,0.13338706,0,1
1585488267337,NaN,2.8697364,0.17651367,-1.0744629,0.32763672,1585488265398,7688387253961,0.17998663,0,1
1585488267341,NaN,2.1004956,0.045654297,-1.0788574,0.39990234,1585488265478,7688387253961,0.17998663,0,1
1585488267345,NaN,1.2653292,-0.055908203,-0.8835449,0.37524414,1585488265558,7688387253961,0.22151735,0,1
1585488267349,NaN,0.38559058,-0.0793457,-0.8022461,0.34765625,1585488265638,7688387253961,0.22151735,0,1
1585488267353,NaN,-0.57497936,-0.0847168,-0.9067383,0.4189453,1585488265718,7688387253961,0.22151735,0,1
1585488267357,NaN,-1.5593748,-0.122558594,-0.8955078,0.49609375,1585488265798,7688387253961,0.22151735,0,1
1585488267360,NaN,-2.65176,-0.21069336,-0.7998047,0.5163574,1585488265878,7688387253961,0.22151735,0,1
1585488267363,NaN,-3.7818565,-0.24731445,-0.80078125,0.5192871,1585488265958,7688387253961,0.22151735,0,1
1585488267366,NaN,-4.838136,-0.22216797,-0.82055664,0.53222656,1585488266038,7688387253961,0.22151735,0,1
1585488267370,NaN,-5.76313,-0.23901367,-0.8330078,0.49609375,1585488266118,7688387253961,0.22151735,0,1
1585488267374,NaN,-6.443354,-0.24438477,-0.8088379,0.4958496,1585488266198,7688387253961,0.22151735,0,1
1585488267377,NaN,-6.8542733,-0.23046875,-0.8273926,0.5136719,1585488266278,7688387253961,0.22151735,0,1
1585488267381,NaN,-7.024737,-0.22216797,-0.80859375,0.5144043,1585488266358,7688387253961,0.22151735,0,1
1585488267385,NaN,-6.914177,-0.20654297,-0.7919922,0.50561523,1585488266438,7688387253961,0.22151735,0,1
1585488267388,NaN,-6.62921,-0.19360352,-0.7722168,0.5012207,1585488266518,7688387253961,0.22151735,0,1
1585488267392,NaN,-6.271282,-0.22094727,-0.8461914,0.4868164,1585488266598,7688387253961,0.22151735,0,1
1585488267396,NaN,-5.8376803,-0.20898438,-0.8676758,0.513916,1585488266678,7688387253961,0.22151735,0,1
1585488267399,NaN,-5.2832084,-0.20117188,-0.8574219,0.5041504,1585488266758,7688387253961,0.22151735,0,1
1585488267402,NaN,-4.504962,-0.15283203,-0.8227539,0.5,1585488266838,7688387253961,0.22151735,0,1
1585488267405,NaN,-3.622999,-0.14379883,-0.8430176,0.48339844,1585488266918,7688387253961,0.22151735,0,1
1585488267408,NaN,-2.7804594,-0.1171875,-0.842041,0.5234375,1585488266998,7688387253961,0.22151735,0,1
1585488267412,NaN,-1.9753779,-0.09033203,-0.8474121,0.5095215,1585488267078,7688387253961,0.22151735,0,1
1585488267414,NaN,-1.2593044,-0.07104492,-0.82592773,0.49560547,1585488267158,7688387253961,0.22151735,0,1
1585488267417,NaN,-0.6191676,-0.025146484,-0.8498535,0.49316406,1585488267238,7688387253961,0.22151735,0,1
1585488267420,NaN,-0.01220264,-0.0021972656,-0.85717773,0.48120117,1585488267318,7688387253961,0.22151735,0,1
1585488267422,NaN,0.5129388,0.03149414,-0.88134766,0.44604492,1585488267398,7688387253961,0.22151735,0,1
1585488269891,NaN,1.0171891,0.14941406,-0.9797363,0.43408203,1585488267478,1491997116652,0.22151735,0,1
1585488269903,NaN,1.6205136,0.33447266,-1.0336914,0.39013672,1585488267558,1491997116652,0.22151735,0,1
1585488269909,NaN,2.3355412,0.45507812,-0.99194336,0.28100586,1585488267638,1491997116652,0.22151735,0,1
1585488269914,NaN,3.0134945,0.50439453,-0.9436035,0.27172852,1585488267718,1491997116652,0.22151735,0,1
1585488269919,NaN,3.53961,0.47680664,-0.94018555,0.20996094,1585488267798,1491997116652,0.22151735,0,1
1585488269924,NaN,3.9840724,0.46899414,-0.9367676,0.23461914,1585488267878,1491997116652,0.22151735,0,1
1585488269927,NaN,4.3855815,0.4091797,-0.8859863,0.25268555,1585488267958,1491997116652,0.22151735,0,1
1585488269933,NaN,4.7213116,0.38476562,-0.85302734,0.25463867,1585488268038,1491997116652,0.22151735,0,1
1585488269938,NaN,4.9728484,0.3227539,-0.81591797,0.25195312,1585488268118,1491997116652,0.19770944,0,1
1585488269942,NaN,5.1274066,0.31420898,-0.88500977,0.3022461,1585488268198,1491997116652,0.19770944,0,1
1585488269947,NaN,5.206838,0.2602539,-0.8352051,0.29516602,1585488268278,1491997116652,0.19770944,0,1
1585488269951,NaN,5.1971307,0.21264648,-0.810791,0.27319336,1585488268358,1491997116652,0.19770944,0,1
1585488269954,NaN,4.9859343,0.15649414,-0.8762207,0.2277832,1585488268438,1491997116652,0.19770944,0,1
1585488269959,NaN,4.4695344,0.16918945,-0.92163086,0.2758789,1585488268518,1491997116652,0.19770944,0,1
1585488269962,NaN,3.6702585,0.125,-0.9094238,0.27929688,1585488268598,1491997116652,0.19770944,0,1
1585488269965,NaN,2.7824504,0.1171875,-0.94018555,0.29370117,1585488268678,1491997116652,0.19770944,0,1
1585488269968,NaN,1.8903576,0.09375,-0.92285156,0.29370117,1585488268758,1491997116652,0.19770944,0,1
1585488269971,NaN,1.0373114,0.09472656,-0.92041016,0.31591797,1585488268838,1491997116652,0.19770944,0,1
1585488269974,NaN,0.26333505,0.060791016,-0.9211426,0.31933594,1585488268918,1491997116652,0.19770944,0,1
1585488269978,NaN,-0.4505546,0.05883789,-0.9338379,0.3239746,1585488268998,1491997116652,0.19770944,0,1
1585488269981,NaN,-1.0478057,0.07324219,-0.9213867,0.33032227,1585488269078,1491997116652,0.19770944,0,1
1585488269984,NaN,-1.5459809,0.07324219,-0.91137695,0.31884766,1585488269158,1491997116652,0.19770944,0,1
1585488269988,NaN,-1.9332005,0.0949707,-0.907959,0.30981445,1585488269238,1491997116652,0.19770944,0,1
1585488269991,NaN,-2.198528,0.1394043,-0.8918457,0.29296875,1585488269318,1491997116652,0.19770944,0,1
1585488269994,NaN,-2.3307178,0.15527344,-0.90966797,0.27001953,1585488269398,1491997116652,0.19770944,0,1
1585488269997,NaN,-2.2584183,0.19873047,-0.9406738,0.2565918,1585488269478,1491997116652,0.19770944,0,1
1585488270001,NaN,-1.9467015,0.22998047,-0.9182129,0.234375,1585488269558,1491997116652,0.19770944,0,1
1585488270004,NaN,-1.4828714,0.31811523,-0.8930664,0.2084961,1585488269638,1491997116652,0.19770944,0,1
1585488270006,NaN,-0.91614324,0.36254883,-0.90527344,0.16601562,1585488269718,1491997116652,0.19770944,0,1
1585488270009,NaN,-0.3040983,0.40649414,-0.8718262,0.15478516,1585488269798,1491997116652,0.19770944,0,1
1585488270014,NaN,0.35079598,0.45361328,-0.859375,0.15283203,1585488269878,1491997116652,0.19770944,0,1
1585488270016,NaN,1.0291518,0.49365234,-0.8754883,0.14208984,1585488269958,1491997116652,0.19770944,0,1
1585488272274,NaN,1.6339422,0.4663086,-0.80029297,0.13720703,1585488270038,-4704674495632,0.19770944,0,1
1585488272279,NaN,2.196427,0.49243164,-0.78930664,0.18701172,1585488270118,-4704674495632,0.16792297,0,1
1585488272286,NaN,2.7017727,0.546875,-0.83691406,0.20263672,1585488270198,-4704674495632,0.09744851,0,1
1585488272290,NaN,3.0783005,0.53100586,-0.82958984,0.21484375,1585488270278,-4704674495632,0.09744851,0,1
1585488272294,NaN,3.383104,0.5283203,-0.8925781,0.20117188,1585488270358,-4704674495632,0.09744851,0,1
1585488272300,NaN,3.555173,0.5253906,-0.93847656,0.2800293,1585488270438,-4704674495632,0.09744851,0,1
1585488272303,NaN,3.469057,0.31713867,-0.93359375,0.3215332,1585488270518,-4704674495632,0.21240361,0,1
1585488272307,NaN,3.1066961,0.26904297,-1.0324707,0.4560547,1585488270598,-4704674495632,0.21240361,0,1
1585488272311,NaN,2.5530813,0.1171875,-1.0935059,0.390625,1585488270678,-4704674495632,0.21240361,0,1
1585488272314,NaN,1.8581314,-0.032226562,-0.86328125,0.38916016,1585488270758,-4704674495632,0.27446327,0,1
1585488272319,NaN,1.0352618,-0.080078125,-0.83154297,0.37280273,1585488270838,-4704674495632,0.27446327,0,1
1585488272323,NaN,0.09930793,-0.10644531,-0.90405273,0.38549805,1585488270918,-4704674495632,0.27446327,0,1
1585488272328,NaN,-0.8485038,-0.14038086,-0.91308594,0.41210938,1585488270998,-4704674495632,0.27446327,0,1
1585488272331,NaN,-1.8458395,-0.21240234,-0.87280273,0.43530273,1585488271078,-4704674495632,0.27446327,0,1
1585488272335,NaN,-2.895652,-0.23022461,-0.8327637,0.4350586,1585488271158,-4704674495632,0.27446327,0,1
1585488272339,NaN,-3.863347,-0.2211914,-0.84521484,0.43969727,1585488271238,-4704674495632,0.27446327,0,1
1585488272342,NaN,-4.813214,-0.2211914,-0.85595703,0.4645996,1585488271318,-4704674495632,0.27446327,0,1
1585488272345,NaN,-5.671825,-0.2421875,-0.83862305,0.46069336,1585488271398,-4704674495632,0.27446327,0,1
1585488272348,NaN,-6.1484222,-0.21264648,-0.84350586,0.48095703,1585488271478,-4704674495632,0.27446327,0,1
1585488272350,NaN,-6.386599,-0.21020508,-0.83935547,0.4892578,1585488271558,-4704674495632,0.27446327,0,1
1585488272353,NaN,-6.416796,-0.18823242,-0.8359375,0.49609375,1585488271638,-4704674495632,0.27446327,0,1
1585488272355,NaN,-6.161571,-0.1694336,-0.8352051,0.49072266,1585488271718,-4704674495632,0.27446327,0,1
1585488272358,NaN,-5.7873383,-0.15234375,-0.84814453,0.50683594,1585488271798,-4704674495632,0.27446327,0,1
1585488272361,NaN,-5.3315167,-0.14575195,-0.85961914,0.51953125,1585488271878,-4704674495632,0.27446327,0,1
1585488272365,NaN,-4.799454,-0.1105957,-0.81933594,0.5053711,1585488271958,-4704674495632,0.27446327,0,1
1585488272368,NaN,-4.138506,-0.11450195,-0.82055664,0.49853516,1585488272038,-4704674495632,0.27446327,0,1
1585488272371,NaN,-3.3732374,-0.072021484,-0.82006836,0.50756836,1585488272118,-4704674495632,0.27446327,0,1
1585488272374,NaN,-2.604161,-0.048095703,-0.83740234,0.4663086,1585488272198,-4704674495632,0.27446327,0,1
1585488272376,NaN,-1.753785,-0.017578125,-0.94140625,0.42358398,1585488272278,-4704674495632,0.27446327,0,1
1585488272380,NaN,-0.8396444,0.042236328,-0.9406738,0.39624023,1585488272358,-4704674495632,0.27446327,0,1
1585488272382,NaN,0.053471565,0.23364258,-1.0410156,0.3293457,1585488272438,-4704674495632,0.27446327,0,1
1585488272385,NaN,1.0935992,0.43359375,-1.052002,0.18286133,1585488272518,-4704674495632,0.27446327,0,1
1585488274860,NaN,2.079026,0.50512695,-1.0009766,0.17285156,1585488272598,7545679440768,0.27446327,0,1
1585488274867,NaN,2.8260155,0.44091797,-0.9694824,0.10839844,1585488272678,7545679440768,0.27446327,0,1
1585488274873,NaN,3.4785626,0.40600586,-0.93481445,0.115234375,1585488272758,7545679440768,0.27446327,0,1
1585488274875,NaN,4.1143374,0.40478516,-0.939209,0.13549805,1585488272838,7545679440768,0.27446327,0,1
1585488274880,NaN,4.6363716,0.36816406,-0.8984375,0.1496582,1585488272918,7545679440768,0.27446327,0,1
1585488274884,NaN,5.054209,0.3408203,-0.89160156,0.17041016,1585488272998,7545679440768,0.27446327,0,1
1585488274889,NaN,5.355976,0.31420898,-0.9038086,0.19165039,1585488273078,7545679440768,0.27446327,0,1
1585488274893,NaN,5.5768247,0.27929688,-0.85546875,0.19165039,1585488273158,7545679440768,0.27446327,0,1
1585488274901,NaN,5.656632,0.22094727,-0.8286133,0.2163086,1585488273238,7545679440768,0.27446327,0,1
1585488274905,NaN,5.602358,0.23779297,-0.9016113,0.24536133,1585488273318,7545679440768,0.24811055,0,1
1585488274908,NaN,5.1874585,0.17651367,-0.9104004,0.26245117,1585488273398,7545679440768,0.24811055,0,1
1585488274913,NaN,4.35024,0.14770508,-0.9013672,0.27441406,1585488273478,7545679440768,0.24811055,0,1
1585488274916,NaN,3.3663368,0.10083008,-0.9284668,0.2878418,1585488273558,7545679440768,0.24811055,0,1
1585488274920,NaN,2.4171054,0.08178711,-0.907959,0.30029297,1585488273638,7545679440768,0.24811055,0,1
1585488274923,NaN,1.5188061,0.072509766,-0.9172363,0.3022461,1585488273718,7545679440768,0.24811055,0,1
1585488274927,NaN,0.60360307,0.047607422,-0.91674805,0.33691406,1585488273798,7545679440768,0.24811055,0,1
1585488274930,NaN,-0.22326958,0.038085938,-0.9267578,0.3425293,1585488273878,7545679440768,0.24811055,0,1
1585488274933,NaN,-0.99059224,0.02319336,-0.9265137,0.32666016,1585488273958,7545679440768,0.24811055,0,1
1585488274936,NaN,-1.648872,0.04638672,-0.9370117,0.32885742,1585488274038,7545679440768,0.24811055,0,1
1585488274940,NaN,-2.2078025,0.061767578,-0.92700195,0.32592773,1585488274118,7545679440768,0.24811055,0,1
1585488274942,NaN,-2.623501,0.071777344,-0.9338379,0.31567383,1585488274198,7545679440768,0.24811055,0,1
1585488274946,NaN,-2.9523537,0.103515625,-0.9350586,0.3083496,1585488274278,7545679440768,0.24811055,0,1
1585488274949,NaN,-3.0213892,0.123291016,-0.9140625,0.30444336,1585488274358,7545679440768,0.24811055,0,1
1585488274952,NaN,-2.79398,0.15991211,-0.8996582,0.26391602,1585488274438,7545679440768,0.24811055,0,1
1585488274955,NaN,-2.3788807,0.18457031,-0.90283203,0.22314453,1585488274518,7545679440768,0.24811055,0,1
1585488274959,NaN,-1.8824908,0.22558594,-0.9145508,0.18188477,1585488274598,7545679440768,0.24811055,0,1
1585488274962,NaN,-1.3516244,0.27441406,-0.88916016,0.1772461,1585488274678,7545679440768,0.24811055,0,1
1585488274965,NaN,-0.69450766,0.33862305,-0.91430664,0.13867188,1585488274758,7545679440768,0.24811055,0,1
1585488274967,NaN,-0.020212134,0.3708496,-0.8774414,0.13305664,1585488274838,7545679440768,0.24811055,0,1
1585488274970,NaN,0.6874625,0.43017578,-0.8664551,0.115234375,1585488274918,7545679440768,0.24811055,0,1
1585488274973,NaN,1.3418485,0.4362793,-0.86938477,0.107177734,1585488274998,7545679440768,0.24811055,0,1
1585488274976,NaN,1.9377724,0.41992188,-0.8186035,0.100097656,1585488275078,7545679440768,0.096275024,0,1
1585488277442,NaN,2.4643428,0.46679688,-0.85498047,0.14282227,1585488275158,1349289303460,0.096275024,0,1
1585488277446,NaN,2.950551,0.48168945,-0.9123535,0.122558594,1585488275238,1349289303460,0.08035269,0,1
1585488277450,NaN,3.3230522,0.5114746,-0.97143555,0.18774414,1585488275318,1349289303460,0.092881635,0,1
1585488277454,NaN,3.5083292,0.42651367,-0.9953613,0.18701172,1585488275398,1349289303460,0.092881635,0,1
1585488277460,NaN,3.453457,0.2788086,-1.013916,0.24072266,1585488275478,1349289303460,0.15825906,0,1
1585488277462,NaN,3.1768866,0.16064453,-1.0473633,0.29345703,1585488275558,1349289303460,0.15825906,0,1
1585488277466,NaN,2.6997197,0.023925781,-1.1025391,0.3322754,1585488275638,1349289303460,0.15825906,0,1
1585488277470,NaN,2.0302188,-0.083984375,-0.939209,0.3203125,1585488275718,1349289303460,0.1961235,0,1
1585488277474,NaN,1.2875277,-0.09716797,-0.8317871,0.3317871,1585488275798,1349289303460,0.1961235,0,1
1585488277478,NaN,0.36307815,-0.13720703,-0.88134766,0.3996582,1585488275878,1349289303460,0.1961235,0,1
1585488277482,NaN,-0.6393727,-0.20336914,-0.9121094,0.45239258,1585488275958,1349289303460,0.1961235,0,1
1585488277486,NaN,-1.6328797,-0.22290039,-0.8581543,0.45825195,1585488276038,1349289303460,0.1961235,0,1
1585488277491,NaN,-2.644708,-0.2121582,-0.8227539,0.47729492,1585488276118,1349289303460,0.1961235,0,1
1585488277495,NaN,-3.6673899,-0.21679688,-0.82128906,0.48217773,1585488276198,1349289303460,0.1961235,0,1
1585488277499,NaN,-4.6864433,-0.24853516,-0.8027344,0.50439453,1585488276278,1349289303460,0.1961235,0,1
1585488277502,NaN,-5.5457225,-0.26464844,-0.78393555,0.50268555,1585488276358,1349289303460,0.1961235,0,1
1585488277506,NaN,-6.0902805,-0.23022461,-0.78125,0.49414062,1585488276438,1349289303460,0.1961235,0,1
1585488277510,NaN,-6.3464627,-0.20825195,-0.85913086,0.47021484,1585488276518,1349289303460,0.1961235,0,1
1585488277513,NaN,-6.3514323,-0.19604492,-0.86206055,0.49658203,1585488276598,1349289303460,0.1961235,0,1
1585488277516,NaN,-6.139815,-0.18603516,-0.8378906,0.5070801,1585488276678,1349289303460,0.1961235,0,1
1585488277519,NaN,-5.8116956,-0.1484375,-0.8395996,0.48999023,1585488276758,1349289303460,0.1961235,0,1
1585488277522,NaN,-5.335381,-0.15454102,-0.8330078,0.48364258,1585488276838,1349289303460,0.1961235,0,1
1585488277525,NaN,-4.707395,-0.13476562,-0.84814453,0.49731445,1585488276918,1349289303460,0.1961235,0,1
1585488277528,NaN,-4.0163827,-0.1027832,-0.8503418,0.50268555,1585488276998,1349289303460,0.1961235,0,1
1585488277531,NaN,-3.2590845,-0.067871094,-0.8713379,0.47045898,1585488277078,1349289303460,0.1961235,0,1
1585488277534,NaN,-2.4441092,-0.037841797,-0.87158203,0.46044922,1585488277158,1349289303460,0.1961235,0,1
1585488277537,NaN,-1.5038514,0.010253906,-0.8823242,0.42749023,1585488277238,1349289303460,0.1961235,0,1
1585488277541,NaN,-0.56747276,0.037353516,-0.89331055,0.43481445,1585488277318,1349289303460,0.1961235,0,1
1585488277545,NaN,0.33350572,0.19506836,-1.0029297,0.44335938,1585488277398,1349289303460,0.1961235,0,1
1585488277549,NaN,1.1870897,0.3552246,-1.0234375,0.4013672,1585488277478,1349289303460,0.1961235,0,1
1585488277552,NaN,2.0283353,0.45776367,-0.99975586,0.34057617,1585488277558,1349289303460,0.1961235,0,1
1585488277554,NaN,2.7142382,0.42016602,-0.9460449,0.3149414,1585488277638,1349289303460,0.1961235,0,1
1585488280029,NaN,3.286337,0.4086914,-0.95458984,0.27661133,1585488277718,-4847382308824,0.1961235,0,1
1585488280035,NaN,3.8325262,0.4326172,-0.91503906,0.3088379,1585488277798,-4847382308824,0.1961235,0,1
1585488280040,NaN,4.2552037,0.34887695,-0.9223633,0.25317383,1585488277878,-4847382308824,0.1961235,0,1
1585488280046,NaN,4.5752563,0.3256836,-0.86816406,0.26831055,1585488277958,-4847382308824,0.1961235,0,1
1585488280051,NaN,4.7372284,0.17895508,-0.86816406,0.18676758,1585488278038,-4847382308824,0.1961235,0,1
1585488280056,NaN,4.8486605,0.18408203,-0.81152344,0.19873047,1585488278118,-4847382308824,0.1961235,0,1
1585488280060,NaN,4.799003,0.16040039,-0.8449707,0.23510742,1585488278198,-4847382308824,0.1961235,0,1
1585488280063,NaN,4.654459,0.11743164,-0.8967285,0.2548828,1585488278278,-4847382308824,0.19225854,0,1
1585488280067,NaN,4.2383494,0.071777344,-0.89746094,0.32617188,1585488278358,-4847382308824,0.19225854,0,1
1585488280071,NaN,3.5710888,0.03173828,-0.91796875,0.3239746,1585488278438,-4847382308824,0.19225854,0,1
1585488280075,NaN,2.7128017,0.038085938,-0.857666,0.33251953,1585488278518,-4847382308824,0.19225854,0,1
1585488280079,NaN,1.8655206,0.022949219,-0.8864746,0.35961914,1585488278598,-4847382308824,0.19225854,0,1
1585488280084,NaN,1.0423704,0.030517578,-0.9177246,0.35913086,1585488278678,-4847382308824,0.19225854,0,1
1585488280087,NaN,0.21259834,0.03881836,-0.8881836,0.36572266,1585488278758,-4847382308824,0.19225854,0,1
1585488280090,NaN,-0.48564005,0.06982422,-0.9309082,0.34350586,1585488278838,-4847382308824,0.19225854,0,1
1585488280094,NaN,-1.0754095,0.1027832,-0.8691406,0.31323242,1585488278918,-4847382308824,0.19225854,0,1
1585488280098,NaN,-1.4169108,0.1496582,-0.85375977,0.265625,1585488278998,-4847382308824,0.19225854,0,1
1585488280101,NaN,-1.7258354,0.15893555,-0.8186035,0.25878906,1585488279078,-4847382308824,0.19225854,0,1
1585488280104,NaN,-1.8363644,0.2644043,-0.7817383,0.23779297,1585488279158,-4847382308824,0.19225854,0,1
1585488280107,NaN,-1.745763,0.37475586,-0.8339844,0.20410156,1585488279238,-4847382308824,0.19225854,0,1
1585488280109,NaN,-1.4502478,0.33911133,-0.9057617,0.19189453,1585488279318,-4847382308824,0.19225854,0,1
1585488280112,NaN,-0.89852756,0.4663086,-0.9238281,0.2788086,1585488279398,-4847382308824,0.19225854,0,1
1585488280115,NaN,-0.28082296,0.40673828,-0.9445801,0.24707031,1585488279478,-4847382308824,0.19225854,0,1
1585488280120,NaN,0.4101951,0.47973633,-0.8955078,0.30273438,1585488279558,-4847382308824,0.19225854,0,1
1585488280123,NaN,1.0016745,0.38671875,-0.94555664,0.35913086,1585488279638,-4847382308824,0.19225854,0,1
1585488280126,NaN,1.4918237,0.3046875,-1.0083008,0.42773438,1585488279718,-4847382308824,0.19225854,0,1
1585488280129,NaN,1.7619616,0.19677734,-1.2021484,0.46435547,1585488279798,-4847382308824,0.22486134,0,1
1585488280131,NaN,NaN,0.034423828,-0.920166,0.35766602,1585488279878,-4847382308824,0.34242573,0,1
1585488280134,NaN,NaN,-0.03515625,-0.7895508,0.36010742,1585488279958,-4847382308824,0.34242573,0,1
1585488280136,NaN,NaN,-0.056152344,-0.91308594,0.4116211,1585488280038,-4847382308824,0.34242573,0,1
1585488280140,NaN,NaN,-0.11450195,-0.91552734,0.43945312,1585488280118,-4847382308824,0.34242573,0,1
1585488280142,NaN,NaN,-0.12890625,-0.859375,0.4206543,1585488280198,-4847382308824,0.34242573,0,1
1585488282613,NaN,NaN,-0.12841797,-0.86572266,0.4338379,1585488280278,7402971627576,0.34242573,0,1
1585488282619,NaN,NaN,-0.1394043,-0.8972168,0.44458008,1585488280358,7402971627576,0.34242573,0,1
1585488282623,NaN,NaN,-0.109375,-0.89501953,0.45043945,1585488280438,7402971627576,0.34242573,0,1
1585488282628,NaN,NaN,-0.0949707,-0.86816406,0.4416504,1585488280518,7402971627576,0.34242573,0,1
1585488282633,NaN,NaN,-0.10864258,-0.8251953,0.43945312,1585488280598,7402971627576,0.34242573,0,1
1585488282638,NaN,NaN,-0.1105957,-0.85717773,0.46728516,1585488280678,7402971627576,0.34242573,0,1
1585488282642,NaN,NaN,-0.103027344,-0.875,0.48486328,1585488280758,7402971627576,0.34242573,0,1
1585488282645,NaN,NaN,-0.115234375,-0.8625488,0.44360352,1585488280838,7402971627576,0.34242573,0,1
1585488282650,NaN,NaN,-0.057373047,-0.86376953,0.5078125,1585488280918,7402971627576,0.34242573,0,1
1585488282654,NaN,NaN,-0.10131836,-0.8588867,0.4699707,1585488280998,7402971627576,0.34242573,0,1
1585488282658,NaN,NaN,-0.111572266,-0.85131836,0.5019531,1585488281078,7402971627576,0.34242573,0,1
1585488282662,NaN,NaN,-0.057128906,-0.8762207,0.49389648,1585488281158,7402971627576,0.34242573,0,1
1585488282665,NaN,NaN,-0.09472656,-0.86083984,0.4880371,1585488281238,7402971627576,0.34242573,0,1
1585488282668,NaN,NaN,-0.10498047,-0.8640137,0.48095703,1585488281318,7402971627576,0.34242573,0,1
1585488282672,NaN,NaN,-0.107421875,-0.8786621,0.47729492,1585488281398,7402971627576,0.34242573,0,1
1585488282675,NaN,NaN,-0.11816406,-0.8588867,0.49536133,1585488281478,7402971627576,0.34242573,0,1
1585488282679,NaN,NaN,-0.115234375,-0.8491211,0.47607422,1585488281558,7402971627576,0.34242573,0,1
1585488282682,NaN,NaN,-0.09277344,-0.845459,0.46533203,1585488281638,7402971627576,0.34242573,0,1
1585488282685,NaN,NaN,-0.10107422,-0.859375,0.47583008,1585488281718,7402971627576,0.34242573,0,1
1585488282688,NaN,NaN,-0.095703125,-0.8659668,0.4921875,1585488281798,7402971627576,0.34242573,0,1
1585488282692,NaN,NaN,-0.09643555,-0.8601074,0.49926758,1585488281878,7402971627576,0.34242573,0,1
1585488282695,NaN,NaN,-0.0859375,-0.85595703,0.51782227,1585488281958,7402971627576,0.34242573,0,1
1585488282699,NaN,NaN,-0.103515625,-0.8327637,0.5078125,1585488282038,7402971627576,0.34242573,0,1
1585488282702,NaN,NaN,-0.08886719,-0.83740234,0.52612305,1585488282118,7402971627576,0.34242573,0,1
1585488282705,NaN,NaN,-0.060302734,-0.8666992,0.53466797,1585488282198,7402971627576,0.34242573,0,1
1585488282709,NaN,NaN,-0.032226562,-0.8383789,0.49926758,1585488282278,7402971627576,0.34242573,0,1
1585488282712,NaN,NaN,-0.067871094,-0.8347168,0.529541,1585488282358,7402971627576,0.34242573,0,1
1585488282715,NaN,1.743434,-0.07348633,-0.84277344,0.5319824,1585488282438,7402971627576,0.14801246,0,1
1585488282718,NaN,1.5325437,-0.063964844,-0.8249512,0.54711914,1585488282518,7402971627576,0.1354822,0,1
1585488282720,NaN,1.3917779,0.072021484,-0.80859375,0.5578613,1585488282598,7402971627576,0.1373872,0,1
1585488282723,NaN,1.0084854,0.0036621094,-0.83496094,0.53515625,1585488282678,7402971627576,0.1373872,0,1
1585488282726,NaN,0.3637955,-0.033691406,-0.8120117,0.54345703,1585488282758,7402971627576,0.1373872,0,1
1585488285193,NaN,-0.3223655,-0.015380859,-0.80200195,0.61450195,1585488282838,1206581490268,0.1373872,0,1
1585488285201,NaN,-1.1330138,-0.0126953125,-0.82470703,0.5493164,1585488282918,1206581490268,0.1373872,0,1
1585488285205,NaN,-1.901393,-0.04663086,-0.8293457,0.55371094,1585488282998,1206581490268,0.1373872,0,1
1585488285212,NaN,-2.7462578,-0.037597656,-0.81591797,0.5625,1585488283078,1206581490268,0.1373872,0,1
1585488285218,NaN,-3.4205825,-0.057861328,-0.80078125,0.5566406,1585488283158,1206581490268,0.1373872,0,1
1585488285221,NaN,-3.898412,-0.023925781,-0.80444336,0.56225586,1585488283238,1206581490268,0.1373872,0,1
1585488285225,NaN,-4.1818757,-0.0021972656,-0.8029785,0.5734863,1585488283318,1206581490268,0.1373872,0,1
1585488285232,NaN,-3.9468715,-0.027832031,-0.8144531,0.5476074,1585488283398,1206581490268,0.1373872,0,1
1585488285237,NaN,-3.6434488,-0.020507812,-0.8388672,0.5407715,1585488283478,1206581490268,0.1373872,0,1
1585488285240,NaN,-3.4876165,0.008544922,-0.84033203,0.5253906,1585488283558,1206581490268,0.1373872,0,1
1585488285244,NaN,-3.146702,0.033935547,-0.85913086,0.5136719,1585488283638,1206581490268,0.1373872,0,1
1585488285247,NaN,-2.6710632,0.024902344,-0.84106445,0.5341797,1585488283718,1206581490268,0.1373872,0,1
1585488285250,NaN,-2.1947682,0.013183594,-0.8442383,0.53222656,1585488283798,1206581490268,0.1373872,0,1
1585488285253,NaN,-1.7260715,-0.0017089844,-0.8327637,0.52124023,1585488283878,1206581490268,0.1373872,0,1
1585488285256,NaN,-1.2321628,0.0056152344,-0.83935547,0.5371094,1585488283958,1206581490268,0.1373872,0,1
1585488285259,NaN,-0.73682743,-0.009765625,-0.82128906,0.55688477,1585488284038,1206581490268,0.1373872,0,1
1585488285262,NaN,-0.30096218,-0.022949219,-0.80029297,0.55322266,1585488284118,1206581490268,0.1373872,0,1
1585488285266,NaN,0.04058339,-0.013916016,-0.8269043,0.5390625,1585488284198,1206581490268,0.1373872,0,1
1585488285269,NaN,0.3082361,-0.052001953,-0.8378906,0.5046387,1585488284278,1206581490268,0.1373872,0,1
1585488285272,NaN,0.2777625,-0.07470703,-0.86987305,0.515625,1585488284358,1206581490268,0.1373872,0,1
1585488285275,NaN,0.22829176,-0.06518555,-0.8757324,0.5107422,1585488284438,1206581490268,0.1373872,0,1
1585488285279,NaN,0.24484847,-0.020019531,-0.8395996,0.5007324,1585488284518,1206581490268,0.1373872,0,1
1585488285282,NaN,0.20322736,0.013671875,-0.8745117,0.5024414,1585488284598,1206581490268,0.1373872,0,1
1585488285285,NaN,0.15626535,-0.009521484,-0.8964844,0.4868164,1585488284678,1206581490268,0.1373872,0,1
1585488285288,NaN,0.10388323,-0.024169922,-0.8547363,0.4489746,1585488284758,1206581490268,0.1373872,0,1
1585488285291,NaN,0.0951386,-0.033203125,-0.86279297,0.44873047,1585488284838,1206581490268,0.1373872,0,1
1585488285294,NaN,0.055924263,-0.055664062,-0.89160156,0.43066406,1585488284918,1206581490268,0.1373872,0,1
1585488285297,NaN,0.07687215,-0.037841797,-0.8815918,0.4182129,1585488284998,1206581490268,0.1373872,0,1
1585488285301,NaN,0.15021823,-0.011474609,-0.920166,0.38110352,1585488285078,1206581490268,0.1373872,0,1
1585488285304,NaN,0.26509985,0.06298828,-0.9291992,0.3864746,1585488285158,1206581490268,0.07670563,0,1
1585488285307,NaN,0.45494303,0.13769531,-0.89331055,0.40234375,1585488285238,1206581490268,0.08438582,0,1
1585488285314,NaN,0.66740674,0.13232422,-0.92529297,0.40234375,1585488285318,1206581490268,0.08438582,0,1
1585488287785,NaN,0.87289566,0.122802734,-0.921875,0.3852539,1585488285398,-4990090122016,0.08438582,0,1
1585488287786,NaN,1.014202,0.06542969,-0.91918945,0.36547852,1585488285478,-4990090122016,0.08438582,0,1
1585488287787,NaN,1.1271163,0.07446289,-0.921875,0.3684082,1585488285558,-4990090122016,0.08438582,0,1
1585488287794,NaN,1.2186368,0.041992188,-0.9289551,0.35375977,1585488285638,-4990090122016,0.08438582,0,1
1585488287795,NaN,1.3076335,0.044921875,-0.9194336,0.36376953,1585488285718,-4990090122016,0.08438582,0,1
1585488287802,NaN,1.3793236,0.012451172,-0.9362793,0.3552246,1585488285798,-4990090122016,0.08438582,0,1
1585488287806,NaN,1.4450444,0.0021972656,-0.91918945,0.36547852,1585488285878,-4990090122016,0.08438582,0,1
1585488287811,NaN,1.4370593,-0.026611328,-0.9304199,0.36645508,1585488285958,-4990090122016,0.08438582,0,1
1585488287815,NaN,1.3178782,-0.044433594,-0.91064453,0.36914062,1585488286038,-4990090122016,0.08438582,0,1
1585488287820,NaN,1.1120399,-0.03857422,-0.91674805,0.37841797,1585488286118,-4990090122016,0.08438582,0,1
1585488287824,NaN,0.8006064,-0.044189453,-0.9133301,0.39868164,1585488286198,-4990090122016,0.08438582,0,1
1585488287827,NaN,0.4454594,-0.06689453,-0.90185547,0.4177246,1585488286278,-4990090122016,0.08438582,0,1
1585488287831,NaN,0.09302194,-0.07910156,-0.90063477,0.41455078,1585488286358,-4990090122016,0.08438582,0,1
1585488287835,NaN,-0.168269,-0.08544922,-0.8947754,0.41430664,1585488286438,-4990090122016,0.08438582,0,1
1585488287839,NaN,-0.40457273,-0.0625,-0.876709,0.42822266,1585488286518,-4990090122016,0.08438582,0,1
1585488287843,NaN,-0.61058587,-0.08081055,-0.89160156,0.38867188,1585488286598,-4990090122016,0.08438582,0,1
1585488287846,NaN,-0.76992613,-0.0546875,-0.90771484,0.34204102,1585488286678,-4990090122016,0.08438582,0,1
1585488287850,NaN,-0.9079106,-0.08862305,-0.92944336,0.3112793,1585488286758,-4990090122016,0.08438582,0,1
1585488287853,NaN,-0.9963704,-0.068847656,-0.9589844,0.30151367,1585488286838,-4990090122016,0.08438582,0,1
1585488287856,NaN,-1.0060042,-0.056884766,-0.9836426,0.27612305,1585488286918,-4990090122016,0.08438582,0,1
1585488287859,NaN,-0.9544527,-0.056884766,-0.9433594,0.28637695,1585488286998,-4990090122016,0.08438582,0,1
1585488287862,NaN,-0.86640555,-0.055664062,-0.9345703,0.3154297,1585488287078,-4990090122016,0.08438582,0,1
1585488287865,NaN,-0.7599384,-0.09741211,-0.9301758,0.36108398,1585488287158,-4990090122016,0.08438582,0,1
1585488287868,NaN,-0.6236318,-0.1081543,-0.90283203,0.38549805,1585488287238,-4990090122016,0.08438582,0,1
1585488287871,NaN,-0.47379336,-0.07080078,-0.8701172,0.43554688,1585488287318,-4990090122016,0.08438582,0,1
1585488287874,NaN,-0.34286055,-0.06201172,-0.88720703,0.45166016,1585488287398,-4990090122016,0.08438582,0,1
1585488287877,NaN,-0.23438124,-0.087890625,-0.88964844,0.44458008,1585488287478,-4990090122016,0.08438582,0,1
1585488287881,NaN,-0.13462858,-0.036376953,-0.88061523,0.47924805,1585488287558,-4990090122016,0.08438582,0,1
1585488287883,NaN,-0.15832625,-0.06323242,-0.83447266,0.50024414,1585488287638,-4990090122016,0.08438582,0,1
1585488287888,NaN,-0.18147565,-0.07519531,-0.8703613,0.4880371,1585488287718,-4990090122016,0.08438582,0,1
1585488287891,NaN,-0.276254,-0.07836914,-0.8569336,0.4897461,1585488287798,-4990090122016,0.07050128,0,1
1585488287894,NaN,-0.42657056,-0.07397461,-0.8625488,0.46728516,1585488287878,-4990090122016,0.07050128,0,1
1585488290362,NaN,-0.5732145,-0.084472656,-0.8811035,0.4724121,1585488287958,7260263814384,0.07050128,0,1
1585488290367,NaN,-0.6888599,-0.06738281,-0.8562012,0.47558594,1585488288038,7260263814384,0.07050128,0,1
1585488290372,NaN,-0.733875,-0.087402344,-0.8605957,0.47753906,1585488288118,7260263814384,0.07050128,0,1
1585488290379,NaN,-0.758221,-0.084472656,-0.8352051,0.46826172,1585488288198,7260263814384,0.07050128,0,1
1585488290382,NaN,-0.7713609,-0.0847168,-0.8630371,0.46166992,1585488288278,7260263814384,0.07050128,0,1
1585488290386,NaN,-0.77867645,-0.061279297,-0.87646484,0.46411133,1585488288358,7260263814384,0.07050128,0,1
1585488290390,NaN,-0.7479338,-0.061035156,-0.8913574,0.46557617,1585488288438,7260263814384,0.07050128,0,1
1585488290394,NaN,-0.75439245,-0.056640625,-0.86206055,0.47192383,1585488288518,7260263814384,0.07050128,0,1
1585488290402,NaN,-0.63233584,-0.037841797,-0.86938477,0.48510742,1585488288598,7260263814384,0.07050128,0,1
1585488290404,NaN,-0.51941276,-0.025634766,-0.86499023,0.48046875,1585488288678,7260263814384,0.07050128,0,1
1585488290407,NaN,-0.3728665,-0.034179688,-0.8718262,0.48388672,1585488288758,7260263814384,0.07050128,0,1
1585488290411,NaN,-0.2233628,-0.017822266,-0.859375,0.48779297,1585488288838,7260263814384,0.07050128,0,1
1585488290413,NaN,-0.07544409,-0.015380859,-0.8671875,0.4868164,1585488288918,7260263814384,0.07050128,0,1
1585488290417,NaN,0.04986972,-0.01928711,-0.8652344,0.48779297,1585488288998,7260263814384,0.07050128,0,1
1585488290421,NaN,0.15297289,-0.012207031,-0.86450195,0.4946289,1585488289078,7260263814384,0.07050128,0,1
1585488290424,NaN,0.23198871,-0.012207031,-0.85961914,0.49389648,1585488289158,7260263814384,0.07050128,0,1
1585488290427,NaN,0.2823756,-0.01171875,-0.86328125,0.4958496,1585488289238,7260263814384,0.07050128,0,1
1585488290430,NaN,0.30374166,-0.0078125,-0.8613281,0.4934082,1585488289318,7260263814384,0.07050128,0,1
1585488290434,NaN,0.28894088,-0.026123047,-0.86621094,0.50439453,1585488289398,7260263814384,0.07050128,0,1
1585488290437,NaN,0.3178976,-0.01586914,-0.8598633,0.4934082,1585488289478,7260263814384,0.07050128,0,1
1585488290441,NaN,0.2997359,-0.0034179688,-0.8601074,0.49047852,1585488289558,7260263814384,0.07050128,0,1
1585488290444,NaN,0.26870194,-0.014404297,-0.87060547,0.49145508,1585488289638,7260263814384,0.07050128,0,1
1585488290447,NaN,0.2439576,-0.020751953,-0.8737793,0.4794922,1585488289718,7260263814384,0.07050128,0,1
1585488290451,NaN,0.22173947,-0.025634766,-0.86694336,0.47509766,1585488289798,7260263814384,0.07050128,0,1
1585488290454,NaN,0.18666781,-0.030273438,-0.86621094,0.47143555,1585488289878,7260263814384,0.06274652,0,1
1585488290459,NaN,0.16258906,-0.030517578,-0.86328125,0.4663086,1585488289958,7260263814384,0.06274652,0,1
1585488290461,NaN,0.13353468,-0.022216797,-0.8562012,0.4560547,1585488290038,7260263814384,0.06274652,0,1
1585488290464,NaN,0.10421183,-0.030273438,-0.8696289,0.45874023,1585488290118,7260263814384,0.05736889,0,1
1585488290467,NaN,0.09222203,-0.018310547,-0.88183594,0.46850586,1585488290198,7260263814384,0.039750714,0,1
1585488290470,NaN,0.100847326,-0.0043945312,-0.8781738,0.46533203,1585488290278,7260263814384,0.030368777,0,1
1585488290474,NaN,0.13332081,-0.005859375,-0.873291,0.4802246,1585488290358,7260263814384,0.030368777,0,1
1585488290479,NaN,0.12313902,-0.01171875,-0.8652344,0.49487305,1585488290438,7260263814384,0.030368777,0,1
1585488292945,NaN,0.11840731,0.0063476562,-0.86743164,0.48486328,1585488290518,1063873677075,0.030368777,0,1
1585488292953,NaN,0.12371224,0.00390625,-0.86206055,0.48901367,1585488290598,1063873677075,0.030297054,0,1
1585488292960,NaN,0.110012524,0.0053710938,-0.859375,0.49951172,1585488290678,1063873677075,0.030297054,0,1
1585488292966,NaN,0.100142576,-0.0017089844,-0.8586426,0.501709,1585488290758,1063873677075,0.030297054,0,1
1585488292970,NaN,0.09619715,0.0053710938,-0.8564453,0.5058594,1585488290838,1063873677075,0.030297054,0,1
1585488292975,NaN,0.07947329,-0.0021972656,-0.85546875,0.50805664,1585488290918,1063873677075,0.030297054,0,1
1585488292981,NaN,0.048208643,0.00390625,-0.84814453,0.5070801,1585488290998,1063873677075,0.030297054,0,1
1585488292985,NaN,0.013998394,-0.0031738281,-0.8535156,0.51220703,1585488291078,1063873677075,0.024100773,0,1
1585488292988,NaN,-0.020504553,0.0073242188,-0.8535156,0.5048828,1585488291158,1063873677075,0.021904735,0,1
1585488292994,NaN,-0.07305444,0.0,-0.8527832,0.50683594,1585488291238,1063873677075,0.021904735,0,1
1585488292998,NaN,-0.12720867,4.8828125E-4,-0.85302734,0.5197754,1585488291318,1063873677075,0.021904735,0,1
1585488293001,NaN,-0.13503714,-0.0024414062,-0.8515625,0.501709,1585488291398,1063873677075,0.021904735,0,1
1585488293004,NaN,-0.16217826,7.324219E-4,-0.85546875,0.5004883,1585488291478,1063873677075,0.021904735,0,1
1585488293007,NaN,-0.18592177,0.0034179688,-0.86035156,0.5124512,1585488291558,1063873677075,0.021904735,0,1
1585488293011,NaN,-0.18045704,-0.001953125,-0.86450195,0.4934082,1585488291638,1063873677075,0.021904735,0,1
1585488293014,NaN,-0.16273808,-2.4414062E-4,-0.86743164,0.4897461,1585488291718,1063873677075,0.021904735,0,1
1585488293018,NaN,-0.13271336,-0.00390625,-0.86572266,0.46728516,1585488291798,1063873677075,0.0228216,0,1
1585488293022,NaN,-0.1020555,-0.018554688,-0.87402344,0.48168945,1585488291878,1063873677075,0.0228216,0,1
1585488293030,NaN,-0.058275934,-0.021972656,-0.87109375,0.46728516,1585488291958,1063873677075,0.0228216,0,1
1585488293031,NaN,7.0287037E-4,-0.016845703,-0.8691406,0.45922852,1585488292038,1063873677075,0.0228216,0,1
1585488293035,NaN,0.09228603,-0.0053710938,-0.8737793,0.3984375,1585488292118,1063873677075,0.062038146,0,1
1585488293038,NaN,0.2178335,-0.048583984,-0.9160156,0.37768555,1585488292198,1063873677075,0.06388979,0,1
1585488293041,NaN,0.36229488,-0.07788086,-0.94799805,0.36791992,1585488292278,1063873677075,0.06388979,0,1
1585488293045,NaN,0.46807694,-0.041748047,-0.904541,0.3720703,1585488292358,1063873677075,0.06388979,0,1
1585488293048,NaN,0.5863882,-0.041992188,-0.9267578,0.37573242,1585488292438,1063873677075,0.06388979,0,1
1585488293051,NaN,0.68563074,-0.057861328,-0.91748047,0.39746094,1585488292518,1063873677075,0.06388979,0,1
1585488293054,NaN,0.7632114,-0.07324219,-0.9160156,0.3774414,1585488292598,1063873677075,0.06388979,0,1
1585488293057,NaN,0.85222626,-0.080322266,-0.9123535,0.34228516,1585488292678,1063873677075,0.06388979,0,1
1585488293060,NaN,0.9415826,-0.06591797,-0.93188477,0.32128906,1585488292758,1063873677075,0.06388979,0,1
1585488293065,NaN,1.052866,-0.0769043,-0.93481445,0.31591797,1585488292838,1063873677075,0.06388979,0,1
1585488293066,NaN,1.1464832,-0.052978516,-0.94091797,0.3317871,1585488292918,1063873677075,0.06388979,0,1
1585488293069,NaN,1.1808058,-0.051513672,-0.9121094,0.3774414,1585488292998,1063873677075,0.06388979,0,1
1585488295329,NaN,1.116132,-0.028076172,-0.9135742,0.39916992,1585488293078,-5132797935209,0.06388979,1,1
1585488295334,NaN,1.0062411,-0.036621094,-0.9182129,0.39990234,1585488293158,-5132797935209,0.06388979,1,1
1585488295338,NaN,0.8554689,-0.033935547,-0.9099121,0.40063477,1585488293238,-5132797935209,0.06388979,1,1
1585488295342,NaN,0.7464741,-0.019042969,-0.9160156,0.3876953,1585488293318,-5132797935209,0.06388979,1,1
1585488295345,NaN,0.70418054,0.013427734,-0.94506836,0.30615234,1585488293398,-5132797935209,0.09245358,1,1
1585488295349,NaN,0.727251,-0.013427734,-0.9526367,0.27270508,1585488293478,-5132797935209,0.09245358,1,1
1585488295353,NaN,0.71968913,-0.017089844,-0.9379883,0.28979492,1585488293558,-5132797935209,0.09245358,1,1
1585488295356,NaN,0.61667544,0.005126953,-0.9321289,0.34716797,1585488293638,-5132797935209,0.09245358,1,1
1585488295361,NaN,0.45625305,0.034179688,-0.9230957,0.36914062,1585488293718,-5132797935209,0.09245358,1,1
1585488295365,NaN,0.2553887,-0.0043945312,-0.9211426,0.39697266,1585488293798,-5132797935209,0.09245358,1,1
1585488295368,NaN,0.05823016,-0.016601562,-0.8930664,0.41259766,1585488293878,-5132797935209,0.09245358,1,1
1585488295371,NaN,-0.039202202,-0.016113281,-0.90063477,0.40551758,1585488293958,-5132797935209,0.09245358,1,1
1585488295375,24.193548,-0.05649954,-0.0024414062,-0.8964844,0.40112305,1585488294038,-5132797935209,0.09245358,1,1
1585488295378,NaN,-0.055246223,0.009277344,-0.9003906,0.40478516,1585488294118,-5132797935209,0.09245358,1,1
1585488295381,NaN,-0.024410523,-0.006591797,-0.9152832,0.40283203,1585488294198,-5132797935209,0.09245358,1,1
1585488295386,NaN,-0.039369497,-0.015380859,-0.90405273,0.41186523,1585488294278,-5132797935209,0.09245358,1,1
1585488295390,NaN,-0.18663152,-0.0017089844,-0.9042969,0.40478516,1585488294358,-5132797935209,0.09245358,1,1
1585488295395,NaN,-0.42602465,-0.0031738281,-0.8984375,0.4206543,1585488294438,-5132797935209,0.09245358,1,1
1585488295405,NaN,-0.6218419,-0.0026855469,-0.89697266,0.4309082,1585488294518,-5132797935209,0.09245358,1,1
1585488295406,NaN,-0.6990312,-0.008056641,-0.890625,0.43481445,1585488294598,-5132797935209,0.09245358,1,1
1585488295410,NaN,-0.7104133,-0.009521484,-0.89208984,0.4362793,1585488294678,-5132797935209,0.09245358,1,1
1585488295414,NaN,-0.6812112,-0.020507812,-0.8864746,0.43945312,1585488294758,-5132797935209,0.09245358,1,1
1585488295417,NaN,-0.6236998,-0.01586914,-0.88793945,0.4399414,1585488294838,-5132797935209,0.09245358,1,1
1585488295422,NaN,-0.6296858,-0.021484375,-0.89208984,0.44726562,1585488294918,-5132797935209,0.09245358,1,1
1585488295425,NaN,-0.65994453,-0.021728516,-0.87890625,0.4465332,1585488294998,-5132797935209,0.09245358,1,1
1585488295427,NaN,-0.6767681,-0.01953125,-0.8869629,0.4411621,1585488295078,-5132797935209,0.09245358,1,1
1585488295432,NaN,-0.70444465,-0.022460938,-0.89868164,0.43652344,1585488295158,-5132797935209,0.09245358,1,1
1585488295441,NaN,-0.708088,-0.013916016,-0.8852539,0.43774414,1585488295238,-5132797935209,0.09245358,1,1
1585488295443,NaN,-0.6572108,-0.0029296875,-0.8886719,0.44604492,1585488295318,-5132797935209,0.09245358,1,1
1585488295446,NaN,-0.5425644,-0.009765625,-0.8857422,0.4387207,1585488295398,-5132797935209,0.09245358,1,1
1585488295450,NaN,-0.43190196,-0.0073242188,-0.88012695,0.43969727,1585488295478,-5132797935209,0.09245358,1,1
1585488295455,NaN,-0.35652372,-0.004638672,-0.8808594,0.43530273,1585488295558,-5132797935209,0.09245358,1,1
1585488297916,NaN,-0.29536244,-0.0014648438,-0.8833008,0.42651367,1585488295638,7117556001192,0.09245358,1,1
1585488297922,NaN,-0.24724068,-0.006591797,-0.89941406,0.43652344,1585488295718,7117556001192,0.09245358,1,1
1585488297928,NaN,-0.21771747,-0.021728516,-0.8984375,0.43701172,1585488295798,7117556001192,0.09245358,1,1
1585488297937,NaN,-0.18574405,-0.005126953,-0.88305664,0.4423828,1585488295878,7117556001192,0.09245358,1,1
1585488297944,NaN,-0.13975945,0.0021972656,-0.888916,0.43701172,1585488295958,7117556001192,0.06180279,1,1
1585488297950,NaN,-0.119928546,-0.0073242188,-0.88183594,0.4501953,1585488296038,7117556001192,0.06180279,1,1
1585488297954,NaN,-0.109695025,-0.0126953125,-0.8852539,0.45507812,1585488296118,7117556001192,0.06180279,1,1
1585488297958,NaN,-0.09565744,-0.0087890625,-0.87939453,0.45043945,1585488296198,7117556001192,0.047606796,1,1
1585488297965,NaN,-0.06530835,-0.007080078,-0.8823242,0.45263672,1585488296278,7117556001192,0.047606796,1,1
1585488297972,NaN,-0.064899705,-0.008300781,-0.8786621,0.4584961,1585488296358,7117556001192,0.034371845,1,1
1585488297977,NaN,-0.06600275,-0.012207031,-0.88256836,0.46020508,1585488296438,7117556001192,0.023260081,1,1
1585488297980,NaN,-0.08985009,-0.0014648438,-0.8696289,0.46728516,1585488296518,7117556001192,0.023260081,1,1
1585488297983,NaN,-0.11884955,-0.010498047,-0.8769531,0.46142578,1585488296598,7117556001192,0.023260081,1,1
1585488297986,NaN,-0.15255709,-0.012939453,-0.8781738,0.46728516,1585488296678,7117556001192,0.023260081,1,1
1585488297989,NaN,-0.1883341,-0.01928711,-0.87402344,0.4638672,1585488296758,7117556001192,0.023260081,1,1
1585488297992,NaN,-0.18851341,-0.013183594,-0.8828125,0.44848633,1585488296838,7117556001192,0.023260081,1,1
1585488297996,NaN,-0.2030928,-0.012451172,-0.8881836,0.45239258,1585488296918,7117556001192,0.023260081,1,1
1585488297999,NaN,-0.1876911,-0.0034179688,-0.8845215,0.44384766,1585488296998,7117556001192,0.023260081,1,1
1585488298003,NaN,-0.1542623,-0.013183594,-0.8955078,0.4423828,1585488297078,7117556001192,0.023260081,1,1
1585488298006,NaN,-0.13930069,-0.001953125,-0.8811035,0.44580078,1585488297158,7117556001192,0.023260081,1,1
1585488298009,NaN,-0.12136551,0.0026855469,-0.88427734,0.43481445,1585488297238,7117556001192,0.023260081,1,1
1585488298012,NaN,-0.08740136,-0.0017089844,-0.8864746,0.43774414,1585488297318,7117556001192,0.023260081,1,1
1585488298015,NaN,-0.053720403,-0.0061035156,-0.8847656,0.43188477,1585488297398,7117556001192,0.023260081,1,1
1585488298018,NaN,0.0052922643,-0.0029296875,-0.88964844,0.43554688,1585488297478,7117556001192,0.023260081,1,1
1585488298021,NaN,0.053098794,-0.011962891,-0.8972168,0.44213867,1585488297558,7117556001192,0.023260081,1,1
1585488298023,NaN,0.09579796,-2.4414062E-4,-0.88549805,0.44848633,1585488297638,7117556001192,0.023260081,1,1
1585488298027,NaN,0.13821428,-0.0031738281,-0.88793945,0.44799805,1585488297718,7117556001192,0.023260081,1,1
1585488298028,NaN,0.12848668,0.0061035156,-0.87475586,0.4560547,1585488297798,7117556001192,0.023260081,1,1
1585488298032,NaN,0.12756135,9.765625E-4,-0.8815918,0.45751953,1585488297878,7117556001192,0.023260081,1,1
1585488298035,NaN,0.10021987,0.0087890625,-0.87280273,0.46557617,1585488297958,7117556001192,0.023260081,1,1
1585488298038,NaN,0.05821325,7.324219E-4,-0.87841797,0.46948242,1585488298038,7117556001192,0.023260081,1,1
1585488298042,NaN,0.042806428,0.00390625,-0.8808594,0.46166992,1585488298118,7117556001192,0.023260081,1,1
1585488300497,NaN,0.0013034815,0.0036621094,-0.8720703,0.4699707,1585488298198,921165863883,0.023260081,1,1
1585488300518,NaN,-0.039964832,0.0043945312,-0.875,0.46435547,1585488298278,921165863883,0.023260081,1,1
1585488300525,NaN,-0.08924576,-0.00390625,-0.8742676,0.46655273,1585488298358,921165863883,0.023260081,1,1
1585488300529,NaN,-0.15093964,-0.00390625,-0.8815918,0.47509766,1585488298438,921165863883,0.018736899,1,1
1585488300531,NaN,-0.19304349,-0.0021972656,-0.8762207,0.45629883,1585488298518,921165863883,0.019625627,1,1
1585488300537,NaN,-0.21991277,0.0021972656,-0.8757324,0.46069336,1585488298598,921165863883,0.019625627,1,1
1585488300540,NaN,-0.2468714,7.324219E-4,-0.88427734,0.46362305,1585488298678,921165863883,0.019625627,1,1
1585488300543,NaN,-0.23215067,0.006591797,-0.8803711,0.45532227,1585488298758,921165863883,0.019625627,1,1
1585488300546,NaN,-0.21834145,-0.0021972656,-0.8815918,0.45166016,1585488298838,921165863883,0.019625627,1,1
1585488300551,NaN,-0.17519121,0.0048828125,-0.8835449,0.44360352,1585488298918,921165863883,0.019625627,1,1
1585488300556,NaN,-0.1306699,0.0024414062,-0.88183594,0.44848633,1585488298998,921165863883,0.019625627,1,1
1585488300559,NaN,-0.10186449,0.0053710938,-0.8791504,0.43774414,1585488299078,921165863883,0.019625627,1,1
1585488300562,NaN,-0.04397316,-2.4414062E-4,-0.87719727,0.43481445,1585488299158,921165863883,0.019625627,1,1
1585488300566,NaN,0.012492207,0.009765625,-0.89575195,0.42895508,1585488299238,921165863883,0.021881593,1,1
1585488300569,NaN,0.06608844,-0.0036621094,-0.89404297,0.44262695,1585488299318,921165863883,0.021881593,1,1
1585488300572,NaN,0.11485947,-0.0036621094,-0.8833008,0.45117188,1585488299398,921165863883,0.021881593,1,1
1585488300575,NaN,0.14742747,0.0014648438,-0.8894043,0.44506836,1585488299478,921165863883,0.021881593,1,1
1585488300578,NaN,0.17694408,0.0048828125,-0.8894043,0.4440918,1585488299558,921165863883,0.021881593,1,1
1585488300582,NaN,0.20854573,0.0031738281,-0.8898926,0.44091797,1585488299638,921165863883,0.021881593,1,1
1585488300586,NaN,0.21882498,0.0024414062,-0.8857422,0.4416504,1585488299718,921165863883,0.021881593,1,1
1585488300589,NaN,0.210958,-0.0014648438,-0.8803711,0.45483398,1585488299798,921165863883,0.021881593,1,1
1585488300593,NaN,0.18774593,-0.021484375,-0.8847656,0.4543457,1585488299878,921165863883,0.021881593,1,1
1585488300596,NaN,0.16701615,-0.02368164,-0.8791504,0.46044922,1585488299958,921165863883,0.021881593,1,1
1585488300600,NaN,0.13792132,-0.027832031,-0.87475586,0.46118164,1585488300038,921165863883,0.021881593,1,1
