local_ts,breathing_rate,breathing_signal,accel_x,accel_y,accel_z,bs_timestamp,rs_ts,activity_level,current_exercise,pred_exercise
1583769889048,NaN,-0.44350216,0.13183594,-0.87231445,0.4885254,1583769886535,-8412833608414,0.065132946,0,1
1583769889059,NaN,-0.37553093,0.09716797,-0.8701172,0.47680664,1583769886615,-8412833608414,0.065132946,0,1
1583769889063,NaN,-0.2370497,0.076660156,-0.87841797,0.46850586,1583769886695,-8412833608414,0.065132946,0,1
1583769889089,NaN,-0.10453858,0.05444336,-0.8312988,0.4609375,1583769886775,-8412833608414,0.065132946,0,1
1583769889091,NaN,0.054996923,0.091552734,-0.8894043,0.46191406,1583769886855,-8412833608414,0.068951465,0,1
1583769889092,NaN,0.23135807,0.13720703,-0.890625,0.45336914,1583769886935,-8412833608414,0.068951465,0,1
1583769889093,NaN,0.38272336,0.103515625,-0.86206055,0.46142578,1583769887015,-8412833608414,0.068951465,0,1
1583769889095,NaN,0.51918745,0.08959961,-0.86816406,0.46069336,1583769887095,-8412833608414,0.068951465,0,1
1583769889096,NaN,0.683836,0.07104492,-0.8796387,0.4650879,1583769887175,-8412833608414,0.068951465,0,1
1583769889138,NaN,0.83560604,0.10620117,-0.8791504,0.45166016,1583769887255,-8412833608414,0.068951465,0,1
1583769889140,NaN,0.9790469,0.12231445,-0.85839844,0.4560547,1583769887335,-8412833608414,0.068951465,0,1
1583769889141,NaN,1.0252889,0.12426758,-0.8803711,0.46533203,1583769887415,-8412833608414,0.068951465,0,1
1583769889142,NaN,0.9567633,0.103515625,-0.8671875,0.4729004,1583769887495,-8412833608414,0.068951465,0,1
1583769889143,NaN,0.8890932,0.10229492,-0.86938477,0.47265625,1583769887575,-8412833608414,0.068951465,0,1
1583769889145,NaN,0.814612,0.1105957,-0.8676758,0.45874023,1583769887655,-8412833608414,0.068951465,0,1
1583769889145,NaN,0.75558645,0.092285156,-0.8605957,0.48120117,1583769887735,-8412833608414,0.068951465,0,1
1583769889146,NaN,0.5924651,0.08691406,-0.86450195,0.5371094,1583769887815,-8412833608414,0.068951465,0,1
1583769889147,NaN,0.3774636,0.09741211,-0.8195801,0.5292969,1583769887895,-8412833608414,0.068951465,0,1
1583769889149,NaN,0.21429493,0.08691406,-0.83447266,0.5432129,1583769887975,-8412833608414,0.068951465,0,1
1583769889150,NaN,0.042328745,0.08300781,-0.81274414,0.56884766,1583769888055,-8412833608414,0.068951465,0,1
1583769889151,32.608696,-0.13447873,0.06933594,-0.80908203,0.5629883,1583769888135,-8412833608414,0.068951465,0,1
1583769889151,NaN,-0.34550437,0.06274414,-0.8010254,0.55737305,1583769888215,-8412833608414,0.068951465,0,1
1583769889152,NaN,-0.5303213,0.076171875,-0.8063965,0.54589844,1583769888295,-8412833608414,0.068951465,0,1
1583769889154,NaN,-0.661273,0.076171875,-0.8166504,0.5305176,1583769888375,-8412833608414,0.068951465,0,1
1583769889156,NaN,-0.7254824,0.08081055,-0.83984375,0.54785156,1583769888455,-8412833608414,0.068951465,0,1
1583769889157,NaN,-0.78948146,0.10058594,-0.83569336,0.54589844,1583769888535,-8412833608414,0.068951465,0,1
1583769889159,NaN,-0.87914115,0.10131836,-0.8273926,0.54418945,1583769888615,-8412833608414,0.068951465,0,1
1583769889161,NaN,-0.9405799,0.091796875,-0.8220215,0.5385742,1583769888695,-8412833608414,0.068951465,0,1
1583769889165,NaN,-0.87587374,0.09814453,-0.84399414,0.5241699,1583769888775,-8412833608414,0.068951465,0,1
1583769889168,NaN,-0.7583459,0.1171875,-0.8461914,0.5124512,1583769888855,-8412833608414,0.068951465,0,1
1583769889172,NaN,-0.6668093,0.099609375,-0.8352051,0.517334,1583769888935,-8412833608414,0.068951465,0,1
1583769889175,NaN,-0.5220037,0.1003418,-0.8540039,0.52124023,1583769889015,-8412833608414,0.068951465,0,1
1583769891422,NaN,-0.38484487,0.10498047,-0.82788086,0.5202637,1583769889095,3837520327986,0.068951465,0,1
1583769891428,NaN,-0.21652691,0.10131836,-0.8432617,0.5197754,1583769889175,3837520327986,0.068951465,0,1
1583769891433,NaN,-0.11281595,0.080322266,-0.8366699,0.55200195,1583769889255,3837520327986,0.068951465,0,1
1583769891437,NaN,-0.03504343,0.10058594,-0.8208008,0.5588379,1583769889335,3837520327986,0.068951465,0,1
1583769891445,NaN,0.025595406,0.083496094,-0.8232422,0.55029297,1583769889415,3837520327986,0.056301285,0,1
1583769891450,NaN,0.058524456,0.083496094,-0.81225586,0.5632324,1583769889495,3837520327986,0.056301285,0,1
1583769891454,NaN,0.09558668,0.07055664,-0.8071289,0.5686035,1583769889575,3837520327986,0.056301285,0,1
1583769891457,NaN,0.103467375,0.0690918,-0.78930664,0.5722656,1583769889655,3837520327986,0.056301285,0,1
1583769891461,NaN,0.036828708,0.064453125,-0.7890625,0.5673828,1583769889735,3837520327986,0.056301285,0,1
1583769891465,NaN,-0.055987116,0.07373047,-0.7988281,0.5576172,1583769889815,3837520327986,0.056301285,0,1
1583769891468,NaN,-0.11820555,0.083740234,-0.829834,0.5678711,1583769889895,3837520327986,0.056301285,0,1
1583769891471,NaN,-0.20317568,0.09057617,-0.8457031,0.56152344,1583769889975,3837520327986,0.056301285,0,1
1583769891475,NaN,-0.28699666,0.0715332,-0.7883301,0.53027344,1583769890055,3837520327986,0.06805045,0,1
1583769891478,NaN,-0.3499916,0.099365234,-0.859375,0.5410156,1583769890135,3837520327986,0.07705451,0,1
1583769891481,NaN,-0.33095577,0.09692383,-0.83862305,0.5197754,1583769890215,3837520327986,0.07705451,0,1
1583769891485,NaN,-0.30114868,0.09423828,-0.8305664,0.5239258,1583769890295,3837520327986,0.07705451,0,1
1583769891489,NaN,-0.26821113,0.087646484,-0.8486328,0.5263672,1583769890375,3837520327986,0.07705451,0,1
1583769891491,NaN,-0.21730709,0.08520508,-0.828125,0.5354004,1583769890455,3837520327986,0.07705451,0,1
1583769891494,NaN,-0.12205116,0.09741211,-0.8457031,0.5144043,1583769890535,3837520327986,0.07705451,0,1
1583769891497,NaN,-0.014389892,0.10229492,-0.83813477,0.5197754,1583769890615,3837520327986,0.07705451,0,1
1583769891501,NaN,0.109960385,0.10620117,-0.8444824,0.5270996,1583769890695,3837520327986,0.07705451,0,1
1583769891505,NaN,0.21052557,0.08691406,-0.84277344,0.53393555,1583769890775,3837520327986,0.07705451,0,1
1583769891508,NaN,0.27751106,0.09790039,-0.8234863,0.53149414,1583769890855,3837520327986,0.07705451,0,1
1583769891512,NaN,0.32745704,0.092285156,-0.8339844,0.5288086,1583769890935,3837520327986,0.07705451,0,1
1583769891515,NaN,0.39041424,0.09887695,-0.8408203,0.5332031,1583769891015,3837520327986,0.07705451,0,1
1583769891518,NaN,0.39617106,0.103271484,-0.8300781,0.53027344,1583769891095,3837520327986,0.07705451,0,1
1583769891521,NaN,0.3573688,0.092285156,-0.83203125,0.5305176,1583769891175,3837520327986,0.07705451,0,1
1583769891524,NaN,0.34312177,0.099853516,-0.8430176,0.5202637,1583769891255,3837520327986,0.07705451,0,1
1583769891527,NaN,0.30466756,0.0859375,-0.8354492,0.53637695,1583769891335,3837520327986,0.07705451,0,1
1583769891530,NaN,0.25341943,0.06982422,-0.8251953,0.56591797,1583769891415,3837520327986,0.07705451,0,1
1583769891534,NaN,0.13390626,0.08544922,-0.8105469,0.5800781,1583769891495,3837520327986,0.07705451,0,1
1583769891539,NaN,0.0073460094,0.068359375,-0.79956055,0.5727539,1583769891575,3837520327986,0.07705451,0,1
1583769894006,NaN,-0.13565183,0.05859375,-0.798584,0.59643555,1583769891655,-2359151284298,0.07705451,0,1
1583769894014,16.666666,-0.23438017,0.064208984,-0.78808594,0.58496094,1583769891735,-2359151284298,0.07705451,0,1
1583769894022,NaN,-0.32331306,0.057617188,-0.7910156,0.5852051,1583769891815,-2359151284298,0.07705451,0,1
1583769894027,NaN,-0.4069208,0.05419922,-0.7807617,0.5769043,1583769891895,-2359151284298,0.07705451,0,1
1583769894033,NaN,-0.49307704,0.05078125,-0.79003906,0.56396484,1583769891975,-2359151284298,0.07705451,0,1
1583769894037,NaN,-0.5427198,0.07324219,-0.8249512,0.5908203,1583769892055,-2359151284298,0.07705451,0,1
1583769894040,NaN,-0.57193,0.08203125,-0.81225586,0.5756836,1583769892135,-2359151284298,0.07705451,0,1
1583769894043,NaN,-0.63337404,0.08251953,-0.810791,0.5722656,1583769892215,-2359151284298,0.07705451,0,1
1583769894049,NaN,-0.64699477,0.07006836,-0.8149414,0.5539551,1583769892295,-2359151284298,0.07705451,0,1
1583769894053,NaN,-0.6079642,0.08276367,-0.82006836,0.55078125,1583769892375,-2359151284298,0.07705451,0,1
1583769894056,NaN,-0.5113593,0.091796875,-0.828125,0.5366211,1583769892455,-2359151284298,0.07705451,0,1
1583769894060,NaN,-0.41192874,0.09277344,-0.8244629,0.54345703,1583769892535,-2359151284298,0.07705451,0,1
1583769894064,NaN,-0.27488676,0.087646484,-0.8310547,0.54467773,1583769892615,-2359151284298,0.07705451,0,1
1583769894068,NaN,-0.16724795,0.0859375,-0.8210449,0.5473633,1583769892695,-2359151284298,0.049442545,0,1
1583769894069,NaN,-0.048709866,0.08959961,-0.8276367,0.53881836,1583769892775,-2359151284298,0.049442545,0,1
1583769894072,NaN,0.06686825,0.08178711,-0.8234863,0.5422363,1583769892855,-2359151284298,0.049442545,0,1
1583769894076,NaN,0.15093653,0.08154297,-0.8222656,0.56152344,1583769892935,-2359151284298,0.049442545,0,1
1583769894079,NaN,0.20227827,0.08227539,-0.8117676,0.58862305,1583769893015,-2359151284298,0.049442545,0,1
1583769894083,NaN,0.24041744,0.08984375,-0.8000488,0.5761719,1583769893095,-2359151284298,0.049442545,0,1
1583769894086,NaN,0.26048002,0.052734375,-0.7871094,0.5908203,1583769893175,-2359151284298,0.049442545,0,1
1583769894090,NaN,0.25395268,0.057373047,-0.7915039,0.58203125,1583769893255,-2359151284298,0.049442545,0,1
1583769894093,NaN,0.1982386,0.05810547,-0.7873535,0.5839844,1583769893335,-2359151284298,0.049442545,0,1
1583769894096,NaN,0.116995774,0.06713867,-0.7878418,0.5661621,1583769893415,-2359151284298,0.049442545,0,1
1583769894098,NaN,0.045054536,0.06933594,-0.79663086,0.5654297,1583769893495,-2359151284298,0.049442545,0,1
1583769894102,NaN,-0.039727096,0.087646484,-0.82373047,0.58374023,1583769893575,-2359151284298,0.049442545,0,1
1583769894105,NaN,-0.106467046,0.0871582,-0.8132324,0.57666016,1583769893655,-2359151284298,0.049442545,0,1
1583769894107,30.0,-0.17497528,0.087402344,-0.8208008,0.55249023,1583769893735,-2359151284298,0.049442545,0,1
1583769894111,NaN,-0.23663913,0.07324219,-0.8198242,0.5541992,1583769893815,-2359151284298,0.049442545,0,1
1583769894113,NaN,-0.25392237,0.091308594,-0.8215332,0.55322266,1583769893895,-2359151284298,0.049442545,0,1
1583769894117,NaN,-0.21082012,0.09667969,-0.8273926,0.5397949,1583769893975,-2359151284298,0.049442545,0,1
1583769894119,NaN,-0.16922541,0.104003906,-0.8317871,0.54296875,1583769894055,-2359151284298,0.049442545,0,1
1583769894122,NaN,-0.0629484,0.107910156,-0.82958984,0.5336914,1583769894135,-2359151284298,0.049442545,0,1
1583769896588,NaN,0.027029296,0.09448242,-0.8305664,0.5373535,1583769894215,-8555541421606,0.049442545,0,1
1583769896592,NaN,0.14190894,0.10107422,-0.83740234,0.5283203,1583769894295,-8555541421606,0.049442545,0,1
1583769896600,NaN,0.23137486,0.08618164,-0.82421875,0.52905273,1583769894375,-8555541421606,0.049442545,0,1
1583769896607,NaN,0.27925822,0.07421875,-0.8203125,0.56103516,1583769894455,-8555541421606,0.049442545,0,1
1583769896613,NaN,0.2975036,0.08642578,-0.8022461,0.58496094,1583769894535,-8555541421606,0.049442545,0,1
1583769896617,NaN,0.31442133,0.08984375,-0.81152344,0.5839844,1583769894615,-8555541421606,0.04194177,0,1
1583769896622,NaN,0.27313998,0.061279297,-0.7919922,0.6032715,1583769894695,-8555541421606,0.04194177,0,1
1583769896625,NaN,0.23916627,0.05883789,-0.7817383,0.5942383,1583769894775,-8555541421606,0.04194177,0,1
1583769896628,NaN,0.1742903,0.060302734,-0.77978516,0.5974121,1583769894855,-8555541421606,0.04194177,0,1
1583769896632,NaN,0.07671218,0.068603516,-0.76708984,0.57128906,1583769894935,-8555541421606,0.04194177,0,1
1583769896635,NaN,-0.024482973,0.055664062,-0.78686523,0.5834961,1583769895015,-8555541421606,0.04194177,0,1
1583769896639,44.117645,-0.1231178,0.08300781,-0.8461914,0.5690918,1583769895095,-8555541421606,0.06689364,0,1
1583769896643,NaN,-0.1867281,0.11328125,-0.8232422,0.55200195,1583769895175,-8555541421606,0.06689364,0,1
1583769896646,NaN,-0.29107457,0.08691406,-0.8063965,0.5517578,1583769895255,-8555541421606,0.06689364,0,1
1583769896649,NaN,-0.3404932,0.09814453,-0.82958984,0.54589844,1583769895335,-8555541421606,0.06689364,0,1
1583769896652,NaN,-0.34592605,0.08691406,-0.8198242,0.55444336,1583769895415,-8555541421606,0.06689364,0,1
1583769896655,NaN,-0.2954001,0.09765625,-0.8210449,0.5395508,1583769895495,-8555541421606,0.06689364,0,1
1583769896658,NaN,-0.26633847,0.0949707,-0.8210449,0.5546875,1583769895575,-8555541421606,0.06689364,0,1
1583769896661,NaN,-0.16616772,0.080566406,-0.8137207,0.5554199,1583769895655,-8555541421606,0.06689364,0,1
1583769896664,NaN,-0.06554269,0.09301758,-0.8208008,0.55322266,1583769895735,-8555541421606,0.06689364,0,1
1583769896667,NaN,0.070111446,0.11035156,-0.83154297,0.5341797,1583769895815,-8555541421606,0.06689364,0,1
1583769896669,NaN,0.18222396,0.11230469,-0.82836914,0.54418945,1583769895895,-8555541421606,0.06689364,0,1
1583769896672,NaN,0.30795634,0.09863281,-0.8322754,0.53564453,1583769895975,-8555541421606,0.06689364,0,1
1583769896675,NaN,0.35011932,0.09472656,-0.83154297,0.5395508,1583769896055,-8555541421606,0.06689364,0,1
1583769896678,NaN,0.36356512,0.09472656,-0.8249512,0.5319824,1583769896135,-8555541421606,0.06689364,0,1
1583769896681,NaN,0.3902818,0.06640625,-0.81689453,0.55737305,1583769896215,-8555541421606,0.06689364,0,1
1583769896684,NaN,0.35860527,0.09814453,-0.8112793,0.5891113,1583769896295,-8555541421606,0.06689364,0,1
1583769896687,NaN,0.3083234,0.091552734,-0.7824707,0.5969238,1583769896375,-8555541421606,0.06689364,0,1
1583769896689,NaN,0.20034735,0.07104492,-0.7895508,0.6088867,1583769896455,-8555541421606,0.06689364,0,1
1583769896693,NaN,0.102826245,0.055908203,-0.77319336,0.6166992,1583769896535,-8555541421606,0.06689364,0,1
1583769896695,NaN,4.1802227E-4,0.061279297,-0.7783203,0.6086426,1583769896615,-8555541421606,0.06689364,0,1
1583769896698,NaN,-0.100752436,0.06298828,-0.7746582,0.58032227,1583769896695,-8555541421606,0.06689364,0,1
1583769899172,35.714287,-0.2543791,0.05859375,-0.76293945,0.57788086,1583769896775,3694812514794,0.06689364,0,1
1583769899176,NaN,-0.35213074,0.064941406,-0.82592773,0.5817871,1583769896855,3694812514794,0.06689364,0,1
1583769899180,NaN,-0.46062294,0.07104492,-0.80737305,0.57421875,1583769896935,3694812514794,0.06689364,0,1
1583769899185,NaN,-0.5028996,0.099121094,-0.81762695,0.5708008,1583769897015,3694812514794,0.06689364,0,1
1583769899189,NaN,-0.53890806,0.08105469,-0.81347656,0.5612793,1583769897095,3694812514794,0.06689364,0,1
1583769899194,NaN,-0.51800275,0.099121094,-0.82177734,0.5541992,1583769897175,3694812514794,0.06689364,0,1
1583769899196,NaN,-0.4533224,0.091308594,-0.82055664,0.5473633,1583769897255,3694812514794,0.06689364,0,1
1583769899201,NaN,-0.348354,0.095947266,-0.8317871,0.5349121,1583769897335,3694812514794,0.06689364,0,1
1583769899204,NaN,-0.21785142,0.0871582,-0.8220215,0.5407715,1583769897415,3694812514794,0.06689364,0,1
1583769899208,NaN,-0.061065715,0.0871582,-0.83203125,0.5419922,1583769897495,3694812514794,0.06689364,0,1
1583769899212,NaN,0.0652106,0.09301758,-0.82666016,0.5476074,1583769897575,3694812514794,0.06689364,0,1
1583769899215,NaN,0.17062251,0.08935547,-0.8251953,0.5358887,1583769897655,3694812514794,0.06342772,0,1
1583769899219,NaN,0.301427,0.08618164,-0.828125,0.5461426,1583769897735,3694812514794,0.06342772,0,1
1583769899222,NaN,0.360782,0.08300781,-0.8100586,0.5517578,1583769897815,3694812514794,0.06342772,0,1
1583769899226,NaN,0.41540828,0.08520508,-0.82299805,0.5751953,1583769897895,3694812514794,0.06342772,0,1
1583769899229,NaN,0.44027284,0.11376953,-0.81225586,0.5739746,1583769897975,3694812514794,0.06342772,0,1
1583769899232,NaN,0.43460402,0.07348633,-0.78564453,0.59155273,1583769898055,3694812514794,0.06342772,0,1
1583769899235,NaN,0.37308288,0.07397461,-0.79711914,0.5979004,1583769898135,3694812514794,0.06342772,0,1
1583769899238,NaN,0.2714928,0.049804688,-0.7746582,0.609375,1583769898215,3694812514794,0.06342772,0,1
1583769899242,NaN,0.1174094,0.046142578,-0.77368164,0.6125488,1583769898295,3694812514794,0.06342772,0,1
1583769899246,NaN,-0.028638428,0.03515625,-0.779541,0.61450195,1583769898375,3694812514794,0.06342772,0,1
1583769899248,35.714287,-0.17976809,0.05053711,-0.7766113,0.5908203,1583769898455,3694812514794,0.06342772,0,1
1583769899251,NaN,-0.29603678,0.064453125,-0.7661133,0.5632324,1583769898535,3694812514794,0.06342772,0,1
1583769899255,NaN,-0.3994242,0.064697266,-0.8232422,0.5917969,1583769898615,3694812514794,0.06387252,0,1
1583769899257,NaN,-0.4864733,0.080322266,-0.8234863,0.5878906,1583769898695,3694812514794,0.06387252,0,1
1583769899260,NaN,-0.5145703,0.09399414,-0.80444336,0.56811523,1583769898775,3694812514794,0.06387252,0,1
1583769899263,NaN,-0.5143395,0.09326172,-0.8156738,0.55810547,1583769898855,3694812514794,0.06387252,0,1
1583769899266,NaN,-0.5097062,0.0859375,-0.8210449,0.55810547,1583769898935,3694812514794,0.06387252,0,1
1583769899269,NaN,-0.43319622,0.08251953,-0.81396484,0.5488281,1583769899015,3694812514794,0.06387252,0,1
1583769899271,NaN,-0.33384886,0.095214844,-0.83203125,0.5505371,1583769899095,3694812514794,0.06387252,0,1
1583769899275,NaN,-0.18151641,0.096191406,-0.8256836,0.5437012,1583769899175,3694812514794,0.06387252,0,1
1583769899277,NaN,-0.01080888,0.08691406,-0.8220215,0.54174805,1583769899255,3694812514794,0.06387252,0,1
1583769901755,NaN,0.1545095,0.09472656,-0.82543945,0.54711914,1583769899335,-2501859097490,0.06387252,0,1
1583769901774,NaN,0.28255144,0.08227539,-0.8220215,0.54248047,1583769899415,-2501859097490,0.06387252,0,1
1583769901778,NaN,0.39623892,0.09423828,-0.8449707,0.52368164,1583769899495,-2501859097490,0.06387252,0,1
1583769901782,NaN,0.48386478,0.09423828,-0.82177734,0.5402832,1583769899575,-2501859097490,0.06387252,0,1
1583769901786,NaN,0.51673883,0.10205078,-0.79711914,0.57910156,1583769899655,-2501859097490,0.06387252,0,1
1583769901791,NaN,0.51042897,0.07714844,-0.8071289,0.58496094,1583769899735,-2501859097490,0.06387252,0,1
1583769901795,NaN,0.4612105,0.05859375,-0.81152344,0.5974121,1583769899815,-2501859097490,0.06387252,0,1
1583769901798,NaN,0.43097472,0.07006836,-0.7956543,0.5732422,1583769899895,-2501859097490,0.06387252,0,1
1583769901802,NaN,0.34527507,0.053710938,-0.7805176,0.57910156,1583769899975,-2501859097490,0.06387252,0,1
1583769901805,NaN,0.2588292,0.068603516,-0.79418945,0.5649414,1583769900055,-2501859097490,0.06387252,0,1
1583769901808,NaN,0.1554733,0.09350586,-0.8125,0.57055664,1583769900135,-2501859097490,0.06387252,0,1
1583769901812,NaN,0.0807896,0.072509766,-0.8322754,0.5332031,1583769900215,-2501859097490,0.06387252,0,1
1583769901815,NaN,0.028145194,0.091796875,-0.8527832,0.51708984,1583769900295,-2501859097490,0.06387252,0,1
1583769901820,NaN,0.0030222659,0.11230469,-0.8508301,0.52124023,1583769900375,-2501859097490,0.06387252,0,1
1583769901824,NaN,-0.04537512,0.095458984,-0.83813477,0.49023438,1583769900455,-2501859097490,0.06387252,0,1
1583769901828,NaN,-0.04067038,0.1171875,-0.85375977,0.49926758,1583769900535,-2501859097490,0.06387252,0,1
1583769901831,NaN,0.033864785,0.11791992,-0.8461914,0.5007324,1583769900615,-2501859097490,0.06387252,0,1
1583769901835,NaN,0.10642741,0.104003906,-0.8449707,0.53515625,1583769900695,-2501859097490,0.06387252,0,1
1583769901837,NaN,0.22200106,0.092041016,-0.84350586,0.51782227,1583769900775,-2501859097490,0.06387252,0,1
1583769901840,NaN,0.33520707,0.11987305,-0.85498047,0.5012207,1583769900855,-2501859097490,0.06387252,0,1
1583769901843,NaN,0.47245458,0.12963867,-0.83569336,0.50756836,1583769900935,-2501859097490,0.06387252,0,1
1583769901845,NaN,0.56390387,0.103271484,-0.8322754,0.51782227,1583769901015,-2501859097490,0.06387252,0,1
1583769901849,NaN,0.63258994,0.10083008,-0.85058594,0.5288086,1583769901095,-2501859097490,0.06387252,0,1
1583769901852,NaN,0.65421206,0.12182617,-0.83203125,0.51782227,1583769901175,-2501859097490,0.047193084,0,1
1583769901856,NaN,0.6284358,0.122558594,-0.8371582,0.51708984,1583769901255,-2501859097490,0.047193084,0,1
1583769901858,NaN,0.58109134,0.10522461,-0.84033203,0.5292969,1583769901335,-2501859097490,0.047193084,0,1
1583769901861,NaN,0.5401682,0.103759766,-0.83374023,0.5234375,1583769901415,-2501859097490,0.047193084,0,1
1583769901863,NaN,0.43591297,0.091308594,-0.8232422,0.55371094,1583769901495,-2501859097490,0.047193084,0,1
1583769901866,NaN,0.3164208,0.119384766,-0.8239746,0.5522461,1583769901575,-2501859097490,0.047193084,0,1
1583769901870,NaN,0.21647646,0.09448242,-0.81274414,0.5761719,1583769901655,-2501859097490,0.047193084,0,1
1583769901872,NaN,0.083824314,0.09887695,-0.8034668,0.58154297,1583769901735,-2501859097490,0.047193084,0,1
1583769901882,NaN,-0.108706556,0.064453125,-0.7832031,0.58935547,1583769901815,-2501859097490,0.047193084,0,1
1583769904339,17.44186,-0.30066326,0.061279297,-0.7902832,0.5942383,1583769901895,-8698249234798,0.047193084,0,1
1583769904345,NaN,-0.43518913,0.068115234,-0.7915039,0.59228516,1583769901975,-8698249234798,0.047193084,0,1
1583769904352,NaN,-0.53884447,0.07519531,-0.7775879,0.5600586,1583769902055,-8698249234798,0.047193084,0,1
1583769904358,NaN,-0.6270873,0.07739258,-0.7932129,0.5649414,1583769902135,-8698249234798,0.047193084,0,1
1583769904364,NaN,-0.6666918,0.08251953,-0.8508301,0.55981445,1583769902215,-8698249234798,0.058071606,0,1
1583769904370,NaN,-0.6606934,0.10107422,-0.84521484,0.5390625,1583769902295,-8698249234798,0.058071606,0,1
1583769904375,NaN,-0.63070154,0.123535156,-0.82910156,0.517334,1583769902375,-8698249234798,0.058071606,0,1
1583769904379,NaN,-0.5395527,0.12158203,-0.8334961,0.5227051,1583769902455,-8698249234798,0.058071606,0,1
1583769904383,NaN,-0.48227274,0.09277344,-0.8395996,0.5263672,1583769902535,-8698249234798,0.058071606,0,1
1583769904389,NaN,-0.3751113,0.10668945,-0.85302734,0.5097656,1583769902615,-8698249234798,0.058071606,0,1
1583769904393,NaN,-0.25159687,0.118896484,-0.8510742,0.5185547,1583769902695,-8698249234798,0.058071606,0,1
1583769904396,NaN,-0.09601746,0.10058594,-0.8186035,0.55200195,1583769902775,-8698249234798,0.058071606,0,1
1583769904400,NaN,0.0340824,0.08642578,-0.8154297,0.57299805,1583769902855,-8698249234798,0.058071606,0,1
1583769904403,NaN,0.12481314,0.076660156,-0.79785156,0.57958984,1583769902935,-8698249234798,0.058071606,0,1
1583769904407,NaN,0.17114691,0.07006836,-0.79541016,0.5871582,1583769903015,-8698249234798,0.058071606,0,1
1583769904410,NaN,0.21657814,0.07006836,-0.79467773,0.5866699,1583769903095,-8698249234798,0.058071606,0,1
1583769904413,NaN,0.22265695,0.076416016,-0.79785156,0.56884766,1583769903175,-8698249234798,0.058071606,0,1
1583769904417,NaN,0.18181932,0.083740234,-0.7770996,0.55908203,1583769903255,-8698249234798,0.058071606,0,1
1583769904420,NaN,0.14305109,0.083496094,-0.8581543,0.5612793,1583769903335,-8698249234798,0.08108483,0,1
1583769904423,NaN,0.07742444,0.099609375,-0.8137207,0.546875,1583769903415,-8698249234798,0.08108483,0,1
1583769904425,NaN,0.0040772012,0.08105469,-0.80688477,0.5895996,1583769903495,-8698249234798,0.08108483,0,1
1583769904428,NaN,-0.11701518,0.0949707,-0.8071289,0.5617676,1583769903575,-8698249234798,0.08108483,0,1
1583769904431,34.090908,-0.25154695,0.104003906,-0.7788086,0.5671387,1583769903655,-8698249234798,0.08108483,0,1
1583769904434,NaN,-0.31682652,0.1394043,-0.82006836,0.59399414,1583769903735,-8698249234798,0.08108483,0,1
1583769904437,NaN,-0.33247283,0.107177734,-0.81225586,0.5554199,1583769903815,-8698249234798,0.08108483,0,1
1583769904440,NaN,-0.33845332,0.07910156,-0.795166,0.5671387,1583769903895,-8698249234798,0.08108483,0,1
1583769904443,NaN,-0.33617297,0.053710938,-0.81396484,0.6069336,1583769903975,-8698249234798,0.08108483,0,1
1583769904446,NaN,-0.34143004,0.056152344,-0.7753906,0.60009766,1583769904055,-8698249234798,0.08108483,0,1
1583769904449,NaN,-0.3589222,0.07397461,-0.7626953,0.6164551,1583769904135,-8698249234798,0.08108483,0,1
1583769904452,NaN,-0.35661486,0.05810547,-0.7753906,0.61376953,1583769904215,-8698249234798,0.08108483,0,1
1583769904454,NaN,-0.39843974,0.061767578,-0.7590332,0.59521484,1583769904295,-8698249234798,0.08108483,0,1
1583769904458,NaN,-0.42636323,0.03125,-0.81103516,0.6027832,1583769904375,-8698249234798,0.08108483,0,1
1583769906923,NaN,-0.3769,0.04663086,-0.79663086,0.579834,1583769904455,3552104701602,0.08108483,0,1
1583769906928,NaN,-0.32681513,0.0390625,-0.8273926,0.5595703,1583769904535,3552104701602,0.08108483,0,1
1583769906933,NaN,-0.2952157,0.020751953,-0.78393555,0.5847168,1583769904615,3552104701602,0.08108483,0,1
1583769906937,NaN,-0.365899,-0.011230469,-0.76538086,0.6105957,1583769904695,3552104701602,0.08108483,0,1
1583769906944,NaN,-0.49397185,-0.016357422,-0.7661133,0.6323242,1583769904775,3552104701602,0.08108483,0,1
1583769906950,NaN,-0.6249139,-0.095458984,-0.7368164,0.6220703,1583769904855,3552104701602,0.084973566,0,1
1583769906953,NaN,-0.7020152,-0.075683594,-0.78271484,0.6479492,1583769904935,3552104701602,0.084973566,0,1
1583769906956,NaN,-0.6927131,-0.036621094,-0.7841797,0.5710449,1583769905015,3552104701602,0.08626874,0,1
1583769906959,NaN,-0.6875023,-0.1640625,-0.7878418,0.5734863,1583769905095,3552104701602,0.12751739,0,1
1583769906962,NaN,-0.6507825,-0.19262695,-0.82250977,0.54052734,1583769905175,3552104701602,0.12751739,0,1
1583769906965,NaN,-0.5595775,-0.12963867,-0.8178711,0.5275879,1583769905255,3552104701602,0.12751739,0,1
1583769906969,NaN,-0.46627924,-0.15307617,-0.85424805,0.51220703,1583769905335,3552104701602,0.12751739,0,1
1583769906972,NaN,-0.44104052,-0.17089844,-0.83081055,0.5085449,1583769905415,3552104701602,0.12751739,0,1
1583769906976,NaN,-0.43632945,-0.17285156,-0.8479004,0.51782227,1583769905495,3552104701602,0.12751739,0,1
1583769906980,NaN,-0.32695857,-0.19384766,-0.8605957,0.47802734,1583769905575,3552104701602,0.12751739,0,1
1583769906985,NaN,-0.11971245,-0.19360352,-0.8569336,0.45825195,1583769905655,3552104701602,0.12751739,0,1
1583769906989,NaN,0.13580142,-0.19189453,-0.8588867,0.45703125,1583769905735,3552104701602,0.12751739,0,1
1583769906991,NaN,0.4247075,-0.2055664,-0.8605957,0.4482422,1583769905815,3552104701602,0.12751739,0,1
1583769906994,NaN,0.68483335,-0.22558594,-0.8696289,0.44091797,1583769905895,3552104701602,0.12751739,0,1
1583769906997,NaN,0.8183239,-0.20776367,-0.86743164,0.4399414,1583769905975,3552104701602,0.12751739,0,1
1583769907000,NaN,0.9883351,-0.20019531,-0.8630371,0.43408203,1583769906055,3552104701602,0.12751739,0,1
1583769907003,NaN,1.0811652,-0.21459961,-0.87280273,0.44848633,1583769906135,3552104701602,0.12751739,0,1
1583769907007,NaN,1.1361419,-0.20410156,-0.85961914,0.44677734,1583769906215,3552104701602,0.12751739,0,1
1583769907009,NaN,1.1461817,-0.19506836,-0.85791016,0.45288086,1583769906295,3552104701602,0.12751739,0,1
1583769907012,NaN,1.1950275,-0.17358398,-0.87231445,0.44067383,1583769906375,3552104701602,0.12751739,0,1
1583769907015,NaN,1.2495049,-0.15625,-0.86816406,0.4560547,1583769906455,3552104701602,0.12751739,0,1
1583769907018,NaN,1.201302,-0.17333984,-0.88500977,0.45532227,1583769906535,3552104701602,0.12751739,0,1
1583769907021,NaN,1.098117,-0.15454102,-0.8652344,0.43701172,1583769906615,3552104701602,0.12751739,0,1
1583769907023,NaN,0.9719219,-0.14697266,-0.8647461,0.43603516,1583769906695,3552104701602,0.12751739,0,1
1583769907026,NaN,0.8154841,-0.1616211,-0.8769531,0.44458008,1583769906775,3552104701602,0.12751739,0,1
1583769907030,NaN,0.64132625,-0.15209961,-0.873291,0.44458008,1583769906855,3552104701602,0.12751739,0,1
1583769907032,NaN,0.51211077,-0.15405273,-0.86572266,0.4489746,1583769906935,3552104701602,0.12751739,0,1
1583769909507,NaN,0.37774196,-0.1472168,-0.8745117,0.44628906,1583769907015,-2644566910682,0.12751739,0,1
1583769909514,NaN,0.29128483,-0.14868164,-0.8718262,0.44628906,1583769907095,-2644566910682,0.12751739,0,1
1583769909520,NaN,0.22266708,-0.15185547,-0.87280273,0.44360352,1583769907175,-2644566910682,0.12751739,0,1
1583769909539,NaN,0.19040759,-0.14672852,-0.8742676,0.44311523,1583769907255,-2644566910682,0.12751739,0,1
1583769909540,NaN,0.12730613,-0.14086914,-0.8762207,0.43920898,1583769907335,-2644566910682,0.12751739,0,1
1583769909541,NaN,0.09227786,-0.14868164,-0.87841797,0.4375,1583769907415,-2644566910682,0.12751739,0,1
1583769909542,NaN,0.08284926,-0.14648438,-0.88378906,0.43188477,1583769907495,-2644566910682,0.12751739,0,1
1583769909543,NaN,0.07395353,-0.14526367,-0.88134766,0.43139648,1583769907575,-2644566910682,0.12751739,0,1
1583769909544,NaN,0.06014913,-0.14111328,-0.87768555,0.43676758,1583769907655,-2644566910682,0.06447069,0,1
1583769909545,NaN,0.056511387,-0.15209961,-0.8820801,0.43920898,1583769907735,-2644566910682,0.06447069,0,1
1583769909549,NaN,0.062849864,-0.14916992,-0.8762207,0.43920898,1583769907815,-2644566910682,0.04675086,0,1
1583769909552,NaN,0.08391624,-0.15429688,-0.8894043,0.4428711,1583769907895,-2644566910682,0.04675086,0,1
1583769909555,NaN,0.07661502,-0.14086914,-0.86694336,0.45996094,1583769907975,-2644566910682,0.04675086,0,1
1583769909559,NaN,0.0584016,-0.1430664,-0.85595703,0.46411133,1583769908055,-2644566910682,0.04675086,0,1
1583769909563,NaN,0.013463614,-0.15649414,-0.86035156,0.49072266,1583769908135,-2644566910682,0.03285937,0,1
1583769909567,NaN,-0.036968175,-0.14086914,-0.8461914,0.48046875,1583769908215,-2644566910682,0.03285937,0,1
1583769909572,NaN,-0.10129874,-0.15332031,-0.8425293,0.5073242,1583769908295,-2644566910682,0.03285937,0,1
1583769909574,12.711864,-0.17682594,-0.15625,-0.8388672,0.4963379,1583769908375,-2644566910682,0.03285937,0,1
1583769909577,NaN,-0.28319532,-0.11791992,-0.81347656,0.51538086,1583769908455,-2644566910682,0.04976458,0,1
1583769909581,NaN,-0.3589426,-0.1472168,-0.8222656,0.48950195,1583769908535,-2644566910682,0.04976458,0,1
1583769909583,NaN,-0.42924163,-0.140625,-0.8745117,0.5253906,1583769908615,-2644566910682,0.06372678,0,1
1583769909586,NaN,-0.49414754,-0.109375,-0.84033203,0.4934082,1583769908695,-2644566910682,0.06372678,0,1
1583769909590,NaN,-0.562547,-0.09863281,-0.85424805,0.5085449,1583769908775,-2644566910682,0.06372678,0,1
1583769909593,NaN,-0.64897937,-0.08618164,-0.8442383,0.5097656,1583769908855,-2644566910682,0.06372678,0,1
1583769909596,NaN,-0.6642191,-0.09741211,-0.8671875,0.4934082,1583769908935,-2644566910682,0.06372678,0,1
1583769909599,NaN,-0.68301326,-0.084472656,-0.8442383,0.501709,1583769909015,-2644566910682,0.06372678,0,1
1583769909602,NaN,-0.6727331,-0.05517578,-0.85253906,0.51000977,1583769909095,-2644566910682,0.06372678,0,1
1583769909605,NaN,-0.65426457,-0.06298828,-0.86499023,0.5053711,1583769909175,-2644566910682,0.06372678,0,1
1583769909607,NaN,-0.60733527,-0.07055664,-0.8474121,0.5161133,1583769909255,-2644566910682,0.06372678,0,1
1583769909610,NaN,-0.5913392,-0.07910156,-0.8149414,0.5253906,1583769909335,-2644566910682,0.06372678,0,1
1583769909613,NaN,-0.53776973,-0.064941406,-0.81469727,0.5551758,1583769909415,-2644566910682,0.06372678,0,1
1583769909617,NaN,-0.55818325,-0.12402344,-0.7832031,0.5827637,1583769909495,-2644566910682,0.07241312,0,1
1583769912091,NaN,-0.53391546,-0.09472656,-0.8288574,0.54589844,1583769909575,-8840957047991,0.07241312,0,1
1583769912094,NaN,-0.5111415,-0.051757812,-0.83862305,0.5283203,1583769909655,-8840957047991,0.07241312,0,1
1583769912098,NaN,-0.44460014,-0.0107421875,-0.8227539,0.46142578,1583769909735,-8840957047991,0.08005616,0,1
1583769912102,NaN,-0.3287664,-0.051513672,-0.86816406,0.4543457,1583769909815,-8840957047991,0.08005616,0,1
1583769912105,NaN,-0.25362954,0.018798828,-0.91967773,0.4309082,1583769909895,-8840957047991,0.09025975,0,1
1583769912110,NaN,-0.1551603,0.041992188,-0.9367676,0.4440918,1583769909975,-8840957047991,0.09025975,0,1
1583769912113,NaN,-0.04431386,0.018554688,-0.86083984,0.38598633,1583769910055,-8840957047991,0.09844076,0,1
1583769912116,NaN,0.03300723,0.0126953125,-0.91967773,0.44262695,1583769910135,-8840957047991,0.09844076,0,1
1583769912121,NaN,0.13150536,0.022216797,-0.90844727,0.41992188,1583769910215,-8840957047991,0.09844076,0,1
1583769912124,NaN,0.26789632,0.022460938,-0.8835449,0.41796875,1583769910295,-8840957047991,0.09844076,0,1
1583769912128,NaN,0.43511358,0.03881836,-0.90478516,0.4116211,1583769910375,-8840957047991,0.09844076,0,1
1583769912131,NaN,0.6735897,0.036865234,-0.8913574,0.41674805,1583769910455,-8840957047991,0.09844076,0,1
1583769912136,NaN,0.82091856,0.04345703,-0.90185547,0.43017578,1583769910535,-8840957047991,0.09844076,0,1
1583769912140,NaN,0.9554305,0.030517578,-0.9008789,0.42236328,1583769910615,-8840957047991,0.09844076,0,1
1583769912144,NaN,1.0094477,0.033935547,-0.8911133,0.4152832,1583769910695,-8840957047991,0.09844076,0,1
1583769912148,NaN,1.0061809,0.029052734,-0.9091797,0.41674805,1583769910775,-8840957047991,0.09844076,0,1
1583769912152,NaN,0.96162754,0.0234375,-0.8935547,0.41552734,1583769910855,-8840957047991,0.09844076,0,1
1583769912155,NaN,0.89884186,0.011962891,-0.8979492,0.4309082,1583769910935,-8840957047991,0.09844076,0,1
1583769912158,NaN,0.7565523,0.01928711,-0.8991699,0.484375,1583769911015,-8840957047991,0.09844076,0,1
1583769912161,NaN,0.66759133,0.018310547,-0.8688965,0.45996094,1583769911095,-8840957047991,0.09844076,0,1
1583769912164,NaN,0.53652525,-0.0036621094,-0.88061523,0.4729004,1583769911175,-8840957047991,0.09844076,0,1
1583769912167,NaN,0.37469074,-0.0034179688,-0.8486328,0.4934082,1583769911255,-8840957047991,0.09844076,0,1
1583769912171,NaN,0.16082837,-0.018310547,-0.861084,0.50561523,1583769911335,-8840957047991,0.09844076,0,1
1583769912174,NaN,-0.08318296,-0.022216797,-0.83740234,0.51708984,1583769911415,-8840957047991,0.09844076,0,1
1583769912178,19.23077,-0.28112507,-0.02319336,-0.82958984,0.52124023,1583769911495,-8840957047991,0.09844076,0,1
1583769912181,NaN,-0.45966324,-0.011962891,-0.83618164,0.49902344,1583769911575,-8840957047991,0.09844076,0,1
1583769912184,NaN,-0.5931721,-0.011962891,-0.8520508,0.49975586,1583769911655,-8840957047991,0.09844076,0,1
1583769912188,NaN,-0.72053194,-0.029052734,-0.8598633,0.51171875,1583769911735,-8840957047991,0.09844076,0,1
1583769912191,NaN,-0.78343934,0.0036621094,-0.873291,0.4880371,1583769911815,-8840957047991,0.09844076,0,1
1583769912195,NaN,-0.826108,0.01171875,-0.87280273,0.47851562,1583769911895,-8840957047991,0.09844076,0,1
1583769912199,NaN,-0.75153416,0.012207031,-0.88793945,0.45898438,1583769911975,-8840957047991,0.09844076,0,1
1583769912202,NaN,-0.71765465,0.007080078,-0.8725586,0.45947266,1583769912055,-8840957047991,0.09844076,0,1
1583769914477,NaN,-0.66321874,0.0026855469,-0.8757324,0.46118164,1583769912135,3409396888409,0.09844076,0,1
1583769914488,NaN,-0.5534495,-0.009277344,-0.8869629,0.45776367,1583769912215,3409396888409,0.09844076,0,1
1583769914490,NaN,-0.4272627,-0.0036621094,-0.8730469,0.45239258,1583769912295,3409396888409,0.09844076,0,1
1583769914492,NaN,-0.265451,0.023925781,-0.8859863,0.4453125,1583769912375,3409396888409,0.09844076,0,1
1583769914496,NaN,-0.09812433,0.038085938,-0.8876953,0.44726562,1583769912455,3409396888409,0.09844076,0,1
1583769914500,NaN,0.029668072,0.008056641,-0.88427734,0.45947266,1583769912535,3409396888409,0.09844076,0,1
1583769914503,NaN,0.15306813,0.0034179688,-0.87597656,0.4477539,1583769912615,3409396888409,0.08188034,0,1
1583769914508,NaN,0.28903472,-0.0021972656,-0.88427734,0.4580078,1583769912695,3409396888409,0.05397993,0,1
1583769914512,NaN,0.3482096,0.005126953,-0.86938477,0.4880371,1583769912775,3409396888409,0.05397993,0,1
1583769914517,NaN,0.35950932,0.016601562,-0.8532715,0.5136719,1583769912855,3409396888409,0.05397993,0,1
1583769914519,NaN,0.2777847,-0.01928711,-0.8391113,0.5266113,1583769912935,3409396888409,0.05397993,0,1
1583769914522,NaN,0.21402638,-0.010498047,-0.84472656,0.52905273,1583769913015,3409396888409,0.05397993,0,1
1583769914525,NaN,0.1380188,-0.022216797,-0.83813477,0.5373535,1583769913095,3409396888409,0.05397993,0,1
1583769914528,NaN,0.026085004,-0.026367188,-0.8376465,0.52685547,1583769913175,3409396888409,0.05397993,0,1
1583769914531,NaN,-0.10008893,-0.02709961,-0.8173828,0.53637695,1583769913255,3409396888409,0.05397993,0,1
1583769914534,32.608696,-0.25971195,-0.022949219,-0.828125,0.5378418,1583769913335,3409396888409,0.05397993,0,1
1583769914536,NaN,-0.41991487,-0.021484375,-0.83203125,0.5354004,1583769913415,3409396888409,0.05397993,0,1
1583769914540,NaN,-0.5425246,-0.022949219,-0.8251953,0.5300293,1583769913495,3409396888409,0.05397993,0,1
1583769914543,NaN,-0.667178,-0.022705078,-0.83569336,0.53271484,1583769913575,3409396888409,0.042560373,0,1
1583769914545,NaN,-0.7932267,-0.01586914,-0.83740234,0.5390625,1583769913655,3409396888409,0.042560373,0,1
1583769914548,NaN,-0.8395982,-0.026123047,-0.8347168,0.53515625,1583769913735,3409396888409,0.042560373,0,1
1583769914551,NaN,-0.8284492,-0.016357422,-0.83032227,0.5324707,1583769913815,3409396888409,0.042560373,0,1
1583769914554,NaN,-0.7611007,-0.016601562,-0.84155273,0.52856445,1583769913895,3409396888409,0.042560373,0,1
1583769914556,NaN,-0.7004795,-0.020019531,-0.84155273,0.52856445,1583769913975,3409396888409,0.042560373,0,1
1583769914559,NaN,-0.6167348,-0.011230469,-0.8479004,0.5234375,1583769914055,3409396888409,0.042560373,0,1
1583769914562,NaN,-0.5322644,-0.0056152344,-0.8496094,0.51293945,1583769914135,3409396888409,0.042560373,0,1
1583769914565,NaN,-0.4149123,0.005859375,-0.8522949,0.5090332,1583769914215,3409396888409,0.042560373,0,1
1583769914569,NaN,-0.29704127,-0.009277344,-0.8457031,0.5085449,1583769914295,3409396888409,0.042560373,0,1
1583769914571,NaN,-0.17705826,-0.013183594,-0.8630371,0.5058594,1583769914375,3409396888409,0.040693197,0,1
1583769914575,NaN,-0.07254449,-0.0026855469,-0.84594727,0.5012207,1583769914455,3409396888409,0.040693197,0,1
1583769914584,NaN,0.04301618,0.0012207031,-0.8647461,0.49658203,1583769914535,3409396888409,0.040693197,0,1
1583769914585,NaN,0.156379,-0.01171875,-0.85546875,0.5004883,1583769914615,3409396888409,0.040693197,0,1
1583769917060,NaN,0.25012603,-4.8828125E-4,-0.8659668,0.4892578,1583769914695,-2787274723875,0.040693197,0,1
1583769917064,NaN,0.29583886,0.0021972656,-0.8618164,0.5187988,1583769914775,-2787274723875,0.040693197,0,1
1583769917069,NaN,0.30751067,0.016113281,-0.8527832,0.5185547,1583769914855,-2787274723875,0.040693197,0,1
1583769917072,NaN,0.3080739,-0.02734375,-0.8391113,0.52783203,1583769914935,-2787274723875,0.046491966,0,1
1583769917078,NaN,0.28558448,-0.029052734,-0.83618164,0.529541,1583769915015,-2787274723875,0.046491966,0,1
1583769917081,NaN,0.23803593,-0.030761719,-0.82055664,0.5437012,1583769915095,-2787274723875,0.046491966,0,1
1583769917085,NaN,0.16723567,-0.041015625,-0.8186035,0.54467773,1583769915175,-2787274723875,0.046491966,0,1
1583769917089,NaN,0.106628664,-0.039794922,-0.8312988,0.5476074,1583769915255,-2787274723875,0.046491966,0,1
1583769917093,NaN,0.030493654,0.00390625,-0.8334961,0.545166,1583769915335,-2787274723875,0.046491966,0,1
1583769917097,NaN,-0.02726037,-0.018798828,-0.8190918,0.52490234,1583769915415,-2787274723875,0.046491966,0,1
1583769917101,NaN,-0.12266115,-0.059814453,-0.81347656,0.5437012,1583769915495,-2787274723875,0.046491966,0,1
1583769917105,NaN,-0.18175034,-0.060546875,-0.85498047,0.5307617,1583769915575,-2787274723875,0.046491966,0,1
1583769917109,NaN,-0.27471313,-0.03930664,-0.8239746,0.5253906,1583769915655,-2787274723875,0.046491966,0,1
1583769917112,NaN,-0.30469716,-0.032958984,-0.85375977,0.5185547,1583769915735,-2787274723875,0.046491966,0,1
1583769917116,NaN,-0.30525544,0.016113281,-0.8720703,0.515625,1583769915815,-2787274723875,0.052458998,0,1
1583769917119,NaN,-0.27452406,0.033935547,-0.8474121,0.50268555,1583769915895,-2787274723875,0.052458998,0,1
1583769917123,NaN,-0.2389388,-0.017089844,-0.85546875,0.5058594,1583769915975,-2787274723875,0.052458998,0,1
1583769917126,NaN,-0.15629196,-0.030761719,-0.8598633,0.49658203,1583769916055,-2787274723875,0.052458998,0,1
1583769917128,NaN,-0.04167995,0.0,-0.8696289,0.47607422,1583769916135,-2787274723875,0.052458998,0,1
1583769917131,NaN,0.06577762,0.028808594,-0.8652344,0.4831543,1583769916215,-2787274723875,0.052458998,0,1
1583769917134,NaN,0.14145559,-0.014404297,-0.85009766,0.4987793,1583769916295,-2787274723875,0.052458998,0,1
1583769917138,NaN,0.20337503,-0.026611328,-0.8647461,0.50097656,1583769916375,-2787274723875,0.052458998,0,1
1583769917141,NaN,0.356552,0.01977539,-0.88061523,0.47485352,1583769916455,-2787274723875,0.055551514,0,1
1583769917144,NaN,0.44172287,0.015625,-0.859375,0.47485352,1583769916535,-2787274723875,0.055551514,0,1
1583769917147,NaN,0.51944506,-0.02319336,-0.8588867,0.50756836,1583769916615,-2787274723875,0.055551514,0,1
1583769917151,NaN,0.5212975,-0.013671875,-0.83496094,0.52319336,1583769916695,-2787274723875,0.055551514,0,1
1583769917154,NaN,0.49457946,-0.015625,-0.8640137,0.5209961,1583769916775,-2787274723875,0.055551514,0,1
1583769917157,NaN,0.40681592,-0.0146484375,-0.8220215,0.5515137,1583769916855,-2787274723875,0.055551514,0,1
1583769917161,NaN,0.3195053,-0.052490234,-0.8041992,0.5493164,1583769916935,-2787274723875,0.055551514,0,1
1583769917164,NaN,0.21916418,-0.02368164,-0.8239746,0.5522461,1583769917015,-2787274723875,0.055551514,0,1
1583769917166,NaN,0.06840318,-0.009521484,-0.80078125,0.53759766,1583769917095,-2787274723875,0.055551514,0,1
1583769917169,NaN,-0.07366874,-0.04321289,-0.84033203,0.5358887,1583769917175,-2787274723875,0.055551514,0,1
1583769919642,NaN,-0.12939478,-0.008056641,-0.8503418,0.5341797,1583769917255,-8983664861183,0.055551514,0,1
1583769919651,NaN,-0.187905,-0.009521484,-0.83691406,0.52905273,1583769917335,-8983664861183,0.055551514,0,1
1583769919655,NaN,-0.34597865,-0.014160156,-0.84399414,0.53027344,1583769917415,-8983664861183,0.055551514,0,1
1583769919660,NaN,-0.44533893,-0.0073242188,-0.8588867,0.5217285,1583769917495,-8983664861183,0.055551514,0,1
1583769919665,NaN,-0.48899367,-0.0126953125,-0.845459,0.52319336,1583769917575,-8983664861183,0.055551514,0,1
1583769919670,NaN,-0.50733817,-0.05029297,-0.8408203,0.5463867,1583769917655,-8983664861183,0.055551514,0,1
1583769919675,NaN,-0.5174237,-0.01953125,-0.8256836,0.5336914,1583769917735,-8983664861183,0.055551514,0,1
1583769919680,NaN,-0.43776634,0.0012207031,-0.8352051,0.5332031,1583769917815,-8983664861183,0.055551514,0,1
1583769919686,NaN,-0.34579667,-0.017333984,-0.8208008,0.5275879,1583769917895,-8983664861183,0.055551514,0,1
1583769919690,NaN,-0.27284822,-0.02758789,-0.83618164,0.5246582,1583769917975,-8983664861183,0.055551514,0,1
1583769919693,NaN,-0.170938,-0.012451172,-0.8552246,0.52734375,1583769918055,-8983664861183,0.055551514,0,1
1583769919696,NaN,-0.07832538,-0.03491211,-0.85791016,0.5119629,1583769918135,-8983664861183,0.055551514,0,1
1583769919699,NaN,-0.032949757,-0.021240234,-0.86743164,0.5036621,1583769918215,-8983664861183,0.055551514,0,1
1583769919704,NaN,0.028616466,-0.013427734,-0.84472656,0.4777832,1583769918295,-8983664861183,0.055551514,0,1
1583769919708,28.846153,0.16087624,0.04711914,-0.8798828,0.47460938,1583769918375,-8983664861183,0.07008537,0,1
1583769919712,NaN,0.26494345,0.04711914,-0.8754883,0.4572754,1583769918455,-8983664861183,0.07008537,0,1
1583769919717,NaN,0.32861295,0.025878906,-0.873291,0.4819336,1583769918535,-8983664861183,0.07008537,0,1
1583769919720,NaN,0.41082668,-0.020019531,-0.86450195,0.4868164,1583769918615,-8983664861183,0.07008537,0,1
1583769919724,NaN,0.4667188,-0.02368164,-0.85253906,0.50341797,1583769918695,-8983664861183,0.07008537,0,1
1583769919726,NaN,0.47112527,-0.021240234,-0.85717773,0.4963379,1583769918775,-8983664861183,0.07008537,0,1
1583769919730,NaN,0.48428074,0.014160156,-0.86157227,0.49926758,1583769918855,-8983664861183,0.07008537,0,1
1583769919732,NaN,0.50253844,0.02368164,-0.8586426,0.50146484,1583769918935,-8983664861183,0.07008537,0,1
1583769919736,NaN,0.51011467,0.02709961,-0.86206055,0.4958496,1583769919015,-8983664861183,0.07008537,0,1
1583769919739,NaN,0.5134751,0.029785156,-0.85375977,0.49951172,1583769919095,-8983664861183,0.07008537,0,1
1583769919742,NaN,0.47781613,-0.009521484,-0.83740234,0.5107422,1583769919175,-8983664861183,0.07008537,0,1
1583769919746,NaN,0.4033452,-0.032226562,-0.84814453,0.5270996,1583769919255,-8983664861183,0.07008537,0,1
1583769919749,NaN,0.27431566,-0.0026855469,-0.86938477,0.53100586,1583769919335,-8983664861183,0.07008537,0,1
1583769919752,NaN,0.14274265,0.034423828,-0.8288574,0.52368164,1583769919415,-8983664861183,0.07008537,0,1
1583769919755,NaN,-0.0063513615,0.007080078,-0.8071289,0.58447266,1583769919495,-8983664861183,0.070109606,0,1
1583769919757,NaN,-0.17309998,-0.052001953,-0.78515625,0.5883789,1583769919575,-8983664861183,0.070109606,0,1
1583769919760,NaN,-0.2832644,-0.02368164,-0.8183594,0.6088867,1583769919655,-8983664861183,0.070109606,0,1
1583769919763,NaN,-0.39648804,-0.020019531,-0.78515625,0.58862305,1583769919735,-8983664861183,0.070109606,0,1
1583769922229,NaN,-0.5387166,-0.03955078,-0.76464844,0.55859375,1583769919815,3194631481179,0.070109606,0,1
1583769922234,NaN,-0.6701979,-0.02758789,-0.7932129,0.57177734,1583769919895,3194631481179,0.070109606,0,1
1583769922240,NaN,-0.75198054,-0.009521484,-0.85961914,0.5439453,1583769919975,3194631481179,0.07423481,0,1
1583769922244,NaN,-0.82910734,-0.0068359375,-0.83203125,0.5395508,1583769920055,3194631481179,0.07423481,0,1
1583769922250,NaN,-0.83101255,0.021484375,-0.8232422,0.54248047,1583769920135,3194631481179,0.07423481,0,1
1583769922254,NaN,-0.7835997,0.029541016,-0.8342285,0.5390625,1583769920215,3194631481179,0.07423481,0,1
1583769922257,NaN,-0.74282867,0.030517578,-0.8244629,0.548584,1583769920295,3194631481179,0.07423481,0,1
1583769922261,NaN,-0.6929268,0.028320312,-0.83740234,0.5510254,1583769920375,3194631481179,0.07423481,0,1
1583769922263,NaN,-0.54174083,0.038330078,-0.82592773,0.53125,1583769920455,3194631481179,0.07423481,0,1
1583769922267,NaN,-0.33672425,0.044677734,-0.85131836,0.5341797,1583769920535,3194631481179,0.07423481,0,1
1583769922270,NaN,-0.18616347,0.041259766,-0.8269043,0.54052734,1583769920615,3194631481179,0.07423481,0,1
1583769922273,NaN,-0.024689073,0.04736328,-0.8352051,0.5415039,1583769920695,3194631481179,0.07423481,0,1
1583769922278,25.0,0.1417461,0.050048828,-0.83154297,0.54345703,1583769920775,3194631481179,0.07423481,0,1
1583769922283,NaN,0.30369022,0.061035156,-0.83813477,0.5385742,1583769920855,3194631481179,0.07423481,0,1
1583769922286,NaN,0.3632748,0.053710938,-0.82128906,0.5317383,1583769920935,3194631481179,0.07423481,0,1
1583769922291,NaN,0.42771742,0.044433594,-0.8352051,0.5432129,1583769921015,3194631481179,0.07423481,0,1
1583769922294,NaN,0.4491441,0.052490234,-0.82373047,0.54711914,1583769921095,3194631481179,0.07423481,0,1
1583769922297,NaN,0.4380876,0.046875,-0.82836914,0.546875,1583769921175,3194631481179,0.07423481,0,1
1583769922300,NaN,0.4643291,0.043945312,-0.8359375,0.5505371,1583769921255,3194631481179,0.07423481,0,1
1583769922302,NaN,0.4624518,0.030029297,-0.8105469,0.5620117,1583769921335,3194631481179,0.07423481,0,1
1583769922305,NaN,0.3742765,0.032958984,-0.82373047,0.5817871,1583769921415,3194631481179,0.07423481,0,1
1583769922309,NaN,0.22831947,0.028564453,-0.8088379,0.5744629,1583769921495,3194631481179,0.07423481,0,1
1583769922311,NaN,0.08903607,-0.0146484375,-0.7866211,0.5925293,1583769921575,3194631481179,0.07423481,0,1
1583769922314,NaN,-0.044179145,-0.006591797,-0.8076172,0.58569336,1583769921655,3194631481179,0.07423481,0,1
1583769922317,NaN,-0.17197065,0.0041503906,-0.7849121,0.5800781,1583769921735,3194631481179,0.07423481,0,1
1583769922320,NaN,-0.3046143,-0.010009766,-0.78393555,0.56030273,1583769921815,3194631481179,0.07423481,0,1
1583769922323,NaN,-0.37636396,-0.010986328,-0.8063965,0.5761719,1583769921895,3194631481179,0.07423481,0,1
1583769922327,NaN,-0.43645188,0.0034179688,-0.8232422,0.58154297,1583769921975,3194631481179,0.07423481,0,1
1583769922330,NaN,-0.47962192,0.0041503906,-0.8125,0.5686035,1583769922055,3194631481179,0.07423481,0,1
1583769922333,NaN,-0.5021162,0.015136719,-0.82592773,0.5656738,1583769922135,3194631481179,0.07423481,0,1
1583769922336,NaN,-0.53274685,0.020019531,-0.82177734,0.5632324,1583769922215,3194631481179,0.07423481,0,1
1583769922338,NaN,-0.5237246,0.011230469,-0.80810547,0.56274414,1583769922295,3194631481179,0.07423481,0,1
1583769924812,NaN,-0.48044637,0.009277344,-0.82910156,0.55908203,1583769922375,-3002040131105,0.07423481,0,1
1583769924818,NaN,-0.42249835,0.017822266,-0.81469727,0.5576172,1583769922455,-3002040131105,0.07423481,0,1
1583769924822,NaN,-0.30710205,0.0041503906,-0.8227539,0.5541992,1583769922535,-3002040131105,0.05183951,0,1
1583769924830,NaN,-0.21847095,0.008300781,-0.82470703,0.55737305,1583769922615,-3002040131105,0.05183951,0,1
1583769924833,NaN,-0.118081324,0.024658203,-0.8251953,0.5529785,1583769922695,-3002040131105,0.05183951,0,1
1583769924838,NaN,-0.030633822,0.012451172,-0.81591797,0.55371094,1583769922775,-3002040131105,0.05183951,0,1
1583769924841,NaN,0.05589668,0.009033203,-0.8347168,0.5600586,1583769922855,-3002040131105,0.05183951,0,1
1583769924845,NaN,0.09016036,-9.765625E-4,-0.79418945,0.5744629,1583769922935,-3002040131105,0.05183951,0,1
1583769924849,26.785715,0.121826924,0.010009766,-0.8166504,0.5810547,1583769923015,-3002040131105,0.05183951,0,1
1583769924853,NaN,0.12900294,0.015136719,-0.8129883,0.5842285,1583769923095,-3002040131105,0.05183951,0,1
1583769924856,NaN,0.12348946,0.00390625,-0.79248047,0.57910156,1583769923175,-3002040131105,0.05183951,0,1
1583769924860,NaN,0.1102063,-0.012207031,-0.8063965,0.58251953,1583769923255,-3002040131105,0.05183951,0,1
1583769924863,NaN,0.072909705,-0.0068359375,-0.7980957,0.5756836,1583769923335,-3002040131105,0.05183951,0,1
1583769924866,NaN,0.029066937,-0.015380859,-0.7944336,0.57958984,1583769923415,-3002040131105,0.05183951,0,1
1583769924870,NaN,-0.048737776,-0.010253906,-0.7805176,0.56689453,1583769923495,-3002040131105,0.05183951,0,1
1583769924873,NaN,-0.09490908,-4.8828125E-4,-0.80615234,0.5644531,1583769923575,-3002040131105,0.05183951,0,1
1583769924876,NaN,-0.16322023,0.0063476562,-0.82299805,0.5834961,1583769923655,-3002040131105,0.05183951,0,1
1583769924879,NaN,-0.20599067,0.012207031,-0.8112793,0.57788086,1583769923735,-3002040131105,0.05183951,0,1
1583769924882,NaN,-0.2475928,0.0075683594,-0.82250977,0.57055664,1583769923815,-3002040131105,0.05183951,0,1
1583769924885,NaN,-0.21093456,0.016845703,-0.81396484,0.5551758,1583769923895,-3002040131105,0.05183951,0,1
1583769924888,NaN,-0.18623823,0.020751953,-0.82250977,0.5578613,1583769923975,-3002040131105,0.05183951,0,1
1583769924891,NaN,-0.14233519,0.0107421875,-0.8310547,0.55029297,1583769924055,-3002040131105,0.05183951,0,1
1583769924894,NaN,-0.091626704,0.014892578,-0.81225586,0.5632324,1583769924135,-3002040131105,0.044160444,0,1
1583769924898,NaN,-0.038876865,0.013427734,-0.8215332,0.55859375,1583769924215,-3002040131105,0.044160444,0,1
1583769924900,NaN,0.012973458,0.01171875,-0.8178711,0.56469727,1583769924295,-3002040131105,0.044160444,0,1
1583769924903,44.117645,0.08696415,0.015380859,-0.82177734,0.5539551,1583769924375,-3002040131105,0.044160444,0,1
1583769924906,NaN,0.15884648,0.012451172,-0.8305664,0.54956055,1583769924455,-3002040131105,0.044160444,0,1
1583769924909,NaN,0.19698434,0.01977539,-0.826416,0.55444336,1583769924535,-3002040131105,0.044160444,0,1
1583769924912,NaN,0.22123979,-0.0053710938,-0.8132324,0.5734863,1583769924615,-3002040131105,0.044160444,0,1
1583769924916,NaN,0.23824595,0.015625,-0.81103516,0.57958984,1583769924695,-3002040131105,0.044160444,0,1
1583769924919,NaN,0.23757161,0.0,-0.80859375,0.5773926,1583769924775,-3002040131105,0.044160444,0,1
1583769924922,NaN,0.19291942,0.0048828125,-0.8088379,0.57250977,1583769924855,-3002040131105,0.044160444,0,1
1583769927396,NaN,0.14247371,-0.0014648438,-0.79956055,0.576416,1583769924935,-9198430268413,0.044160444,0,1
1583769927403,NaN,0.080751576,-0.014404297,-0.80737305,0.5749512,1583769925015,-9198430268413,0.044160444,0,1
1583769927408,NaN,0.03789408,-0.012207031,-0.80444336,0.5739746,1583769925095,-9198430268413,0.044160444,0,1
1583769927414,NaN,-0.021598453,-0.009521484,-0.79418945,0.5715332,1583769925175,-9198430268413,0.044160444,0,1
1583769927418,NaN,-0.053065255,-0.0026855469,-0.7949219,0.55444336,1583769925255,-9198430268413,0.044160444,0,1
1583769927424,NaN,-0.11909319,-0.001953125,-0.80908203,0.57788086,1583769925335,-9198430268413,0.044160444,0,1
1583769927428,NaN,-0.18568076,0.005126953,-0.81762695,0.5786133,1583769925415,-9198430268413,0.044160444,0,1
1583769927432,NaN,-0.23755555,0.0029296875,-0.81152344,0.58154297,1583769925495,-9198430268413,0.034187533,0,1
1583769927435,NaN,-0.22614403,0.014892578,-0.8125,0.5710449,1583769925575,-9198430268413,0.034187533,0,1
1583769927438,NaN,-0.21963619,0.009765625,-0.81103516,0.5649414,1583769925655,-9198430268413,0.034187533,0,1
1583769927443,NaN,-0.18707085,0.013671875,-0.8183594,0.560791,1583769925735,-9198430268413,0.034187533,0,1
1583769927446,NaN,-0.15759058,0.011474609,-0.8166504,0.5625,1583769925815,-9198430268413,0.034187533,0,1
1583769927450,NaN,-0.09943137,0.012207031,-0.82299805,0.55493164,1583769925895,-9198430268413,0.034187533,0,1
1583769927453,NaN,-0.04466526,0.01586914,-0.81347656,0.5654297,1583769925975,-9198430268413,0.034187533,0,1
1583769927456,NaN,-0.0013878196,0.014404297,-0.8173828,0.56225586,1583769926055,-9198430268413,0.034187533,0,1
1583769927459,34.090908,0.050881606,0.013427734,-0.82055664,0.56518555,1583769926135,-9198430268413,0.034187533,0,1
1583769927463,NaN,0.072822645,0.018798828,-0.81591797,0.5612793,1583769926215,-9198430268413,0.034187533,0,1
1583769927466,NaN,0.124075204,0.017578125,-0.8261719,0.5620117,1583769926295,-9198430268413,0.034187533,0,1
1583769927469,NaN,0.14767371,0.014160156,-0.8059082,0.58032227,1583769926375,-9198430268413,0.034187533,0,1
1583769927472,NaN,0.1695943,0.005859375,-0.8000488,0.5876465,1583769926455,-9198430268413,0.034187533,0,1
1583769927475,NaN,0.1489637,-9.765625E-4,-0.8054199,0.5751953,1583769926535,-9198430268413,0.034187533,0,1
1583769927477,NaN,0.12807728,0.0063476562,-0.81030273,0.5854492,1583769926615,-9198430268413,0.034187533,0,1
1583769927480,NaN,0.083026454,-0.0024414062,-0.80371094,0.58203125,1583769926695,-9198430268413,0.034187533,0,1
1583769927483,NaN,0.038123693,-0.014404297,-0.7949219,0.58496094,1583769926775,-9198430268413,0.034187533,0,1
1583769927486,NaN,-0.028421147,-0.017089844,-0.79174805,0.5769043,1583769926855,-9198430268413,0.034187533,0,1
1583769927490,NaN,-0.05767947,-0.006591797,-0.79907227,0.5566406,1583769926935,-9198430268413,0.034187533,0,1
1583769927493,NaN,-0.09662988,-0.0031738281,-0.8015137,0.56640625,1583769927015,-9198430268413,0.034187533,0,1
1583769927496,NaN,-0.13063076,-0.0041503906,-0.8288574,0.5769043,1583769927095,-9198430268413,0.034187533,0,1
1583769927498,NaN,-0.16910791,0.0068359375,-0.8054199,0.5883789,1583769927175,-9198430268413,0.029306028,0,1
1583769927502,NaN,-0.21077086,0.011962891,-0.81103516,0.57592773,1583769927255,-9198430268413,0.029306028,0,1
1583769927505,NaN,-0.2032453,0.0041503906,-0.8083496,0.56762695,1583769927335,-9198430268413,0.029306028,0,1
1583769927508,NaN,-0.17058246,0.021240234,-0.81689453,0.56811523,1583769927415,-9198430268413,0.029306028,0,1
1583769929976,NaN,-0.13543878,0.01586914,-0.8183594,0.5563965,1583769927495,3051923667987,0.029306028,0,1
1583769929982,NaN,-0.101947986,0.0075683594,-0.8186035,0.5605469,1583769927575,3051923667987,0.029306028,0,1
1583769929984,NaN,-0.049153168,0.008544922,-0.8203125,0.5559082,1583769927655,3051923667987,0.029306028,0,1
1583769929989,NaN,0.047859143,0.048339844,-0.83203125,0.54589844,1583769927735,3051923667987,0.042675056,0,1
1583769929995,35.714287,0.1173952,0.024169922,-0.8215332,0.57250977,1583769927815,3051923667987,0.042675056,0,1
1583769929998,NaN,0.117904395,0.008056641,-0.8076172,0.58618164,1583769927895,3051923667987,0.042675056,0,1
1583769930002,NaN,0.11179253,-9.765625E-4,-0.7788086,0.5883789,1583769927975,3051923667987,0.042675056,0,1
1583769930005,NaN,0.11394956,-0.010009766,-0.82299805,0.5822754,1583769928055,3051923667987,0.045514386,0,1
1583769930009,NaN,0.14786273,0.012939453,-0.80908203,0.5812988,1583769928135,3051923667987,0.045514386,0,1
1583769930012,NaN,0.12501305,-0.014160156,-0.7644043,0.5925293,1583769928215,3051923667987,0.053447284,0,1
1583769930015,NaN,0.08813527,-0.024902344,-0.7961426,0.59277344,1583769928295,3051923667987,0.053447284,0,1
1583769930020,NaN,0.04113169,7.324219E-4,-0.7663574,0.5551758,1583769928375,3051923667987,0.0543864,0,1
1583769930024,NaN,-0.019647243,-0.01171875,-0.80249023,0.5883789,1583769928455,3051923667987,0.0543864,0,1
1583769930028,NaN,-0.048162952,0.011230469,-0.82543945,0.58325195,1583769928535,3051923667987,0.0543864,0,1
1583769930032,NaN,-0.09635218,0.013183594,-0.8046875,0.5822754,1583769928615,3051923667987,0.0543864,0,1
1583769930035,NaN,-0.19711803,0.01928711,-0.8125,0.5734863,1583769928695,3051923667987,0.0543864,0,1
1583769930038,NaN,-0.22429155,0.016357422,-0.81591797,0.55615234,1583769928775,3051923667987,0.0543864,0,1
1583769930041,NaN,-0.18432593,0.020751953,-0.8269043,0.55688477,1583769928855,3051923667987,0.0543864,0,1
1583769930045,NaN,-0.10990713,0.028808594,-0.8334961,0.5605469,1583769928935,3051923667987,0.0543864,0,1
1583769930048,NaN,-0.08264737,0.015380859,-0.80737305,0.5563965,1583769929015,3051923667987,0.0543864,0,1
1583769930051,NaN,-0.06710192,0.014404297,-0.828125,0.5563965,1583769929095,3051923667987,0.0543864,0,1
1583769930053,NaN,0.03394913,0.016845703,-0.8261719,0.55566406,1583769929175,3051923667987,0.0543864,0,1
1583769930056,41.666668,0.120643556,0.021972656,-0.8190918,0.5493164,1583769929255,3051923667987,0.0543864,0,1
1583769930059,NaN,0.17530525,0.021240234,-0.82421875,0.5541992,1583769929335,3051923667987,0.0543864,0,1
1583769930061,NaN,0.26364514,0.034179688,-0.8251953,0.5498047,1583769929415,3051923667987,0.0543864,0,1
1583769930065,NaN,0.2785838,0.004638672,-0.8210449,0.56689453,1583769929495,3051923667987,0.0543864,0,1
1583769930068,NaN,0.30139974,0.0078125,-0.81274414,0.5810547,1583769929575,3051923667987,0.0543864,0,1
1583769930070,NaN,0.320321,0.0029296875,-0.7873535,0.5749512,1583769929655,3051923667987,0.0543864,0,1
1583769930073,NaN,0.30215716,0.009277344,-0.8273926,0.5817871,1583769929735,3051923667987,0.0543864,0,1
1583769930076,NaN,0.24460728,0.021972656,-0.80200195,0.5842285,1583769929815,3051923667987,0.0543864,0,1
1583769930081,NaN,0.14829047,-0.0043945312,-0.7922363,0.5827637,1583769929895,3051923667987,0.0543864,0,1
1583769930084,NaN,0.09167695,-0.015380859,-0.78759766,0.5834961,1583769929975,3051923667987,0.0543864,0,1
1583769932563,NaN,0.02949337,-0.012939453,-0.7922363,0.576416,1583769930055,-3144747944297,0.0543864,0,1
1583769932568,NaN,-0.04952978,0.00390625,-0.80126953,0.5593262,1583769930135,-3144747944297,0.0543864,0,1
1583769932573,NaN,-0.13077934,0.016845703,-0.80615234,0.5810547,1583769930215,-3144747944297,0.0543864,0,1
1583769932577,NaN,-0.19105195,0.019042969,-0.8190918,0.59521484,1583769930295,-3144747944297,0.0543864,0,1
1583769932583,NaN,-0.2667127,0.0087890625,-0.8183594,0.56811523,1583769930375,-3144747944297,0.0543864,0,1
1583769932587,NaN,-0.24761026,0.020507812,-0.82788086,0.54125977,1583769930455,-3144747944297,0.0543864,0,1
1583769932592,NaN,-0.21501051,0.033447266,-0.8222656,0.5480957,1583769930535,-3144747944297,0.0543864,0,1
1583769932595,NaN,-0.15343417,0.03125,-0.8183594,0.5432129,1583769930615,-3144747944297,0.0543864,0,1
1583769932598,NaN,-0.12955704,0.016357422,-0.82250977,0.5666504,1583769930695,-3144747944297,0.0543864,0,1
1583769932601,NaN,-0.080091655,0.022216797,-0.8276367,0.5629883,1583769930775,-3144747944297,0.0543864,0,1
1583769932604,NaN,-0.006072154,0.013671875,-0.81152344,0.5588379,1583769930855,-3144747944297,0.0543864,0,1
1583769932607,35.714287,0.082812995,0.02734375,-0.82470703,0.5534668,1583769930935,-3144747944297,0.050626665,0,1
1583769932610,NaN,0.15514444,0.016601562,-0.81884766,0.5588379,1583769931015,-3144747944297,0.041111425,0,1
1583769932614,NaN,0.19281398,0.02758789,-0.82006836,0.5559082,1583769931095,-3144747944297,0.041111425,0,1
1583769932620,NaN,0.24533145,0.018554688,-0.8273926,0.5529785,1583769931175,-3144747944297,0.041111425,0,1
1583769932623,NaN,0.29774892,0.015136719,-0.8256836,0.5551758,1583769931255,-3144747944297,0.041111425,0,1
1583769932627,NaN,0.33349904,0.021728516,-0.8144531,0.5563965,1583769931335,-3144747944297,0.041111425,0,1
1583769932632,NaN,0.2852107,0.017822266,-0.810791,0.5673828,1583769931415,-3144747944297,0.041111425,0,1
1583769932636,NaN,0.21048532,0.0017089844,-0.81103516,0.58447266,1583769931495,-3144747944297,0.041111425,0,1
1583769932639,NaN,0.15481387,0.044921875,-0.81591797,0.5715332,1583769931575,-3144747944297,0.045372076,0,1
1583769932643,NaN,0.14274673,0.028076172,-0.81030273,0.57055664,1583769931655,-3144747944297,0.045372076,0,1
1583769932646,NaN,0.10969896,0.011962891,-0.8178711,0.5656738,1583769931735,-3144747944297,0.045372076,0,1
1583769932650,NaN,0.070614874,-0.0021972656,-0.8178711,0.5666504,1583769931815,-3144747944297,0.045372076,0,1
1583769932653,NaN,-0.016542226,-0.0073242188,-0.8117676,0.57910156,1583769931895,-3144747944297,0.045372076,0,1
1583769932656,NaN,-0.08001315,-0.021728516,-0.81030273,0.57421875,1583769931975,-3144747944297,0.045372076,0,1
1583769932659,NaN,-0.12884195,-0.009033203,-0.79785156,0.56274414,1583769932055,-3144747944297,0.045372076,0,1
1583769932662,NaN,-0.17219977,-0.0017089844,-0.79541016,0.545166,1583769932135,-3144747944297,0.045372076,0,1
1583769932665,NaN,-0.19815761,0.007080078,-0.84375,0.56347656,1583769932215,-3144747944297,0.052433427,0,1
1583769932668,NaN,-0.20765315,0.008056641,-0.8273926,0.5527344,1583769932295,-3144747944297,0.052433427,0,1
1583769932670,NaN,-0.18668938,0.009277344,-0.8066406,0.56274414,1583769932375,-3144747944297,0.052433427,0,1
1583769932673,NaN,-0.09725332,0.024414062,-0.84887695,0.54418945,1583769932455,-3144747944297,0.052433427,0,1
1583769932676,NaN,-0.06733442,0.038085938,-0.8203125,0.54003906,1583769932535,-3144747944297,0.052433427,0,1
1583769934948,NaN,-0.014754887,0.056152344,-0.8425293,0.5280762,1583769932615,9105605992103,0.052433427,0,1
1583769934953,NaN,0.02586358,0.052734375,-0.8249512,0.54833984,1583769932695,9105605992103,0.052433427,0,1
1583769934957,32.608696,0.08095842,0.04638672,-0.8330078,0.53515625,1583769932775,9105605992103,0.052433427,0,1
1583769934961,NaN,0.1744166,0.06274414,-0.8300781,0.5461426,1583769932855,9105605992103,0.052433427,0,1
1583769934966,NaN,0.2618884,0.04321289,-0.8239746,0.5349121,1583769932935,9105605992103,0.052433427,0,1
1583769934971,NaN,0.34075284,0.032958984,-0.83325195,0.53393555,1583769933015,9105605992103,0.052433427,0,1
1583769934974,NaN,0.39659593,0.037597656,-0.8417969,0.5395508,1583769933095,9105605992103,0.052433427,0,1
1583769934976,NaN,0.4113605,0.04272461,-0.82592773,0.5559082,1583769933175,9105605992103,0.052433427,0,1
1583769934979,NaN,0.4184204,0.052001953,-0.81689453,0.56347656,1583769933255,9105605992103,0.052433427,0,1
1583769934983,NaN,0.41383207,0.019042969,-0.8083496,0.58251953,1583769933335,9105605992103,0.052433427,0,1
1583769934986,NaN,0.32863584,0.020507812,-0.8083496,0.5749512,1583769933415,9105605992103,0.052433427,0,1
1583769934990,NaN,0.27163866,0.009765625,-0.8059082,0.57470703,1583769933495,9105605992103,0.052433427,0,1
1583769934993,NaN,0.16254045,0.020019531,-0.8017578,0.5727539,1583769933575,9105605992103,0.052433427,0,1
1583769934996,NaN,0.092079796,0.013183594,-0.80200195,0.5710449,1583769933655,9105605992103,0.052433427,0,1
1583769935000,NaN,-0.005278086,0.006591797,-0.8039551,0.5727539,1583769933735,9105605992103,0.052433427,0,1
1583769935005,NaN,-0.10752357,0.014160156,-0.80444336,0.56762695,1583769933815,9105605992103,0.052433427,0,1
1583769935009,NaN,-0.21103321,0.013671875,-0.80322266,0.5756836,1583769933895,9105605992103,0.052433427,0,1
1583769935012,NaN,-0.3055555,0.01928711,-0.80322266,0.57910156,1583769933975,9105605992103,0.052433427,0,1
1583769935016,NaN,-0.39905965,0.0107421875,-0.8100586,0.5908203,1583769934055,9105605992103,0.052433427,0,1
1583769935019,NaN,-0.4239806,0.03930664,-0.8190918,0.56762695,1583769934135,9105605992103,0.052433427,0,1
1583769935023,NaN,-0.44498292,0.031982422,-0.8117676,0.5656738,1583769934215,9105605992103,0.052433427,0,1
1583769935026,NaN,-0.41224647,0.037109375,-0.82055664,0.56103516,1583769934295,9105605992103,0.052433427,0,1
1583769935030,NaN,-0.3628058,0.028808594,-0.81640625,0.5637207,1583769934375,9105605992103,0.052433427,0,1
1583769935033,NaN,-0.29829067,0.020263672,-0.8276367,0.5539551,1583769934455,9105605992103,0.052433427,0,1
1583769935036,NaN,-0.2184546,0.033447266,-0.8166504,0.55688477,1583769934535,9105605992103,0.052433427,0,1
1583769935039,NaN,-0.14270769,0.040283203,-0.8273926,0.54785156,1583769934615,9105605992103,0.052433427,0,1
1583769935043,NaN,-0.06747723,0.029052734,-0.81689453,0.55810547,1583769934695,9105605992103,0.052433427,0,1
1583769935046,NaN,0.005983708,0.033447266,-0.83203125,0.5515137,1583769934775,9105605992103,0.048552077,0,1
1583769935050,28.846153,0.1000338,0.051757812,-0.8359375,0.54418945,1583769934855,9105605992103,0.048552077,0,1
1583769935053,NaN,0.16973849,0.03881836,-0.82006836,0.5629883,1583769934935,9105605992103,0.048552077,0,1
1583769935057,NaN,0.22982317,0.022460938,-0.8093262,0.5905762,1583769935015,9105605992103,0.03901211,0,1
1583769935061,NaN,0.21572594,0.017578125,-0.80322266,0.5834961,1583769935095,9105605992103,0.03901211,0,1
1583769937530,NaN,0.19451208,0.005126953,-0.7919922,0.5888672,1583769935175,2909215854795,0.03901211,0,1
1583769937536,NaN,0.134183,0.0014648438,-0.8027344,0.58081055,1583769935255,2909215854795,0.03901211,0,1
1583769937543,NaN,0.087743916,0.0053710938,-0.79833984,0.5895996,1583769935335,2909215854795,0.03901211,0,1
1583769937551,NaN,0.0216232,-0.006591797,-0.79003906,0.5769043,1583769935415,2909215854795,0.03901211,0,1
1583769937554,NaN,-0.0050879377,0.03466797,-0.78637695,0.5463867,1583769935495,2909215854795,0.051449995,0,1
1583769937557,NaN,-0.06922007,0.025634766,-0.828125,0.5852051,1583769935575,2909215854795,0.057717964,0,1
1583769937564,NaN,-0.09761706,0.0068359375,-0.82714844,0.55615234,1583769935655,2909215854795,0.057717964,0,1
1583769937582,NaN,-0.13064924,0.029541016,-0.82958984,0.55371094,1583769935735,2909215854795,0.057717964,1,1
1583769937583,NaN,-0.20611729,0.02709961,-0.8166504,0.55810547,1583769935815,2909215854795,0.057717964,1,1
1583769937586,NaN,-0.22567427,0.029785156,-0.8173828,0.545166,1583769935895,2909215854795,0.057717964,1,1
1583769937587,NaN,-0.20995569,0.030273438,-0.8195801,0.56811523,1583769935975,2909215854795,0.057717964,1,1
1583769937594,NaN,-0.15125823,0.03857422,-0.82250977,0.5559082,1583769936055,2909215854795,0.057717964,1,1
1583769937597,NaN,-0.07169074,0.040771484,-0.8222656,0.5583496,1583769936135,2909215854795,0.057717964,1,1
1583769937602,NaN,-0.006399495,0.028808594,-0.8125,0.5563965,1583769936215,2909215854795,0.057717964,1,1
1583769937604,NaN,0.06569598,0.031982422,-0.8256836,0.5617676,1583769936295,2909215854795,0.057717964,1,1
1583769937608,39.473682,0.13657154,0.028076172,-0.80688477,0.5629883,1583769936375,2909215854795,0.057717964,1,1
1583769937613,NaN,0.14102052,0.024169922,-0.8195801,0.5620117,1583769936455,2909215854795,0.057717964,1,1
1583769937618,NaN,0.17623723,0.025390625,-0.81347656,0.5637207,1583769936535,2909215854795,0.057717964,1,1
1583769937621,NaN,0.18753195,0.03466797,-0.8210449,0.5612793,1583769936615,2909215854795,0.057717964,1,1
1583769937623,NaN,0.18576373,0.03881836,-0.81689453,0.5617676,1583769936695,2909215854795,0.057717964,1,1
1583769937628,NaN,0.21293865,0.033935547,-0.81591797,0.56225586,1583769936775,2909215854795,0.057717964,1,1
1583769937632,NaN,0.18650387,0.018798828,-0.8215332,0.5751953,1583769936855,2909215854795,0.057717964,1,1
1583769937636,NaN,0.15455273,0.018554688,-0.8010254,0.56591797,1583769936935,2909215854795,0.057717964,1,1
1583769937639,NaN,0.10465745,0.032470703,-0.81640625,0.5749512,1583769937015,2909215854795,0.057717964,1,1
1583769937642,NaN,0.031915385,0.028076172,-0.80810547,0.5842285,1583769937095,2909215854795,0.057717964,1,1
1583769937647,NaN,-0.03358717,0.006591797,-0.7973633,0.58862305,1583769937175,2909215854795,0.057717964,1,1
1583769937651,NaN,-0.10604795,0.0063476562,-0.80322266,0.58374023,1583769937255,2909215854795,0.057717964,1,1
1583769937654,NaN,-0.15363114,0.012451172,-0.7944336,0.5720215,1583769937335,2909215854795,0.057717964,1,1
1583769937657,NaN,-0.18027753,0.0024414062,-0.7980957,0.57788086,1583769937415,2909215854795,0.057717964,1,1
1583769937662,NaN,-0.19480312,0.015625,-0.795166,0.5566406,1583769937495,2909215854795,0.057717964,1,1
1583769937665,NaN,-0.22186339,0.022705078,-0.8112793,0.5800781,1583769937575,2909215854795,0.057717964,1,1
1583769937668,NaN,-0.23045687,0.022705078,-0.8269043,0.5810547,1583769937655,2909215854795,0.057717964,1,1
1583769940114,NaN,-0.24984469,0.025390625,-0.80444336,0.5805664,1583769937735,-3287455757489,0.057717964,1,1
1583769940120,NaN,-0.22658361,0.023925781,-0.81030273,0.56762695,1583769937815,-3287455757489,0.057717964,1,1
1583769940124,NaN,-0.20345415,0.033935547,-0.8154297,0.5671387,1583769937895,-3287455757489,0.057717964,1,1
1583769940128,NaN,-0.18608363,0.032714844,-0.8112793,0.57006836,1583769937975,-3287455757489,0.057717964,1,1
1583769940134,NaN,-0.14844733,0.022460938,-0.8154297,0.5666504,1583769938055,-3287455757489,0.057717964,1,1
1583769940140,NaN,-0.08187539,0.03564453,-0.81152344,0.56640625,1583769938135,-3287455757489,0.034618072,1,1
1583769940143,NaN,-0.02623266,0.032470703,-0.81030273,0.5703125,1583769938215,-3287455757489,0.029310096,1,1
1583769940149,NaN,0.0078340955,0.029296875,-0.8120117,0.56811523,1583769938295,-3287455757489,0.029310096,1,1
1583769940152,30.0,0.0636934,0.03540039,-0.8156738,0.56689453,1583769938375,-3287455757489,0.029310096,1,1
1583769940158,NaN,0.08702439,0.037841797,-0.81225586,0.5583496,1583769938455,-3287455757489,0.029310096,1,1
1583769940162,NaN,0.12023776,0.034423828,-0.82543945,0.57666016,1583769938535,-3287455757489,0.029310096,1,1
1583769940166,NaN,0.1229232,0.020019531,-0.80078125,0.5812988,1583769938615,-3287455757489,0.029310096,1,1
1583769940171,NaN,0.14137726,0.024902344,-0.8132324,0.58740234,1583769938695,-3287455757489,0.029310096,1,1
1583769940174,NaN,0.1199921,0.014892578,-0.7961426,0.5839844,1583769938775,-3287455757489,0.029310096,1,1
1583769940177,NaN,0.08055573,0.011230469,-0.7980957,0.5847168,1583769938855,-3287455757489,0.029310096,1,1
1583769940180,NaN,0.048767846,0.0,-0.7956543,0.58691406,1583769938935,-3287455757489,0.029310096,1,1
1583769940183,NaN,0.020953214,0.008056641,-0.7976074,0.5720215,1583769939015,-3287455757489,0.029310096,1,1
1583769940186,NaN,-0.021404585,0.022460938,-0.79003906,0.5595703,1583769939095,-3287455757489,0.029310096,1,1
1583769940189,NaN,-0.059517514,0.01928711,-0.81518555,0.59033203,1583769939175,-3287455757489,0.039858527,1,1
1583769940192,NaN,-0.09616831,0.0075683594,-0.8137207,0.58618164,1583769939255,-3287455757489,0.039858527,1,1
1583769940194,NaN,-0.14367013,0.020507812,-0.8059082,0.58154297,1583769939335,-3287455757489,0.039858527,1,1
1583769940198,NaN,-0.17274256,0.027832031,-0.8071289,0.5698242,1583769939415,-3287455757489,0.039858527,1,1
1583769940201,NaN,-0.18332647,0.025878906,-0.81591797,0.55908203,1583769939495,-3287455757489,0.039858527,1,1
1583769940204,NaN,-0.16369916,0.016113281,-0.81274414,0.5727539,1583769939575,-3287455757489,0.039858527,1,1
1583769940207,NaN,-0.15011734,0.025634766,-0.81689453,0.5683594,1583769939655,-3287455757489,0.039858527,1,1
1583769940211,NaN,-0.10261246,0.030273438,-0.81396484,0.55981445,1583769939735,-3287455757489,0.039858527,1,1
1583769940214,NaN,-0.04673889,0.029052734,-0.81225586,0.5595703,1583769939815,-3287455757489,0.039858527,1,1
1583769940218,NaN,0.019156842,0.022460938,-0.82910156,0.5673828,1583769939895,-3287455757489,0.039858527,1,1
1583769940221,37.5,0.053485867,0.03564453,-0.80566406,0.56933594,1583769939975,-3287455757489,0.039858527,1,1
1583769940225,NaN,0.074926935,0.026367188,-0.8149414,0.56103516,1583769940055,-3287455757489,0.039858527,1,1
1583769940227,NaN,0.11381525,0.028808594,-0.82373047,0.5637207,1583769940135,-3287455757489,0.039858527,1,1
1583769940230,NaN,0.16015203,0.03466797,-0.81030273,0.55981445,1583769940215,-3287455757489,0.039858527,1,1
1583769942700,NaN,0.203775,0.028564453,-0.82421875,0.5583496,1583769940295,8962898178911,0.039858527,1,1
1583769942705,NaN,0.23502447,0.037109375,-0.8210449,0.55566406,1583769940375,8962898178911,0.039858527,1,1
1583769942710,NaN,0.24198072,0.036132812,-0.8149414,0.55078125,1583769940455,8962898178911,0.039858527,1,1
1583769942717,NaN,0.2530092,0.024658203,-0.8261719,0.5559082,1583769940535,8962898178911,0.039858527,1,1
1583769942722,NaN,0.24022521,0.01928711,-0.8105469,0.55908203,1583769940615,8962898178911,0.039858527,1,1
1583769942726,NaN,0.21611191,0.0234375,-0.8276367,0.5563965,1583769940695,8962898178911,0.039858527,1,1
1583769942732,NaN,0.1952368,0.040039062,-0.8190918,0.55981445,1583769940775,8962898178911,0.039858527,1,1
1583769942736,NaN,0.1687097,0.03100586,-0.8210449,0.55444336,1583769940855,8962898178911,0.039858527,1,1
1583769942741,NaN,0.16838042,0.03564453,-0.8249512,0.5527344,1583769940935,8962898178911,0.039858527,1,1
1583769942746,NaN,0.16642566,0.033447266,-0.8203125,0.5551758,1583769941015,8962898178911,0.039858527,1,1
1583769942750,NaN,0.14317329,0.014404297,-0.828125,0.5554199,1583769941095,8962898178911,0.039858527,1,1
1583769942754,NaN,0.10291808,0.0146484375,-0.8137207,0.5695801,1583769941175,8962898178911,0.039858527,1,1
1583769942758,NaN,0.07253733,0.029541016,-0.82128906,0.5673828,1583769941255,8962898178911,0.039858527,1,1
1583769942761,NaN,0.03660201,0.0107421875,-0.8088379,0.5576172,1583769941335,8962898178911,0.039858527,1,1
1583769942767,NaN,0.01470518,0.020507812,-0.8239746,0.56591797,1583769941415,8962898178911,0.039858527,1,1
1583769942772,NaN,-0.011424627,0.025390625,-0.81469727,0.5612793,1583769941495,8962898178911,0.039858527,1,1
1583769942776,NaN,-0.009972717,0.026123047,-0.8083496,0.5605469,1583769941575,8962898178911,0.039858527,1,1
1583769942779,NaN,-0.028300786,0.009765625,-0.8117676,0.5593262,1583769941655,8962898178911,0.039858527,1,1
1583769942783,NaN,-0.043132003,0.026855469,-0.8027344,0.55078125,1583769941735,8962898178911,0.026961792,1,1
1583769942787,NaN,-0.066728674,0.0146484375,-0.8288574,0.5722656,1583769941815,8962898178911,0.035958357,1,1
1583769942790,NaN,-0.09096173,0.026367188,-0.82666016,0.5583496,1583769941895,8962898178911,0.035958357,1,1
1583769942795,NaN,-0.10765785,0.035888672,-0.81152344,0.56518555,1583769941975,8962898178911,0.035958357,1,1
1583769942797,NaN,-0.09965524,0.03173828,-0.81811523,0.5493164,1583769942055,8962898178911,0.035958357,1,1
1583769942800,NaN,-0.05818395,0.036865234,-0.8317871,0.5517578,1583769942135,8962898178911,0.035958357,1,1
1583769942804,NaN,-0.042470053,0.036376953,-0.8178711,0.5539551,1583769942215,8962898178911,0.035958357,1,1
1583769942807,NaN,-0.019395566,0.017089844,-0.81884766,0.5605469,1583769942295,8962898178911,0.035958357,1,1
1583769942810,NaN,-0.0050889757,0.028320312,-0.81225586,0.56152344,1583769942375,8962898178911,0.035958357,1,1
1583769942812,NaN,0.004579721,0.03149414,-0.82055664,0.5656738,1583769942455,8962898178911,0.035958357,1,1
1583769942816,NaN,0.0037254815,0.022216797,-0.8132324,0.5595703,1583769942535,8962898178911,0.035958357,1,1
1583769942819,NaN,0.022476306,0.024414062,-0.8129883,0.56396484,1583769942615,8962898178911,0.035958357,1,1
1583769942823,NaN,0.027574757,0.02319336,-0.8178711,0.56152344,1583769942695,8962898178911,0.035958357,1,1
1583769942826,21.428572,0.042324264,0.020751953,-0.82299805,0.5739746,1583769942775,8962898178911,0.035958357,1,1
1583769945281,NaN,0.011213866,0.010498047,-0.7973633,0.5917969,1583769942855,2766508041602,0.035958357,1,1
1583769945288,NaN,-0.018731743,0.0014648438,-0.8190918,0.60791016,1583769942935,2766508041602,0.035958357,1,1
1583769945292,NaN,-0.11841273,-0.0146484375,-0.74780273,0.62280273,1583769943015,2766508041602,0.07458926,1,1
1583769945299,NaN,-0.2136546,-0.0075683594,-0.7741699,0.5932617,1583769943095,2766508041602,0.07458926,1,1
1583769945305,NaN,-0.2536392,0.009033203,-0.78271484,0.56030273,1583769943175,2766508041602,0.07458926,1,1
1583769945312,NaN,-0.26033905,0.02734375,-0.81811523,0.5703125,1583769943255,2766508041602,0.07458926,1,1
1583769945316,NaN,-0.19446729,-0.008300781,-0.8911133,0.47998047,1583769943335,2766508041602,0.12148713,1,1
1583769945319,NaN,-0.113217466,0.046875,-0.86743164,0.47021484,1583769943415,2766508041602,0.12148713,1,1
1583769945323,NaN,-0.038362566,0.044677734,-0.86743164,0.4873047,1583769943495,2766508041602,0.12148713,1,1
1583769945326,NaN,0.025805458,0.024658203,-0.85595703,0.48095703,1583769943575,2766508041602,0.12148713,1,1
1583769945329,NaN,0.036704812,-0.0036621094,-0.8312988,0.53881836,1583769943655,2766508041602,0.12148713,1,1
1583769945332,NaN,0.06699277,0.048828125,-0.8469238,0.5595703,1583769943735,2766508041602,0.12148713,1,1
1583769945335,NaN,0.16787481,0.05908203,-0.82470703,0.54003906,1583769943815,2766508041602,0.12148713,1,1
1583769945338,NaN,0.23526873,0.017333984,-0.8010254,0.5593262,1583769943895,2766508041602,0.12148713,1,1
1583769945341,NaN,0.3985252,0.048339844,-0.8339844,0.6035156,1583769943975,2766508041602,0.12148713,1,1
1583769945344,NaN,0.49303746,0.056640625,-0.7980957,0.60424805,1583769944055,2766508041602,0.12148713,1,1
1583769945347,NaN,0.50826365,-0.0063476562,-0.78222656,0.5744629,1583769944135,2766508041602,0.12148713,1,1
1583769945351,NaN,0.46474376,-0.015380859,-0.7775879,0.5900879,1583769944215,2766508041602,0.12148713,1,1
1583769945353,NaN,0.2973355,-0.005859375,-0.78466797,0.5710449,1583769944295,2766508041602,0.12148713,1,1
1583769945356,NaN,0.08521529,0.0026855469,-0.80078125,0.60375977,1583769944375,2766508041602,0.12148713,1,1
1583769945359,NaN,-0.11454787,0.03100586,-0.7780762,0.6159668,1583769944455,2766508041602,0.12148713,1,1
1583769945362,NaN,-0.2646244,0.020019531,-0.80322266,0.5710449,1583769944535,2766508041602,0.12148713,1,1
1583769945366,NaN,-0.29033008,0.025878906,-0.7956543,0.5563965,1583769944615,2766508041602,0.12148713,1,1
1583769945369,NaN,-0.34892535,0.030029297,-0.8161621,0.5732422,1583769944695,2766508041602,0.12148713,1,1
1583769945373,NaN,-0.4814647,0.0390625,-0.7844238,0.61157227,1583769944775,2766508041602,0.12148713,1,1
1583769945376,NaN,-0.5652113,0.076660156,-0.7426758,0.63183594,1583769944855,2766508041602,0.12148713,1,1
1583769945380,NaN,-0.6250389,0.115722656,-0.80615234,0.59594727,1583769944935,2766508041602,0.12148713,1,1
1583769945383,NaN,-0.63694364,0.0715332,-0.79907227,0.58813477,1583769945015,2766508041602,0.12148713,1,1
1583769945387,NaN,-0.62866646,0.068115234,-0.7717285,0.6086426,1583769945095,2766508041602,0.12148713,1,1
1583769945390,NaN,-0.5314407,0.07788086,-0.8183594,0.5800781,1583769945175,2766508041602,0.12148713,1,1
1583769945393,NaN,-0.39121267,0.072265625,-0.826416,0.57470703,1583769945255,2766508041602,0.12148713,1,1
1583769945397,NaN,-0.19526832,0.080566406,-0.8041992,0.53808594,1583769945335,2766508041602,0.12148713,1,1
1583769947866,NaN,-0.00965332,0.07299805,-0.8059082,0.5600586,1583769945415,-3430163570682,0.12148713,1,1
1583769947872,34.090908,0.08291358,0.068603516,-0.82592773,0.5917969,1583769945495,-3430163570682,0.12148713,1,1
1583769947876,NaN,0.056650784,0.043701172,-0.7807617,0.6208496,1583769945575,-3430163570682,0.12148713,1,1
1583769947882,NaN,0.0139279915,0.092041016,-0.74243164,0.65625,1583769945655,-3430163570682,0.12148713,1,1
1583769947885,NaN,0.08851978,0.087402344,-0.7619629,0.6069336,1583769945735,-3430163570682,0.12148713,1,1
1583769947890,NaN,0.22673523,0.09887695,-0.79345703,0.5476074,1583769945815,-3430163570682,0.12148713,1,1
1583769947894,NaN,0.26978168,0.096191406,-0.83618164,0.5263672,1583769945895,-3430163570682,0.082723334,1,1
1583769947898,NaN,0.32003298,0.13305664,-0.8449707,0.54418945,1583769945975,-3430163570682,0.082723334,1,1
1583769947901,NaN,0.40037623,0.1381836,-0.81347656,0.5529785,1583769946055,-3430163570682,0.082723334,1,1
1583769947905,NaN,0.38066158,0.11450195,-0.81689453,0.5449219,1583769946135,-3430163570682,0.082723334,1,1
1583769947909,NaN,0.37141094,0.14135742,-0.8244629,0.55566406,1583769946215,-3430163570682,0.082723334,1,1
1583769947915,NaN,0.31025198,0.09326172,-0.80371094,0.53344727,1583769946295,-3430163570682,0.082723334,1,1
1583769947919,NaN,0.29017398,0.125,-0.8366699,0.54003906,1583769946375,-3430163570682,0.082723334,1,1
1583769947922,NaN,0.34817997,0.14477539,-0.8400879,0.52978516,1583769946455,-3430163570682,0.082723334,1,1
1583769947926,NaN,0.49385893,0.13574219,-0.8149414,0.529541,1583769946535,-3430163570682,0.082723334,1,1
1583769947931,NaN,0.6806307,0.09790039,-0.84472656,0.5500488,1583769946615,-3430163570682,0.082723334,1,1
1583769947933,NaN,0.7139018,0.087646484,-0.796875,0.57177734,1583769946695,-3430163570682,0.082723334,1,1
1583769947936,NaN,0.615924,0.07836914,-0.81689453,0.57373047,1583769946775,-3430163570682,0.082723334,1,1
1583769947941,NaN,0.5167902,0.084472656,-0.80688477,0.5698242,1583769946855,-3430163570682,0.082723334,1,1
1583769947946,NaN,0.41378963,0.083496094,-0.81347656,0.55908203,1583769946935,-3430163570682,0.082723334,1,1
1583769947949,NaN,0.31080103,0.0793457,-0.80566406,0.5649414,1583769947015,-3430163570682,0.082723334,1,1
1583769947952,NaN,0.2359181,0.0769043,-0.8054199,0.5842285,1583769947095,-3430163570682,0.082723334,1,1
1583769947955,NaN,0.1536962,0.052734375,-0.80371094,0.57666016,1583769947175,-3430163570682,0.082723334,1,1
1583769947959,NaN,0.117225505,0.068359375,-0.80371094,0.56689453,1583769947255,-3430163570682,0.082723334,1,1
1583769947963,NaN,0.024587313,0.0637207,-0.80493164,0.5673828,1583769947335,-3430163570682,0.082723334,1,1
1583769947966,NaN,-0.11295948,0.055908203,-0.8027344,0.564209,1583769947415,-3430163570682,0.082723334,1,1
1583769947970,NaN,-0.27997288,0.07055664,-0.80493164,0.58813477,1583769947495,-3430163570682,0.07112751,1,1
1583769947972,NaN,-0.371459,0.111083984,-0.85498047,0.5266113,1583769947575,-3430163570682,0.089064494,1,1
1583769947975,NaN,-0.35097218,0.10620117,-0.83740234,0.5168457,1583769947655,-3430163570682,0.089064494,1,1
1583769947979,NaN,-0.31383243,0.083740234,-0.8261719,0.54663086,1583769947735,-3430163570682,0.089064494,1,1
1583769947981,NaN,-0.27493188,0.059570312,-0.82543945,0.57714844,1583769947815,-3430163570682,0.089064494,1,1
1583769947986,NaN,-0.27758247,0.05493164,-0.7854004,0.5883789,1583769947895,-3430163570682,0.089064494,1,1
1583769950646,NaN,-0.27031156,0.053955078,-0.8144531,0.59155273,1583769947975,8820190365718,0.089064494,1,1
1583769950651,NaN,-0.21772303,0.07543945,-0.7939453,0.56030273,1583769948055,8820190365718,0.089064494,1,1
1583769950656,NaN,-0.16494341,0.053466797,-0.8010254,0.5727539,1583769948135,8820190365718,0.089064494,1,1
1583769950662,NaN,-0.14397137,0.041992188,-0.80737305,0.5695801,1583769948215,8820190365718,0.089064494,1,1
1583769950665,NaN,-0.07990288,0.07543945,-0.8005371,0.5510254,1583769948295,8820190365718,0.089064494,1,1
1583769950669,NaN,-0.022526508,0.05493164,-0.80029297,0.57910156,1583769948375,8820190365718,0.089064494,1,1
1583769950672,NaN,0.046398368,0.033691406,-0.8129883,0.56811523,1583769948455,8820190365718,0.089064494,1,1
1583769950675,NaN,-0.041533288,0.0546875,-0.8215332,0.5749512,1583769948535,8820190365718,0.089064494,1,1
1583769950681,NaN,-0.1425906,0.06542969,-0.80737305,0.5419922,1583769948615,8820190365718,0.089064494,1,1
1583769950686,NaN,-0.18216075,0.053710938,-0.8312988,0.5600586,1583769948695,8820190365718,0.089064494,1,1
1583769950690,NaN,-0.17541324,0.04736328,-0.828125,0.5708008,1583769948775,8820190365718,0.089064494,1,1
1583769950695,NaN,-0.117679976,0.047851562,-0.8112793,0.5749512,1583769948855,8820190365718,0.089064494,1,1
1583769950698,NaN,-0.10098883,0.044677734,-0.79711914,0.58374023,1583769948935,8820190365718,0.089064494,1,1
1583769950701,NaN,-0.15402989,0.0021972656,-0.7973633,0.59106445,1583769949015,8820190365718,0.089064494,1,1
1583769950704,NaN,-0.19067185,0.010498047,-0.7753906,0.58740234,1583769949095,8820190365718,0.089064494,1,1
1583769950709,NaN,-0.18979871,0.029052734,-0.7963867,0.56811523,1583769949175,8820190365718,0.089064494,1,1
1583769950712,NaN,-0.21010955,0.020996094,-0.83154297,0.55615234,1583769949255,8820190365718,0.089064494,1,1
1583769950715,NaN,-0.14379224,0.06689453,-0.83496094,0.52246094,1583769949335,8820190365718,0.089064494,1,1
1583769950718,NaN,-0.0985683,0.09692383,-0.83862305,0.54052734,1583769949415,8820190365718,0.089064494,1,1
1583769950721,NaN,0.007768,0.06738281,-0.8376465,0.5266113,1583769949495,8820190365718,0.089064494,1,1
1583769950724,NaN,0.07368074,0.049804688,-0.83813477,0.5185547,1583769949575,8820190365718,0.089064494,1,1
1583769950726,14.423077,0.122136734,0.044677734,-0.83984375,0.51220703,1583769949655,8820190365718,0.089064494,1,1
1583769950729,NaN,0.16501069,0.068115234,-0.8449707,0.52441406,1583769949735,8820190365718,0.089064494,1,1
1583769950732,NaN,0.20405245,0.05419922,-0.8430176,0.5124512,1583769949815,8820190365718,0.089064494,1,1
1583769950735,NaN,0.28106704,0.068359375,-0.85058594,0.5205078,1583769949895,8820190365718,0.089064494,1,1
1583769950738,NaN,0.44065925,0.08496094,-0.8664551,0.4975586,1583769949975,8820190365718,0.089064494,1,1
1583769950741,NaN,0.60073537,0.08618164,-0.86621094,0.49047852,1583769950055,8820190365718,0.089064494,1,1
1583769950744,NaN,0.69422084,0.07836914,-0.85375977,0.49780273,1583769950135,8820190365718,0.057039108,1,1
1583769950747,NaN,0.7479036,0.050048828,-0.8417969,0.5073242,1583769950215,8820190365718,0.057039108,1,1
1583769950750,NaN,0.7202763,0.068847656,-0.8659668,0.5,1583769950295,8820190365718,0.057039108,1,1
1583769950753,NaN,0.6961289,0.08129883,-0.84716797,0.5007324,1583769950375,8820190365718,0.057039108,1,1
1583769950757,NaN,0.6869893,0.083740234,-0.8742676,0.5058594,1583769950455,8820190365718,0.057039108,1,1
1583769953034,NaN,0.68117017,0.060791016,-0.8588867,0.50927734,1583769950535,2623800228410,0.057039108,1,1
1583769953040,NaN,0.63890857,0.018066406,-0.828125,0.5085449,1583769950615,2623800228410,0.057039108,1,1
1583769953045,NaN,0.5823706,0.032226562,-0.84936523,0.52905273,1583769950695,2623800228410,0.057039108,1,1
1583769953049,NaN,0.487667,-2.4414062E-4,-0.828125,0.5354004,1583769950775,2623800228410,0.057039108,1,1
1583769953054,NaN,0.37670377,2.4414062E-4,-0.83862305,0.5397949,1583769950855,2623800228410,0.057039108,1,1
1583769953058,NaN,0.17966425,0.0,-0.8105469,0.5437012,1583769950935,2623800228410,0.057039108,1,1
1583769953061,NaN,-0.023867076,-7.324219E-4,-0.8171387,0.53564453,1583769951015,2623800228410,0.057039108,1,1
1583769953063,NaN,-0.16129948,0.013671875,-0.8342285,0.53149414,1583769951095,2623800228410,0.057039108,1,1
1583769953067,NaN,-0.23359723,0.0031738281,-0.85717773,0.53149414,1583769951175,2623800228410,0.057039108,1,1
1583769953070,NaN,-0.31809548,-0.0031738281,-0.83862305,0.53125,1583769951255,2623800228410,0.057039108,1,1
1583769953073,NaN,-0.38099524,0.015380859,-0.8457031,0.5205078,1583769951335,2623800228410,0.057039108,1,1
1583769953077,NaN,-0.46247783,0.017578125,-0.8417969,0.5229492,1583769951415,2623800228410,0.057039108,1,1
1583769953081,NaN,-0.5069785,0.013427734,-0.8520508,0.5192871,1583769951495,2623800228410,0.057039108,1,1
1583769953085,NaN,-0.4973475,0.021484375,-0.84375,0.52124023,1583769951575,2623800228410,0.057039108,1,1
1583769953088,NaN,-0.47738445,0.01953125,-0.8479004,0.5090332,1583769951655,2623800228410,0.057039108,1,1
1583769953091,NaN,-0.40662768,0.026367188,-0.8569336,0.51782227,1583769951735,2623800228410,0.057039108,1,1
1583769953095,NaN,-0.3451768,0.009033203,-0.84106445,0.5119629,1583769951815,2623800228410,0.057039108,1,1
1583769953100,NaN,-0.2275588,0.012207031,-0.85498047,0.52001953,1583769951895,2623800228410,0.0526518,1,1
1583769953103,NaN,-0.113207966,0.013916016,-0.8598633,0.51416016,1583769951975,2623800228410,0.0526518,1,1
1583769953108,NaN,-0.06420888,-0.0056152344,-0.84521484,0.53222656,1583769952055,2623800228410,0.0526518,1,1
1583769953111,NaN,-0.05919671,0.0026855469,-0.8220215,0.5427246,1583769952135,2623800228410,0.0526518,1,1
1583769953113,NaN,-0.020542732,0.010253906,-0.83447266,0.564209,1583769952215,2623800228410,0.0526518,1,1
1583769953118,NaN,-0.042996358,0.0073242188,-0.7944336,0.5773926,1583769952295,2623800228410,0.0526518,1,1
1583769953120,NaN,-0.0725859,-0.020263672,-0.79003906,0.5908203,1583769952375,2623800228410,0.0526518,1,1
1583769953122,NaN,-0.12374064,-0.0146484375,-0.7910156,0.5866699,1583769952455,2623800228410,0.0526518,1,1
1583769953125,NaN,-0.17363901,0.015136719,-0.79711914,0.56640625,1583769952535,2623800228410,0.0526518,1,1
1583769953128,NaN,-0.2514471,0.013671875,-0.7758789,0.5683594,1583769952615,2623800228410,0.0526518,1,1
1583769953131,NaN,-0.34042272,-0.0026855469,-0.8352051,0.57592773,1583769952695,2623800228410,0.06200355,1,1
1583769953134,NaN,-0.42052388,0.0017089844,-0.80908203,0.57788086,1583769952775,2623800228410,0.06200355,1,1
1583769953136,NaN,-0.48300186,0.02368164,-0.82592773,0.5463867,1583769952855,2623800228410,0.06200355,1,1
1583769953139,NaN,-0.5401792,0.06201172,-0.82470703,0.5493164,1583769952935,2623800228410,0.06200355,1,1
1583769953142,NaN,-0.5237432,0.07055664,-0.83203125,0.5419922,1583769953015,2623800228410,0.06200355,1,1
1583769955617,NaN,-0.476185,0.037597656,-0.8491211,0.5383301,1583769953095,-3572871383874,0.06200355,1,1
1583769955621,NaN,-0.4242752,0.020507812,-0.8461914,0.5246582,1583769953175,-3572871383874,0.06200355,1,1
1583769955625,NaN,-0.3036137,0.018554688,-0.8359375,0.51660156,1583769953255,-3572871383874,0.06200355,1,1
1583769955629,NaN,-0.14371847,0.011474609,-0.8383789,0.51220703,1583769953335,-3572871383874,0.06200355,1,1
1583769955633,NaN,-0.0014217546,0.018310547,-0.84228516,0.5378418,1583769953415,-3572871383874,0.06200355,1,1
1583769955637,NaN,0.09530926,0.018310547,-0.8376465,0.52319336,1583769953495,-3572871383874,0.06200355,1,1
1583769955642,15.306123,0.21961145,0.01977539,-0.85668945,0.5397949,1583769953575,-3572871383874,0.06200355,1,1
1583769955647,NaN,0.30323452,0.012939453,-0.8347168,0.54174805,1583769953655,-3572871383874,0.06200355,1,1
1583769955651,NaN,0.3949554,0.009033203,-0.8330078,0.5449219,1583769953735,-3572871383874,0.06200355,1,1
1583769955655,NaN,0.3959029,-0.0012207031,-0.82006836,0.5671387,1583769953815,-3572871383874,0.06200355,1,1
1583769955658,NaN,0.36533847,-0.020507812,-0.80859375,0.57470703,1583769953895,-3572871383874,0.06200355,1,1
1583769955662,NaN,0.28107664,-0.027832031,-0.7841797,0.5673828,1583769953975,-3572871383874,0.06200355,1,1
1583769955667,NaN,0.18248777,-0.043945312,-0.8039551,0.5761719,1583769954055,-3572871383874,0.06200355,1,1
1583769955669,NaN,0.09083662,4.8828125E-4,-0.80859375,0.579834,1583769954135,-3572871383874,0.06200355,1,1
1583769955673,NaN,-0.01841569,0.018798828,-0.8083496,0.5749512,1583769954215,-3572871383874,0.06200355,1,1
1583769955676,NaN,-0.16920622,-0.040771484,-0.7956543,0.56274414,1583769954295,-3572871383874,0.06211928,1,1
1583769955679,NaN,-0.28086713,-0.038085938,-0.8210449,0.5661621,1583769954375,-3572871383874,0.06211928,1,1
1583769955683,NaN,-0.33662578,0.01928711,-0.8352051,0.5373535,1583769954455,-3572871383874,0.06574277,1,1
1583769955686,NaN,-0.3997523,0.033935547,-0.83496094,0.54785156,1583769954535,-3572871383874,0.06574277,1,1
1583769955690,NaN,-0.4348261,0.021972656,-0.83154297,0.5576172,1583769954615,-3572871383874,0.06574277,1,1
1583769955693,NaN,-0.47119883,0.00390625,-0.829834,0.5439453,1583769954695,-3572871383874,0.06574277,1,1
1583769955696,NaN,-0.41806257,0.014160156,-0.829834,0.5366211,1583769954775,-3572871383874,0.06574277,1,1
1583769955699,NaN,-0.31483948,0.0012207031,-0.8352051,0.52319336,1583769954855,-3572871383874,0.06574277,1,1
1583769955701,NaN,-0.17134891,0.03173828,-0.8444824,0.5283203,1583769954935,-3572871383874,0.06574277,1,1
1583769955706,NaN,-0.021581784,0.041748047,-0.85058594,0.5366211,1583769955015,-3572871383874,0.06574277,1,1
1583769955708,NaN,0.0577769,-0.0068359375,-0.8408203,0.56103516,1583769955095,-3572871383874,0.06574277,1,1
1583769955711,37.5,0.12720364,-0.0061035156,-0.8244629,0.53466797,1583769955175,-3572871383874,0.06574277,1,1
1583769955714,NaN,0.220944,-0.018066406,-0.79833984,0.5390625,1583769955255,-3572871383874,0.06574277,1,1
1583769955717,NaN,0.2885156,-0.0043945312,-0.8330078,0.564209,1583769955335,-3572871383874,0.06574277,1,1
1583769955720,NaN,0.26212358,0.0021972656,-0.8186035,0.57373047,1583769955415,-3572871383874,0.06574277,1,1
1583769955722,NaN,0.22127734,-0.018798828,-0.798584,0.5703125,1583769955495,-3572871383874,0.06574277,1,1
1583769955725,NaN,0.22755568,0.0031738281,-0.81152344,0.53466797,1583769955575,-3572871383874,0.06574277,1,1
1583769958002,NaN,0.22998948,0.016601562,-0.8366699,0.5571289,1583769955655,8677482552526,0.06574277,1,1
1583769958008,NaN,0.1854726,-0.033203125,-0.8276367,0.52978516,1583769955735,8677482552526,0.06574277,1,1
1583769958012,NaN,0.12298739,-0.01977539,-0.82714844,0.52197266,1583769955815,8677482552526,0.06574277,1,1
1583769958016,NaN,0.06787976,0.03491211,-0.8664551,0.5163574,1583769955895,8677482552526,0.06758155,1,1
1583769958021,NaN,0.011896558,0.06518555,-0.8535156,0.51953125,1583769955975,8677482552526,0.06758155,1,1
1583769958026,NaN,0.035875168,0.03466797,-0.8366699,0.51293945,1583769956055,8677482552526,0.06758155,1,1
1583769958031,NaN,0.023302415,0.018066406,-0.83447266,0.5449219,1583769956135,8677482552526,0.06758155,1,1
1583769958034,NaN,0.044599622,0.03491211,-0.83691406,0.5258789,1583769956215,8677482552526,0.06758155,1,1
1583769958038,NaN,0.04959319,0.029296875,-0.82177734,0.54003906,1583769956295,8677482552526,0.06758155,1,1
1583769958041,NaN,0.1416685,0.035888672,-0.8444824,0.52197266,1583769956375,8677482552526,0.06758155,1,1
1583769958044,NaN,0.2617259,0.056396484,-0.84472656,0.5378418,1583769956455,8677482552526,0.06758155,1,1
1583769958047,NaN,0.29518497,0.05053711,-0.8342285,0.53027344,1583769956535,8677482552526,0.06758155,1,1
1583769958051,NaN,0.30459413,0.017822266,-0.83081055,0.5395508,1583769956615,8677482552526,0.06758155,1,1
1583769958056,NaN,0.3541517,0.030761719,-0.84716797,0.5317383,1583769956695,8677482552526,0.06758155,1,1
1583769958061,NaN,0.40121743,0.051757812,-0.83862305,0.52124023,1583769956775,8677482552526,0.06758155,1,1
1583769958066,NaN,0.3693633,0.046875,-0.8327637,0.52856445,1583769956855,8677482552526,0.06758155,1,1
1583769958070,NaN,0.2908294,-0.004638672,-0.8322754,0.548584,1583769956935,8677482552526,0.06758155,1,1
1583769958074,NaN,0.21550924,0.016113281,-0.8444824,0.55322266,1583769957015,8677482552526,0.06758155,1,1
1583769958076,NaN,0.20207952,0.045654297,-0.81762695,0.56347656,1583769957095,8677482552526,0.06758155,1,1
1583769958079,NaN,0.10828773,0.015136719,-0.8046875,0.57006836,1583769957175,8677482552526,0.06758155,1,1
1583769958083,NaN,0.029533943,-0.0063476562,-0.80615234,0.5930176,1583769957255,8677482552526,0.06758155,1,1
1583769958086,NaN,-0.10326048,-0.006591797,-0.79418945,0.58618164,1583769957335,8677482552526,0.06758155,1,1
1583769958089,NaN,-0.2564937,-0.018066406,-0.77685547,0.578125,1583769957415,8677482552526,0.06758155,1,1
1583769958093,NaN,-0.37371135,-0.029785156,-0.79785156,0.5900879,1583769957495,8677482552526,0.06758155,1,1
1583769958097,NaN,-0.43279925,2.4414062E-4,-0.77490234,0.57250977,1583769957575,8677482552526,0.06758155,1,1
1583769958103,NaN,-0.5238164,-0.0043945312,-0.82006836,0.5834961,1583769957655,8677482552526,0.06758155,1,1
1583769958106,NaN,-0.60848373,-0.0036621094,-0.82470703,0.55371094,1583769957735,8677482552526,0.06758155,1,1
1583769958109,NaN,-0.62523705,0.028076172,-0.8352051,0.56933594,1583769957815,8677482552526,0.06758155,1,1
1583769958113,NaN,-0.57066375,0.01928711,-0.8071289,0.55200195,1583769957895,8677482552526,0.06758155,1,1
1583769958116,NaN,-0.53920245,0.026123047,-0.8239746,0.5432129,1583769957975,8677482552526,0.06758155,1,1
1583769958118,NaN,-0.5463156,0.01977539,-0.82128906,0.56811523,1583769958055,8677482552526,0.06758155,1,1
1583769958121,NaN,-0.4962257,0.0087890625,-0.810791,0.5656738,1583769958135,8677482552526,0.06758155,1,1
1583769960583,NaN,-0.40489256,0.024414062,-0.81152344,0.5554199,1583769958215,2481092415218,0.06758155,1,1
1583769960605,NaN,-0.29388094,0.01928711,-0.81640625,0.5625,1583769958295,2481092415218,0.06758155,1,1
1583769960628,NaN,-0.16702159,0.024658203,-0.82006836,0.56518555,1583769958375,2481092415218,0.06758155,1,1
1583769960629,NaN,-0.041075755,0.014160156,-0.80200195,0.5566406,1583769958455,2481092415218,0.055269144,1,1
1583769960632,NaN,0.03821215,0.009033203,-0.8232422,0.5625,1583769958535,2481092415218,0.055269144,1,1
1583769960633,17.44186,0.13460837,0.048095703,-0.8186035,0.55493164,1583769958615,2481092415218,0.055269144,1,1
1583769960636,NaN,0.20902215,0.052001953,-0.82836914,0.5534668,1583769958695,2481092415218,0.055269144,1,1
1583769960637,NaN,0.25305912,0.023925781,-0.8408203,0.5488281,1583769958775,2481092415218,0.055269144,1,1
1583769960638,NaN,0.26565439,0.0017089844,-0.83154297,0.5390625,1583769958855,2481092415218,0.055269144,1,1
1583769960638,NaN,0.26612934,0.0041503906,-0.83935547,0.5349121,1583769958935,2481092415218,0.055269144,1,1
1583769960639,NaN,0.2870338,-0.0021972656,-0.83740234,0.54956055,1583769959015,2481092415218,0.055269144,1,1
1583769960645,NaN,0.28768292,0.008056641,-0.829834,0.57250977,1583769959095,2481092415218,0.055269144,1,1
1583769960650,NaN,0.2291236,0.0063476562,-0.7915039,0.564209,1583769959175,2481092415218,0.055269144,1,1
1583769960653,NaN,0.16599436,-0.011230469,-0.8083496,0.58374023,1583769959255,2481092415218,0.055269144,1,1
1583769960655,NaN,0.08162504,-0.018554688,-0.7973633,0.5876465,1583769959335,2481092415218,0.055269144,1,1
1583769960658,NaN,0.004223352,-0.022216797,-0.78271484,0.57958984,1583769959415,2481092415218,0.055269144,1,1
1583769960661,NaN,-0.07176728,-0.024658203,-0.7883301,0.59277344,1583769959495,2481092415218,0.04671387,1,1
1583769960664,NaN,-0.18195695,-0.040039062,-0.7890625,0.5900879,1583769959575,2481092415218,0.04671387,1,1
1583769960667,NaN,-0.26926517,-0.018066406,-0.78100586,0.5732422,1583769959655,2481092415218,0.04671387,1,1
1583769960671,NaN,-0.342226,-0.021972656,-0.7980957,0.5866699,1583769959735,2481092415218,0.04671387,1,1
1583769960673,NaN,-0.4078594,-0.020263672,-0.8039551,0.59765625,1583769959815,2481092415218,0.04671387,1,1
1583769960677,NaN,-0.47808814,-0.02319336,-0.79125977,0.59643555,1583769959895,2481092415218,0.04671387,1,1
1583769960680,NaN,-0.52859247,-0.013427734,-0.8063965,0.59033203,1583769959975,2481092415218,0.04671387,1,1
1583769960684,NaN,-0.5632668,-0.013671875,-0.79174805,0.58203125,1583769960055,2481092415218,0.04671387,1,1
1583769960687,NaN,-0.54749316,-0.010986328,-0.8129883,0.57592773,1583769960135,2481092415218,0.04671387,1,1
1583769960690,NaN,-0.5211506,-0.017578125,-0.8034668,0.5793457,1583769960215,2481092415218,0.04005841,1,1
1583769960693,NaN,-0.46411213,-0.0107421875,-0.8137207,0.5773926,1583769960295,2481092415218,0.04005841,1,1
1583769960695,NaN,-0.39336202,-9.765625E-4,-0.81347656,0.55981445,1583769960375,2481092415218,0.04005841,1,1
1583769960698,NaN,-0.31743625,-0.010253906,-0.80908203,0.5683594,1583769960455,2481092415218,0.04005841,1,1
1583769960705,NaN,-0.19854963,-0.016845703,-0.8317871,0.55615234,1583769960535,2481092415218,0.04005841,1,1
1583769960707,NaN,-0.09185386,0.020263672,-0.82128906,0.5539551,1583769960615,2481092415218,0.04005841,1,1
1583769960710,NaN,-0.0070462152,0.004638672,-0.81591797,0.5773926,1583769960695,2481092415218,0.04005841,1,1
1583769963170,NaN,0.062846534,-0.0146484375,-0.82666016,0.5932617,1583769960775,-3715579197066,0.04005841,1,1
1583769963176,26.785715,0.14665286,-0.011962891,-0.7897949,0.5769043,1583769960855,-3715579197066,0.040420577,1,1
1583769963180,NaN,0.19832464,-0.018554688,-0.8000488,0.56469727,1583769960935,-3715579197066,0.040420577,1,1
1583769963185,NaN,0.2287388,-0.028076172,-0.79248047,0.5734863,1583769961015,-3715579197066,0.040420577,1,1
1583769963188,NaN,0.22877426,-0.0068359375,-0.8156738,0.5895996,1583769961095,-3715579197066,0.040420577,1,1
1583769963193,NaN,0.22225292,-0.015380859,-0.7844238,0.58251953,1583769961175,-3715579197066,0.040420577,1,1
1583769963197,NaN,0.19415103,-0.030273438,-0.8029785,0.57543945,1583769961255,-3715579197066,0.040420577,1,1
1583769963201,NaN,0.15133964,-0.008056641,-0.8027344,0.5620117,1583769961335,-3715579197066,0.040420577,1,1
1583769963204,NaN,0.11911493,-0.018310547,-0.8171387,0.5734863,1583769961415,-3715579197066,0.040420577,1,1
1583769963209,NaN,0.053245623,-0.01953125,-0.8190918,0.5751953,1583769961495,-3715579197066,0.040420577,1,1
1583769963212,NaN,-0.0050067916,0.0056152344,-0.81762695,0.56347656,1583769961575,-3715579197066,0.040420577,1,1
1583769963217,NaN,-0.033514813,-0.014892578,-0.80981445,0.5666504,1583769961655,-3715579197066,0.040420577,1,1
1583769963219,NaN,-0.022228124,0.005126953,-0.8239746,0.56152344,1583769961735,-3715579197066,0.040420577,1,1
1583769963224,NaN,-0.013942148,0.016113281,-0.80908203,0.56933594,1583769961815,-3715579197066,0.040420577,1,1
1583769963227,NaN,-0.011994906,-9.765625E-4,-0.80688477,0.56152344,1583769961895,-3715579197066,0.040420577,1,1
1583769963231,NaN,0.012857467,0.0029296875,-0.8173828,0.5722656,1583769961975,-3715579197066,0.040420577,1,1
1583769963234,NaN,0.05669777,0.022216797,-0.81884766,0.546875,1583769962055,-3715579197066,0.040420577,1,1
1583769963238,NaN,0.1250988,0.040039062,-0.82958984,0.5527344,1583769962135,-3715579197066,0.040420577,1,1
1583769963242,NaN,0.18940115,0.04638672,-0.829834,0.55908203,1583769962215,-3715579197066,0.040420577,1,1
1583769963245,NaN,0.21098174,0.013916016,-0.82788086,0.5732422,1583769962295,-3715579197066,0.040420577,1,1
1583769963250,NaN,0.19767816,-0.013183594,-0.78027344,0.5788574,1583769962375,-3715579197066,0.055067107,1,1
1583769963252,NaN,0.2032119,-0.001953125,-0.7998047,0.59472656,1583769962455,-3715579197066,0.055067107,1,1
1583769963255,NaN,0.18689524,0.01977539,-0.79248047,0.60498047,1583769962535,-3715579197066,0.055067107,1,1
1583769963258,NaN,0.16252033,0.0014648438,-0.7841797,0.6069336,1583769962615,-3715579197066,0.055067107,1,1
1583769963261,NaN,0.07130525,-0.01977539,-0.7788086,0.6220703,1583769962695,-3715579197066,0.055067107,1,1
1583769963264,NaN,-0.011193936,-0.03149414,-0.7663574,0.6040039,1583769962775,-3715579197066,0.055067107,1,1
1583769963268,NaN,-0.08943238,-0.046142578,-0.7663574,0.6125488,1583769962855,-3715579197066,0.055067107,1,1
1583769963271,NaN,-0.15090466,-0.025634766,-0.78149414,0.5895996,1583769962935,-3715579197066,0.055067107,1,1
1583769963274,NaN,-0.23858374,0.011962891,-0.77734375,0.5925293,1583769963015,-3715579197066,0.055067107,1,1
1583769963277,NaN,-0.3527647,-0.0061035156,-0.8088379,0.59716797,1583769963095,-3715579197066,0.055067107,1,1
1583769963280,NaN,-0.48587838,-0.021484375,-0.78344727,0.61206055,1583769963175,-3715579197066,0.055067107,1,1
1583769963283,NaN,-0.50277805,0.0053710938,-0.82128906,0.5686035,1583769963255,-3715579197066,0.06357461,1,1
1583769965753,NaN,-0.44998756,0.021728516,-0.81469727,0.5686035,1583769963335,8534774739334,0.06357461,1,1
1583769965757,NaN,-0.39837846,0.02734375,-0.81103516,0.55737305,1583769963415,8534774739334,0.06357461,1,1
1583769965762,NaN,-0.33460486,0.0126953125,-0.8322754,0.5683594,1583769963495,8534774739334,0.06357461,1,1
1583769965766,NaN,-0.24133556,0.041503906,-0.8251953,0.55493164,1583769963575,8534774739334,0.06357461,1,1
1583769965771,NaN,-0.089394696,0.026123047,-0.814209,0.5332031,1583769963655,8534774739334,0.06357461,1,1
1583769965774,20.833334,0.060455803,0.024658203,-0.8388672,0.54174805,1583769963735,8534774739334,0.06357461,1,1
1583769965778,NaN,0.23694311,0.041748047,-0.8395996,0.54345703,1583769963815,8534774739334,0.06357461,1,1
1583769965780,NaN,0.3612331,0.044189453,-0.8317871,0.5305176,1583769963895,8534774739334,0.06357461,1,1
1583769965784,NaN,0.48055208,0.043701172,-0.83325195,0.5336914,1583769963975,8534774739334,0.06357461,1,1
1583769965787,NaN,0.59105945,0.03100586,-0.8249512,0.54174805,1583769964055,8534774739334,0.06357461,1,1
1583769965791,NaN,0.7551667,0.030517578,-0.8273926,0.53930664,1583769964135,8534774739334,0.06357461,1,1
1583769965795,NaN,0.7597525,0.017089844,-0.8251953,0.5793457,1583769964215,8534774739334,0.06357461,1,1
1583769965800,NaN,0.708235,0.033447266,-0.798584,0.592041,1583769964295,8534774739334,0.06357461,1,1
1583769965803,NaN,0.6186525,9.765625E-4,-0.77783203,0.60058594,1583769964375,8534774739334,0.06357461,1,1
1583769965806,NaN,0.53709483,-0.005859375,-0.78759766,0.6047363,1583769964455,8534774739334,0.06357461,1,1
1583769965809,NaN,0.41302884,0.008056641,-0.78466797,0.6022949,1583769964535,8534774739334,0.06357461,1,1
1583769965812,NaN,0.25106338,-0.005126953,-0.7792969,0.61376953,1583769964615,8534774739334,0.06357461,1,1
1583769965815,NaN,0.070120156,-0.024169922,-0.78466797,0.6201172,1583769964695,8534774739334,0.06357461,1,1
1583769965817,NaN,-0.13930178,-0.022460938,-0.76708984,0.61376953,1583769964775,8534774739334,0.06357461,1,1
1583769965821,NaN,-0.3207827,-0.016357422,-0.77368164,0.60595703,1583769964855,8534774739334,0.06357461,1,1
1583769965825,NaN,-0.48317358,-0.025634766,-0.76660156,0.5905762,1583769964935,8534774739334,0.06357461,1,1
1583769965829,NaN,-0.6073768,-0.0126953125,-0.7849121,0.59716797,1583769965015,8534774739334,0.06357461,1,1
1583769965832,NaN,-0.76808673,-0.012207031,-0.8000488,0.6208496,1583769965095,8534774739334,0.06357461,1,1
1583769965836,NaN,-0.8146508,-0.0068359375,-0.7734375,0.6020508,1583769965175,8534774739334,0.06357461,1,1
1583769965840,NaN,-0.82543373,-0.01977539,-0.8029785,0.5998535,1583769965255,8534774739334,0.06357461,1,1
1583769965843,NaN,-0.74665475,0.010498047,-0.8054199,0.5793457,1583769965335,8534774739334,0.06357461,1,1
1583769965847,NaN,-0.6736646,0.026855469,-0.7944336,0.59033203,1583769965415,8534774739334,0.06357461,1,1
1583769965851,NaN,-0.60090303,0.001953125,-0.8027344,0.5871582,1583769965495,8534774739334,0.06357461,1,1
1583769965854,NaN,-0.49401522,0.009033203,-0.80566406,0.58984375,1583769965575,8534774739334,0.06357461,1,1
1583769965858,NaN,-0.35207108,0.026611328,-0.798584,0.57836914,1583769965655,8534774739334,0.06357461,1,1
1583769965862,NaN,-0.1922185,0.020751953,-0.8054199,0.5703125,1583769965735,8534774739334,0.06357461,1,1
1583769965865,NaN,-0.04854867,0.026611328,-0.8054199,0.57788086,1583769965815,8534774739334,0.042287808,1,1
1583769968336,NaN,0.08757353,0.02368164,-0.8095703,0.58374023,1583769965895,2338384602025,0.042287808,1,1
1583769968342,26.785715,0.18926717,0.021484375,-0.7980957,0.5756836,1583769965975,2338384602025,0.042287808,1,1
1583769968348,NaN,0.30164394,0.014160156,-0.8066406,0.58496094,1583769966055,2338384602025,0.042287808,1,1
1583769968354,NaN,0.35904422,0.01171875,-0.7849121,0.60546875,1583769966135,2338384602025,0.042287808,1,1
1583769968357,NaN,0.37800348,0.010009766,-0.7817383,0.61987305,1583769966215,2338384602025,0.042287808,1,1
1583769968360,NaN,0.29889372,-0.012451172,-0.7734375,0.62646484,1583769966295,2338384602025,0.042287808,1,1
1583769968363,NaN,0.23886321,0.009521484,-0.7751465,0.6225586,1583769966375,2338384602025,0.042287808,1,1
1583769968366,NaN,0.17786981,-0.018554688,-0.76416016,0.62524414,1583769966455,2338384602025,0.042287808,1,1
1583769968369,NaN,0.10420699,-0.025146484,-0.77612305,0.6152344,1583769966535,2338384602025,0.042287808,1,1
1583769968372,NaN,-0.01077282,-0.02734375,-0.7697754,0.6245117,1583769966615,2338384602025,0.042287808,1,1
1583769968375,NaN,-0.13359942,-0.026611328,-0.76538086,0.6125488,1583769966695,2338384602025,0.042287808,1,1
1583769968378,NaN,-0.23616344,-0.029052734,-0.7685547,0.6008301,1583769966775,2338384602025,0.03947158,1,1
1583769968383,NaN,-0.32186958,-0.009521484,-0.7602539,0.5925293,1583769966855,2338384602025,0.03947158,1,1
1583769968387,NaN,-0.3956695,-0.014404297,-0.7878418,0.6113281,1583769966935,2338384602025,0.036647126,1,1
1583769968390,NaN,-0.47034356,-0.014404297,-0.79345703,0.62231445,1583769967015,2338384602025,0.036647126,1,1
1583769968393,NaN,-0.5032955,-0.015625,-0.78100586,0.6196289,1583769967095,2338384602025,0.036647126,1,1
1583769968396,NaN,-0.49901286,-9.765625E-4,-0.77612305,0.6113281,1583769967175,2338384602025,0.036647126,1,1
1583769968399,NaN,-0.43327096,0.0,-0.7780762,0.6130371,1583769967255,2338384602025,0.036647126,1,1
1583769968402,NaN,-0.40376016,-0.00390625,-0.77783203,0.62280273,1583769967335,2338384602025,0.036647126,1,1
1583769968405,NaN,-0.3407724,-0.00390625,-0.7727051,0.6154785,1583769967415,2338384602025,0.036647126,1,1
1583769968407,NaN,-0.29528758,-0.016357422,-0.7758789,0.61621094,1583769967495,2338384602025,0.036647126,1,1
1583769968410,NaN,-0.2152365,-0.009765625,-0.77783203,0.61376953,1583769967575,2338384602025,0.036647126,1,1
1583769968413,NaN,-0.14521703,-0.013671875,-0.7705078,0.6130371,1583769967655,2338384602025,0.036647126,1,1
1583769968416,NaN,-0.08773353,-0.01171875,-0.78125,0.6176758,1583769967735,2338384602025,0.036647126,1,1
1583769968419,NaN,-0.054350063,-9.765625E-4,-0.77124023,0.62231445,1583769967815,2338384602025,0.036647126,1,1
1583769968422,NaN,-0.01728824,-0.0026855469,-0.7746582,0.61572266,1583769967895,2338384602025,0.03373914,1,1
1583769968425,NaN,0.008890331,-0.018554688,-0.77246094,0.6257324,1583769967975,2338384602025,0.03373914,1,1
1583769968428,NaN,0.021795636,-0.011474609,-0.7648926,0.62524414,1583769968055,2338384602025,0.03373914,1,1
1583769968431,NaN,0.0032380149,-0.0063476562,-0.7727051,0.6418457,1583769968135,2338384602025,0.03373914,1,1
1583769968434,NaN,-0.03842333,-0.017578125,-0.75512695,0.62841797,1583769968215,2338384602025,0.03373914,1,1
1583769968437,NaN,-0.05040009,-0.033203125,-0.77685547,0.62939453,1583769968295,2338384602025,0.03373914,1,1
1583769968440,NaN,-0.08618989,-0.030273438,-0.75927734,0.61987305,1583769968375,2338384602025,0.03373914,1,1
1583769970921,NaN,-0.09633377,-0.03491211,-0.77490234,0.6135254,1583769968455,-3858287010259,0.03373914,1,1
1583769970930,NaN,-0.132348,-0.041503906,-0.77490234,0.6201172,1583769968535,-3858287010259,0.03373914,1,1
1583769970936,NaN,-0.1441434,-0.035888672,-0.7751465,0.60717773,1583769968615,-3858287010259,0.03373914,1,1
1583769970945,NaN,-0.1511149,-0.03173828,-0.7705078,0.5996094,1583769968695,-3858287010259,0.03373914,1,1
1583769970947,NaN,-0.12982413,-0.016845703,-0.7561035,0.57470703,1583769968775,-3858287010259,0.03373914,1,1
1583769970951,NaN,-0.12376395,-0.032958984,-0.8046875,0.6140137,1583769968855,-3858287010259,0.06453723,1,1
1583769970955,NaN,-0.09650297,-0.03125,-0.7915039,0.6074219,1583769968935,-3858287010259,0.06453723,1,1
1583769970958,NaN,-0.07413827,-0.011962891,-0.78466797,0.6171875,1583769969015,-3858287010259,0.06453723,1,1
1583769970962,NaN,-0.024175553,-0.009521484,-0.78393555,0.5979004,1583769969095,-3858287010259,0.06453723,1,1
1583769970968,NaN,0.03225508,-0.0061035156,-0.7858887,0.609375,1583769969175,-3858287010259,0.06453723,1,1
1583769970973,18.292683,0.0791079,-0.0034179688,-0.7832031,0.60375977,1583769969255,-3858287010259,0.06453723,1,1
1583769970977,NaN,0.13717814,-0.0075683594,-0.78930664,0.59399414,1583769969335,-3858287010259,0.06453723,1,1
1583769970981,NaN,0.17143814,-0.001953125,-0.78881836,0.60131836,1583769969415,-3858287010259,0.06453723,1,1
1583769970986,NaN,0.22918624,-0.010253906,-0.796875,0.59228516,1583769969495,-3858287010259,0.06453723,1,1
1583769970990,NaN,0.25927734,-4.8828125E-4,-0.7841797,0.59521484,1583769969575,-3858287010259,0.06453723,1,1
1583769970993,NaN,0.29131284,-2.4414062E-4,-0.79956055,0.595459,1583769969655,-3858287010259,0.06453723,1,1
1583769970996,NaN,0.28580925,-0.0029296875,-0.7902832,0.59814453,1583769969735,-3858287010259,0.06453723,1,1
1583769971000,NaN,0.29548872,-0.0041503906,-0.78808594,0.60058594,1583769969815,-3858287010259,0.06453723,1,1
1583769971003,NaN,0.3006448,-0.0061035156,-0.7963867,0.59594727,1583769969895,-3858287010259,0.06453723,1,1
1583769971006,NaN,0.30171704,-0.0063476562,-0.7922363,0.60180664,1583769969975,-3858287010259,0.06453723,1,1
1583769971010,NaN,0.25947422,-0.014892578,-0.7780762,0.6125488,1583769970055,-3858287010259,0.06453723,1,1
1583769971012,NaN,0.21316363,-0.013427734,-0.76904297,0.6196289,1583769970135,-3858287010259,0.06453723,1,1
1583769971016,NaN,0.14303093,-0.028564453,-0.765625,0.6413574,1583769970215,-3858287010259,0.06453723,1,1
1583769971019,NaN,0.066648535,-0.03100586,-0.77441406,0.6320801,1583769970295,-3858287010259,0.06453723,1,1
1583769971022,NaN,-0.0024227153,-0.033691406,-0.7602539,0.6286621,1583769970375,-3858287010259,0.06453723,1,1
1583769971026,NaN,-0.084071726,-0.03881836,-0.7644043,0.6201172,1583769970455,-3858287010259,0.06453723,1,1
1583769971027,NaN,-0.15300177,-0.03955078,-0.7597656,0.62231445,1583769970535,-3858287010259,0.06453723,1,1
1583769971031,NaN,-0.22762246,-0.037109375,-0.7578125,0.6152344,1583769970615,-3858287010259,0.06453723,1,1
1583769971033,NaN,-0.25567713,-0.029541016,-0.7663574,0.59472656,1583769970695,-3858287010259,0.06453723,1,1
1583769971036,NaN,-0.3014216,-0.045166016,-0.7915039,0.6315918,1583769970775,-3858287010259,0.06453723,1,1
1583769971039,NaN,-0.35637942,-0.025634766,-0.7753906,0.62768555,1583769970855,-3858287010259,0.06453723,1,1
1583769971041,NaN,-0.39366877,-0.02368164,-0.7836914,0.6220703,1583769970935,-3858287010259,0.06453723,1,1
1583769973505,NaN,-0.36990166,-0.01928711,-0.7805176,0.5925293,1583769971015,8392066926142,0.06453723,1,1
1583769973510,NaN,-0.33795568,-0.019042969,-0.7915039,0.6064453,1583769971095,8392066926142,0.06453723,1,1
1583769973515,NaN,-0.25594237,-0.0073242188,-0.7907715,0.6032715,1583769971175,8392066926142,0.06453723,1,1
1583769973519,NaN,-0.18933286,-0.018310547,-0.7841797,0.59936523,1583769971255,8392066926142,0.06453723,1,1
1583769973523,NaN,-0.10232511,-0.015625,-0.79833984,0.5930176,1583769971335,8392066926142,0.06453723,1,1
1583769973526,NaN,-0.03324617,-0.014160156,-0.779541,0.6040039,1583769971415,8392066926142,0.04728141,1,1
1583769973529,NaN,0.032500878,-0.012451172,-0.77563477,0.6152344,1583769971495,8392066926142,0.04728141,1,1
1583769973532,25.862068,0.09876561,-0.024658203,-0.78564453,0.61083984,1583769971575,8392066926142,0.04728141,1,1
1583769973536,NaN,0.12103052,-0.01953125,-0.77685547,0.6074219,1583769971655,8392066926142,0.04728141,1,1
1583769973540,NaN,0.17324317,-0.025878906,-0.7937012,0.6147461,1583769971735,8392066926142,0.04728141,1,1
1583769973544,NaN,0.20748013,-0.018554688,-0.76708984,0.6291504,1583769971815,8392066926142,0.04728141,1,1
1583769973548,NaN,0.2188573,-0.03125,-0.76831055,0.62402344,1583769971895,8392066926142,0.04728141,1,1
1583769973552,NaN,0.17549211,-0.041259766,-0.7705078,0.6262207,1583769971975,8392066926142,0.04728141,1,1
1583769973557,NaN,0.12820362,-0.031982422,-0.76049805,0.6281738,1583769972055,8392066926142,0.04728141,1,1
1583769973560,NaN,0.04524337,-0.036621094,-0.76171875,0.6303711,1583769972135,8392066926142,0.04728141,1,1
1583769973563,NaN,-0.019675838,-0.045410156,-0.7619629,0.62597656,1583769972215,8392066926142,0.04728141,1,1
1583769973567,NaN,-0.11301947,-0.04296875,-0.76049805,0.6269531,1583769972295,8392066926142,0.04728141,1,1
1583769973570,NaN,-0.15197225,-0.029296875,-0.7548828,0.5942383,1583769972375,8392066926142,0.04728141,1,1
1583769973574,NaN,-0.19457836,-0.036621094,-0.76953125,0.6274414,1583769972455,8392066926142,0.04728141,1,1
1583769973577,NaN,-0.24729538,-0.05078125,-0.7763672,0.6413574,1583769972535,8392066926142,0.04728141,1,1
1583769973580,NaN,-0.28466183,-0.03173828,-0.7602539,0.6479492,1583769972615,8392066926142,0.04728141,1,1
1583769973583,NaN,-0.33500472,-0.034423828,-0.75439453,0.6315918,1583769972695,8392066926142,0.04728141,1,1
1583769973587,NaN,-0.35723254,-0.040283203,-0.7565918,0.6464844,1583769972775,8392066926142,0.04728141,1,1
1583769973592,NaN,-0.36186704,-0.026367188,-0.7507324,0.64160156,1583769972855,8392066926142,0.04728141,1,1
1583769973599,NaN,-0.33220106,-0.026367188,-0.7578125,0.6328125,1583769972935,8392066926142,0.04728141,1,1
1583769973599,NaN,-0.31690538,-0.030029297,-0.75,0.65063477,1583769973015,8392066926142,0.04728141,1,1
1583769973600,NaN,-0.288999,-0.031982422,-0.7558594,0.6525879,1583769973095,8392066926142,0.04728141,1,1
1583769973607,NaN,-0.2693752,-0.026123047,-0.73999023,0.6520996,1583769973175,8392066926142,0.04728141,1,1
1583769973610,NaN,-0.23518872,-0.03149414,-0.75,0.6516113,1583769973255,8392066926142,0.04728141,1,1
1583769973612,NaN,-0.2608846,-0.036132812,-0.74780273,0.6520996,1583769973335,8392066926142,0.03702254,1,1
1583769973617,NaN,-0.2631087,-0.033691406,-0.7463379,0.6489258,1583769973415,8392066926142,0.03702254,1,1
1583769973620,NaN,-0.24429555,-0.034179688,-0.7524414,0.65649414,1583769973495,8392066926142,0.03702254,1,1
1583769976089,NaN,-0.21839125,-0.030761719,-0.7470703,0.6542969,1583769973575,2195676788833,0.03702254,1,1
1583769976094,NaN,-0.2036146,-0.033203125,-0.74902344,0.657959,1583769973655,2195676788833,0.03702254,1,1
1583769976099,NaN,-0.18253566,-0.03857422,-0.751709,0.64819336,1583769973735,2195676788833,0.03702254,1,1
1583769976104,NaN,-0.17328717,-0.032958984,-0.75097656,0.6491699,1583769973815,2195676788833,0.03702254,1,1
1583769976111,NaN,-0.17790653,-0.036376953,-0.75634766,0.6386719,1583769973895,2195676788833,0.03702254,1,1
1583769976115,NaN,-0.16099559,-0.044921875,-0.74975586,0.63916016,1583769973975,2195676788833,0.03702254,1,1
1583769976119,NaN,-0.13541962,-0.041992188,-0.75756836,0.62475586,1583769974055,2195676788833,0.03702254,1,1
1583769976123,NaN,-0.08785323,-0.032470703,-0.7668457,0.61743164,1583769974135,2195676788833,0.03702254,1,1
1583769976127,NaN,-0.05468442,-0.028320312,-0.75146484,0.6208496,1583769974215,2195676788833,0.03702254,1,1
1583769976131,NaN,0.0042893863,-0.042236328,-0.7705078,0.63134766,1583769974295,2195676788833,0.03702254,1,1
1583769976136,NaN,0.028648188,-0.042236328,-0.7578125,0.64941406,1583769974375,2195676788833,0.03702254,1,1
1583769976141,20.833334,0.0623405,-0.025390625,-0.7663574,0.638916,1583769974455,2195676788833,0.03702254,1,1
1583769976145,NaN,0.08726001,-0.022705078,-0.75756836,0.6418457,1583769974535,2195676788833,0.03702254,1,1
1583769976150,NaN,0.13995649,-0.016357422,-0.7692871,0.62353516,1583769974615,2195676788833,0.03702254,1,1
1583769976154,NaN,0.16748051,-0.01977539,-0.76464844,0.6281738,1583769974695,2195676788833,0.03702254,1,1
1583769976157,NaN,0.20725225,-0.017822266,-0.77246094,0.6196289,1583769974775,2195676788833,0.03702254,1,1
1583769976162,NaN,0.23263156,-0.024902344,-0.76464844,0.62280273,1583769974855,2195676788833,0.03702254,1,1
1583769976165,NaN,0.2668049,-0.01928711,-0.77490234,0.6171875,1583769974935,2195676788833,0.03702254,1,1
1583769976168,NaN,0.27174243,-0.011962891,-0.7687988,0.6237793,1583769975015,2195676788833,0.025816645,1,1
1583769976170,NaN,0.25269505,-0.009765625,-0.77441406,0.6188965,1583769975095,2195676788833,0.025816645,1,1
1583769976173,NaN,0.22565502,-0.025390625,-0.765625,0.64819336,1583769975175,2195676788833,0.03434669,1,1
1583769976178,NaN,0.2022283,-0.013671875,-0.75390625,0.6398926,1583769975255,2195676788833,0.03434669,1,1
1583769976183,NaN,0.21899699,-0.025878906,-0.7687988,0.6359863,1583769975335,2195676788833,0.03434669,1,1
1583769976185,NaN,0.21135299,-0.021484375,-0.767334,0.62060547,1583769975415,2195676788833,0.03434669,1,1
1583769976189,NaN,0.20247775,-0.03125,-0.7663574,0.63256836,1583769975495,2195676788833,0.03434669,1,1
1583769976192,NaN,0.15249188,-0.037109375,-0.75634766,0.62353516,1583769975575,2195676788833,0.03434669,1,1
1583769976197,NaN,0.115758836,-0.04345703,-0.7614746,0.63061523,1583769975655,2195676788833,0.03434669,1,1
1583769976200,NaN,0.06411304,-0.040771484,-0.75756836,0.62402344,1583769975735,2195676788833,0.03434669,1,1
1583769976208,NaN,0.04928166,-0.033691406,-0.7553711,0.6044922,1583769975815,2195676788833,0.03434669,1,1
