local_ts,breathing_rate,breathing_signal,accel_x,accel_y,accel_z,bs_timestamp,rs_ts,activity_level,current_exercise,pred_exercise
1584037129447,NaN,-0.0583255,0.0053710938,-0.98095703,0.16308594,1584037126474,-6539435106589,0.038435675,0,1
1584037129455,NaN,-0.03917232,0.012939453,-0.9831543,0.15625,1584037126566,-6539435106589,0.038435675,0,1
1584037129480,NaN,-0.0062620468,0.009521484,-0.97875977,0.17138672,1584037126659,-6539435106589,0.038435675,0,1
1584037129481,NaN,0.038880438,0.014160156,-0.97753906,0.1628418,1584037126751,-6539435106589,0.038435675,0,1
1584037129482,NaN,0.09538126,0.018066406,-0.9807129,0.16674805,1584037126844,-6539435106589,0.038435675,0,1
1584037129482,NaN,0.1743265,0.009277344,-0.97802734,0.16333008,1584037126936,-6539435106589,0.032562356,0,1
1584037129483,NaN,0.23510216,0.012207031,-0.9814453,0.17529297,1584037127029,-6539435106589,0.025652198,0,1
1584037129498,NaN,0.2763677,0.004638672,-0.9863281,0.16455078,1584037127121,-6539435106589,0.025652198,0,1
1584037129499,NaN,0.2947586,0.016113281,-0.98657227,0.1706543,1584037127214,-6539435106589,0.020946356,0,1
1584037129500,NaN,0.2872336,-0.0031738281,-0.984375,0.1784668,1584037127306,-6539435106589,0.020946356,0,1
1584037129501,NaN,0.27817515,0.009765625,-0.97998047,0.16723633,1584037127399,-6539435106589,0.020946356,0,1
1584037129502,NaN,0.26448163,0.010009766,-0.9812012,0.1743164,1584037127491,-6539435106589,0.020946356,0,1
1584037129503,NaN,0.21710633,0.0048828125,-0.9736328,0.18725586,1584037127584,-6539435106589,0.020946356,0,1
1584037129503,NaN,0.168707,0.0068359375,-0.967041,0.18383789,1584037127676,-6539435106589,0.020946356,0,1
1584037129504,NaN,0.1271786,0.0041503906,-0.9741211,0.19702148,1584037127769,-6539435106589,0.020946356,0,1
1584037129507,NaN,0.06573183,0.004638672,-0.9628906,0.1977539,1584037127861,-6539435106589,0.020946356,0,1
1584037129512,NaN,0.0022804562,0.008056641,-0.97265625,0.19873047,1584037127954,-6539435106589,0.020946356,0,1
1584037129516,17.44186,-0.068304196,0.0048828125,-0.9729004,0.19580078,1584037128047,-6539435106589,0.020946356,0,1
1584037129519,NaN,-0.11138465,-0.0024414062,-0.9980469,0.1809082,1584037128139,-6539435106589,0.030129367,0,1
1584037129522,NaN,-0.14656612,-0.017822266,-0.9836426,0.16552734,1584037128232,-6539435106589,0.030129367,0,1
1584037129526,NaN,-0.16877025,0.0029296875,-0.9838867,0.16699219,1584037128324,-6539435106589,0.030129367,0,1
1584037129530,NaN,-0.15540901,0.0053710938,-0.97509766,0.16503906,1584037128417,-6539435106589,0.030129367,0,1
1584037129533,NaN,-0.15070398,0.009033203,-0.984375,0.15698242,1584037128509,-6539435106589,0.030129367,0,1
1584037129536,NaN,-0.14290789,0.0043945312,-0.98046875,0.16235352,1584037128602,-6539435106589,0.030129367,0,1
1584037129540,NaN,-0.10046945,9.765625E-4,-0.9831543,0.15844727,1584037128694,-6539435106589,0.030129367,0,1
1584037129544,NaN,-0.061407626,-7.324219E-4,-0.9824219,0.16625977,1584037128787,-6539435106589,0.030129367,0,1
1584037129547,NaN,-0.017479964,0.0061035156,-0.97998047,0.1706543,1584037128879,-6539435106589,0.030129367,0,1
1584037129550,NaN,0.039922573,-0.001953125,-0.9814453,0.16601562,1584037128972,-6539435106589,0.030129367,0,1
1584037129553,NaN,0.08727282,0.01171875,-0.97998047,0.17749023,1584037129064,-6539435106589,0.030129367,0,1
1584037129557,NaN,0.13734105,0.0017089844,-0.9831543,0.16723633,1584037129157,-6539435106589,0.030129367,0,1
1584037129563,NaN,0.14166881,-0.009033203,-0.98168945,0.1784668,1584037129249,-6539435106589,0.030129367,0,1
1584037129566,NaN,0.14568573,0.008300781,-0.9790039,0.17822266,1584037129342,-6539435106589,0.030129367,0,1
1584037131628,NaN,0.12806529,-0.0061035156,-0.9782715,0.1875,1584037129435,5710918829811,0.030129367,0,1
1584037131636,NaN,0.09248105,0.0014648438,-0.9777832,0.19482422,1584037129515,5710918829811,0.030129367,0,1
1584037131642,NaN,0.049306307,-0.0021972656,-0.97509766,0.19604492,1584037129595,5710918829811,0.030129367,0,1
1584037131650,NaN,0.01131164,-4.8828125E-4,-0.97387695,0.19824219,1584037129675,5710918829811,0.030129367,0,1
1584037131656,NaN,-0.054100346,-4.8828125E-4,-0.9650879,0.20898438,1584037129755,5710918829811,0.030129367,0,1
1584037131661,NaN,-0.09752583,-0.0126953125,-0.9645996,0.19677734,1584037129835,5710918829811,0.030129367,0,1
1584037131669,NaN,-0.14054595,0.011230469,-0.9758301,0.19824219,1584037129915,5710918829811,0.030129367,0,1
1584037131673,NaN,-0.18511242,-0.021484375,-0.98095703,0.18383789,1584037129995,5710918829811,0.036111362,0,1
1584037131678,NaN,-0.20894998,-0.0026855469,-0.9855957,0.18066406,1584037130075,5710918829811,0.036111362,0,1
1584037131683,NaN,-0.23883666,0.0048828125,-0.9802246,0.17651367,1584037130155,5710918829811,0.036111362,0,1
1584037131686,NaN,-0.23215021,9.765625E-4,-0.9797363,0.17529297,1584037130235,5710918829811,0.036111362,0,1
1584037131689,NaN,-0.22017242,0.0063476562,-0.98339844,0.16821289,1584037130315,5710918829811,0.036111362,0,1
1584037131693,NaN,-0.18754286,0.0078125,-0.9765625,0.17456055,1584037130395,5710918829811,0.036111362,0,1
1584037131696,NaN,-0.13835922,0.0107421875,-0.9831543,0.16674805,1584037130475,5710918829811,0.036111362,0,1
1584037131699,NaN,-0.07798568,0.0078125,-0.98046875,0.16772461,1584037130555,5710918829811,0.036111362,0,1
1584037131704,NaN,-0.027150502,0.0036621094,-0.9807129,0.17480469,1584037130635,5710918829811,0.036111362,0,1
1584037131707,NaN,0.04881711,0.014404297,-0.98095703,0.1743164,1584037130715,5710918829811,0.036111362,0,1
1584037131711,NaN,0.10702903,0.0107421875,-0.9814453,0.17089844,1584037130795,5710918829811,0.036111362,0,1
1584037131716,NaN,0.1528285,0.013916016,-0.98168945,0.16870117,1584037130875,5710918829811,0.036111362,0,1
1584037131719,NaN,0.19059807,0.0036621094,-0.9797363,0.16772461,1584037130955,5710918829811,0.036111362,0,1
1584037131722,NaN,0.19544594,-0.0024414062,-0.9904785,0.1821289,1584037131035,5710918829811,0.036111362,0,1
1584037131725,NaN,0.21262652,0.015136719,-0.9785156,0.1665039,1584037131115,5710918829811,0.036111362,0,1
1584037131728,NaN,0.19447704,-0.0068359375,-0.98291016,0.19042969,1584037131195,5710918829811,0.036111362,0,1
1584037131732,NaN,0.17053406,0.012207031,-0.9733887,0.1887207,1584037131275,5710918829811,0.036111362,0,1
1584037131735,NaN,0.143095,0.0014648438,-0.96606445,0.18847656,1584037131355,5710918829811,0.036111362,0,1
1584037131738,NaN,0.09302791,0.0048828125,-0.9694824,0.1940918,1584037131435,5710918829811,0.036111362,0,1
1584037131741,NaN,0.05183779,0.0107421875,-0.9667969,0.18603516,1584037131515,5710918829811,0.036111362,0,1
1584037131745,NaN,0.028817797,0.0075683594,-0.9855957,0.18017578,1584037131595,5710918829811,0.036111362,0,1
1584037131748,NaN,-0.007816627,-9.765625E-4,-0.9851074,0.17456055,1584037131675,5710918829811,0.036111362,0,1
1584037131752,NaN,-0.022574054,-0.011230469,-0.98657227,0.14770508,1584037131755,5710918829811,0.036111362,0,1
1584037131755,NaN,-0.044683024,-0.006591797,-0.9838867,0.15991211,1584037131835,5710918829811,0.036111362,0,1
1584037131759,NaN,-0.05266243,-0.0073242188,-0.98535156,0.15185547,1584037131915,5710918829811,0.036111362,0,1
1584037134211,NaN,-0.023309024,-4.8828125E-4,-0.97509766,0.14355469,1584037131995,-485752782473,0.036111362,0,1
1584037134223,NaN,-0.020942679,0.005126953,-0.98999023,0.14990234,1584037132075,-485752782473,0.036111362,0,1
1584037134225,NaN,0.043809894,0.010498047,-0.9855957,0.13134766,1584037132155,-485752782473,0.036111362,0,1
1584037134229,41.666668,0.0931924,0.007080078,-0.98095703,0.14672852,1584037132235,-485752782473,0.036111362,0,1
1584037134233,NaN,0.15420996,0.021484375,-0.98950195,0.13891602,1584037132315,-485752782473,0.036111362,0,1
1584037134236,NaN,0.22965848,0.0,-0.9824219,0.1315918,1584037132395,-485752782473,0.036111362,0,1
1584037134241,NaN,0.27736655,0.0041503906,-0.986084,0.1472168,1584037132475,-485752782473,0.036111362,0,1
1584037134242,NaN,0.31015694,-0.0021972656,-0.99121094,0.14086914,1584037132555,-485752782473,0.032780368,0,1
1584037134244,NaN,0.33127424,-0.005126953,-0.98095703,0.1508789,1584037132635,-485752782473,0.032780368,0,1
1584037134248,NaN,0.3148243,0.0087890625,-0.98046875,0.15478516,1584037132715,-485752782473,0.032780368,0,1
1584037134251,NaN,0.31287837,9.765625E-4,-0.9838867,0.16088867,1584037132795,-485752782473,0.032780368,0,1
1584037134255,NaN,0.288002,-0.0034179688,-0.9790039,0.16918945,1584037132875,-485752782473,0.032780368,0,1
1584037134259,NaN,0.22901781,7.324219E-4,-0.97924805,0.18164062,1584037132955,-485752782473,0.032780368,0,1
1584037134262,NaN,0.17872922,-0.0056152344,-0.9707031,0.19116211,1584037133035,-485752782473,0.032780368,0,1
1584037134266,NaN,0.070671685,-0.0024414062,-0.96899414,0.19604492,1584037133115,-485752782473,0.032780368,0,1
1584037134269,NaN,0.003920026,0.009521484,-0.9748535,0.1875,1584037133195,-485752782473,0.032780368,0,1
1584037134273,NaN,-0.08287808,-0.00390625,-0.9782715,0.18041992,1584037133275,-485752782473,0.032780368,0,1
1584037134276,NaN,-0.17394926,-0.0068359375,-0.9914551,0.18188477,1584037133355,-485752782473,0.032780368,0,1
1584037134281,NaN,-0.22587746,-0.008544922,-0.986084,0.16894531,1584037133435,-485752782473,0.032780368,0,1
1584037134285,NaN,-0.2803383,-0.0068359375,-0.98291016,0.16845703,1584037133515,-485752782473,0.032780368,0,1
1584037134289,NaN,-0.30700433,-0.005126953,-0.98046875,0.16186523,1584037133595,-485752782473,0.032780368,0,1
1584037134293,NaN,-0.31460586,2.4414062E-4,-0.98046875,0.16552734,1584037133675,-485752782473,0.032780368,0,1
1584037134296,NaN,-0.3164111,0.0029296875,-0.98291016,0.16259766,1584037133755,-485752782473,0.028783755,0,1
1584037134299,NaN,-0.2926737,0.008056641,-0.98217773,0.16040039,1584037133835,-485752782473,0.028783755,0,1
1584037134318,NaN,-0.2440574,0.0087890625,-0.9819336,0.16088867,1584037133915,-485752782473,0.028783755,0,1
1584037134320,NaN,-0.18261735,-0.0026855469,-0.9807129,0.1640625,1584037133995,-485752782473,0.028783755,0,1
1584037134321,NaN,-0.09367532,-2.4414062E-4,-0.97998047,0.15844727,1584037134075,-485752782473,0.028783755,0,1
1584037134321,NaN,-0.040691316,0.00390625,-0.97680664,0.16210938,1584037134155,-485752782473,0.028783755,0,1
1584037134322,NaN,0.010668942,0.0034179688,-0.98413086,0.16870117,1584037134235,-485752782473,0.028783755,0,1
1584037134323,28.846153,0.06807727,0.013427734,-0.98706055,0.16503906,1584037134315,-485752782473,0.023777092,0,1
1584037134324,NaN,0.09392106,0.0014648438,-0.98291016,0.16333008,1584037134395,-485752782473,0.023777092,0,1
1584037134325,NaN,0.11001731,-4.8828125E-4,-0.98339844,0.18017578,1584037134475,-485752782473,0.023777092,0,1
1584037136798,NaN,0.114036255,0.00390625,-0.9748535,0.16918945,1584037134555,-6754200513819,0.023777092,0,1
1584037136806,NaN,0.11199802,-0.01171875,-0.98217773,0.17797852,1584037134635,-6754200513819,0.023777092,0,1
1584037136813,NaN,0.0866655,4.8828125E-4,-0.97436523,0.19360352,1584037134715,-6754200513819,0.023777092,0,1
1584037136815,NaN,0.03922244,-0.007080078,-0.9716797,0.2019043,1584037134795,-6754200513819,0.023777092,0,1
1584037136819,NaN,-0.018295648,-0.008056641,-0.9682617,0.20288086,1584037134875,-6754200513819,0.023777092,0,1
1584037136823,NaN,-0.08280634,7.324219E-4,-0.9604492,0.21191406,1584037134955,-6754200513819,0.021311672,0,1
1584037136828,NaN,-0.1487131,0.0036621094,-0.96899414,0.19897461,1584037135035,-6754200513819,0.021311672,0,1
1584037136832,NaN,-0.20173925,0.001953125,-0.9729004,0.20214844,1584037135115,-6754200513819,0.021311672,0,1
1584037136835,NaN,-0.23609638,-0.021728516,-0.97802734,0.19091797,1584037135195,-6754200513819,0.026706351,0,1
1584037136838,NaN,-0.28243583,-0.0107421875,-0.98413086,0.19628906,1584037135275,-6754200513819,0.026706351,0,1
1584037136842,NaN,-0.29968503,0.0017089844,-0.97924805,0.17651367,1584037135355,-6754200513819,0.026706351,0,1
1584037136845,NaN,-0.2891858,-0.0034179688,-0.9733887,0.17480469,1584037135435,-6754200513819,0.026706351,0,1
1584037136848,NaN,-0.292801,-0.0043945312,-0.98046875,0.17944336,1584037135515,-6754200513819,0.026706351,0,1
1584037136853,NaN,-0.27050775,0.009521484,-0.9790039,0.16845703,1584037135595,-6754200513819,0.026706351,0,1
1584037136856,NaN,-0.23232032,0.0017089844,-0.9794922,0.18041992,1584037135675,-6754200513819,0.026706351,0,1
1584037136860,NaN,-0.16890429,0.0041503906,-0.9848633,0.17480469,1584037135755,-6754200513819,0.026706351,0,1
1584037136864,NaN,-0.106568724,0.0031738281,-0.97924805,0.17822266,1584037135835,-6754200513819,0.026706351,0,1
1584037136867,NaN,-0.028490515,0.0021972656,-0.9819336,0.17016602,1584037135915,-6754200513819,0.026706351,0,1
1584037136870,NaN,0.022929514,0.0034179688,-0.98168945,0.17944336,1584037135995,-6754200513819,0.026706351,0,1
1584037136873,34.090908,0.08426368,0.0063476562,-0.97998047,0.16967773,1584037136075,-6754200513819,0.026706351,0,1
1584037136877,NaN,0.12734784,0.0021972656,-0.98461914,0.17138672,1584037136155,-6754200513819,0.026706351,0,1
1584037136880,NaN,0.17789282,0.0075683594,-0.9812012,0.1730957,1584037136235,-6754200513819,0.026706351,0,1
1584037136884,NaN,0.18677227,-0.0029296875,-0.9855957,0.1796875,1584037136315,-6754200513819,0.026706351,0,1
1584037136887,NaN,0.1917636,0.005126953,-0.98217773,0.16894531,1584037136395,-6754200513819,0.026706351,0,1
1584037136890,NaN,0.1969871,-0.0021972656,-0.9770508,0.18334961,1584037136475,-6754200513819,0.026706351,0,1
1584037136893,NaN,0.1716152,0.0024414062,-0.97509766,0.18530273,1584037136555,-6754200513819,0.026706351,0,1
1584037136897,NaN,0.1459941,2.4414062E-4,-0.9760742,0.19677734,1584037136635,-6754200513819,0.026706351,0,1
1584037136901,NaN,0.09597421,0.0026855469,-0.9707031,0.20214844,1584037136715,-6754200513819,0.026706351,0,1
1584037136903,NaN,0.046155646,-0.0021972656,-0.9663086,0.20751953,1584037136795,-6754200513819,0.026706351,0,1
1584037136908,NaN,-0.021834789,0.0034179688,-0.96118164,0.20458984,1584037136875,-6754200513819,0.026706351,0,1
1584037136911,NaN,-0.065600105,0.010253906,-0.9650879,0.20996094,1584037136955,-6754200513819,0.026706351,0,1
1584037136915,NaN,-0.12418574,-0.0021972656,-0.97998047,0.20581055,1584037137035,-6754200513819,0.026706351,0,1
1584037139380,NaN,-0.16045277,-0.015136719,-0.9836426,0.1875,1584037137115,5496153422581,0.026706351,0,1
1584037139385,NaN,-0.20044579,-0.001953125,-0.98095703,0.19458008,1584037137195,5496153422581,0.026706351,0,1
1584037139391,NaN,-0.19832148,-0.0056152344,-0.98046875,0.1784668,1584037137275,5496153422581,0.026706351,0,1
1584037139398,NaN,-0.21419178,0.0034179688,-0.97753906,0.17822266,1584037137355,5496153422581,0.026706351,0,1
1584037139403,NaN,-0.20341349,0.0087890625,-0.98291016,0.1772461,1584037137435,5496153422581,0.026706351,0,1
1584037139409,NaN,-0.17815918,-0.0012207031,-0.9772949,0.17285156,1584037137515,5496153422581,0.026706351,0,1
1584037139412,NaN,-0.14668545,0.00390625,-0.9736328,0.17529297,1584037137595,5496153422581,0.026706351,0,1
1584037139416,NaN,-0.09880194,0.005126953,-0.9770508,0.17480469,1584037137675,5496153422581,0.026706351,0,1
1584037139419,NaN,-0.03601302,0.0073242188,-0.9851074,0.16796875,1584037137755,5496153422581,0.023873407,0,1
1584037139422,NaN,0.015793413,0.0,-0.9790039,0.18139648,1584037137835,5496153422581,0.023873407,0,1
1584037139426,32.608696,0.07490171,0.010498047,-0.97631836,0.17138672,1584037137915,5496153422581,0.0227182,0,1
1584037139429,NaN,0.13609172,0.0041503906,-0.982666,0.16967773,1584037137995,5496153422581,0.0227182,0,1
1584037139433,NaN,0.16460504,0.0,-0.9733887,0.17285156,1584037138075,5496153422581,0.0227182,0,1
1584037139436,NaN,0.19616956,0.0061035156,-0.9892578,0.18188477,1584037138155,5496153422581,0.0227182,0,1
1584037139440,NaN,0.1927855,-2.4414062E-4,-0.9802246,0.18383789,1584037138235,5496153422581,0.0227182,0,1
1584037139445,NaN,0.20462336,0.01171875,-0.97998047,0.17602539,1584037138315,5496153422581,0.0227182,0,1
1584037139448,NaN,0.18758784,0.0021972656,-0.9782715,0.18701172,1584037138395,5496153422581,0.0227182,0,1
1584037139451,NaN,0.16504453,0.0026855469,-0.9794922,0.18945312,1584037138475,5496153422581,0.0227182,0,1
1584037139454,NaN,0.12438857,0.0034179688,-0.9760742,0.20410156,1584037138555,5496153422581,0.0227182,0,1
1584037139457,NaN,0.06926824,-0.010253906,-0.9692383,0.2097168,1584037138635,5496153422581,0.0227182,0,1
1584037139475,NaN,-0.0058873645,0.011230469,-0.95874023,0.21142578,1584037138715,5496153422581,0.023973068,0,1
1584037139477,NaN,-0.052291285,0.0048828125,-0.9694824,0.21142578,1584037138795,5496153422581,0.023973068,0,1
1584037139481,NaN,-0.10853553,0.0014648438,-0.97387695,0.19799805,1584037138875,5496153422581,0.023973068,0,1
1584037139485,NaN,-0.15703718,-0.008056641,-0.9777832,0.1887207,1584037138955,5496153422581,0.023973068,0,1
1584037139490,NaN,-0.18121283,-0.010009766,-0.97875977,0.18652344,1584037139035,5496153422581,0.023973068,0,1
1584037139491,NaN,-0.20313542,-4.8828125E-4,-0.9794922,0.19018555,1584037139115,5496153422581,0.023973068,0,1
1584037139494,NaN,-0.1884606,0.0017089844,-0.9782715,0.17016602,1584037139195,5496153422581,0.023973068,0,1
1584037139497,NaN,-0.19354288,0.0063476562,-0.9802246,0.1772461,1584037139275,5496153422581,0.023973068,0,1
1584037139503,NaN,-0.17118181,0.011962891,-0.9824219,0.17382812,1584037139355,5496153422581,0.023973068,0,1
1584037139504,NaN,-0.14875142,0.005126953,-0.97558594,0.17700195,1584037139435,5496153422581,0.023973068,0,1
1584037139507,NaN,-0.100963175,0.012939453,-0.98046875,0.17626953,1584037139515,5496153422581,0.023973068,0,1
1584037139511,NaN,-0.03264919,0.005859375,-0.9831543,0.17016602,1584037139595,5496153422581,0.023973068,0,1
1584037141963,NaN,0.035652105,0.009033203,-0.9746094,0.17749023,1584037139675,-700518189703,0.023973068,0,1
1584037141984,32.608696,0.0897002,0.008056641,-0.98168945,0.17871094,1584037139755,-700518189703,0.023973068,0,1
1584037141989,NaN,0.1336943,0.014892578,-0.9812012,0.17626953,1584037139835,-700518189703,0.023973068,0,1
1584037141993,NaN,0.17206597,0.0061035156,-0.97924805,0.1665039,1584037139915,-700518189703,0.023973068,0,1
1584037141996,NaN,0.19540298,0.004638672,-0.982666,0.17578125,1584037139995,-700518189703,0.023973068,0,1
1584037141999,NaN,0.22090103,0.010498047,-0.9836426,0.1730957,1584037140075,-700518189703,0.023973068,0,1
1584037142003,NaN,0.20248567,-2.4414062E-4,-0.98413086,0.17993164,1584037140155,-700518189703,0.023973068,0,1
1584037142006,NaN,0.21497118,0.008056641,-0.9760742,0.16357422,1584037140235,-700518189703,0.023973068,0,1
1584037142009,NaN,0.190796,0.0043945312,-0.9765625,0.18530273,1584037140315,-700518189703,0.023973068,0,1
1584037142013,NaN,0.17116605,0.001953125,-0.9782715,0.18896484,1584037140395,-700518189703,0.023973068,0,1
1584037142019,NaN,0.12622225,0.0024414062,-0.9724121,0.1977539,1584037140475,-700518189703,0.023973068,0,1
1584037142023,NaN,0.055799145,0.005126953,-0.9707031,0.20947266,1584037140555,-700518189703,0.023973068,0,1
1584037142027,NaN,-0.0021214013,0.0041503906,-0.9626465,0.20947266,1584037140635,-700518189703,0.023973068,0,1
1584037142032,NaN,-0.051509697,0.0043945312,-0.9616699,0.19970703,1584037140715,-700518189703,0.023973068,0,1
1584037142036,NaN,-0.10014617,0.008544922,-0.9699707,0.20727539,1584037140795,-700518189703,0.023973068,0,1
1584037142039,NaN,-0.14695443,-0.015625,-0.9838867,0.19555664,1584037140875,-700518189703,0.030251771,0,1
1584037142043,NaN,-0.17369686,-0.012451172,-0.98535156,0.19140625,1584037140955,-700518189703,0.030251771,0,1
1584037142048,NaN,-0.20334373,-0.0048828125,-0.9760742,0.1850586,1584037141035,-700518189703,0.030251771,0,1
1584037142052,NaN,-0.1998098,0.0,-0.9746094,0.18286133,1584037141115,-700518189703,0.030251771,0,1
1584037142055,NaN,-0.22047983,0.0026855469,-0.9797363,0.17553711,1584037141195,-700518189703,0.030251771,0,1
1584037142059,NaN,-0.20300688,0.010253906,-0.98046875,0.1796875,1584037141275,-700518189703,0.030251771,0,1
1584037142063,NaN,-0.18169554,0.0043945312,-0.9812012,0.17578125,1584037141355,-700518189703,0.030251771,0,1
1584037142066,NaN,-0.14036478,0.0048828125,-0.98217773,0.17407227,1584037141435,-700518189703,0.030251771,0,1
1584037142069,NaN,-0.08281345,0.0021972656,-0.9812012,0.18139648,1584037141515,-700518189703,0.030251771,0,1
1584037142072,NaN,-0.024818942,0.009033203,-0.97924805,0.17700195,1584037141595,-700518189703,0.030251771,0,1
1584037142077,NaN,0.020340163,0.009033203,-0.9782715,0.17333984,1584037141675,-700518189703,0.030251771,0,1
1584037142080,30.0,0.073646046,0.006591797,-0.97875977,0.17700195,1584037141755,-700518189703,0.030251771,0,1
1584037142083,NaN,0.11615175,0.0068359375,-0.9807129,0.17944336,1584037141835,-700518189703,0.030251771,0,1
1584037142086,NaN,0.13894461,-0.0026855469,-0.9814453,0.18310547,1584037141915,-700518189703,0.030251771,0,1
1584037142089,NaN,0.15802246,0.013671875,-0.9772949,0.18237305,1584037141995,-700518189703,0.030251771,0,1
1584037142092,NaN,0.16149487,-0.0034179688,-0.98046875,0.18359375,1584037142075,-700518189703,0.030251771,0,1
1584037142095,NaN,0.15973546,0.0056152344,-0.97631836,0.19018555,1584037142155,-700518189703,0.030251771,0,1
1584037144546,NaN,0.1388785,0.004638672,-0.9765625,0.19604492,1584037142235,-6896908327012,0.030251771,0,1
1584037144553,NaN,0.10761722,-7.324219E-4,-0.9785156,0.19873047,1584037142315,-6896908327012,0.030251771,0,1
1584037144559,NaN,0.06906607,0.009277344,-0.97216797,0.19506836,1584037142395,-6896908327012,0.030251771,0,1
1584037144567,NaN,0.03619219,0.0012207031,-0.9758301,0.19140625,1584037142475,-6896908327012,0.030251771,0,1
1584037144572,NaN,0.014146302,0.010986328,-0.9760742,0.16748047,1584037142555,-6896908327012,0.030251771,0,1
1584037144578,NaN,-0.042792395,-0.057861328,-0.9831543,0.19702148,1584037142635,-6896908327012,0.07525157,0,1
1584037144583,NaN,-0.074001186,-0.053955078,-0.982666,0.16967773,1584037142715,-6896908327012,0.07525157,0,1
1584037144589,NaN,-0.097871445,-0.036376953,-0.9663086,0.17578125,1584037142795,-6896908327012,0.07525157,0,1
1584037144592,NaN,-0.106341876,-0.060546875,-0.9770508,0.17016602,1584037142875,-6896908327012,0.07525157,0,1
1584037144598,NaN,-0.13731179,-0.057373047,-0.9824219,0.19677734,1584037142955,-6896908327012,0.07525157,0,1
1584037144602,NaN,-0.16972871,-0.079833984,-0.97924805,0.20288086,1584037143035,-6896908327012,0.07525157,0,1
1584037144605,NaN,-0.18812604,-0.075927734,-0.96118164,0.19946289,1584037143115,-6896908327012,0.07525157,0,1
1584037144608,NaN,-0.20490216,-0.07885742,-0.97509766,0.20678711,1584037143195,-6896908327012,0.07525157,0,1
1584037144611,NaN,-0.23155408,-0.07080078,-0.98999023,0.23510742,1584037143275,-6896908327012,0.07525157,0,1
1584037144615,NaN,-0.2634666,-0.05493164,-0.94628906,0.22851562,1584037143355,-6896908327012,0.07525157,0,1
1584037144618,NaN,-0.2943658,-0.040771484,-0.939209,0.21826172,1584037143435,-6896908327012,0.07525157,0,1
1584037144621,NaN,-0.384583,-0.049804688,-0.984375,0.25317383,1584037143515,-6896908327012,0.07525157,0,1
1584037144625,NaN,-0.38899258,-0.024414062,-0.96655273,0.25561523,1584037143595,-6896908327012,0.07525157,0,1
1584037144628,NaN,-0.44621465,-0.02368164,-0.9448242,0.2548828,1584037143675,-6896908327012,0.07525157,0,1
1584037144631,NaN,-0.49693823,-0.041503906,-0.92871094,0.2409668,1584037143755,-6896908327012,0.07525157,0,1
1584037144634,NaN,-0.5807603,-0.075927734,-0.9719238,0.27368164,1584037143835,-6896908327012,0.07525157,0,1
1584037144637,NaN,-0.5957413,-0.028564453,-0.9506836,0.2512207,1584037143915,-6896908327012,0.07525157,0,1
1584037144641,NaN,-0.58217794,-0.03540039,-0.9602051,0.23779297,1584037143995,-6896908327012,0.07525157,0,1
1584037144644,NaN,-0.60645294,-0.013427734,-0.9375,0.28198242,1584037144075,-6896908327012,0.07525157,0,1
1584037144648,NaN,-0.6086591,-0.036621094,-0.95092773,0.2553711,1584037144155,-6896908327012,0.07525157,0,1
1584037144652,NaN,-0.5888172,-0.022216797,-0.9289551,0.26513672,1584037144235,-6896908327012,0.07525157,0,1
1584037144655,NaN,-0.55571437,-0.016845703,-0.9523926,0.26049805,1584037144315,-6896908327012,0.07525157,0,1
1584037144658,NaN,-0.5239416,-0.02758789,-0.9614258,0.23803711,1584037144395,-6896908327012,0.07525157,0,1
1584037144661,NaN,-0.43075374,-0.046142578,-0.98046875,0.2397461,1584037144475,-6896908327012,0.07525157,0,1
1584037144665,NaN,-0.38372073,-0.033447266,-0.95751953,0.23803711,1584037144555,-6896908327012,0.07525157,0,1
1584037144667,NaN,-0.2896372,-0.060302734,-0.9868164,0.21899414,1584037144635,-6896908327012,0.07525157,0,1
1584037144670,NaN,-0.20588906,-0.036132812,-0.9765625,0.22314453,1584037144715,-6896908327012,0.07525157,0,1
1584037147129,NaN,-0.045252007,-0.02734375,-1.0102539,0.19921875,1584037144795,5353445609388,0.07525157,0,1
1584037147135,19.23077,0.04252504,-0.030029297,-0.9667969,0.19506836,1584037144875,5353445609388,0.07525157,0,1
1584037147139,NaN,0.09704071,-0.0637207,-0.98413086,0.19311523,1584037144955,5353445609388,0.07525157,0,1
1584037147144,NaN,0.22070833,-0.0024414062,-0.95214844,0.20092773,1584037145035,5353445609388,0.07525157,0,1
1584037147147,NaN,0.29579768,-0.010498047,-0.94262695,0.20727539,1584037145115,5353445609388,0.07525157,0,1
1584037147151,NaN,0.34564582,-0.0075683594,-0.9484863,0.24389648,1584037145195,5353445609388,0.069563374,0,1
1584037147154,NaN,0.38446072,0.020507812,-0.9753418,0.24658203,1584037145275,5353445609388,0.069563374,0,1
1584037147157,NaN,0.3993343,-0.020507812,-1.0029297,0.2409668,1584037145355,5353445609388,0.069563374,0,1
1584037147161,NaN,0.39986464,-0.018798828,-0.96606445,0.22924805,1584037145435,5353445609388,0.069563374,0,1
1584037147164,NaN,0.37274823,-0.07519531,-0.94311523,0.24536133,1584037145515,5353445609388,0.069563374,0,1
1584037147167,NaN,0.32063767,-0.034423828,-0.9477539,0.24267578,1584037145595,5353445609388,0.069563374,0,1
1584037147170,NaN,0.27610067,0.0026855469,-0.93652344,0.24682617,1584037145675,5353445609388,0.069563374,0,1
1584037147173,NaN,0.13717611,-0.022460938,-0.9584961,0.26635742,1584037145755,5353445609388,0.069563374,0,1
1584037147177,NaN,0.050519656,-0.024169922,-0.9921875,0.25146484,1584037145835,5353445609388,0.069563374,0,1
1584037147180,NaN,-0.024404528,-0.053222656,-0.97631836,0.24291992,1584037145915,5353445609388,0.069563374,0,1
1584037147185,NaN,-0.11929953,-0.067871094,-0.9880371,0.22753906,1584037145995,5353445609388,0.069563374,0,1
1584037147189,NaN,-0.1868418,-0.059570312,-0.954834,0.2319336,1584037146075,5353445609388,0.069563374,0,1
1584037147192,NaN,-0.2005793,-0.04345703,-0.97680664,0.23095703,1584037146155,5353445609388,0.069563374,0,1
1584037147196,NaN,-0.23397368,-0.015625,-0.94140625,0.24291992,1584037146235,5353445609388,0.069563374,0,1
1584037147199,NaN,-0.2249813,-0.029541016,-0.9719238,0.2109375,1584037146315,5353445609388,0.069563374,0,1
1584037147202,NaN,-0.25777367,-0.022216797,-0.94799805,0.2512207,1584037146395,5353445609388,0.069563374,0,1
1584037147206,NaN,-0.20879202,-0.034179688,-0.9707031,0.22167969,1584037146475,5353445609388,0.069563374,0,1
1584037147209,NaN,-0.17007071,-0.029052734,-0.97314453,0.22802734,1584037146555,5353445609388,0.069563374,0,1
1584037147212,NaN,-0.1339512,-0.025878906,-0.9592285,0.22485352,1584037146635,5353445609388,0.069563374,0,1
1584037147215,NaN,-0.034706667,-0.037109375,-0.9711914,0.22045898,1584037146715,5353445609388,0.069563374,0,1
1584037147218,NaN,0.030346917,-0.036621094,-0.9782715,0.21289062,1584037146795,5353445609388,0.069563374,0,1
1584037147224,30.0,0.094736874,-0.018066406,-0.9741211,0.21899414,1584037146875,5353445609388,0.069563374,0,1
1584037147225,NaN,0.14029162,-0.037353516,-0.9963379,0.21142578,1584037146955,5353445609388,0.069563374,0,1
1584037147227,NaN,0.21371166,-0.040527344,-0.9953613,0.18652344,1584037147035,5353445609388,0.069563374,0,1
1584037147233,NaN,0.22561441,-0.028564453,-0.96875,0.2055664,1584037147115,5353445609388,0.069563374,0,1
1584037147236,NaN,0.25363445,-7.324219E-4,-0.9494629,0.22680664,1584037147195,5353445609388,0.069563374,0,1
1584037147239,NaN,0.20597613,-0.029296875,-0.9873047,0.2548828,1584037147275,5353445609388,0.069563374,0,1
1584037150110,NaN,0.16438691,-0.052001953,-0.9177246,0.31689453,1584037147355,-843226002896,0.09592894,0,1
1584037150119,NaN,0.020612836,-0.025634766,-0.91845703,0.3515625,1584037147435,-843226002896,0.09592894,0,1
1584037150125,NaN,-0.12663932,-0.05444336,-0.89941406,0.36645508,1584037147515,-843226002896,0.09592894,0,1
1584037150130,NaN,-0.28286445,-0.01953125,-0.8894043,0.38256836,1584037147595,-843226002896,0.09592894,0,1
1584037150134,NaN,-0.4640324,-0.0053710938,-0.87402344,0.3803711,1584037147675,-843226002896,0.09592894,0,1
1584037150137,NaN,-0.5685568,0.04296875,-1.0361328,0.34301758,1584037147755,-843226002896,0.1732382,0,1
1584037150142,NaN,-0.6915705,-0.03955078,-0.9172363,0.32177734,1584037147835,-843226002896,0.1732382,0,1
1584037150146,NaN,-0.7197127,0.04272461,-0.9802246,0.2290039,1584037147915,-843226002896,0.1732382,0,1
1584037150150,NaN,-0.8348318,-0.016357422,-0.93359375,0.25561523,1584037147995,-843226002896,0.1732382,0,1
1584037150154,NaN,-0.86865133,-0.032714844,-0.967041,0.2199707,1584037148075,-843226002896,0.1732382,0,1
1584037150158,NaN,-0.8748178,-0.0021972656,-0.9543457,0.21435547,1584037148155,-843226002896,0.1732382,0,1
1584037150162,NaN,-0.83845407,-0.047851562,-0.95092773,0.23486328,1584037148235,-843226002896,0.1732382,0,1
1584037150166,NaN,-0.6825139,-0.01953125,-0.96191406,0.21972656,1584037148315,-843226002896,0.1732382,0,1
1584037150169,NaN,-0.46204916,-0.05517578,-0.97143555,0.22827148,1584037148395,-843226002896,0.1732382,0,1
1584037150173,NaN,-0.20167674,-0.03466797,-0.97143555,0.22729492,1584037148475,-843226002896,0.1732382,0,1
1584037150176,NaN,0.11715401,-0.038330078,-0.9831543,0.18334961,1584037148555,-843226002896,0.1732382,0,1
1584037150179,34.090908,0.44943824,-0.023925781,-0.9785156,0.17285156,1584037148635,-843226002896,0.1732382,0,1
1584037150181,NaN,0.64835435,-0.02319336,-0.98779297,0.17700195,1584037148715,-843226002896,0.1732382,0,1
1584037150184,NaN,0.89367795,-0.033203125,-0.9836426,0.1574707,1584037148795,-843226002896,0.1732382,0,1
1584037150187,NaN,0.9412598,-0.034423828,-0.9814453,0.17529297,1584037148875,-843226002896,0.1732382,0,1
1584037150189,NaN,1.1011055,-0.028320312,-0.9848633,0.15332031,1584037148955,-843226002896,0.1732382,0,1
1584037150192,NaN,1.1656483,-0.029296875,-0.9785156,0.15893555,1584037149035,-843226002896,0.1732382,0,1
1584037150196,NaN,1.1985254,-0.028076172,-0.984375,0.16503906,1584037149115,-843226002896,0.1732382,0,1
1584037150199,NaN,1.2683188,-0.01953125,-0.98217773,0.15234375,1584037149195,-843226002896,0.1732382,0,1
1584037150202,NaN,1.2333456,-0.020507812,-0.97753906,0.15234375,1584037149275,-843226002896,0.1732382,0,1
1584037150205,NaN,1.1897994,-0.033447266,-0.9880371,0.15332031,1584037149355,-843226002896,0.1732382,0,1
1584037150208,NaN,1.1243873,-0.025634766,-0.98339844,0.15039062,1584037149435,-843226002896,0.1732382,0,1
1584037150212,NaN,0.9675743,-0.03857422,-0.99658203,0.15795898,1584037149515,-843226002896,0.1732382,0,1
1584037150216,NaN,0.7983783,-0.009277344,-0.98168945,0.15209961,1584037149595,-843226002896,0.1732382,0,1
1584037150219,NaN,0.68389326,-0.03173828,-0.97631836,0.16748047,1584037149675,-843226002896,0.1732382,0,1
1584037150223,NaN,0.51583636,-0.021484375,-0.984375,0.18383789,1584037149755,-843226002896,0.1732382,0,1
1584037150228,NaN,0.45653185,-0.05029297,-0.9904785,0.19995117,1584037149835,-843226002896,0.1732382,0,1
1584037152100,NaN,0.362257,0.012451172,-0.9506836,0.15283203,1584037149915,-7039616140204,0.1732382,0,1
1584037152104,NaN,0.2999706,-0.07763672,-0.9597168,0.16479492,1584037149995,-7039616140204,0.1732382,0,1
1584037152108,NaN,0.2601229,-0.0036621094,-0.97558594,0.16040039,1584037150075,-7039616140204,0.1732382,0,1
1584037152113,NaN,0.17156166,-0.05883789,-0.98046875,0.1665039,1584037150155,-7039616140204,0.1732382,0,1
1584037152118,NaN,0.10502402,0.009033203,-0.9814453,0.16577148,1584037150235,-7039616140204,0.1732382,0,1
1584037152122,NaN,0.050900374,-0.05883789,-0.98999023,0.13867188,1584037150315,-7039616140204,0.14627711,0,1
1584037152128,NaN,-0.017884387,-0.072509766,-0.9897461,0.15234375,1584037150395,-7039616140204,0.13908154,0,1
1584037152131,NaN,-0.020993656,-0.017822266,-0.98095703,0.13305664,1584037150475,-7039616140204,0.09132654,0,1
1584037152135,NaN,-0.027393177,-0.03881836,-0.9875488,0.13671875,1584037150555,-7039616140204,0.09132654,0,1
1584037152140,NaN,0.0010756453,-0.01953125,-0.98461914,0.12817383,1584037150635,-7039616140204,0.09132654,0,1
1584037152143,NaN,0.054083895,-0.034423828,-0.9824219,0.14404297,1584037150715,-7039616140204,0.09132654,0,1
1584037152145,NaN,0.12456984,-0.033203125,-0.98657227,0.1394043,1584037150795,-7039616140204,0.09132654,0,1
1584037152149,NaN,0.14355409,-0.024658203,-0.9794922,0.13500977,1584037150875,-7039616140204,0.09132654,0,1
1584037152154,NaN,0.17961825,-0.02758789,-0.98413086,0.14038086,1584037150955,-7039616140204,0.09132654,0,1
1584037152157,NaN,0.18623503,-0.025634766,-0.9855957,0.14770508,1584037151035,-7039616140204,0.09132654,0,1
1584037152161,NaN,0.21725392,-0.021972656,-0.9873047,0.1496582,1584037151115,-7039616140204,0.09132654,0,1
1584037152165,NaN,0.23219557,-0.036865234,-0.98583984,0.15673828,1584037151195,-7039616140204,0.09132654,0,1
1584037152168,NaN,0.21254349,-0.024169922,-0.97924805,0.14892578,1584037151275,-7039616140204,0.09132654,0,1
1584037152172,NaN,0.21069074,-0.051757812,-0.98291016,0.15844727,1584037151355,-7039616140204,0.09132654,0,1
1584037152176,NaN,0.1576655,-0.04248047,-0.97436523,0.17138672,1584037151435,-7039616140204,0.09132654,0,1
1584037152179,NaN,0.12542894,-0.035888672,-0.98291016,0.16064453,1584037151515,-7039616140204,0.09132654,0,1
1584037152183,NaN,0.0522946,-0.033691406,-0.9707031,0.17236328,1584037151595,-7039616140204,0.09132654,0,1
1584037152187,NaN,-0.013574866,-0.038085938,-0.97631836,0.18383789,1584037151675,-7039616140204,0.09132654,0,1
1584037152192,NaN,-0.09822027,-0.03881836,-0.9719238,0.17797852,1584037151755,-7039616140204,0.09132654,0,1
1584037152196,NaN,-0.15280609,-0.039794922,-0.9707031,0.17871094,1584037151835,-7039616140204,0.09132654,0,1
1584037152199,NaN,-0.20754564,-0.037841797,-0.9772949,0.17358398,1584037151915,-7039616140204,0.09132654,0,1
1584037152203,NaN,-0.23716895,-0.045410156,-0.9812012,0.16894531,1584037151995,-7039616140204,0.09132654,0,1
1584037152207,NaN,-0.26972175,-0.038085938,-0.9838867,0.16748047,1584037152075,-7039616140204,0.09132654,0,1
1584037152210,NaN,-0.27660763,-0.032714844,-0.9814453,0.15722656,1584037152155,-7039616140204,0.09132654,0,1
1584037152214,NaN,-0.2770305,-0.040283203,-0.984375,0.15991211,1584037152235,-7039616140204,0.09132654,0,1
1584037152216,NaN,-0.26727098,-0.027832031,-0.98095703,0.1538086,1584037152315,-7039616140204,0.09132654,0,1
1584037152219,NaN,-0.21963333,-0.03515625,-0.9897461,0.15722656,1584037152395,-7039616140204,0.09132654,0,1
1584037154685,NaN,-0.19423749,-0.032958984,-0.97265625,0.15283203,1584037152475,5210737796196,0.09132654,0,1
1584037154693,NaN,-0.14664543,-0.038330078,-0.9868164,0.16430664,1584037152555,5210737796196,0.07578512,0,1
1584037154699,NaN,-0.08764976,-0.02709961,-0.982666,0.1550293,1584037152635,5210737796196,0.07357914,0,1
1584037154705,NaN,-0.034470916,-0.03881836,-0.9819336,0.15649414,1584037152715,5210737796196,0.07357914,0,1
1584037154712,NaN,0.022036508,-0.035888672,-0.9802246,0.15795898,1584037152795,5210737796196,0.07357914,0,1
1584037154716,NaN,0.06878576,-0.037353516,-0.9863281,0.15332031,1584037152875,5210737796196,0.058651198,0,1
1584037154721,NaN,0.0960797,-0.039794922,-0.982666,0.15942383,1584037152955,5210737796196,0.058651198,0,1
1584037154727,NaN,0.12155791,-0.033203125,-0.9831543,0.15600586,1584037153035,5210737796196,0.029413626,0,1
1584037154731,NaN,0.11216039,-0.038085938,-0.9777832,0.16870117,1584037153115,5210737796196,0.029413626,0,1
1584037154735,NaN,0.10618293,-0.036621094,-0.97680664,0.17700195,1584037153195,5210737796196,0.029413626,0,1
1584037154739,NaN,0.07656911,-0.03564453,-0.9753418,0.18286133,1584037153275,5210737796196,0.029413626,0,1
1584037154741,NaN,0.03400379,-0.033691406,-0.9782715,0.18969727,1584037153355,5210737796196,0.029413626,0,1
1584037154746,NaN,-0.008333956,-0.04272461,-0.9699707,0.19726562,1584037153435,5210737796196,0.029413626,0,1
1584037154749,NaN,-0.043376252,-0.03125,-0.9716797,0.19360352,1584037153515,5210737796196,0.029413626,0,1
1584037154754,NaN,-0.09692248,-0.036376953,-0.97021484,0.18725586,1584037153595,5210737796196,0.029413626,0,1
1584037154757,NaN,-0.13175789,-0.05126953,-0.9772949,0.17480469,1584037153675,5210737796196,0.029413626,0,1
1584037154760,NaN,-0.16358337,-0.05029297,-0.98217773,0.17456055,1584037153755,5210737796196,0.029413626,0,1
1584037154764,NaN,-0.19430864,-0.040771484,-0.9802246,0.16772461,1584037153835,5210737796196,0.029413626,0,1
1584037154767,NaN,-0.20383114,-0.040527344,-0.9785156,0.16015625,1584037153915,5210737796196,0.020662721,0,1
1584037154771,NaN,-0.22210546,-0.029541016,-0.9819336,0.16625977,1584037153995,5210737796196,0.020662721,0,1
1584037154773,NaN,-0.19518726,-0.035888672,-0.98413086,0.1496582,1584037154075,5210737796196,0.020662721,0,1
1584037154776,NaN,-0.16536482,-0.028808594,-0.98217773,0.15991211,1584037154155,5210737796196,0.020662721,0,1
1584037154780,NaN,-0.11904085,-0.03173828,-0.9814453,0.15820312,1584037154235,5210737796196,0.020662721,0,1
1584037154783,NaN,-0.066960625,-0.034423828,-0.9863281,0.16235352,1584037154315,5210737796196,0.020662721,0,1
1584037154787,NaN,0.0065713353,-0.029541016,-0.97924805,0.15527344,1584037154395,5210737796196,0.020662721,0,1
1584037154790,NaN,0.0608388,-0.032714844,-0.98461914,0.16186523,1584037154475,5210737796196,0.020662721,0,1
1584037154793,10.135135,0.12039653,-0.024414062,-0.97509766,0.1508789,1584037154555,5210737796196,0.020662721,0,1
1584037154796,NaN,0.14809324,-0.039794922,-0.986084,0.16235352,1584037154635,5210737796196,0.022111917,0,1
1584037154799,NaN,0.1752407,-0.03564453,-0.9819336,0.15844727,1584037154715,5210737796196,0.022111917,0,1
1584037154803,NaN,0.1867302,-0.05053711,-0.98168945,0.16894531,1584037154795,5210737796196,0.022111917,0,1
1584037154806,NaN,0.17652039,-0.028808594,-0.9802246,0.17504883,1584037154875,5210737796196,0.022616964,0,1
1584037154809,NaN,0.17351754,-0.040283203,-0.97436523,0.1784668,1584037154955,5210737796196,0.022616964,0,1
1584037157268,NaN,0.12961195,-0.040527344,-0.97924805,0.18164062,1584037155035,-985933816088,0.022616964,0,1
1584037157275,NaN,0.093553126,-0.03173828,-0.97143555,0.18359375,1584037155115,-985933816088,0.022616964,0,1
1584037157281,NaN,0.039593194,-0.052490234,-0.97314453,0.19506836,1584037155195,-985933816088,0.023774585,0,1
1584037157289,NaN,-0.014897592,-0.041015625,-0.97631836,0.19750977,1584037155275,-985933816088,0.023774585,0,1
1584037157294,NaN,-0.09429445,-0.045898438,-0.9682617,0.20458984,1584037155355,-985933816088,0.023774585,0,1
1584037157299,NaN,-0.15714033,-0.043701172,-0.9716797,0.20117188,1584037155435,-985933816088,0.023774585,0,1
1584037157305,NaN,-0.23211037,-0.044433594,-0.96435547,0.20092773,1584037155515,-985933816088,0.023774585,0,1
1584037157309,NaN,-0.26677325,-0.049316406,-0.97753906,0.18774414,1584037155595,-985933816088,0.023774585,0,1
1584037157313,NaN,-0.30013964,-0.045410156,-0.9760742,0.18041992,1584037155675,-985933816088,0.023774585,0,1
1584037157318,NaN,-0.31154907,-0.051757812,-0.97924805,0.18383789,1584037155755,-985933816088,0.023774585,0,1
1584037157322,NaN,-0.2988232,-0.045166016,-0.9812012,0.17285156,1584037155835,-985933816088,0.023774585,0,1
1584037157326,NaN,-0.2848226,-0.0390625,-0.9772949,0.17626953,1584037155915,-985933816088,0.023774585,0,1
1584037157329,NaN,-0.2475096,-0.036621094,-0.9807129,0.16992188,1584037155995,-985933816088,0.023774585,0,1
1584037157334,NaN,-0.21059293,-0.037841797,-0.9790039,0.16552734,1584037156075,-985933816088,0.023774585,0,1
1584037157338,NaN,-0.15117942,-0.03881836,-0.9802246,0.16479492,1584037156155,-985933816088,0.023774585,0,1
1584037157342,NaN,-0.09281323,-0.037109375,-0.98095703,0.16503906,1584037156235,-985933816088,0.023774585,0,1
1584037157347,NaN,-0.01186948,-0.034179688,-0.9802246,0.16137695,1584037156315,-985933816088,0.023774585,0,1
1584037157350,32.608696,0.05740182,-0.037597656,-0.9807129,0.16137695,1584037156395,-985933816088,0.023774585,0,1
1584037157353,NaN,0.13625185,-0.03173828,-0.98168945,0.16210938,1584037156475,-985933816088,0.023774585,0,1
1584037157356,NaN,0.18279554,-0.032226562,-0.9814453,0.16040039,1584037156555,-985933816088,0.023774585,0,1
1584037157360,NaN,0.21673714,-0.040527344,-0.9802246,0.16381836,1584037156635,-985933816088,0.023774585,0,1
1584037157364,NaN,0.24793203,-0.03491211,-0.9785156,0.16210938,1584037156715,-985933816088,0.023774585,0,1
1584037157367,NaN,0.25141114,-0.04248047,-0.97998047,0.16699219,1584037156795,-985933816088,0.023774585,0,1
1584037157371,NaN,0.25866008,-0.045166016,-0.9873047,0.16601562,1584037156875,-985933816088,0.023774585,0,1
1584037157375,NaN,0.25383243,-0.028076172,-0.9719238,0.16259766,1584037156955,-985933816088,0.023774585,0,1
1584037157378,NaN,0.23369254,-0.04296875,-0.9797363,0.1706543,1584037157035,-985933816088,0.023774585,0,1
1584037157381,NaN,0.18982773,-0.036132812,-0.97631836,0.1850586,1584037157115,-985933816088,0.023774585,0,1
1584037157385,NaN,0.13889968,-0.04345703,-0.97314453,0.19165039,1584037157195,-985933816088,0.023774585,0,1
1584037157388,NaN,0.066753365,-0.036376953,-0.9733887,0.20166016,1584037157275,-985933816088,0.023774585,0,1
1584037157392,NaN,-0.0017156377,-0.042236328,-0.9650879,0.19970703,1584037157355,-985933816088,0.023774585,0,1
1584037157395,NaN,-0.068379916,-0.037353516,-0.9667969,0.19750977,1584037157435,-985933816088,0.023774585,0,1
1584037157400,NaN,-0.115242966,-0.03100586,-0.97680664,0.1875,1584037157515,-985933816088,0.023774585,0,1
1584037159850,NaN,-0.14144261,-0.052734375,-0.97998047,0.17749023,1584037157595,-7182323953396,0.024132902,0,1
1584037159857,NaN,-0.17941427,-0.04736328,-0.9765625,0.18481445,1584037157675,-7182323953396,0.024132902,0,1
1584037159864,NaN,-0.18872976,-0.03881836,-0.9797363,0.17260742,1584037157755,-7182323953396,0.024132902,0,1
1584037159871,NaN,-0.20847206,-0.04296875,-0.9797363,0.17700195,1584037157835,-7182323953396,0.024132902,0,1
1584037159874,NaN,-0.2157536,-0.033935547,-0.9770508,0.16577148,1584037157915,-7182323953396,0.024132902,0,1
1584037159877,NaN,-0.21317746,-0.03491211,-0.97802734,0.1730957,1584037157995,-7182323953396,0.024132902,0,1
1584037159881,NaN,-0.18120085,-0.033691406,-0.98046875,0.16796875,1584037158075,-7182323953396,0.024132902,0,1
1584037159884,NaN,-0.13741833,-0.03857422,-0.97998047,0.16845703,1584037158155,-7182323953396,0.024132902,0,1
1584037159887,NaN,-0.069582485,-0.030517578,-0.982666,0.16308594,1584037158235,-7182323953396,0.024132902,0,1
1584037159891,NaN,-0.0043464354,-0.030273438,-0.9807129,0.16577148,1584037158315,-7182323953396,0.024132902,0,1
1584037159895,30.0,0.0610674,-0.03125,-0.9819336,0.15966797,1584037158395,-7182323953396,0.024132902,0,1
1584037159900,NaN,0.111449726,-0.036376953,-0.9848633,0.1550293,1584037158475,-7182323953396,0.024132902,0,1
1584037159904,NaN,0.1424496,-0.03540039,-0.9831543,0.15625,1584037158555,-7182323953396,0.024132902,0,1
1584037159908,NaN,0.17735982,-0.061035156,-0.98217773,0.16552734,1584037158635,-7182323953396,0.02727937,0,1
1584037159912,NaN,0.19174457,-0.03857422,-0.97265625,0.15942383,1584037158715,-7182323953396,0.02727937,0,1
1584037159916,NaN,0.21352692,-0.032714844,-0.98706055,0.1652832,1584037158795,-7182323953396,0.02727937,0,1
1584037159920,NaN,0.2119758,-0.032226562,-0.97998047,0.17089844,1584037158875,-7182323953396,0.02727937,0,1
1584037159927,NaN,0.20819944,-0.034423828,-0.98168945,0.18066406,1584037158955,-7182323953396,0.02727937,0,1
1584037159928,NaN,0.17615716,-0.032470703,-0.9758301,0.18847656,1584037159035,-7182323953396,0.02727937,0,1
1584037159930,NaN,0.13436973,-0.048339844,-0.9699707,0.19116211,1584037159115,-7182323953396,0.02727937,0,1
1584037159933,NaN,0.07204441,-0.026611328,-0.9641113,0.19604492,1584037159195,-7182323953396,0.02727937,0,1
1584037159936,NaN,0.012731858,-0.033203125,-0.9699707,0.19799805,1584037159275,-7182323953396,0.02727937,0,1
1584037159941,NaN,-0.04476735,-0.022460938,-0.97216797,0.18896484,1584037159355,-7182323953396,0.02727937,0,1
1584037159945,NaN,-0.09969828,-0.036865234,-0.9782715,0.18774414,1584037159435,-7182323953396,0.02727937,0,1
1584037159948,NaN,-0.1381556,-0.03955078,-0.9873047,0.17993164,1584037159515,-7182323953396,0.02727937,0,1
1584037159952,NaN,-0.15175901,-0.041748047,-0.9797363,0.1665039,1584037159595,-7182323953396,0.02727937,0,1
1584037159955,NaN,-0.16480537,-0.025878906,-0.982666,0.16772461,1584037159675,-7182323953396,0.02727937,0,1
1584037159958,NaN,-0.16909157,-0.01953125,-0.98657227,0.1586914,1584037159755,-7182323953396,0.02727937,0,1
1584037159962,NaN,-0.15093745,-0.0146484375,-0.97680664,0.15576172,1584037159835,-7182323953396,0.02727937,0,1
1584037159967,NaN,-0.14097281,-0.018310547,-0.9785156,0.17797852,1584037159915,-7182323953396,0.02727937,0,1
1584037159969,NaN,-0.1433754,-0.030273438,-0.93969727,0.20629883,1584037159995,-7182323953396,0.049517833,0,1
1584037159976,NaN,-0.17854242,-0.05053711,-0.9746094,0.2614746,1584037160075,-7182323953396,0.06836548,0,1
1584037162436,NaN,-0.22685023,-0.03491211,-0.96875,0.29101562,1584037160155,5068029983004,0.06836548,0,1
1584037162443,NaN,-0.29950866,-0.022705078,-0.9650879,0.3239746,1584037160235,5068029983004,0.06836548,0,1
1584037162448,NaN,-0.39169237,-0.009033203,-0.92871094,0.3251953,1584037160315,5068029983004,0.06836548,0,1
1584037162452,NaN,-0.5038845,0.008544922,-0.89819336,0.3474121,1584037160395,5068029983004,0.06836548,0,1
1584037162459,NaN,-0.6204656,0.01171875,-0.90771484,0.3334961,1584037160475,5068029983004,0.06836548,0,1
1584037162463,NaN,-0.76141554,-0.037597656,-0.9421387,0.32885742,1584037160555,5068029983004,0.06836548,0,1
1584037162470,NaN,-0.8899737,-0.03857422,-0.9572754,0.32250977,1584037160635,5068029983004,0.06836548,0,1
1584037162474,NaN,-0.9846299,0.0390625,-0.97998047,0.27001953,1584037160715,5068029983004,0.0964272,0,1
1584037162477,NaN,-1.0693786,-0.009033203,-0.9802246,0.24487305,1584037160795,5068029983004,0.0964272,0,1
1584037162480,NaN,-1.1058968,-0.00390625,-0.935791,0.20629883,1584037160875,5068029983004,0.0964272,0,1
1584037162483,NaN,-1.1078829,-0.04345703,-0.96362305,0.23950195,1584037160955,5068029983004,0.0964272,0,1
1584037162487,NaN,-1.0312694,-0.046875,-0.9609375,0.23242188,1584037161035,5068029983004,0.0964272,0,1
1584037162492,NaN,-0.9176827,-0.060546875,-0.96362305,0.24169922,1584037161115,5068029983004,0.0964272,0,1
1584037162495,NaN,-0.73615557,-0.0625,-0.9753418,0.22436523,1584037161195,5068029983004,0.0964272,0,1
1584037162499,NaN,-0.5338134,-0.03955078,-0.9604492,0.22558594,1584037161275,5068029983004,0.0964272,0,1
1584037162503,NaN,-0.26474485,-0.06567383,-0.9777832,0.20751953,1584037161355,5068029983004,0.0964272,0,1
1584037162507,NaN,-0.018249929,-0.029541016,-0.96899414,0.21166992,1584037161435,5068029983004,0.0964272,0,1
1584037162510,19.23077,0.22175844,-0.02734375,-0.967041,0.21118164,1584037161515,5068029983004,0.0964272,0,1
1584037162514,NaN,0.45556283,-0.032470703,-0.9729004,0.20117188,1584037161595,5068029983004,0.0964272,0,1
1584037162518,NaN,0.5981384,-0.034423828,-0.9736328,0.19921875,1584037161675,5068029983004,0.0964272,0,1
1584037162522,NaN,0.70619065,-0.034423828,-0.97387695,0.19677734,1584037161755,5068029983004,0.0964272,0,1
1584037162526,NaN,0.75770324,-0.030029297,-0.9760742,0.19140625,1584037161835,5068029983004,0.0964272,0,1
1584037162529,NaN,0.82276577,-0.033447266,-0.9814453,0.19042969,1584037161915,5068029983004,0.0964272,0,1
1584037162532,NaN,0.840414,-0.021240234,-0.9736328,0.18945312,1584037161995,5068029983004,0.0964272,0,1
1584037162535,NaN,0.84775877,-0.028320312,-0.97924805,0.19213867,1584037162075,5068029983004,0.0964272,0,1
1584037162539,NaN,0.79824823,-0.029541016,-0.9794922,0.18798828,1584037162155,5068029983004,0.0964272,0,1
1584037162542,NaN,0.7455008,-0.019042969,-0.9797363,0.18896484,1584037162235,5068029983004,0.0964272,0,1
1584037162545,NaN,0.6252768,-0.033935547,-0.98583984,0.19897461,1584037162315,5068029983004,0.0964272,0,1
1584037162549,NaN,0.520848,-0.024658203,-0.9641113,0.203125,1584037162395,5068029983004,0.0964272,0,1
1584037162552,NaN,0.4252886,-0.032470703,-0.97216797,0.2055664,1584037162475,5068029983004,0.0964272,0,1
1584037162556,NaN,0.2966345,-0.033447266,-0.967041,0.23242188,1584037162555,5068029983004,0.0964272,0,1
1584037162560,NaN,0.22201216,-0.028076172,-0.9626465,0.22070312,1584037162635,5068029983004,0.0964272,0,1
1584037165020,NaN,0.14579041,-0.029296875,-0.9597168,0.24072266,1584037162715,-1128641629280,0.0964272,0,1
1584037165028,NaN,0.08009506,-0.030273438,-0.95703125,0.24389648,1584037162795,-1128641629280,0.0964272,0,1
1584037165035,NaN,-0.014011249,-0.03881836,-0.95581055,0.24658203,1584037162875,-1128641629280,0.0964272,0,1
1584037165042,NaN,-0.10305035,-0.023925781,-0.9460449,0.24584961,1584037162955,-1128641629280,0.0964272,0,1
1584037165051,NaN,-0.19687848,-0.024658203,-0.9555664,0.24780273,1584037163035,-1128641629280,0.0964272,0,1
1584037165055,NaN,-0.271538,-0.040771484,-0.97143555,0.23901367,1584037163115,-1128641629280,0.0964272,0,1
1584037165059,NaN,-0.34701183,-0.052246094,-0.9741211,0.23803711,1584037163195,-1128641629280,0.0964272,0,1
1584037165062,NaN,-0.3827646,-0.03564453,-0.96606445,0.22680664,1584037163275,-1128641629280,0.059064373,0,1
1584037165065,NaN,-0.39815363,-0.034423828,-0.96850586,0.21508789,1584037163355,-1128641629280,0.059064373,0,1
1584037165068,NaN,-0.4039248,-0.034423828,-0.9711914,0.20581055,1584037163435,-1128641629280,0.058662884,0,1
1584037165073,NaN,-0.35786596,-0.024658203,-0.9758301,0.2109375,1584037163515,-1128641629280,0.03741729,0,1
1584037165076,NaN,-0.3201028,-0.0234375,-0.9675293,0.19946289,1584037163595,-1128641629280,0.03741729,0,1
1584037165079,NaN,-0.24512137,-0.04321289,-0.98095703,0.2006836,1584037163675,-1128641629280,0.03741729,0,1
1584037165085,NaN,-0.15502352,-0.0146484375,-0.96728516,0.19311523,1584037163755,-1128641629280,0.03741729,0,1
1584037165089,NaN,-0.05538417,-0.026611328,-0.9794922,0.19238281,1584037163835,-1128641629280,0.03741729,0,1
1584037165093,NaN,0.05485939,-0.024414062,-0.9748535,0.18017578,1584037163915,-1128641629280,0.03741729,0,1
1584037165097,NaN,0.15989687,-0.029296875,-0.9802246,0.18579102,1584037163995,-1128641629280,0.03255961,0,1
1584037165101,23.4375,0.2516605,-0.029052734,-0.97558594,0.18115234,1584037164075,-1128641629280,0.03255961,0,1
1584037165105,NaN,0.32238984,-0.033203125,-0.97143555,0.20263672,1584037164155,-1128641629280,0.03255961,0,1
1584037165109,NaN,0.3742704,-0.016113281,-0.97631836,0.19873047,1584037164235,-1128641629280,0.03255961,0,1
1584037165112,NaN,0.38365826,-0.034179688,-0.9655762,0.21411133,1584037164315,-1128641629280,0.03255961,0,1
1584037165115,NaN,0.3719561,-0.029541016,-0.9699707,0.22045898,1584037164395,-1128641629280,0.03255961,0,1
1584037165119,NaN,0.3435359,-0.040527344,-0.9675293,0.21972656,1584037164475,-1128641629280,0.03255961,0,1
1584037165122,NaN,0.29434523,-0.026367188,-0.9577637,0.23486328,1584037164555,-1128641629280,0.03255961,0,1
1584037165125,NaN,0.22848207,-0.04248047,-0.9658203,0.2331543,1584037164635,-1128641629280,0.03255961,0,1
1584037165129,NaN,0.14097479,-0.03100586,-0.95654297,0.24365234,1584037164715,-1128641629280,0.03255961,0,1
1584037165132,NaN,0.05451088,-0.03857422,-0.96191406,0.23388672,1584037164795,-1128641629280,0.03255961,0,1
1584037165136,NaN,-0.0441225,-0.028320312,-0.9641113,0.22607422,1584037164875,-1128641629280,0.03255961,0,1
1584037165139,NaN,-0.12646593,-0.048828125,-0.97021484,0.2163086,1584037164955,-1128641629280,0.03255961,0,1
1584037165142,NaN,-0.20335412,-0.033691406,-0.96972656,0.21459961,1584037165035,-1128641629280,0.03255961,0,1
1584037165145,NaN,-0.23303968,-0.03491211,-0.97094727,0.20336914,1584037165115,-1128641629280,0.03255961,0,1
1584037165148,NaN,-0.26790026,-0.037353516,-0.9736328,0.20922852,1584037165195,-1128641629280,0.03255961,0,1
1584037167802,NaN,-0.24821658,-0.02709961,-0.97216797,0.19140625,1584037165275,-7325031766589,0.03255961,0,1
1584037167810,NaN,-0.20880699,-0.024902344,-0.9741211,0.18823242,1584037165355,-7325031766589,0.03255961,0,1
1584037167814,NaN,-0.17426722,-0.02758789,-0.97314453,0.19018555,1584037165435,-7325031766589,0.03255961,0,1
1584037167823,NaN,-0.10883158,-0.028808594,-0.9758301,0.1965332,1584037165515,-7325031766589,0.03255961,0,1
1584037167827,NaN,-0.045187492,-0.02758789,-0.97143555,0.1928711,1584037165595,-7325031766589,0.03255961,0,1
1584037167832,NaN,0.046878338,-0.02758789,-0.982666,0.19042969,1584037165675,-7325031766589,0.03255961,0,1
1584037167839,NaN,0.12469262,-0.027832031,-0.97387695,0.1875,1584037165755,-7325031766589,0.03255961,0,1
1584037167844,34.090908,0.20121048,-0.023925781,-0.9848633,0.18554688,1584037165835,-7325031766589,0.03255961,0,1
1584037167849,NaN,0.25767967,-0.028076172,-0.9753418,0.18237305,1584037165915,-7325031766589,0.03255961,0,1
1584037167853,NaN,0.29828608,-0.047851562,-0.97753906,0.20117188,1584037165995,-7325031766589,0.03255961,0,1
1584037167857,NaN,0.30662,-0.009765625,-0.9729004,0.1953125,1584037166075,-7325031766589,0.038812216,0,1
1584037167862,NaN,0.31216046,-0.036376953,-0.9680176,0.21313477,1584037166155,-7325031766589,0.038812216,0,1
1584037167866,NaN,0.2616205,-0.032470703,-0.96533203,0.22705078,1584037166235,-7325031766589,0.038812216,0,1
1584037167869,NaN,0.19126146,-0.030517578,-0.96777344,0.23925781,1584037166315,-7325031766589,0.038812216,0,1
1584037167873,NaN,0.123609096,-0.037353516,-0.9614258,0.23876953,1584037166395,-7325031766589,0.038812216,0,1
1584037167877,NaN,0.043314625,-0.030273438,-0.9562988,0.24804688,1584037166475,-7325031766589,0.038812216,0,1
1584037167880,NaN,-0.03771232,-0.028564453,-0.9511719,0.24536133,1584037166555,-7325031766589,0.038812216,0,1
1584037167883,NaN,-0.1301489,-0.025390625,-0.95654297,0.23852539,1584037166635,-7325031766589,0.038812216,0,1
1584037167886,NaN,-0.2101414,-0.03881836,-0.9694824,0.23461914,1584037166715,-7325031766589,0.038812216,0,1
1584037167889,NaN,-0.2880561,-0.04736328,-0.97436523,0.23266602,1584037166795,-7325031766589,0.038812216,0,1
1584037167892,NaN,-0.3441048,-0.03515625,-0.97436523,0.21484375,1584037166875,-7325031766589,0.038812216,0,1
1584037167896,NaN,-0.369526,-0.030517578,-0.96435547,0.21484375,1584037166955,-7325031766589,0.038812216,0,1
1584037167899,NaN,-0.3873911,-0.030517578,-0.9736328,0.20751953,1584037167035,-7325031766589,0.038812216,0,1
1584037167902,NaN,-0.37430903,-0.020263672,-0.9711914,0.20336914,1584037167115,-7325031766589,0.038812216,0,1
1584037167905,NaN,-0.32375205,-0.0390625,-0.9758301,0.20483398,1584037167195,-7325031766589,0.038812216,0,1
1584037167908,NaN,-0.24808522,-0.020019531,-0.96899414,0.19995117,1584037167275,-7325031766589,0.038812216,0,1
1584037167911,NaN,-0.17241812,-0.032714844,-0.97802734,0.20166016,1584037167355,-7325031766589,0.038812216,0,1
1584037167914,NaN,-0.07912859,-0.0234375,-0.9765625,0.19458008,1584037167435,-7325031766589,0.038812216,0,1
1584037167917,NaN,0.0103362845,-0.025878906,-0.9733887,0.19799805,1584037167515,-7325031766589,0.038812216,0,1
1584037167920,34.090908,0.101867996,-0.03149414,-0.97924805,0.18530273,1584037167595,-7325031766589,0.038812216,0,1
1584037167925,NaN,0.17348868,-0.021240234,-0.97509766,0.19726562,1584037167675,-7325031766589,0.038812216,0,1
1584037167928,NaN,0.25084916,-0.037841797,-0.98168945,0.19018555,1584037167755,-7325031766589,0.038812216,0,1
1584037170190,NaN,0.29519382,-0.033203125,-0.97680664,0.1940918,1584037167835,4925322169811,0.038812216,0,1
1584037170191,NaN,0.3252257,-0.029296875,-0.97387695,0.1965332,1584037167915,4925322169811,0.038812216,0,1
1584037170193,NaN,0.32929397,-0.037353516,-0.9675293,0.21362305,1584037167995,4925322169811,0.038812216,0,1
1584037170199,NaN,0.30331847,-0.017333984,-0.96850586,0.22363281,1584037168075,4925322169811,0.038812216,0,1
1584037170205,NaN,0.25768918,-0.04345703,-0.967041,0.23413086,1584037168155,4925322169811,0.038812216,0,1
1584037170209,NaN,0.19481933,-0.022949219,-0.9584961,0.23461914,1584037168235,4925322169811,0.038812216,0,1
1584037170212,NaN,0.12335775,-0.03466797,-0.9572754,0.2434082,1584037168315,4925322169811,0.038812216,0,1
1584037170216,NaN,0.045917317,-0.034179688,-0.96240234,0.22753906,1584037168395,4925322169811,0.038812216,0,1
1584037170220,NaN,-0.01760812,-0.03125,-0.9592285,0.2199707,1584037168475,4925322169811,0.038812216,0,1
1584037170224,NaN,-0.0823595,-0.04248047,-0.97680664,0.2055664,1584037168555,4925322169811,0.038812216,0,1
1584037170228,NaN,-0.114978306,-0.041992188,-0.97631836,0.1977539,1584037168635,4925322169811,0.032398116,0,1
1584037170230,NaN,-0.14579709,-0.032470703,-0.9770508,0.18261719,1584037168715,4925322169811,0.028191635,0,1
1584037170234,NaN,-0.1484864,-0.04345703,-0.9777832,0.17602539,1584037168795,4925322169811,0.028191635,0,1
1584037170237,NaN,-0.14413735,-0.040527344,-0.9782715,0.17163086,1584037168875,4925322169811,0.028191635,0,1
1584037170243,NaN,-0.09363254,-0.03125,-0.98168945,0.1628418,1584037168955,4925322169811,0.028191635,0,1
1584037170248,NaN,-0.03104437,-0.018066406,-0.9782715,0.17016602,1584037169035,4925322169811,0.028191635,0,1
1584037170251,NaN,0.052267518,-0.027832031,-0.98095703,0.16723633,1584037169115,4925322169811,0.028191635,0,1
1584037170254,37.5,0.15107046,-0.020751953,-0.9814453,0.15600586,1584037169195,4925322169811,0.028191635,0,1
1584037170258,NaN,0.25921842,-0.027832031,-0.98095703,0.1628418,1584037169275,4925322169811,0.028191635,0,1
1584037170263,NaN,0.3473388,-0.020263672,-0.9797363,0.16040039,1584037169355,4925322169811,0.028191635,0,1
1584037170267,NaN,0.41462898,-0.018066406,-0.97924805,0.16748047,1584037169435,4925322169811,0.028191635,0,1
1584037170270,NaN,0.46658823,-0.02319336,-0.98413086,0.16552734,1584037169515,4925322169811,0.028191635,0,1
1584037170272,NaN,0.49558964,-0.032470703,-0.9838867,0.16503906,1584037169595,4925322169811,0.028191635,0,1
1584037170275,NaN,0.49884272,-0.036376953,-0.98413086,0.1730957,1584037169675,4925322169811,0.028191635,0,1
1584037170279,NaN,0.49452373,-0.015136719,-0.97509766,0.1640625,1584037169755,4925322169811,0.028191635,0,1
1584037170281,NaN,0.46466243,-0.03564453,-0.9812012,0.18310547,1584037169835,4925322169811,0.028643636,0,1
1584037170284,NaN,0.3992653,-0.032226562,-0.97094727,0.18652344,1584037169915,4925322169811,0.028643636,0,1
1584037170287,NaN,0.3247194,-0.036132812,-0.97631836,0.20410156,1584037169995,4925322169811,0.028643636,0,1
1584037170290,NaN,0.22699404,-0.043701172,-0.9699707,0.21313477,1584037170075,4925322169811,0.028643636,0,1
1584037170293,NaN,0.10791854,-0.0390625,-0.96533203,0.21362305,1584037170155,4925322169811,0.028643636,0,1
1584037170296,NaN,-0.003181383,-0.031982422,-0.96606445,0.20947266,1584037170235,4925322169811,0.028643636,0,1
1584037170298,NaN,-0.09920582,-0.03149414,-0.97265625,0.2043457,1584037170315,4925322169811,0.028643636,0,1
1584037172770,NaN,-0.1693133,-0.04711914,-0.97802734,0.19433594,1584037170395,-1271349442473,0.028643636,0,1
1584037172775,NaN,-0.22608624,-0.032470703,-0.97631836,0.19042969,1584037170475,-1271349442473,0.028643636,0,1
1584037172780,NaN,-0.26102743,-0.04736328,-0.9802246,0.17138672,1584037170555,-1271349442473,0.028643636,0,1
1584037172786,NaN,-0.2743744,-0.037841797,-0.9785156,0.17749023,1584037170635,-1271349442473,0.028643636,0,1
1584037172790,NaN,-0.29130992,-0.025146484,-0.9741211,0.17089844,1584037170715,-1271349442473,0.028643636,0,1
1584037172793,NaN,-0.2716938,-0.018554688,-0.9802246,0.17138672,1584037170795,-1271349442473,0.028643636,0,1
1584037172796,NaN,-0.23944406,-0.029052734,-0.9753418,0.17407227,1584037170875,-1271349442473,0.028643636,0,1
1584037172800,NaN,-0.18328275,-0.030029297,-0.984375,0.1730957,1584037170955,-1271349442473,0.028643636,0,1
1584037172802,NaN,-0.100251555,-0.030761719,-0.98168945,0.16430664,1584037171035,-1271349442473,0.028643636,0,1
1584037172806,NaN,-0.008689056,-0.0234375,-0.9777832,0.16772461,1584037171115,-1271349442473,0.028643636,0,1
1584037172809,NaN,0.07248465,-0.019042969,-0.97998047,0.16430664,1584037171195,-1271349442473,0.028643636,0,1
1584037172812,28.846153,0.14388569,-0.026367188,-0.9848633,0.16601562,1584037171275,-1271349442473,0.028643636,0,1
1584037172816,NaN,0.18674688,-0.045410156,-0.97802734,0.17089844,1584037171355,-1271349442473,0.028643636,0,1
1584037172820,NaN,0.21637994,-0.013183594,-0.9770508,0.18408203,1584037171435,-1271349442473,0.03483263,0,1
1584037172823,NaN,0.20260179,-0.03857422,-0.97558594,0.19677734,1584037171515,-1271349442473,0.03483263,0,1
1584037172827,NaN,0.17860489,-0.030517578,-0.9719238,0.21264648,1584037171595,-1271349442473,0.03483263,0,1
1584037172830,NaN,0.13546403,-0.03881836,-0.9655762,0.22802734,1584037171675,-1271349442473,0.03483263,0,1
1584037172834,NaN,0.07013471,-0.04296875,-0.96777344,0.2319336,1584037171755,-1271349442473,0.03483263,0,1
1584037172837,NaN,-5.5970746E-4,-0.024414062,-0.95458984,0.24438477,1584037171835,-1271349442473,0.03483263,0,1
1584037172840,NaN,-0.08769297,-0.03125,-0.9577637,0.24169922,1584037171915,-1271349442473,0.03483263,0,1
1584037172843,NaN,-0.19122036,-0.017333984,-0.95214844,0.23583984,1584037171995,-1271349442473,0.03483263,0,1
1584037172847,NaN,-0.28745562,-0.04345703,-0.96972656,0.23046875,1584037172075,-1271349442473,0.03483263,0,1
1584037172850,NaN,-0.38339588,-0.044677734,-0.9770508,0.22753906,1584037172155,-1271349442473,0.03483263,0,1
1584037172853,NaN,-0.45724264,-0.029296875,-0.97558594,0.2133789,1584037172235,-1271349442473,0.03483263,0,1
1584037172856,NaN,-0.5060467,-0.037597656,-0.9719238,0.20776367,1584037172315,-1271349442473,0.03483263,0,1
1584037172860,NaN,-0.5299807,-0.021972656,-0.9719238,0.20166016,1584037172395,-1271349442473,0.03483263,0,1
1584037172864,NaN,-0.51127124,-0.016845703,-0.97143555,0.2019043,1584037172475,-1271349442473,0.03483263,0,1
1584037172867,NaN,-0.46711674,-0.029052734,-0.97509766,0.19433594,1584037172555,-1271349442473,0.03483263,0,1
1584037172871,NaN,-0.3928773,-0.017822266,-0.970459,0.20239258,1584037172635,-1271349442473,0.03483263,0,1
1584037172876,NaN,-0.2993724,-0.025146484,-0.97143555,0.18774414,1584037172715,-1271349442473,0.03483263,0,1
1584037172879,NaN,-0.18974127,-0.025146484,-0.9819336,0.18823242,1584037172795,-1271349442473,0.03483263,0,1
1584037172882,NaN,-0.07973891,-0.022216797,-0.97631836,0.18530273,1584037172875,-1271349442473,0.03483263,0,1
1584037175153,NaN,0.028854787,-0.019042969,-0.9802246,0.18188477,1584037172955,-7467739579781,0.03483263,0,1
1584037175159,34.090908,0.12421761,-0.016845703,-0.9733887,0.18652344,1584037173035,-7467739579781,0.03483263,0,1
1584037175164,NaN,0.21981971,-0.02758789,-0.9777832,0.18139648,1584037173115,-7467739579781,0.03483263,0,1
1584037175168,NaN,0.28659114,-0.02368164,-0.9812012,0.18261719,1584037173195,-7467739579781,0.03483263,0,1
1584037175173,NaN,0.32526055,-0.037597656,-0.9753418,0.19702148,1584037173275,-7467739579781,0.03483263,0,1
1584037175178,NaN,0.34571984,-0.021728516,-0.9758301,0.19750977,1584037173355,-7467739579781,0.03483263,0,1
1584037175181,NaN,0.34185636,-0.019042969,-0.9650879,0.20703125,1584037173435,-7467739579781,0.03483263,0,1
1584037175185,NaN,0.30912894,-0.030761719,-0.9692383,0.21411133,1584037173515,-7467739579781,0.03483263,0,1
1584037175189,NaN,0.26426277,-0.026123047,-0.96313477,0.22436523,1584037173595,-7467739579781,0.03483263,0,1
1584037175192,NaN,0.17767696,-0.04345703,-0.9626465,0.24145508,1584037173675,-7467739579781,0.03483263,0,1
1584037175196,NaN,0.07490179,-0.03540039,-0.95947266,0.24682617,1584037173755,-7467739579781,0.03483263,0,1
1584037175200,NaN,-0.030654773,-0.032226562,-0.95166016,0.24682617,1584037173835,-7467739579781,0.03483263,0,1
1584037175204,NaN,-0.13836415,-0.033203125,-0.9562988,0.24780273,1584037173915,-7467739579781,0.03483263,0,1
1584037175209,NaN,-0.22079115,-0.028808594,-0.970459,0.23608398,1584037173995,-7467739579781,0.031941395,0,1
1584037175212,NaN,-0.3014578,-0.057617188,-0.96875,0.22387695,1584037174075,-7467739579781,0.031941395,0,1
1584037175215,NaN,-0.35389987,-0.032226562,-0.97216797,0.2109375,1584037174155,-7467739579781,0.031941395,0,1
1584037175218,NaN,-0.3819431,-0.03857422,-0.9626465,0.21728516,1584037174235,-7467739579781,0.031941395,0,1
1584037175222,NaN,-0.39730096,-0.033203125,-0.9707031,0.20800781,1584037174315,-7467739579781,0.031941395,0,1
1584037175226,NaN,-0.3901238,-0.024902344,-0.97265625,0.2055664,1584037174395,-7467739579781,0.031941395,0,1
1584037175230,NaN,-0.36555263,-0.0390625,-0.9719238,0.20385742,1584037174475,-7467739579781,0.031941395,0,1
1584037175232,NaN,-0.32316443,-0.031982422,-0.97631836,0.19873047,1584037174555,-7467739579781,0.031941395,0,1
1584037175236,NaN,-0.23112212,-0.027832031,-0.9758301,0.19238281,1584037174635,-7467739579781,0.03133476,0,1
1584037175239,NaN,-0.12629874,-0.028320312,-0.97558594,0.18701172,1584037174715,-7467739579781,0.03133476,0,1
1584037175243,NaN,-0.01707598,-0.01953125,-0.97509766,0.18774414,1584037174795,-7467739579781,0.03133476,0,1
1584037175245,32.608696,0.096950136,-0.02368164,-0.9790039,0.18701172,1584037174875,-7467739579781,0.03133476,0,1
1584037175248,NaN,0.18285646,-0.028808594,-0.9772949,0.18334961,1584037174955,-7467739579781,0.03133476,0,1
1584037175251,NaN,0.2605146,-0.025634766,-0.9802246,0.18676758,1584037175035,-7467739579781,0.03133476,0,1
1584037175254,NaN,0.31189182,-0.0234375,-0.9765625,0.18188477,1584037175115,-7467739579781,0.03133476,0,1
1584037175258,NaN,0.3690052,-0.017333984,-0.9794922,0.17749023,1584037175195,-7467739579781,0.03133476,0,1
1584037175261,NaN,0.39423123,-0.04296875,-0.97631836,0.1899414,1584037175275,-7467739579781,0.03133476,0,1
1584037175264,NaN,0.40114036,-0.022216797,-0.97924805,0.19677734,1584037175355,-7467739579781,0.03133476,0,1
1584037175268,NaN,0.39550886,-0.02734375,-0.96777344,0.203125,1584037175435,-7467739579781,0.03133476,0,1
1584037177737,NaN,0.36117446,-0.037353516,-0.9694824,0.21142578,1584037175515,4782614356619,0.03133476,0,1
1584037177744,NaN,0.28985438,-0.03149414,-0.9650879,0.22290039,1584037175595,4782614356619,0.03133476,0,1
1584037177749,NaN,0.19705786,-0.03173828,-0.9641113,0.234375,1584037175675,4782614356619,0.03133476,0,1
1584037177755,NaN,0.09488541,-0.034423828,-0.96313477,0.24243164,1584037175755,4782614356619,0.03133476,0,1
1584037177759,NaN,-0.015821472,-0.033691406,-0.9536133,0.24951172,1584037175835,4782614356619,0.03133476,0,1
1584037177765,NaN,-0.11113113,-0.03173828,-0.9567871,0.24243164,1584037175915,4782614356619,0.03133476,0,1
1584037177786,NaN,-0.20015655,-0.025390625,-0.9536133,0.24536133,1584037175995,4782614356619,0.03133476,0,1
1584037177791,NaN,-0.2739931,-0.043945312,-0.97265625,0.23706055,1584037176075,4782614356619,0.03133476,0,1
1584037177795,NaN,-0.3588563,-0.043701172,-0.970459,0.22827148,1584037176155,4782614356619,0.03133476,0,1
1584037177800,NaN,-0.4061122,-0.048339844,-0.967041,0.22827148,1584037176235,4782614356619,0.03133476,0,1
1584037177804,NaN,-0.43932936,-0.03515625,-0.9626465,0.22094727,1584037176315,4782614356619,0.03133476,0,1
1584037177809,NaN,-0.44794977,-0.029296875,-0.9692383,0.21166992,1584037176395,4782614356619,0.03133476,0,1
1584037177813,NaN,-0.4367716,-0.036621094,-0.96777344,0.21240234,1584037176475,4782614356619,0.03133476,0,1
1584037177816,NaN,-0.39061025,-0.024902344,-0.9699707,0.20141602,1584037176555,4782614356619,0.03133476,0,1
1584037177819,NaN,-0.3250092,-0.030029297,-0.97216797,0.2055664,1584037176635,4782614356619,0.028701844,0,1
1584037177822,NaN,-0.2422511,-0.037109375,-0.9746094,0.2019043,1584037176715,4782614356619,0.028674833,0,1
1584037177825,NaN,-0.14561863,-0.02368164,-0.96875,0.20483398,1584037176795,4782614356619,0.028674833,0,1
1584037177829,NaN,-0.053046566,-0.030517578,-0.9772949,0.1965332,1584037176875,4782614356619,0.028674833,0,1
1584037177833,NaN,0.045586962,-0.025146484,-0.97436523,0.19213867,1584037176955,4782614356619,0.028674833,0,1
1584037177836,27.777779,0.12999326,-0.032470703,-0.97143555,0.1940918,1584037177035,4782614356619,0.028674833,0,1
1584037177838,NaN,0.21381927,-0.022949219,-0.98046875,0.18823242,1584037177115,4782614356619,0.028674833,0,1
1584037177841,NaN,0.2733478,-0.030517578,-0.97436523,0.20092773,1584037177195,4782614356619,0.028674833,0,1
1584037177846,NaN,0.31427395,-0.04345703,-0.97680664,0.20214844,1584037177275,4782614356619,0.028674833,0,1
1584037177850,NaN,0.32434663,-0.017089844,-0.9699707,0.21020508,1584037177355,4782614356619,0.028674833,0,1
1584037177853,NaN,0.32449374,-0.036376953,-0.9682617,0.21362305,1584037177435,4782614356619,0.028674833,0,1
1584037177856,NaN,0.28203425,-0.024658203,-0.9626465,0.22875977,1584037177515,4782614356619,0.028674833,0,1
1584037177859,NaN,0.23077492,-0.028808594,-0.96899414,0.23779297,1584037177595,4782614356619,0.028674833,0,1
1584037177862,NaN,0.15978849,-0.04296875,-0.9645996,0.24414062,1584037177675,4782614356619,0.028674833,0,1
1584037177866,NaN,0.08521984,-0.03100586,-0.95703125,0.2434082,1584037177755,4782614356619,0.028674833,0,1
1584037177870,NaN,0.0013259103,-0.040771484,-0.95996094,0.24414062,1584037177835,4782614356619,0.028405424,0,1
1584037177872,NaN,-0.0830519,-0.02368164,-0.95874023,0.23583984,1584037177915,4782614356619,0.028405424,0,1
1584037177875,NaN,-0.15135805,-0.04345703,-0.9626465,0.22998047,1584037177995,4782614356619,0.028405424,0,1
1584037180322,NaN,-0.22076738,-0.043701172,-0.9758301,0.22314453,1584037178075,-1414057255665,0.028405424,0,1
1584037180328,NaN,-0.26093718,-0.034423828,-0.9667969,0.21582031,1584037178155,-1414057255665,0.028405424,0,1
1584037180333,NaN,-0.29032964,-0.04345703,-0.96875,0.21655273,1584037178235,-1414057255665,0.028405424,0,1
1584037180339,NaN,-0.29125866,-0.028808594,-0.9770508,0.20678711,1584037178315,-1414057255665,0.028405424,0,1
1584037180342,NaN,-0.28591058,-0.029785156,-0.9729004,0.21044922,1584037178395,-1414057255665,0.028405424,0,1
1584037180349,NaN,-0.24203175,-0.034423828,-0.9812012,0.2055664,1584037178475,-1414057255665,0.028405424,0,1
1584037180353,NaN,-0.17219216,-0.010986328,-0.9650879,0.18603516,1584037178555,-1414057255665,0.03450252,0,1
1584037180357,NaN,-0.07761247,-0.03100586,-0.9729004,0.17626953,1584037178635,-1414057255665,0.03450252,0,1
1584037180359,NaN,0.012728795,-0.025878906,-0.97924805,0.1796875,1584037178715,-1414057255665,0.03450252,0,1
1584037180362,34.090908,0.11125842,-0.0078125,-0.97314453,0.18457031,1584037178795,-1414057255665,0.03450252,0,1
1584037180365,NaN,0.19909488,-0.01977539,-0.98217773,0.17944336,1584037178875,-1414057255665,0.03450252,0,1
1584037180368,NaN,0.27945426,-0.02319336,-0.9794922,0.17773438,1584037178955,-1414057255665,0.03450252,0,1
1584037180373,NaN,0.3496811,-0.022705078,-0.98535156,0.1821289,1584037179035,-1414057255665,0.03450252,0,1
1584037180376,NaN,0.3943034,-0.029296875,-0.9794922,0.18139648,1584037179115,-1414057255665,0.03450252,0,1
1584037180380,NaN,0.4289354,-0.01953125,-0.97314453,0.19580078,1584037179195,-1414057255665,0.03450252,0,1
1584037180383,NaN,0.44149268,-0.02319336,-0.9753418,0.18920898,1584037179275,-1414057255665,0.03450252,0,1
1584037180387,NaN,0.4546142,-0.024902344,-0.9758301,0.19018555,1584037179355,-1414057255665,0.03450252,0,1
1584037180390,NaN,0.4307072,-0.038330078,-0.96606445,0.20581055,1584037179435,-1414057255665,0.03450252,0,1
1584037180394,NaN,0.36599112,-0.021972656,-0.96777344,0.21044922,1584037179515,-1414057255665,0.03450252,0,1
1584037180397,NaN,0.269992,-0.02734375,-0.96850586,0.22363281,1584037179595,-1414057255665,0.03450252,0,1
1584037180401,NaN,0.17419784,-0.036865234,-0.9641113,0.22363281,1584037179675,-1414057255665,0.03450252,0,1
1584037180404,NaN,0.092007935,-0.03540039,-0.9675293,0.21044922,1584037179755,-1414057255665,0.03450252,0,1
1584037180407,NaN,0.011634675,-0.033203125,-0.96655273,0.2109375,1584037179835,-1414057255665,0.03450252,0,1
1584037180411,NaN,-0.053391103,-0.033203125,-0.9694824,0.19433594,1584037179915,-1414057255665,0.03450252,0,1
1584037180416,NaN,-0.111887835,-0.036376953,-0.9765625,0.20263672,1584037179995,-1414057255665,0.03450252,0,1
1584037180418,NaN,-0.15166491,-0.030517578,-0.97753906,0.19213867,1584037180075,-1414057255665,0.03450252,0,1
1584037180421,NaN,-0.17314516,-0.03173828,-0.9748535,0.19335938,1584037180155,-1414057255665,0.03450252,0,1
1584037180425,NaN,-0.18381386,-0.032226562,-0.97924805,0.18286133,1584037180235,-1414057255665,0.03450252,0,1
1584037180428,NaN,-0.19578613,-0.025390625,-0.9760742,0.18310547,1584037180315,-1414057255665,0.03450252,0,1
1584037180431,NaN,-0.16583283,-0.0234375,-0.9794922,0.17871094,1584037180395,-1414057255665,0.03450252,0,1
1584037180435,NaN,-0.11673242,-0.026123047,-0.9807129,0.17749023,1584037180475,-1414057255665,0.03450252,0,1
1584037180438,NaN,-0.033577215,-0.022949219,-0.982666,0.17138672,1584037180555,-1414057255665,0.03450252,0,1
1584037183103,NaN,0.049634267,-0.020751953,-0.97802734,0.17578125,1584037180635,-7610447392973,0.03450252,0,1
1584037183109,31.25,0.11507862,-0.021972656,-0.984375,0.16845703,1584037180715,-7610447392973,0.03450252,0,1
1584037183116,NaN,0.1784269,-0.021728516,-0.97558594,0.17407227,1584037180795,-7610447392973,0.03450252,0,1
1584037183122,NaN,0.21564977,-0.035888672,-0.98339844,0.17114258,1584037180875,-7610447392973,0.03450252,0,1
1584037183130,NaN,0.25452763,-0.027832031,-0.9824219,0.18261719,1584037180955,-7610447392973,0.03450252,0,1
1584037183135,NaN,0.27753735,-0.02319336,-0.9777832,0.17651367,1584037181035,-7610447392973,0.03450252,0,1
1584037183139,NaN,0.2840788,-0.029541016,-0.9782715,0.1862793,1584037181115,-7610447392973,0.02360475,0,1
1584037183143,NaN,0.26605213,-0.024414062,-0.9729004,0.20043945,1584037181195,-7610447392973,0.022799388,0,1
1584037183147,NaN,0.24050952,-0.03857422,-0.9694824,0.20385742,1584037181275,-7610447392973,0.022799388,0,1
1584037183151,NaN,0.17239659,-0.033203125,-0.9663086,0.22558594,1584037181355,-7610447392973,0.022799388,0,1
1584037183155,NaN,0.08357829,-0.036132812,-0.95336914,0.24560547,1584037181435,-7610447392973,0.024016539,0,1
1584037183161,NaN,-0.028560957,-0.02758789,-0.9577637,0.24853516,1584037181515,-7610447392973,0.024016539,0,1
1584037183166,NaN,-0.12488407,-0.036132812,-0.9584961,0.23413086,1584037181595,-7610447392973,0.024016539,0,1
1584037183170,NaN,-0.2230833,-0.039794922,-0.97216797,0.23608398,1584037181675,-7610447392973,0.024016539,0,1
1584037183175,NaN,-0.30578133,-0.041259766,-0.9711914,0.23095703,1584037181755,-7610447392973,0.024016539,0,1
1584037183178,NaN,-0.36999795,-0.029296875,-0.967041,0.22338867,1584037181835,-7610447392973,0.024016539,0,1
1584037183183,NaN,-0.41514373,-0.025146484,-0.9724121,0.21411133,1584037181915,-7610447392973,0.024016539,0,1
1584037183185,NaN,-0.45497414,-0.025634766,-0.96875,0.20629883,1584037181995,-7610447392973,0.024016539,0,1
1584037183190,NaN,-0.48194608,-0.03540039,-0.9707031,0.20874023,1584037182075,-7610447392973,0.024016539,0,1
1584037183194,NaN,-0.4700487,-0.015380859,-0.9724121,0.20458984,1584037182155,-7610447392973,0.024016539,0,1
1584037183198,NaN,-0.44586024,-0.022216797,-0.97436523,0.203125,1584037182235,-7610447392973,0.024016539,0,1
1584037183203,NaN,-0.3808788,-0.023925781,-0.9741211,0.19995117,1584037182315,-7610447392973,0.024016539,0,1
1584037183208,NaN,-0.27314445,-0.014892578,-0.9758301,0.19677734,1584037182395,-7610447392973,0.024016539,0,1
1584037183212,NaN,-0.16324544,-0.02319336,-0.97753906,0.20043945,1584037182475,-7610447392973,0.024016539,0,1
1584037183216,NaN,-0.07772435,-0.013916016,-0.97021484,0.2006836,1584037182555,-7610447392973,0.024016539,0,1
1584037183222,NaN,0.019030541,-0.0234375,-0.98046875,0.19482422,1584037182635,-7610447392973,0.024016539,0,1
1584037183225,30.0,0.10277895,-0.029541016,-0.97436523,0.19165039,1584037182715,-7610447392973,0.024016539,0,1
1584037183232,NaN,0.1640809,-0.030761719,-0.9758301,0.203125,1584037182795,-7610447392973,0.024016539,0,1
1584037183234,NaN,0.2029386,-0.010986328,-0.970459,0.20166016,1584037182875,-7610447392973,0.024016539,0,1
1584037183237,NaN,0.23275185,-0.015380859,-0.96899414,0.20385742,1584037182955,-7610447392973,0.024016539,0,1
1584037183240,NaN,0.2584398,-0.022705078,-0.9675293,0.2043457,1584037183035,-7610447392973,0.024016539,0,1
1584037183243,NaN,0.2600313,-0.0078125,-0.9782715,0.20800781,1584037183115,-7610447392973,0.024016539,0,1
1584037185593,NaN,0.2557954,-0.008056641,-0.97094727,0.2055664,1584037183195,4639906543427,0.024016539,0,1
1584037185602,NaN,0.22563203,-0.021484375,-0.97753906,0.20947266,1584037183275,4639906543427,0.024016539,0,1
1584037185611,NaN,0.18691427,0.0078125,-0.97875977,0.19238281,1584037183355,4639906543427,0.03393906,0,1
1584037185622,NaN,0.17729972,0.038330078,-0.9741211,0.17285156,1584037183435,4639906543427,0.036528204,0,1
1584037185630,NaN,0.102100275,0.021728516,-0.9519043,0.25805664,1584037183515,4639906543427,0.089605264,0,1
1584037185633,NaN,0.011695862,0.024658203,-0.9848633,0.2722168,1584037183595,4639906543427,0.089605264,0,1
1584037185643,NaN,-0.11666276,0.08496094,-0.94091797,0.32202148,1584037183675,4639906543427,0.0897113,0,1
1584037185647,NaN,-0.23767085,0.08178711,-0.9187012,0.33496094,1584037183755,4639906543427,0.0897113,0,1
1584037185653,NaN,-0.3642259,0.0390625,-0.9213867,0.33789062,1584037183835,4639906543427,0.0897113,0,1
1584037185660,NaN,-0.47308388,0.09790039,-0.9277344,0.3347168,1584037183915,4639906543427,0.0897113,0,1
1584037185671,NaN,-0.5973531,0.07788086,-0.9074707,0.34301758,1584037183995,4639906543427,0.0897113,0,1
1584037185677,NaN,-0.69999427,0.056640625,-0.94140625,0.32910156,1584037184075,4639906543427,0.0897113,0,1
1584037185685,NaN,-0.8012185,0.05883789,-0.94140625,0.32543945,1584037184155,4639906543427,0.0897113,0,1
1584037185691,NaN,-0.8939585,0.06982422,-0.9501953,0.3269043,1584037184235,4639906543427,0.0897113,0,1
1584037185695,NaN,-1.00796,0.06982422,-0.9421387,0.31347656,1584037184315,4639906543427,0.0897113,0,1
1584037185702,NaN,-1.1603016,0.068359375,-0.94921875,0.31445312,1584037184395,4639906543427,0.0897113,0,1
1584037185709,NaN,-1.1752309,0.061035156,-0.9416504,0.32666016,1584037184475,4639906543427,0.0897113,0,1
1584037185720,NaN,-1.1710299,0.07446289,-0.93774414,0.31640625,1584037184555,4639906543427,0.0897113,0,1
1584037185734,NaN,-1.0754194,0.08081055,-0.93847656,0.31958008,1584037184635,4639906543427,0.0897113,0,1
1584037185742,NaN,-0.95204735,0.08129883,-0.9367676,0.3161621,1584037184715,4639906543427,0.0897113,0,1
1584037185746,NaN,-0.81474704,0.0793457,-0.94091797,0.3149414,1584037184795,4639906543427,0.0897113,0,1
1584037185751,NaN,-0.6851235,0.064941406,-0.9448242,0.31030273,1584037184875,4639906543427,0.0897113,0,1
1584037185757,NaN,-0.54187703,0.07910156,-0.9226074,0.3173828,1584037184955,4639906543427,0.0897113,0,1
1584037185766,NaN,-0.4207436,0.07836914,-0.9445801,0.30664062,1584037185035,4639906543427,0.0897113,0,1
1584037185766,NaN,-0.3035923,0.07104492,-0.9501953,0.30786133,1584037185115,4639906543427,0.0897113,0,1
1584037185768,NaN,-0.18490434,0.049560547,-0.9260254,0.29492188,1584037185195,4639906543427,0.0897113,0,1
1584037185769,NaN,-0.07258699,0.03491211,-0.94433594,0.3076172,1584037185275,4639906543427,0.0897113,0,1
1584037185772,NaN,0.043688904,0.049804688,-0.9326172,0.31323242,1584037185355,4639906543427,0.0897113,0,1
1584037185789,22.058823,0.11568445,0.055664062,-0.9628906,0.31567383,1584037185435,4639906543427,0.0897113,0,1
1584037185792,NaN,0.16951466,0.07495117,-0.9345703,0.30908203,1584037185515,4639906543427,0.0897113,0,1
1584037185799,NaN,0.1792746,0.06933594,-0.9501953,0.3100586,1584037185595,4639906543427,0.0897113,0,1
1584037185808,NaN,0.16818519,0.07543945,-0.9440918,0.30786133,1584037185675,4639906543427,0.0897113,0,1
1584037188271,NaN,0.15448566,0.071777344,-0.94384766,0.3046875,1584037185755,-1556765068857,0.0897113,0,1
1584037188279,NaN,0.14538176,0.080566406,-0.94628906,0.29052734,1584037185835,-1556765068857,0.0897113,0,1
1584037188294,NaN,0.1417728,0.07397461,-0.9416504,0.29785156,1584037185915,-1556765068857,0.0897113,0,1
1584037188296,NaN,0.12717818,0.05908203,-0.94433594,0.30322266,1584037185995,-1556765068857,0.0897113,0,1
1584037188305,NaN,0.10403376,0.061279297,-0.9506836,0.31762695,1584037186075,-1556765068857,0.0897113,0,1
1584037188311,NaN,0.06327173,0.043701172,-0.93408203,0.32495117,1584037186155,-1556765068857,0.0897113,0,1
1584037188317,NaN,0.036742527,0.021728516,-0.9458008,0.33422852,1584037186235,-1556765068857,0.05926435,0,1
1584037188322,NaN,-0.004404036,-0.013427734,-0.92333984,0.36865234,1584037186315,-1556765068857,0.05926435,0,1
1584037188325,NaN,-0.067073435,-0.009765625,-0.94750977,0.3737793,1584037186395,-1556765068857,0.05926435,0,1
1584037188328,NaN,-0.13178086,-0.029052734,-0.89160156,0.37158203,1584037186475,-1556765068857,0.059182327,0,1
1584037188332,NaN,-0.21865065,-0.030029297,-0.89697266,0.3869629,1584037186555,-1556765068857,0.059182327,0,1
1584037188335,NaN,-0.2847084,-0.028076172,-0.90527344,0.36401367,1584037186635,-1556765068857,0.059182327,0,1
1584037188338,NaN,-0.35390103,-0.032958984,-0.907959,0.36279297,1584037186715,-1556765068857,0.059182327,0,1
1584037188342,NaN,-0.42651072,-0.041992188,-0.9140625,0.3425293,1584037186795,-1556765068857,0.059182327,0,1
1584037188346,NaN,-0.45495927,0.014404297,-0.96875,0.31298828,1584037186875,-1556765068857,0.08392829,0,1
1584037188351,NaN,-0.46478894,0.041503906,-0.9445801,0.30981445,1584037186955,-1556765068857,0.08392829,0,1
1584037188360,NaN,-0.43154177,0.026855469,-0.9445801,0.27954102,1584037187035,-1556765068857,0.08392829,0,1
1584037188362,NaN,-0.37825397,-0.018798828,-0.967041,0.2927246,1584037187115,-1556765068857,0.08392829,0,1
1584037188367,NaN,-0.31077656,-0.0061035156,-0.94873047,0.27368164,1584037187195,-1556765068857,0.08392829,0,1
1584037188370,NaN,-0.17721689,0.005859375,-0.9724121,0.27416992,1584037187275,-1556765068857,0.08392829,0,1
1584037188373,NaN,-0.04578975,0.013183594,-0.9560547,0.27319336,1584037187355,-1556765068857,0.08392829,0,1
1584037188377,30.0,0.12774728,0.018310547,-0.986084,0.26342773,1584037187435,-1556765068857,0.08392829,0,1
1584037188380,NaN,0.31251737,0.010253906,-0.94970703,0.27001953,1584037187515,-1556765068857,0.08392829,0,1
1584037188385,NaN,0.4478158,-0.0146484375,-0.9343262,0.2763672,1584037187595,-1556765068857,0.08392829,0,1
1584037188389,NaN,0.5888313,-0.026611328,-0.9489746,0.27441406,1584037187675,-1556765068857,0.08392829,0,1
1584037188392,NaN,0.70421535,-0.01953125,-0.9680176,0.28735352,1584037187755,-1556765068857,0.08392829,0,1
1584037188396,NaN,0.72770745,-0.03564453,-0.9326172,0.27954102,1584037187835,-1556765068857,0.08392829,0,1
1584037188399,NaN,0.74520785,-0.028076172,-0.9458008,0.2927246,1584037187915,-1556765068857,0.08392829,0,1
1584037188403,NaN,0.7177706,-0.03149414,-0.96069336,0.2836914,1584037187995,-1556765068857,0.08392829,0,1
1584037188407,NaN,0.6887211,-0.037597656,-0.9560547,0.2854004,1584037188075,-1556765068857,0.08392829,0,1
1584037188411,NaN,0.6312166,-0.02734375,-0.94677734,0.2849121,1584037188155,-1556765068857,0.08392829,0,1
1584037188415,NaN,0.525038,-0.044677734,-0.93237305,0.28076172,1584037188235,-1556765068857,0.08392829,0,1
1584037190657,NaN,0.43014884,-0.05493164,-0.970459,0.28808594,1584037188315,-7753155206166,0.08392829,0,1
1584037190661,NaN,0.27960464,-0.036376953,-0.94750977,0.29418945,1584037188395,-7753155206166,0.08392829,0,1
1584037190664,NaN,0.15005937,-0.028564453,-0.95336914,0.2939453,1584037188475,-7753155206166,0.08392829,0,1
1584037190668,NaN,0.0681799,-0.025878906,-0.9460449,0.28393555,1584037188555,-7753155206166,0.08392829,0,1
1584037190672,NaN,-0.026759192,-0.030761719,-0.9458008,0.29052734,1584037188635,-7753155206166,0.08392829,0,1
1584037190676,NaN,-0.102868386,-0.025634766,-0.9421387,0.30126953,1584037188715,-7753155206166,0.08392829,0,1
1584037190681,NaN,-0.12786506,-0.025390625,-0.9416504,0.29467773,1584037188795,-7753155206166,0.08392829,0,1
1584037190683,NaN,-0.1458808,-0.022216797,-0.935791,0.29858398,1584037188875,-7753155206166,0.08392829,0,1
1584037190687,NaN,-0.15172549,-0.013183594,-0.95043945,0.29077148,1584037188955,-7753155206166,0.08392829,0,1
1584037190691,NaN,-0.1577659,-0.030029297,-0.95336914,0.2890625,1584037189035,-7753155206166,0.08392829,0,1
1584037190693,NaN,-0.14788626,-0.029541016,-0.94384766,0.2841797,1584037189115,-7753155206166,0.08392829,0,1
1584037190697,NaN,-0.123297684,-0.021728516,-0.9489746,0.27734375,1584037189195,-7753155206166,0.08392829,0,1
1584037190700,NaN,-0.09041673,-0.0017089844,-0.95214844,0.25952148,1584037189275,-7753155206166,0.08392829,0,1
1584037190703,NaN,-0.013896406,0.016845703,-0.984375,0.26000977,1584037189355,-7753155206166,0.08392829,0,1
1584037190707,NaN,0.03893139,0.019042969,-0.96533203,0.26123047,1584037189435,-7753155206166,0.05256059,0,1
1584037190710,NaN,0.060039625,0.029785156,-0.9777832,0.2770996,1584037189515,-7753155206166,0.05256059,0,1
1584037190713,NaN,0.06494575,0.037353516,-0.9572754,0.31054688,1584037189595,-7753155206166,0.05256059,0,1
1584037190717,NaN,0.051137965,0.01928711,-0.9147949,0.33569336,1584037189675,-7753155206166,0.052567393,0,1
1584037190720,NaN,-0.007756824,-0.018554688,-0.9074707,0.36987305,1584037189755,-7753155206166,0.052567393,0,1
1584037190724,NaN,-0.06273033,-0.07324219,-0.9020996,0.36157227,1584037189835,-7753155206166,0.055574045,0,1
1584037190727,NaN,-0.13274235,-0.025390625,-0.9042969,0.37182617,1584037189915,-7753155206166,0.055574045,0,1
1584037190730,NaN,-0.15512513,0.03149414,-0.9370117,0.31933594,1584037189995,-7753155206166,0.08403191,0,1
1584037190734,NaN,-0.15043925,0.036376953,-0.98535156,0.29492188,1584037190075,-7753155206166,0.08403191,0,1
1584037190738,NaN,-0.12846719,0.064697266,-0.98291016,0.25561523,1584037190155,-7753155206166,0.08403191,0,1
1584037190742,NaN,-0.115891755,0.0126953125,-0.9621582,0.22094727,1584037190235,-7753155206166,0.08403191,0,1
1584037190745,NaN,-0.14373554,0.021240234,-0.96533203,0.23925781,1584037190315,-7753155206166,0.08403191,0,1
1584037190748,NaN,-0.13944793,-0.011962891,-0.96313477,0.21313477,1584037190395,-7753155206166,0.08403191,0,1
1584037190752,NaN,-0.123921745,0.021972656,-0.9597168,0.23022461,1584037190475,-7753155206166,0.08403191,0,1
1584037190754,NaN,-0.041644145,0.014404297,-0.96069336,0.21948242,1584037190555,-7753155206166,0.08403191,0,1
1584037190757,NaN,0.095237635,0.004638672,-0.9592285,0.21801758,1584037190635,-7753155206166,0.08403191,0,1
1584037190761,18.292683,0.30740896,0.018310547,-0.96362305,0.2097168,1584037190715,-7753155206166,0.08403191,0,1
1584037190763,NaN,0.5143635,-2.4414062E-4,-0.97094727,0.20532227,1584037190795,-7753155206166,0.08403191,0,1
1584037193240,NaN,0.7536957,0.012451172,-0.97802734,0.19311523,1584037190875,4497198730235,0.08403191,0,1
1584037193247,NaN,0.88547486,-0.006591797,-0.9758301,0.19628906,1584037190955,4497198730235,0.08403191,0,1
1584037193252,NaN,0.9707882,0.001953125,-0.9838867,0.18334961,1584037191035,4497198730235,0.08403191,0,1
1584037193260,NaN,0.9932366,0.015625,-0.98217773,0.1899414,1584037191115,4497198730235,0.08403191,0,1
1584037193264,NaN,0.9974795,0.021240234,-0.98046875,0.17871094,1584037191195,4497198730235,0.08403191,0,1
1584037193271,NaN,1.0446054,0.02319336,-0.98168945,0.17089844,1584037191275,4497198730235,0.08403191,0,1
1584037193275,NaN,1.0474211,0.018798828,-0.9831543,0.17041016,1584037191355,4497198730235,0.08403191,0,1
1584037193281,NaN,1.0737079,0.030761719,-0.982666,0.16333008,1584037191435,4497198730235,0.08403191,0,1
1584037193287,NaN,1.0461735,0.0234375,-0.97509766,0.16699219,1584037191515,4497198730235,0.08403191,0,1
1584037193292,NaN,0.98566645,0.026367188,-0.9802246,0.16845703,1584037191595,4497198730235,0.08403191,0,1
1584037193295,NaN,0.87603396,0.028808594,-0.97875977,0.17114258,1584037191675,4497198730235,0.08403191,0,1
1584037193300,NaN,0.7530164,0.030273438,-0.97753906,0.1809082,1584037191755,4497198730235,0.08403191,0,1
1584037193304,NaN,0.6131721,0.022949219,-0.98217773,0.16723633,1584037191835,4497198730235,0.08403191,0,1
1584037193307,NaN,0.52300024,0.0146484375,-0.9797363,0.1784668,1584037191915,4497198730235,0.08403191,0,1
1584037193311,NaN,0.44134983,0.018798828,-0.9885254,0.17504883,1584037191995,4497198730235,0.08403191,0,1
1584037193314,NaN,0.3967764,0.011474609,-0.9790039,0.1796875,1584037192075,4497198730235,0.08403191,0,1
1584037193317,NaN,0.363314,0.02709961,-0.9807129,0.17333984,1584037192155,4497198730235,0.08403191,0,1
1584037193320,NaN,0.29342055,0.014892578,-0.9741211,0.18237305,1584037192235,4497198730235,0.08403191,0,1
1584037193325,NaN,0.22916144,0.011474609,-0.9716797,0.19824219,1584037192315,4497198730235,0.08403191,0,1
1584037193329,NaN,0.13632725,0.008300781,-0.97387695,0.20166016,1584037192395,4497198730235,0.08403191,0,1
1584037193331,NaN,0.05235963,0.015380859,-0.97680664,0.2133789,1584037192475,4497198730235,0.08403191,0,1
1584037193334,NaN,-0.032928113,0.017578125,-0.9641113,0.21435547,1584037192555,4497198730235,0.06585374,0,1
1584037193338,NaN,-0.10573366,0.017822266,-0.9692383,0.21557617,1584037192635,4497198730235,0.06585374,0,1
1584037193341,NaN,-0.15653217,0.017822266,-0.9645996,0.21264648,1584037192715,4497198730235,0.06585374,0,1
1584037193345,NaN,-0.20820464,0.010253906,-0.97216797,0.20043945,1584037192795,4497198730235,0.042304717,0,1
1584037193348,NaN,-0.24109931,-0.0075683594,-0.97753906,0.19750977,1584037192875,4497198730235,0.042304717,0,1
1584037193351,NaN,-0.26890692,-0.008300781,-0.9770508,0.1953125,1584037192955,4497198730235,0.038149267,0,1
1584037193355,NaN,-0.28012407,0.029541016,-0.9794922,0.18481445,1584037193035,4497198730235,0.039346803,0,1
1584037193357,NaN,-0.30638215,0.025146484,-0.96606445,0.1965332,1584037193115,4497198730235,0.039346803,0,1
1584037193361,NaN,-0.2954498,0.025146484,-0.9782715,0.18359375,1584037193195,4497198730235,0.039346803,0,1
1584037193365,NaN,-0.2609695,0.009765625,-0.9719238,0.18652344,1584037193275,4497198730235,0.039346803,0,1
1584037193369,NaN,-0.21953098,0.013183594,-0.9812012,0.1940918,1584037193355,4497198730235,0.039346803,0,1
1584037195824,NaN,-0.14849316,0.020507812,-0.9824219,0.17480469,1584037193435,-1771530476087,0.039346803,0,1
1584037195834,NaN,-0.07497288,0.021972656,-0.9707031,0.17578125,1584037193515,-1771530476087,0.039346803,0,1
1584037195841,NaN,-0.012286034,0.0075683594,-0.9760742,0.18701172,1584037193595,-1771530476087,0.039346803,0,1
1584037195847,NaN,0.05670811,0.029296875,-0.9838867,0.16772461,1584037193675,-1771530476087,0.039346803,0,1
1584037195860,NaN,0.11500033,0.017822266,-0.98583984,0.16821289,1584037193755,-1771530476087,0.039346803,0,1
1584037195866,NaN,0.15237622,0.02758789,-0.9790039,0.17480469,1584037193835,-1771530476087,0.039346803,0,1
1584037195869,NaN,0.1976964,0.020263672,-0.98291016,0.16748047,1584037193915,-1771530476087,0.039346803,0,1
1584037195873,NaN,0.20994042,0.012207031,-0.9824219,0.17285156,1584037193995,-1771530476087,0.039346803,0,1
1584037195876,NaN,0.25111765,0.020019531,-0.9758301,0.17382812,1584037194075,-1771530476087,0.039346803,0,1
1584037195880,NaN,0.25966713,0.028808594,-0.97998047,0.17382812,1584037194155,-1771530476087,0.039346803,0,1
1584037195885,NaN,0.25094453,0.022705078,-0.97387695,0.18774414,1584037194235,-1771530476087,0.039346803,0,1
1584037195890,NaN,0.23882271,0.017089844,-0.97387695,0.19897461,1584037194315,-1771530476087,0.039346803,0,1
1584037195893,NaN,0.17512806,0.020507812,-0.97436523,0.21142578,1584037194395,-1771530476087,0.039346803,0,1
1584037195895,NaN,0.107872814,0.011474609,-0.970459,0.21606445,1584037194475,-1771530476087,0.039346803,0,1
1584037195899,NaN,0.052397955,0.0078125,-0.9638672,0.22363281,1584037194555,-1771530476087,0.039346803,0,1
1584037195901,NaN,-0.0311346,0.014404297,-0.9628906,0.21411133,1584037194635,-1771530476087,0.039346803,0,1
1584037195905,NaN,-0.100396454,0.012939453,-0.96728516,0.21386719,1584037194715,-1771530476087,0.039346803,0,1
1584037195908,NaN,-0.15212804,0.0,-0.9790039,0.20678711,1584037194795,-1771530476087,0.039346803,0,1
1584037195911,NaN,-0.21033168,0.0017089844,-0.9772949,0.20239258,1584037194875,-1771530476087,0.039346803,0,1
1584037195914,NaN,-0.24178673,-0.0056152344,-0.9790039,0.19580078,1584037194955,-1771530476087,0.039346803,0,1
1584037195917,NaN,-0.2801336,0.016601562,-0.9711914,0.19555664,1584037195035,-1771530476087,0.039346803,0,1
1584037195920,NaN,-0.30851492,0.0048828125,-0.98217773,0.19262695,1584037195115,-1771530476087,0.039346803,0,1
1584037195923,NaN,-0.31384525,0.016357422,-0.9741211,0.19165039,1584037195195,-1771530476087,0.039346803,0,1
1584037195926,NaN,-0.3040906,0.0078125,-0.97094727,0.18920898,1584037195275,-1771530476087,0.039346803,0,1
1584037195929,NaN,-0.26079068,0.0075683594,-0.98168945,0.19384766,1584037195355,-1771530476087,0.039346803,0,1
1584037195931,NaN,-0.20300193,0.0146484375,-0.9772949,0.1887207,1584037195435,-1771530476087,0.039346803,0,1
1584037195934,NaN,-0.14097016,0.0061035156,-0.9785156,0.18725586,1584037195515,-1771530476087,0.039346803,0,1
1584037195937,NaN,-0.07427923,0.011474609,-0.9770508,0.18652344,1584037195595,-1771530476087,0.030085813,0,1
1584037195940,NaN,-0.008293313,0.005859375,-0.98095703,0.18237305,1584037195675,-1771530476087,0.030085813,0,1
1584037195943,NaN,0.040876422,0.0014648438,-0.97875977,0.18457031,1584037195755,-1771530476087,0.030085813,0,1
1584037195947,NaN,0.08350149,0.0041503906,-0.9748535,0.1899414,1584037195835,-1771530476087,0.030085813,0,1
1584037195949,NaN,0.11158847,0.0021972656,-0.9797363,0.19116211,1584037195915,-1771530476087,0.030085813,0,1
1584037198209,NaN,0.13107842,0.0107421875,-0.97680664,0.1940918,1584037195995,-7967920613396,0.030085813,0,1
1584037198214,NaN,0.14218348,0.005126953,-0.967041,0.2006836,1584037196075,-7967920613396,0.030085813,0,1
1584037198221,NaN,0.13213056,0.0068359375,-0.97021484,0.20654297,1584037196155,-7967920613396,0.030085813,0,1
1584037198226,NaN,0.100284964,0.0014648438,-0.9694824,0.22070312,1584037196235,-7967920613396,0.023551663,0,1
1584037198230,NaN,0.06286817,2.4414062E-4,-0.9658203,0.22021484,1584037196315,-7967920613396,0.023551663,0,1
1584037198234,NaN,0.004323644,0.0126953125,-0.9628906,0.22949219,1584037196395,-7967920613396,0.023551663,0,1
1584037198237,NaN,-0.059315216,0.0014648438,-0.9626465,0.2241211,1584037196475,-7967920613396,0.023551663,0,1
1584037198241,NaN,-0.10845053,0.0053710938,-0.96484375,0.21459961,1584037196555,-7967920613396,0.023551663,0,1
1584037198247,NaN,-0.16174328,0.0021972656,-0.9758301,0.21508789,1584037196635,-7967920613396,0.023551663,0,1
1584037198250,NaN,-0.20509656,-0.012451172,-0.97216797,0.21166992,1584037196715,-7967920613396,0.023551663,0,1
1584037198254,NaN,-0.23216581,0.0056152344,-0.9699707,0.21044922,1584037196795,-7967920613396,0.023551663,0,1
1584037198258,NaN,-0.25111935,4.8828125E-4,-0.9729004,0.20605469,1584037196875,-7967920613396,0.023551663,0,1
1584037198261,NaN,-0.26047072,-0.004638672,-0.9746094,0.20141602,1584037196955,-7967920613396,0.023551663,0,1
1584037198265,NaN,-0.25609693,0.0029296875,-0.9746094,0.20727539,1584037197035,-7967920613396,0.023551663,0,1
1584037198269,NaN,-0.24605875,-0.006591797,-0.97558594,0.21118164,1584037197115,-7967920613396,0.023551663,0,1
1584037198272,NaN,-0.2020547,0.0017089844,-0.9748535,0.20043945,1584037197195,-7967920613396,0.023551663,0,1
1584037198275,NaN,-0.16772814,-0.0026855469,-0.97143555,0.20947266,1584037197275,-7967920613396,0.023551663,0,1
1584037198278,NaN,-0.106472276,0.00390625,-0.9772949,0.19873047,1584037197355,-7967920613396,0.023551663,0,1
1584037198281,NaN,-0.056696784,0.0041503906,-0.9729004,0.20581055,1584037197435,-7967920613396,0.023551663,0,1
1584037198284,NaN,-0.020205097,-0.0034179688,-0.97436523,0.20166016,1584037197515,-7967920613396,0.023551663,0,1
1584037198287,NaN,0.017869204,0.001953125,-0.9733887,0.20166016,1584037197595,-7967920613396,0.018240426,0,1
1584037198290,NaN,0.051778797,-2.4414062E-4,-0.97509766,0.20385742,1584037197675,-7967920613396,0.018240426,0,1
1584037198293,NaN,0.06985096,-0.0034179688,-0.9748535,0.20874023,1584037197755,-7967920613396,0.018240426,0,1
1584037198296,NaN,0.08172662,0.010253906,-0.9736328,0.2097168,1584037197835,-7967920613396,0.018240426,0,1
1584037198300,NaN,0.08359463,-0.0021972656,-0.97143555,0.20947266,1584037197915,-7967920613396,0.018240426,0,1
1584037198304,NaN,0.07476335,0.0029296875,-0.9638672,0.2211914,1584037197995,-7967920613396,0.018240426,0,1
1584037198307,NaN,0.06927132,-0.0029296875,-0.96875,0.22265625,1584037198075,-7967920613396,0.018240426,0,1
1584037198310,NaN,0.023029672,0.0012207031,-0.9633789,0.23364258,1584037198155,-7967920613396,0.018240426,0,1
1584037198312,NaN,-0.007317553,0.0041503906,-0.96069336,0.23461914,1584037198235,-7967920613396,0.018240426,0,1
1584037198315,16.666666,-0.060259745,0.0068359375,-0.9621582,0.22924805,1584037198315,-7967920613396,0.018240426,0,1
1584037198318,NaN,-0.08965075,0.010009766,-0.96850586,0.22143555,1584037198395,-7967920613396,0.018240426,0,1
1584037198320,NaN,-0.1102374,-0.0024414062,-0.97094727,0.21313477,1584037198475,-7967920613396,0.018240426,0,1
1584037200794,NaN,-0.13207959,0.0036621094,-0.97216797,0.21582031,1584037198555,4282433323004,0.018240426,0,1
1584037200814,NaN,-0.14600134,-9.765625E-4,-0.97387695,0.21020508,1584037198635,4282433323004,0.018240426,0,1
1584037200821,NaN,-0.1406679,-0.0063476562,-0.9736328,0.20019531,1584037198715,4282433323004,0.018240426,0,1
1584037200829,NaN,-0.13646504,0.0087890625,-0.9758301,0.20678711,1584037198795,4282433323004,0.018240426,0,1
1584037200832,NaN,-0.12569922,0.0021972656,-0.97558594,0.20605469,1584037198875,4282433323004,0.018240426,0,1
1584037200836,NaN,-0.09291673,0.009521484,-0.9765625,0.2006836,1584037198955,4282433323004,0.018240426,0,1
1584037200841,NaN,-0.058478978,0.009277344,-0.97265625,0.19506836,1584037199035,4282433323004,0.018240426,0,1
1584037200849,NaN,0.006211651,0.008544922,-0.9765625,0.19335938,1584037199115,4282433323004,0.018240426,0,1
1584037200852,NaN,0.06250887,0.010253906,-0.97143555,0.19433594,1584037199195,4282433323004,0.018240426,0,1
1584037200856,NaN,0.119250394,0.0053710938,-0.97998047,0.19580078,1584037199275,4282433323004,0.018240426,0,1
1584037200859,NaN,0.15549934,0.0043945312,-0.9772949,0.19311523,1584037199355,4282433323004,0.01665533,0,1
1584037200862,NaN,0.18266134,0.0029296875,-0.9802246,0.19433594,1584037199435,4282433323004,0.01665533,0,1
1584037200867,NaN,0.2085955,-7.324219E-4,-0.9748535,0.19799805,1584037199515,4282433323004,0.01665533,0,1
1584037200869,NaN,0.2327068,0.015380859,-0.9736328,0.18920898,1584037199595,4282433323004,0.018394988,0,1
1584037200873,NaN,0.23119871,0.0029296875,-0.97631836,0.19580078,1584037199675,4282433323004,0.018394988,0,1
1584037200877,NaN,0.22564773,0.010986328,-0.97753906,0.2109375,1584037199755,4282433323004,0.018394988,0,1
1584037200879,NaN,0.21665491,-0.0031738281,-0.96899414,0.21020508,1584037199835,4282433323004,0.018394988,0,1
1584037200882,NaN,0.17761552,0.0043945312,-0.96606445,0.22167969,1584037199915,4282433323004,0.018394988,0,1
1584037200886,NaN,0.12225222,0.0075683594,-0.9602051,0.23022461,1584037199995,4282433323004,0.018394988,0,1
1584037200889,NaN,0.0530616,0.007080078,-0.9604492,0.23071289,1584037200075,4282433323004,0.018394988,0,1
1584037200892,NaN,-0.0027783364,0.018066406,-0.96899414,0.2199707,1584037200155,4282433323004,0.018394988,0,1
1584037200895,31.25,-0.054225106,-0.011962891,-0.97387695,0.21850586,1584037200235,4282433323004,0.030458927,0,1
1584037200898,NaN,-0.09242359,-0.00390625,-0.97558594,0.20922852,1584037200315,4282433323004,0.030458927,0,1
1584037200901,NaN,-0.1267276,-0.0017089844,-0.9785156,0.21411133,1584037200395,4282433323004,0.030458927,0,1
1584037200903,NaN,-0.14436083,-0.0053710938,-0.9733887,0.20092773,1584037200475,4282433323004,0.030458927,0,1
1584037200907,NaN,-0.17355146,0.0063476562,-0.9746094,0.20117188,1584037200555,4282433323004,0.030458927,0,1
1584037200909,NaN,-0.1773354,0.0048828125,-0.9699707,0.19335938,1584037200635,4282433323004,0.030458927,0,1
1584037200912,NaN,-0.15317942,0.016845703,-0.9692383,0.18383789,1584037200715,4282433323004,0.030458927,0,1
1584037200915,NaN,-0.12425513,0.009765625,-0.97631836,0.18432617,1584037200795,4282433323004,0.030458927,0,1
1584037200919,NaN,-0.061423134,0.012451172,-0.9836426,0.1730957,1584037200875,4282433323004,0.030458927,0,1
1584037200921,NaN,0.021163048,0.010986328,-0.9814453,0.17138672,1584037200955,4282433323004,0.030458927,0,1
1584037200924,NaN,0.10769477,0.0031738281,-0.98291016,0.16918945,1584037201035,4282433323004,0.030458927,0,1
1584037203376,NaN,0.1823142,0.0043945312,-0.9848633,0.15478516,1584037201115,-1914238289280,0.030458927,0,1
1584037203382,NaN,0.2625182,0.005859375,-0.98999023,0.15209961,1584037201195,-1914238289280,0.030458927,0,1
1584037203391,NaN,0.30647638,-0.020751953,-1.0095215,0.17626953,1584037201275,-1914238289280,0.040912315,0,1
1584037203400,NaN,0.3260268,-0.010986328,-0.9885254,0.2109375,1584037201355,-1914238289280,0.041690186,0,1
1584037203404,NaN,0.31138772,0.014892578,-0.9501953,0.22216797,1584037201435,-1914238289280,0.047592394,0,1
1584037203408,NaN,0.23839474,-0.018554688,-0.93310547,0.2919922,1584037201515,-1914238289280,0.079285584,0,1
1584037203411,NaN,0.13180113,-0.024902344,-0.9663086,0.3178711,1584037201595,-1914238289280,0.079285584,0,1
1584037203417,NaN,-0.031575024,0.0048828125,-0.91845703,0.34716797,1584037201675,-1914238289280,0.079285584,0,1
1584037203421,39.473682,-0.20981626,0.004638672,-0.9099121,0.35961914,1584037201755,-1914238289280,0.079285584,0,1
1584037203427,NaN,-0.39779362,0.0063476562,-0.89160156,0.32861328,1584037201835,-1914238289280,0.079285584,0,1
1584037203431,NaN,-0.5922086,-0.025878906,-0.93359375,0.33007812,1584037201915,-1914238289280,0.079285584,0,1
1584037203434,NaN,-0.73586434,0.040771484,-0.9394531,0.2746582,1584037201995,-1914238289280,0.08687908,0,1
1584037203438,NaN,-0.84855646,0.061767578,-0.99121094,0.23608398,1584037202075,-1914238289280,0.08687908,0,1
1584037203442,NaN,-0.9346412,0.0012207031,-0.9968262,0.1875,1584037202155,-1914238289280,0.08687908,0,1
1584037203446,NaN,-0.9996795,0.005859375,-0.9650879,0.21020508,1584037202235,-1914238289280,0.08687908,0,1
1584037203448,NaN,-0.97478753,-0.028808594,-0.97924805,0.17236328,1584037202315,-1914238289280,0.08687908,0,1
1584037203452,NaN,-0.91015214,-0.032714844,-0.9897461,0.17163086,1584037202395,-1914238289280,0.08687908,0,1
1584037203454,NaN,-0.7123673,-0.0068359375,-0.9746094,0.16333008,1584037202475,-1914238289280,0.08687908,0,1
1584037203458,NaN,-0.47158706,0.021484375,-0.9707031,0.15673828,1584037202555,-1914238289280,0.08687908,0,1
1584037203461,NaN,-0.16805579,0.045410156,-0.9975586,0.17260742,1584037202635,-1914238289280,0.08687908,0,1
1584037203465,NaN,0.15152563,0.04296875,-0.99902344,0.18115234,1584037202715,-1914238289280,0.08687908,0,1
1584037203468,NaN,0.43197274,0.036621094,-0.9914551,0.18603516,1584037202795,-1914238289280,0.08687908,0,1
1584037203471,NaN,0.69406414,0.046142578,-0.96655273,0.19750977,1584037202875,-1914238289280,0.08687908,0,1
1584037203474,NaN,0.84233636,0.041259766,-0.9655762,0.20874023,1584037202955,-1914238289280,0.08687908,0,1
1584037203478,NaN,0.92774695,0.036621094,-0.98461914,0.19970703,1584037203035,-1914238289280,0.08687908,0,1
1584037203481,NaN,0.9908127,0.08691406,-0.9863281,0.1508789,1584037203115,-1914238289280,0.08687908,0,1
1584037203484,NaN,0.9833758,-0.018554688,-0.93652344,0.2548828,1584037203195,-1914238289280,0.15627213,0,1
1584037203487,NaN,0.9379609,-0.011230469,-0.95214844,0.19091797,1584037203275,-1914238289280,0.15627213,0,1
1584037203492,NaN,0.90344834,-0.06689453,-0.98217773,0.15185547,1584037203355,-1914238289280,0.15627213,0,1
1584037203495,NaN,0.78443664,-0.03491211,-0.9411621,0.15991211,1584037203435,-1914238289280,0.15627213,0,1
1584037203498,NaN,0.6557509,-0.103759766,-1.0256348,0.14916992,1584037203515,-1914238289280,0.15627213,0,1
1584037203500,NaN,0.50549406,-0.064453125,-0.9897461,0.15161133,1584037203595,-1914238289280,0.15627213,0,1
1584037206158,NaN,0.34548986,-0.037353516,-0.99975586,0.171875,1584037203675,-8110628426588,0.15627213,0,1
1584037206165,NaN,0.21918063,-0.045410156,-1.0488281,0.18334961,1584037203755,-8110628426588,0.15627213,0,1
1584037206170,NaN,0.04712154,-0.0390625,-0.8696289,0.23999023,1584037203835,-8110628426588,0.18804471,0,1
1584037206173,NaN,0.041545335,0.041259766,-1.0158691,0.15478516,1584037203915,-8110628426588,0.18804471,0,1
1584037206177,NaN,0.008076569,-0.0075683594,-0.98046875,0.20507812,1584037203995,-8110628426588,0.18804471,0,1
1584037206183,NaN,-0.057191115,0.020996094,-0.9641113,0.17919922,1584037204075,-8110628426588,0.18804471,0,1
1584037206187,NaN,0.0452067,-0.005126953,-0.9711914,0.18969727,1584037204155,-8110628426588,0.18804471,0,1
1584037206192,NaN,0.06307133,0.025146484,-0.97021484,0.19580078,1584037204235,-8110628426588,0.18804471,0,1
1584037206198,NaN,0.021629697,0.018798828,-0.9772949,0.1887207,1584037204315,-8110628426588,0.18804471,0,1
1584037206201,NaN,0.0058789887,0.0126953125,-0.9758301,0.19213867,1584037204395,-8110628426588,0.18804471,0,1
1584037206204,NaN,-0.056190204,0.005859375,-0.9707031,0.20605469,1584037204475,-8110628426588,0.18804471,0,1
1584037206207,NaN,-0.11268101,-0.0017089844,-0.9716797,0.20239258,1584037204555,-8110628426588,0.18804471,0,1
1584037206210,20.833334,-0.16068931,0.0014648438,-0.9650879,0.21606445,1584037204635,-8110628426588,0.18804471,0,1
1584037206213,NaN,-0.21683569,-0.014892578,-0.9765625,0.2241211,1584037204715,-8110628426588,0.18804471,0,1
1584037206217,NaN,-0.15283088,-0.0146484375,-0.9621582,0.2446289,1584037204795,-8110628426588,0.18804471,0,1
1584037206220,NaN,-0.28883395,-0.020263672,-0.9584961,0.24584961,1584037204875,-8110628426588,0.18804471,0,1
1584037206223,NaN,-0.32139382,-0.010009766,-0.9511719,0.24658203,1584037204955,-8110628426588,0.18804471,0,1
1584037206227,NaN,-0.36142924,-0.020507812,-0.9406738,0.25927734,1584037205035,-8110628426588,0.18804471,0,1
1584037206231,NaN,-0.48601997,-0.014892578,-0.96069336,0.2668457,1584037205115,-8110628426588,0.18804471,0,1
1584037206234,NaN,-0.5437644,-0.053466797,-0.967041,0.26586914,1584037205195,-8110628426588,0.18804471,0,1
1584037206238,NaN,-0.56452894,-0.03173828,-0.97021484,0.24780273,1584037205275,-8110628426588,0.18804471,0,1
1584037206241,NaN,-0.58376634,-0.025634766,-0.9675293,0.23852539,1584037205355,-8110628426588,0.18804471,0,1
1584037206244,NaN,-0.55038005,-0.028320312,-0.9626465,0.23071289,1584037205435,-8110628426588,0.18804471,0,1
1584037206247,NaN,-0.5227049,-0.018554688,-0.9680176,0.22290039,1584037205515,-8110628426588,0.18804471,0,1
1584037206252,NaN,-0.4900858,-0.014404297,-0.9628906,0.22753906,1584037205595,-8110628426588,0.18804471,0,1
1584037206255,NaN,-0.44114128,-0.017822266,-0.9760742,0.22094727,1584037205675,-8110628426588,0.18804471,0,1
1584037206258,NaN,-0.42930594,-0.011474609,-0.97216797,0.21875,1584037205755,-8110628426588,0.18804471,0,1
1584037206262,NaN,-0.31435814,-0.017822266,-0.96606445,0.20947266,1584037205835,-8110628426588,0.18804471,0,1
1584037206268,NaN,-0.24531661,-0.015380859,-0.970459,0.21459961,1584037205915,-8110628426588,0.18804471,0,1
1584037206271,NaN,-0.12788181,-0.004638672,-0.97509766,0.20922852,1584037205995,-8110628426588,0.18804471,0,1
1584037206274,NaN,-0.013688415,-0.012207031,-0.9716797,0.20922852,1584037206075,-8110628426588,0.18804471,0,1
1584037206277,NaN,0.09029392,-0.0034179688,-0.9724121,0.2121582,1584037206155,-8110628426588,0.18804471,0,1
1584037208544,NaN,0.16749482,-0.021484375,-0.97509766,0.21582031,1584037206235,4139725509812,0.18804471,0,1
1584037208551,NaN,0.22711147,-0.025878906,-0.97265625,0.21533203,1584037206315,4139725509812,0.18804471,0,1
1584037208557,NaN,0.25414276,-0.008300781,-0.9707031,0.22729492,1584037206395,4139725509812,0.18734401,0,1
1584037208560,NaN,0.27094927,-0.013671875,-0.9655762,0.22363281,1584037206475,4139725509812,0.078528695,0,1
1584037208564,NaN,0.27342674,-0.014160156,-0.9680176,0.23803711,1584037206555,4139725509812,0.04187136,0,1
1584037208568,NaN,0.24158347,-0.025878906,-0.95947266,0.2529297,1584037206635,4139725509812,0.039105203,0,1
1584037208572,NaN,0.18656714,-0.0107421875,-0.9572754,0.25439453,1584037206715,4139725509812,0.039105203,0,1
1584037208575,NaN,0.105427444,-0.029296875,-0.9523926,0.26708984,1584037206795,4139725509812,0.039105203,0,1
1584037208578,NaN,0.02851371,-0.0078125,-0.9489746,0.26757812,1584037206875,4139725509812,0.039105203,0,1
1584037208582,NaN,-0.06912529,-0.0146484375,-0.9433594,0.26220703,1584037206955,4139725509812,0.039105203,0,1
1584037208586,25.0,-0.16087912,-0.026123047,-0.96240234,0.25878906,1584037207035,4139725509812,0.039105203,0,1
1584037208590,NaN,-0.24201395,-0.02709961,-0.96606445,0.2524414,1584037207115,4139725509812,0.039105203,0,1
1584037208593,NaN,-0.30080006,-0.028076172,-0.96606445,0.25195312,1584037207195,4139725509812,0.039105203,0,1
1584037208596,NaN,-0.3381755,-0.020019531,-0.96118164,0.23413086,1584037207275,4139725509812,0.039105203,0,1
1584037208600,NaN,-0.34872985,-0.017089844,-0.9650879,0.23242188,1584037207355,4139725509812,0.039105203,0,1
1584037208604,NaN,-0.3525749,-0.017578125,-0.96533203,0.22924805,1584037207435,4139725509812,0.039105203,0,1
1584037208621,NaN,-0.33599684,-0.009521484,-0.9655762,0.2265625,1584037207515,4139725509812,0.039105203,0,1
1584037208622,NaN,-0.2785511,-0.017822266,-0.96777344,0.22094727,1584037207595,4139725509812,0.039105203,0,1
1584037208623,NaN,-0.22126196,-0.016113281,-0.96777344,0.22558594,1584037207675,4139725509812,0.039105203,0,1
1584037208623,NaN,-0.1245183,-0.0126953125,-0.9692383,0.21459961,1584037207755,4139725509812,0.028435834,0,1
1584037208624,NaN,-0.026907891,-0.017578125,-0.9753418,0.21166992,1584037207835,4139725509812,0.023006286,0,1
1584037208626,NaN,0.06613549,-0.009033203,-0.96313477,0.21411133,1584037207915,4139725509812,0.023006286,0,1
1584037208630,NaN,0.14756782,-0.018310547,-0.97509766,0.21459961,1584037207995,4139725509812,0.023006286,0,1
1584037208636,NaN,0.21386306,-0.019042969,-0.970459,0.21533203,1584037208075,4139725509812,0.023006286,0,1
1584037208639,NaN,0.26977548,-0.02758789,-0.96777344,0.22241211,1584037208155,4139725509812,0.023006286,0,1
1584037208643,NaN,0.3003436,-0.009521484,-0.9711914,0.22094727,1584037208235,4139725509812,0.023006286,0,1
1584037208647,NaN,0.31824645,-0.009033203,-0.9692383,0.21875,1584037208315,4139725509812,0.023006286,0,1
1584037208651,NaN,0.32053193,-0.024902344,-0.9645996,0.23168945,1584037208395,4139725509812,0.023006286,0,1
1584037208654,NaN,0.29582694,-0.016601562,-0.95874023,0.24389648,1584037208475,4139725509812,0.023006286,0,1
1584037208658,NaN,0.23970522,-0.026611328,-0.9572754,0.2524414,1584037208555,4139725509812,0.023006286,0,1
1584037208661,NaN,0.17973383,-0.02319336,-0.9555664,0.26464844,1584037208635,4139725509812,0.023006286,0,1
1584037208665,NaN,0.09199437,-0.021484375,-0.94921875,0.25952148,1584037208715,4139725509812,0.023006286,0,1
1584037211129,NaN,-0.0040576705,-0.020263672,-0.954834,0.26245117,1584037208795,-2056946102472,0.023006286,0,1
1584037211137,NaN,-0.07941732,-0.032226562,-0.9658203,0.25268555,1584037208875,-2056946102472,0.023006286,0,1
1584037211142,31.25,-0.14908879,-0.037109375,-0.9658203,0.24902344,1584037208955,-2056946102472,0.023006286,0,1
1584037211151,NaN,-0.2020824,-0.020019531,-0.9650879,0.24047852,1584037209035,-2056946102472,0.023006286,0,1
1584037211155,NaN,-0.24344496,-0.023925781,-0.96362305,0.24243164,1584037209115,-2056946102472,0.023006286,0,1
1584037211159,NaN,-0.27253106,-0.030761719,-0.9628906,0.23706055,1584037209195,-2056946102472,0.023006286,0,1
1584037211163,NaN,-0.29854643,-0.0068359375,-0.9626465,0.23413086,1584037209275,-2056946102472,0.024105718,0,1
1584037211167,NaN,-0.29202855,-0.022949219,-0.9645996,0.22680664,1584037209355,-2056946102472,0.024105718,0,1
1584037211171,NaN,-0.26152977,-0.020507812,-0.9667969,0.22753906,1584037209435,-2056946102472,0.024105718,0,1
1584037211179,NaN,-0.20765345,-0.021484375,-0.9655762,0.22314453,1584037209515,-2056946102472,0.024105718,0,1
1584037211187,NaN,-0.13432084,-0.016845703,-0.9699707,0.22094727,1584037209595,-2056946102472,0.024105718,0,1
1584037211188,NaN,-0.06340742,-0.012207031,-0.9633789,0.22680664,1584037209675,-2056946102472,0.024105718,0,1
1584037211192,NaN,0.017175907,-0.01928711,-0.97094727,0.22338867,1584037209755,-2056946102472,0.024105718,0,1
1584037211195,NaN,0.072042026,-0.025634766,-0.96972656,0.22607422,1584037209835,-2056946102472,0.024105718,0,1
1584037211198,NaN,0.1198119,-0.011962891,-0.96533203,0.22998047,1584037209915,-2056946102472,0.024105718,0,1
1584037211202,NaN,0.14259116,-0.008056641,-0.9604492,0.23876953,1584037209995,-2056946102472,0.024105718,0,1
1584037211208,NaN,0.15150388,-0.020263672,-0.96435547,0.25268555,1584037210075,-2056946102472,0.024105718,0,1
1584037211211,NaN,0.14829683,-0.020996094,-0.9562988,0.25976562,1584037210155,-2056946102472,0.024105718,0,1
1584037211215,NaN,0.13452472,-0.013916016,-0.9501953,0.2644043,1584037210235,-2056946102472,0.024105718,0,1
1584037211218,NaN,0.09141614,-0.01586914,-0.953125,0.27246094,1584037210315,-2056946102472,0.024105718,0,1
1584037211222,NaN,0.04370046,-0.0107421875,-0.9465332,0.26367188,1584037210395,-2056946102472,0.024105718,0,1
1584037211225,NaN,-0.013250627,-0.011230469,-0.9543457,0.25927734,1584037210475,-2056946102472,0.024105718,0,1
1584037211229,37.5,-0.08232121,-0.029541016,-0.96777344,0.25683594,1584037210555,-2056946102472,0.024105718,0,1
1584037211231,NaN,-0.13312735,-0.018798828,-0.9638672,0.25219727,1584037210635,-2056946102472,0.024105718,0,1
1584037211235,NaN,-0.18849142,-0.014160156,-0.95874023,0.24560547,1584037210715,-2056946102472,0.024105718,0,1
1584037211239,NaN,-0.22157298,-0.01586914,-0.96655273,0.23852539,1584037210795,-2056946102472,0.024105718,0,1
1584037211242,NaN,-0.24554975,-0.001953125,-0.9641113,0.23901367,1584037210875,-2056946102472,0.024105718,0,1
1584037211246,NaN,-0.242274,-0.019042969,-0.96606445,0.23413086,1584037210955,-2056946102472,0.024105718,0,1
1584037211261,NaN,-0.2160257,-0.0048828125,-0.9641113,0.23095703,1584037211035,-2056946102472,0.024105718,0,1
1584037211262,NaN,-0.16755478,-0.016113281,-0.967041,0.22680664,1584037211115,-2056946102472,0.024105718,0,1
1584037211263,NaN,-0.10633809,-0.010498047,-0.9655762,0.22705078,1584037211195,-2056946102472,0.024105718,0,1
1584037211264,NaN,-0.022578418,-0.0043945312,-0.96728516,0.22167969,1584037211275,-2056946102472,0.024105718,0,1
1584037213714,NaN,0.051086497,-0.015380859,-0.9682617,0.21875,1584037211355,-8253336239780,0.024105718,0,1
1584037213721,NaN,0.11231059,-0.0078125,-0.96484375,0.22509766,1584037211435,-8253336239780,0.024105718,0,1
1584037213728,NaN,0.17355484,-0.015625,-0.97314453,0.22094727,1584037211515,-8253336239780,0.024105718,0,1
1584037213735,NaN,0.22343545,-0.019042969,-0.97216797,0.21850586,1584037211595,-8253336239780,0.024105718,0,1
1584037213741,NaN,0.257,-0.02319336,-0.9658203,0.23046875,1584037211675,-8253336239780,0.024105718,0,1
1584037213748,NaN,0.27065954,-0.0053710938,-0.9604492,0.23364258,1584037211755,-8253336239780,0.024105718,0,1
1584037213752,NaN,0.27314147,-0.011962891,-0.96435547,0.24414062,1584037211835,-8253336239780,0.022837264,0,1
1584037213757,NaN,0.2513032,-0.02709961,-0.96484375,0.25463867,1584037211915,-8253336239780,0.022837264,0,1
1584037213760,NaN,0.20647363,-0.011962891,-0.953125,0.26049805,1584037211995,-8253336239780,0.022837264,0,1
1584037213763,NaN,0.13334793,-0.021728516,-0.9526367,0.27685547,1584037212075,-8253336239780,0.022837264,0,1
1584037213768,NaN,0.05659842,-0.017089844,-0.94873047,0.27539062,1584037212155,-8253336239780,0.022837264,0,1
1584037213772,NaN,-0.03216694,-0.013427734,-0.9484863,0.2705078,1584037212235,-8253336239780,0.022837264,0,1
1584037213776,34.090908,-0.11158395,-0.014404297,-0.96069336,0.26464844,1584037212315,-8253336239780,0.022837264,0,1
1584037213781,NaN,-0.16491725,-0.023925781,-0.95825195,0.25073242,1584037212395,-8253336239780,0.022837264,0,1
1584037213785,NaN,-0.2127264,-0.022216797,-0.9641113,0.23876953,1584037212475,-8253336239780,0.022837264,0,1
1584037213790,NaN,-0.25203797,-0.022705078,-0.967041,0.22949219,1584037212555,-8253336239780,0.022837264,0,1
1584037213794,NaN,-0.27532822,-0.022460938,-0.9626465,0.2421875,1584037212635,-8253336239780,0.022837264,0,1
1584037213798,NaN,-0.27711463,-0.02368164,-0.9667969,0.23144531,1584037212715,-8253336239780,0.022837264,0,1
1584037213803,NaN,-0.266163,-0.008056641,-0.9628906,0.23632812,1584037212795,-8253336239780,0.022837264,0,1
1584037213806,NaN,-0.22577591,-0.01953125,-0.9626465,0.22631836,1584037212875,-8253336239780,0.022837264,0,1
1584037213809,NaN,-0.1720426,-0.015136719,-0.9638672,0.22949219,1584037212955,-8253336239780,0.022837264,0,1
1584037213812,NaN,-0.08032834,-0.015625,-0.9663086,0.22192383,1584037213035,-8253336239780,0.022837264,0,1
1584037213816,NaN,0.008333032,-0.018066406,-0.96728516,0.22387695,1584037213115,-8253336239780,0.020019531,0,1
1584037213819,NaN,0.0925077,-0.010009766,-0.96435547,0.2253418,1584037213195,-8253336239780,0.020019531,0,1
1584037213822,NaN,0.16579682,-0.013671875,-0.96850586,0.2241211,1584037213275,-8253336239780,0.020019531,0,1
1584037213825,NaN,0.21698123,-0.019042969,-0.9746094,0.22070312,1584037213355,-8253336239780,0.020019531,0,1
1584037213827,NaN,0.25009587,-0.013916016,-0.96606445,0.21972656,1584037213435,-8253336239780,0.020019531,0,1
1584037213831,NaN,0.26352242,-0.014160156,-0.96777344,0.22631836,1584037213515,-8253336239780,0.020019531,0,1
1584037213835,NaN,0.30043462,-0.009521484,-0.97094727,0.2121582,1584037213595,-8253336239780,0.020019531,0,1
1584037213837,NaN,0.3114868,-0.018798828,-0.9699707,0.21704102,1584037213675,-8253336239780,0.020019531,0,1
1584037213841,NaN,0.32407346,-0.009033203,-0.9729004,0.21533203,1584037213755,-8253336239780,0.020019531,0,1
1584037213845,NaN,0.3130401,-0.0107421875,-0.96899414,0.21411133,1584037213835,-8253336239780,0.020019531,0,1
1584037216496,NaN,0.29140624,-0.024658203,-0.96875,0.22241211,1584037213915,3997017696620,0.020019531,0,1
1584037216501,NaN,0.24168359,-0.0048828125,-0.96875,0.2265625,1584037213995,3997017696620,0.020206232,0,1
1584037216505,NaN,0.19301368,-0.012939453,-0.97216797,0.22949219,1584037214075,3997017696620,0.020206232,0,1
1584037216509,NaN,0.14545508,-0.013183594,-0.9645996,0.23413086,1584037214155,3997017696620,0.020206232,0,1
1584037216516,NaN,0.09749638,-0.016113281,-0.96069336,0.23852539,1584037214235,3997017696620,0.020206232,0,1
1584037216518,NaN,0.048434556,-0.020996094,-0.9621582,0.24365234,1584037214315,3997017696620,0.020206232,0,1
1584037216522,NaN,0.00879243,-0.0126953125,-0.95825195,0.24682617,1584037214395,3997017696620,0.020206232,0,1
1584037216528,NaN,-0.01979148,-0.01928711,-0.95654297,0.25439453,1584037214475,3997017696620,0.020206232,0,1
1584037216532,26.785715,-0.08621251,-0.013916016,-0.9526367,0.25610352,1584037214555,3997017696620,0.020206232,0,1
1584037216535,NaN,-0.13074423,-0.01953125,-0.95043945,0.25170898,1584037214635,3997017696620,0.020206232,0,1
1584037216538,NaN,-0.18162195,-0.01171875,-0.96191406,0.25195312,1584037214715,3997017696620,0.020206232,0,1
1584037216542,NaN,-0.22415693,-0.027832031,-0.96606445,0.24804688,1584037214795,3997017696620,0.020206232,0,1
1584037216545,NaN,-0.24764532,-0.023925781,-0.9638672,0.24389648,1584037214875,3997017696620,0.020206232,0,1
1584037216550,NaN,-0.25379863,-0.017578125,-0.9675293,0.23339844,1584037214955,3997017696620,0.020206232,0,1
1584037216555,NaN,-0.25821552,-0.0107421875,-0.96313477,0.23706055,1584037215035,3997017696620,0.020206232,0,1
1584037216559,NaN,-0.24784629,-0.015625,-0.9658203,0.23022461,1584037215115,3997017696620,0.020206232,0,1
1584037216562,NaN,-0.2277242,-0.008544922,-0.96240234,0.23217773,1584037215195,3997017696620,0.020206232,0,1
1584037216569,NaN,-0.19125803,-0.011230469,-0.9641113,0.22705078,1584037215275,3997017696620,0.020206232,0,1
