local_ts,breathing_rate,breathing_signal,accel_x,accel_y,accel_z,bs_timestamp,rs_ts,activity_level,current_exercise,pred_exercise
1584288492716,NaN,-0.084691696,-0.1459961,-0.8684082,0.45483398,1584288490418,6705226994608,0.02801773,0,1
1584288492718,NaN,-0.05012746,-0.14111328,-0.8754883,0.46264648,1584288490498,6705226994608,0.02801773,0,1
1584288492721,NaN,0.0010557659,-0.14013672,-0.86083984,0.45947266,1584288490578,6705226994608,0.02801773,0,1
1584288492731,NaN,0.053280488,-0.14257812,-0.86938477,0.46655273,1584288490658,6705226994608,0.02801773,0,1
1584288492760,NaN,0.09018877,-0.13793945,-0.86450195,0.46044922,1584288490738,6705226994608,0.02801773,0,1
1584288492764,NaN,0.1496796,-0.14013672,-0.86376953,0.46875,1584288490818,6705226994608,0.02801773,0,1
1584288492765,NaN,0.16766949,-0.13623047,-0.8659668,0.46533203,1584288490898,6705226994608,0.02801773,0,1
1584288492766,NaN,0.16852479,-0.14404297,-0.8601074,0.4699707,1584288490978,6705226994608,0.02801773,0,1
1584288492768,NaN,0.15059705,-0.140625,-0.86083984,0.47094727,1584288491058,6705226994608,0.02801773,0,1
1584288492786,NaN,0.11178622,-0.1394043,-0.85913086,0.47265625,1584288491138,6705226994608,0.02801773,0,1
1584288492787,NaN,0.059778478,-0.13989258,-0.85668945,0.47753906,1584288491218,6705226994608,0.02801773,0,1
1584288492788,NaN,0.0100467475,-0.14233398,-0.857666,0.47729492,1584288491298,6705226994608,0.02801773,0,1
1584288492790,NaN,-0.014736806,-0.1418457,-0.8598633,0.47045898,1584288491378,6705226994608,0.02801773,0,1
1584288492796,35.714287,-0.046926808,-0.14501953,-0.8569336,0.47607422,1584288491458,6705226994608,0.02801773,0,1
1584288492797,NaN,-0.07689298,-0.14453125,-0.8691406,0.48046875,1584288491538,6705226994608,0.02801773,0,1
1584288492798,NaN,-0.10069104,-0.14233398,-0.8623047,0.47265625,1584288491618,6705226994608,0.02801773,0,1
1584288492799,NaN,-0.115988314,-0.14794922,-0.8635254,0.4621582,1584288491698,6705226994608,0.02801773,0,1
1584288492818,NaN,-0.12953494,-0.13720703,-0.8618164,0.45288086,1584288491778,6705226994608,0.02801773,0,1
1584288492819,NaN,-0.12198189,-0.14038086,-0.8720703,0.44921875,1584288491858,6705226994608,0.02801773,0,1
1584288492820,NaN,-0.10566982,-0.140625,-0.8605957,0.45410156,1584288491938,6705226994608,0.02801773,0,1
1584288492821,NaN,-0.0685812,-0.13793945,-0.8708496,0.43945312,1584288492018,6705226994608,0.02801773,0,1
1584288492822,NaN,-0.026086489,-0.13256836,-0.86865234,0.44995117,1584288492098,6705226994608,0.02801773,0,1
1584288492823,NaN,0.025055552,-0.15649414,-0.8769531,0.4597168,1584288492178,6705226994608,0.02801773,0,1
1584288492826,NaN,0.074856184,-0.14038086,-0.873291,0.45410156,1584288492258,6705226994608,0.02801773,0,1
1584288492829,NaN,0.1074712,-0.13549805,-0.86865234,0.45141602,1584288492338,6705226994608,0.02801773,0,1
1584288492832,NaN,0.13262233,-0.13574219,-0.8618164,0.46948242,1584288492418,6705226994608,0.02801773,0,1
1584288492835,NaN,0.15480213,-0.13452148,-0.86694336,0.46679688,1584288492498,6705226994608,0.027142465,0,1
1584288492841,NaN,0.1704765,-0.1352539,-0.861084,0.46142578,1584288492578,6705226994608,0.027142465,0,1
1584288492845,NaN,0.16003436,-0.14013672,-0.86376953,0.48046875,1584288492658,6705226994608,0.027142465,0,1
1584288492848,NaN,0.13306595,-0.1394043,-0.8586426,0.47265625,1584288492738,6705226994608,0.027142465,0,1
1584288492851,NaN,0.09770787,-0.13720703,-0.8642578,0.47436523,1584288492818,6705226994608,0.027142465,0,1
1584288492855,NaN,0.066491745,-0.14331055,-0.85839844,0.47875977,1584288492898,6705226994608,0.027142465,0,1
1584288495280,NaN,0.012701169,-0.13989258,-0.861084,0.4699707,1584288492978,508836857300,0.027142465,0,1
1584288495285,NaN,-0.031763285,-0.14233398,-0.85961914,0.47607422,1584288493058,508836857300,0.027142465,0,1
1584288495289,35.714287,-0.08127436,-0.15283203,-0.8605957,0.4909668,1584288493138,508836857300,0.027142465,0,1
1584288495292,NaN,-0.12754937,-0.140625,-0.857666,0.4765625,1584288493218,508836857300,0.027142465,0,1
1584288495295,NaN,-0.1561781,-0.14135742,-0.8640137,0.46289062,1584288493298,508836857300,0.027142465,0,1
1584288495301,NaN,-0.17431092,-0.14477539,-0.8586426,0.4814453,1584288493378,508836857300,0.027142465,0,1
1584288495303,NaN,-0.17934376,-0.1394043,-0.86499023,0.4584961,1584288493458,508836857300,0.027142465,0,1
1584288495307,NaN,-0.1758989,-0.13183594,-0.8684082,0.44970703,1584288493538,508836857300,0.027142465,0,1
1584288495311,NaN,-0.13161427,-0.1303711,-0.875,0.44458008,1584288493618,508836857300,0.027142465,0,1
1584288495315,NaN,-0.07966739,-0.13256836,-0.8857422,0.43920898,1584288493698,508836857300,0.027142465,0,1
1584288495320,NaN,-0.02852191,-0.114990234,-0.8874512,0.44873047,1584288493778,508836857300,0.027142465,0,1
1584288495325,NaN,0.02821893,-0.16699219,-0.8967285,0.4465332,1584288493858,508836857300,0.05286871,0,1
1584288495328,NaN,0.13813747,-0.14648438,-0.8952637,0.37451172,1584288493938,508836857300,0.07489867,0,1
1584288495333,NaN,0.30332077,-0.12963867,-0.9086914,0.31176758,1584288494018,508836857300,0.07489867,0,1
1584288495335,NaN,0.5094192,-0.22045898,-0.9265137,0.28564453,1584288494098,508836857300,0.09616847,0,1
1584288495340,NaN,0.7062904,-0.27172852,-0.9279785,0.28100586,1584288494178,508836857300,0.09616847,0,1
1584288495343,NaN,0.8317458,-0.21582031,-0.91137695,0.33642578,1584288494258,508836857300,0.09616847,0,1
1584288495347,NaN,1.0056666,-0.21191406,-0.93774414,0.30688477,1584288494338,508836857300,0.09616847,0,1
1584288495351,NaN,1.0866723,-0.15454102,-0.921875,0.37182617,1584288494418,508836857300,0.09616847,0,1
1584288495354,NaN,1.1668104,-0.24047852,-0.87939453,0.34350586,1584288494498,508836857300,0.09995941,0,1
1584288495357,NaN,1.1854326,-0.33129883,-0.8562012,0.39770508,1584288494578,508836857300,0.108276576,0,1
1584288495360,NaN,1.1787846,-0.33935547,-0.8071289,0.41137695,1584288494658,508836857300,0.108276576,0,1
1584288495363,NaN,1.219488,-0.3996582,-0.8251953,0.41186523,1584288494738,508836857300,0.108276576,0,1
1584288495366,NaN,1.260107,-0.42578125,-0.8178711,0.4074707,1584288494818,508836857300,0.108276576,0,1
1584288495370,NaN,1.1433438,-0.54467773,-0.6994629,0.43603516,1584288494898,508836857300,0.170214,0,1
1584288495373,NaN,0.88568735,-0.49438477,-0.66259766,0.40429688,1584288494978,508836857300,0.170214,0,1
1584288495375,NaN,0.37162992,-0.47045898,-0.69970703,0.63623047,1584288495058,508836857300,0.236099,0,1
1584288495379,NaN,-0.056003112,-0.44311523,-0.72436523,0.51904297,1584288495138,508836857300,0.236099,0,1
1584288495381,28.846153,-0.41392145,-0.4296875,-0.69189453,0.5383301,1584288495218,508836857300,0.236099,0,1
1584288495384,NaN,-0.7859619,-0.4428711,-0.76586914,0.4753418,1584288495298,508836857300,0.236099,0,1
1584288495387,NaN,-0.972109,-0.49267578,-0.7922363,0.3762207,1584288495378,508836857300,0.236099,0,1
1584288495391,NaN,-1.0777143,-0.4111328,-0.8718262,0.33642578,1584288495458,508836857300,0.236099,0,1
1584288497865,NaN,-0.9663796,-0.34985352,-1.0061035,0.2553711,1584288495538,-5687834754984,0.236099,0,1
1584288497873,NaN,-0.5838072,-0.20996094,-1.1870117,0.06762695,1584288495618,-5687834754984,0.295881,0,1
1584288497877,NaN,NaN,0.057373047,-1.0390625,-0.0087890625,1584288495698,-5687834754984,0.3149537,0,1
1584288497881,NaN,NaN,0.14550781,-0.96313477,-0.123291016,1584288495778,-5687834754984,0.3149537,0,1
1584288497886,NaN,NaN,0.09814453,-0.90405273,-0.07739258,1584288495858,-5687834754984,0.3149537,0,1
1584288497890,NaN,NaN,0.106933594,-0.9160156,-0.1081543,1584288495938,-5687834754984,0.3149537,0,1
1584288497894,NaN,NaN,0.09741211,-0.7878418,-0.13232422,1584288496018,-5687834754984,0.3149537,0,1
1584288497897,NaN,NaN,0.0625,-0.7800293,-0.15576172,1584288496098,-5687834754984,0.3149537,0,1
1584288497901,NaN,NaN,-0.024414062,-0.9499512,-0.24389648,1584288496178,-5687834754984,0.3149537,0,1
1584288497903,NaN,NaN,0.064208984,-0.9770508,-0.23144531,1584288496258,-5687834754984,0.3149537,0,1
1584288497908,NaN,NaN,0.095703125,-1.0124512,-0.21435547,1584288496338,-5687834754984,0.3149537,0,1
1584288497911,NaN,NaN,-0.0073242188,-1.010498,-0.12988281,1584288496418,-5687834754984,0.3149537,0,1
1584288497915,NaN,NaN,-0.06982422,-1.1621094,-0.06298828,1584288496498,-5687834754984,0.3149537,0,1
1584288497919,NaN,NaN,-0.16333008,-1.2094727,0.10961914,1584288496578,-5687834754984,0.3149537,0,1
1584288497924,NaN,NaN,-0.095214844,-0.9313965,0.19604492,1584288496658,-5687834754984,0.3149537,0,1
1584288497928,NaN,NaN,-0.111572266,-0.7915039,0.25170898,1584288496738,-5687834754984,0.3149537,0,1
1584288497932,NaN,NaN,-0.080566406,-0.9343262,0.36914062,1584288496818,-5687834754984,0.3149537,0,1
1584288497935,NaN,NaN,-0.09887695,-0.9746094,0.45629883,1584288496898,-5687834754984,0.3149537,0,1
1584288497937,NaN,NaN,-0.10473633,-0.8364258,0.42651367,1584288496978,-5687834754984,0.3149537,0,1
1584288497941,NaN,NaN,-0.1003418,-0.79907227,0.4104004,1584288497058,-5687834754984,0.3149537,0,1
1584288497944,NaN,NaN,-0.14233398,-0.90405273,0.37329102,1584288497138,-5687834754984,0.3149537,0,1
1584288497947,NaN,NaN,-0.12841797,-0.95751953,0.31225586,1584288497218,-5687834754984,0.3149537,0,1
1584288497949,NaN,NaN,-0.07543945,-0.9501953,0.28222656,1584288497298,-5687834754984,0.3149537,0,1
1584288497953,NaN,NaN,-0.025390625,-1.0244141,0.15209961,1584288497378,-5687834754984,0.3149537,0,1
1584288497956,NaN,NaN,0.14013672,-1.2302246,0.010253906,1584288497458,-5687834754984,0.3149537,0,1
1584288497960,NaN,NaN,0.26416016,-1.1520996,-0.025878906,1584288497538,-5687834754984,0.3149537,0,1
1584288497963,NaN,NaN,0.22827148,-1.0222168,-0.12670898,1584288497618,-5687834754984,0.3149537,0,1
1584288497967,NaN,NaN,0.23828125,-1.0200195,-0.103515625,1584288497698,-5687834754984,0.3149537,0,1
1584288497970,NaN,NaN,0.18603516,-1.0112305,-0.072265625,1584288497778,-5687834754984,0.3149537,0,1
1584288497973,NaN,NaN,0.15112305,-0.95336914,-0.009521484,1584288497858,-5687834754984,0.3149537,0,1
1584288497976,NaN,NaN,0.10913086,-0.94433594,0.05908203,1584288497938,-5687834754984,0.3149537,0,1
1584288497979,NaN,NaN,0.057617188,-0.9375,0.10449219,1584288498018,-5687834754984,0.3149537,0,1
1584288500844,NaN,NaN,0.023925781,-0.9111328,0.15454102,1584288498098,6562519181416,0.3149537,0,1
1584288500850,NaN,NaN,-0.016845703,-0.84228516,0.20678711,1584288498178,6562519181416,0.3149537,0,1
1584288500855,NaN,-0.4532847,-0.06762695,-0.9416504,0.26416016,1584288498258,6562519181416,0.29979575,0,1
1584288500859,NaN,-0.39843512,-0.11669922,-0.84716797,0.31762695,1584288498338,6562519181416,0.29979575,0,1
1584288500865,NaN,-0.14652134,-0.14379883,-0.8540039,0.35131836,1584288498418,6562519181416,0.29979575,0,1
1584288500870,NaN,0.12708902,-0.18896484,-0.8786621,0.42871094,1584288498498,6562519181416,0.29979575,0,1
1584288500873,NaN,0.74113506,-0.20361328,-0.84472656,0.43188477,1584288498578,6562519181416,0.29979575,0,1
1584288500877,NaN,1.1588637,-0.19750977,-0.81274414,0.44580078,1584288498658,6562519181416,0.29979575,0,1
1584288500881,NaN,1.5818475,-0.21069336,-0.8317871,0.46240234,1584288498738,6562519181416,0.29979575,0,1
1584288500884,NaN,1.8942069,-0.21826172,-0.829834,0.48046875,1584288498818,6562519181416,0.29979575,0,1
1584288500887,NaN,2.0562541,-0.21459961,-0.8378906,0.4506836,1584288498898,6562519181416,0.29979575,0,1
1584288500890,NaN,2.0509014,-0.18896484,-0.8574219,0.45947266,1584288498978,6562519181416,0.29979575,0,1
1584288500894,NaN,1.783461,-0.16699219,-0.85913086,0.40795898,1584288499058,6562519181416,0.29979575,0,1
1584288500898,NaN,1.0588738,-0.09741211,-0.8408203,0.36279297,1584288499138,6562519181416,0.29979575,0,1
1584288500903,NaN,0.7781729,-0.0690918,-0.8342285,0.31445312,1584288499218,6562519181416,0.29979575,0,1
1584288500908,NaN,0.68920755,-0.029052734,-0.8256836,0.27905273,1584288499298,6562519181416,0.29979575,0,1
1584288500911,NaN,0.5870846,0.012207031,-0.85302734,0.2541504,1584288499378,6562519181416,0.29979575,0,1
1584288500915,NaN,0.6424729,0.048339844,-0.81274414,0.2055664,1584288499458,6562519181416,0.29979575,0,1
1584288500918,NaN,0.6894639,0.11816406,-0.9626465,0.20361328,1584288499538,6562519181416,0.29979575,0,1
1584288500922,NaN,0.93170565,0.14208984,-0.9765625,0.14233398,1584288499618,6562519181416,0.29979575,0,1
1584288500925,NaN,1.2121559,0.16333008,-1.0227051,0.1184082,1584288499698,6562519181416,0.29979575,0,1
1584288500929,NaN,1.6524754,0.28100586,-1.1293945,0.12866211,1584288499778,6562519181416,0.29979575,0,1
1584288500932,NaN,2.048526,0.14233398,-1.0458984,0.092041016,1584288499858,6562519181416,0.29979575,0,1
1584288500935,NaN,2.4583478,0.15991211,-1.1259766,0.1899414,1584288499938,6562519181416,0.29979575,0,1
1584288500938,NaN,2.892401,0.06591797,-1.2243652,0.15332031,1584288500018,6562519181416,0.16829808,0,1
1584288500942,NaN,3.3195438,-0.02319336,-1.0561523,0.27685547,1584288500098,6562519181416,0.22693026,0,1
1584288500944,NaN,3.4348643,-0.056640625,-0.8522949,0.27319336,1584288500178,6562519181416,0.22693026,0,1
1584288500947,NaN,3.3782234,-0.05102539,-0.8498535,0.28735352,1584288500258,6562519181416,0.22693026,0,1
1584288500950,NaN,3.1668303,-0.092041016,-0.95532227,0.34375,1584288500338,6562519181416,0.22693026,0,1
1584288500953,NaN,2.774884,-0.09472656,-0.92871094,0.40063477,1584288500418,6562519181416,0.22693026,0,1
1584288500955,NaN,2.1875765,-0.106933594,-0.87475586,0.43896484,1584288500498,6562519181416,0.22693026,0,1
1584288500958,NaN,1.4819666,-0.09057617,-0.87646484,0.4206543,1584288500578,6562519181416,0.22693026,0,1
1584288503230,NaN,0.6738289,-0.08496094,-0.89208984,0.4489746,1584288500658,366129044107,0.22693026,0,1
1584288503236,NaN,-0.28870133,-0.099609375,-0.87597656,0.4338379,1584288500738,366129044107,0.22693026,0,1
1584288503242,NaN,-1.1163492,-0.10839844,-0.875,0.42797852,1584288500818,366129044107,0.22693026,0,1
1584288503252,NaN,-1.839336,-0.095947266,-0.88720703,0.42993164,1584288500898,366129044107,0.22693026,0,1
1584288503257,NaN,-2.5116696,-0.09814453,-0.89453125,0.42089844,1584288500978,366129044107,0.22693026,0,1
1584288503263,NaN,-2.7969558,-0.09887695,-0.8835449,0.4025879,1584288501058,366129044107,0.22693026,0,1
1584288503270,NaN,-2.9042175,-0.09423828,-0.8991699,0.38305664,1584288501138,366129044107,0.22693026,0,1
1584288503275,NaN,-2.9219534,-0.068359375,-0.90966797,0.3544922,1584288501218,366129044107,0.22693026,0,1
1584288503279,NaN,-2.8051393,-0.052001953,-0.92163086,0.3190918,1584288501298,366129044107,0.22693026,0,1
1584288503283,NaN,-2.5136578,-0.044433594,-0.9802246,0.28564453,1584288501378,366129044107,0.22693026,0,1
1584288503285,NaN,-1.9277099,0.07910156,-1.1206055,0.18408203,1584288501458,366129044107,0.22693026,0,1
1584288503290,NaN,-1.15809,0.21289062,-1.1831055,0.032226562,1584288501538,366129044107,0.22693026,0,1
1584288503296,NaN,-0.2993902,0.27490234,-1.043457,-0.03100586,1584288501618,366129044107,0.22693026,0,1
1584288503299,NaN,0.67739755,0.3359375,-1.0551758,-0.057373047,1584288501698,366129044107,0.22693026,0,1
1584288503303,NaN,1.5774364,0.30297852,-1.0375977,-0.047851562,1584288501778,366129044107,0.22693026,0,1
1584288503307,NaN,2.3560977,0.25610352,-0.9868164,0.021240234,1584288501858,366129044107,0.22693026,0,1
1584288503310,NaN,3.1278203,0.23095703,-0.96899414,0.017822266,1584288501938,366129044107,0.22693026,0,1
1584288503314,NaN,3.652744,0.15795898,-0.87353516,0.052001953,1584288502018,366129044107,0.22693026,0,1
1584288503317,NaN,4.0031247,0.11303711,-0.88012695,0.111816406,1584288502098,366129044107,0.22693026,0,1
1584288503320,NaN,4.2413206,0.091308594,-0.86865234,0.15698242,1584288502178,366129044107,0.22693026,0,1
1584288503324,NaN,4.34045,0.029296875,-0.87280273,0.19799805,1584288502258,366129044107,0.22693026,0,1
1584288503328,NaN,4.2603946,0.009521484,-0.92626953,0.27661133,1584288502338,366129044107,0.22693026,0,1
1584288503332,NaN,3.8077328,-0.030273438,-0.87060547,0.30664062,1584288502418,366129044107,0.22693026,0,1
1584288503334,NaN,2.9808576,-0.030273438,-0.91967773,0.37231445,1584288502498,366129044107,0.22693026,0,1
1584288503338,NaN,1.9958838,-0.072509766,-0.8947754,0.38549805,1584288502578,366129044107,0.22693026,0,1
1584288503340,NaN,0.89265615,-0.06298828,-0.8913574,0.4050293,1584288502658,366129044107,0.21279722,0,1
1584288503343,NaN,-0.17855883,-0.072265625,-0.8483887,0.40625,1584288502738,366129044107,0.21279722,0,1
1584288503346,NaN,-1.0866395,-0.07446289,-0.8959961,0.40966797,1584288502818,366129044107,0.21279722,0,1
1584288503349,NaN,-1.9785935,-0.088134766,-0.9001465,0.42749023,1584288502898,366129044107,0.21279722,0,1
1584288503352,NaN,-2.6918087,-0.064697266,-0.8835449,0.41577148,1584288502978,366129044107,0.21279722,0,1
1584288503355,NaN,-3.2589161,-0.07128906,-0.89746094,0.41308594,1584288503058,366129044107,0.21279722,0,1
1584288503358,NaN,-3.6914437,-0.05810547,-0.8972168,0.40112305,1584288503138,366129044107,0.21279722,0,1
1584288505635,NaN,-3.9632123,-0.051757812,-0.85253906,0.3618164,1584288503218,-5830542568177,0.21279722,0,1
1584288505636,NaN,-4.0922213,-0.04345703,-0.859375,0.3552246,1584288503298,-5830542568177,0.21279722,0,1
1584288505638,NaN,-3.9637268,-0.015136719,-0.8811035,0.32592773,1584288503378,-5830542568177,0.21279722,0,1
1584288505640,NaN,-3.5527904,0.0017089844,-0.8874512,0.2956543,1584288503458,-5830542568177,0.21279722,0,1
1584288505641,NaN,-2.943814,0.06689453,-0.8510742,0.26171875,1584288503538,-5830542568177,0.21279722,0,1
1584288505644,NaN,-2.1721156,0.11425781,-0.8364258,0.16992188,1584288503618,-5830542568177,0.21279722,0,1
1584288505647,NaN,-1.3290043,0.13916016,-0.95825195,0.15844727,1584288503698,-5830542568177,0.21279722,0,1
1584288505651,NaN,-0.4910506,0.23486328,-0.9511719,0.10644531,1584288503778,-5830542568177,0.21279722,0,1
1584288505655,NaN,0.44244775,0.25952148,-1.0556641,0.05126953,1584288503858,-5830542568177,0.21279722,0,1
1584288505658,NaN,1.2799864,0.28100586,-1.0327148,0.017089844,1584288503938,-5830542568177,0.21279722,0,1
1584288505661,NaN,1.9934381,0.2548828,-1.020752,0.064697266,1584288504018,-5830542568177,0.2118156,0,1
1584288505665,NaN,2.5614302,0.2109375,-1.0246582,0.12133789,1584288504098,-5830542568177,0.16536468,0,1
1584288505669,NaN,2.9140818,0.15527344,-1.2658691,0.25732422,1584288504178,-5830542568177,0.282442,0,1
1584288505673,NaN,3.096097,0.049804688,-1.1340332,0.3161621,1584288504258,-5830542568177,0.282442,0,1
1584288505677,NaN,NaN,-0.04663086,-0.83618164,0.34985352,1584288504338,-5830542568177,0.31488168,0,1
1584288505680,NaN,NaN,-0.05053711,-0.7783203,0.40014648,1584288504418,-5830542568177,0.31488168,0,1
1584288505683,NaN,NaN,-0.12890625,-0.8547363,0.4765625,1584288504498,-5830542568177,0.31488168,0,1
1584288505687,NaN,NaN,-0.15161133,-0.9001465,0.5473633,1584288504578,-5830542568177,0.31488168,0,1
1584288505690,NaN,NaN,-0.17211914,-0.76464844,0.54711914,1584288504658,-5830542568177,0.31488168,0,1
1584288505694,NaN,NaN,-0.17651367,-0.7297363,0.5734863,1584288504738,-5830542568177,0.31488168,0,1
1584288505697,NaN,NaN,-0.1730957,-0.8059082,0.6022949,1584288504818,-5830542568177,0.31488168,0,1
1584288505701,NaN,NaN,-0.17651367,-0.7807617,0.5944824,1584288504898,-5830542568177,0.31488168,0,1
1584288505703,NaN,NaN,-0.17578125,-0.7524414,0.57543945,1584288504978,-5830542568177,0.31488168,0,1
1584288505706,NaN,NaN,-0.18408203,-0.7675781,0.5788574,1584288505058,-5830542568177,0.31488168,0,1
1584288505711,NaN,NaN,-0.1965332,-0.7836914,0.5888672,1584288505138,-5830542568177,0.31488168,0,1
1584288505713,NaN,NaN,-0.18310547,-0.7907715,0.57006836,1584288505218,-5830542568177,0.31488168,0,1
1584288505716,NaN,NaN,-0.16430664,-0.8041992,0.5419922,1584288505298,-5830542568177,0.31488168,0,1
1584288505719,NaN,NaN,-0.16186523,-0.8059082,0.52978516,1584288505378,-5830542568177,0.31488168,0,1
1584288505722,NaN,NaN,-0.16699219,-0.8334961,0.5097656,1584288505458,-5830542568177,0.31488168,0,1
1584288505726,NaN,NaN,-0.14819336,-0.8425293,0.50390625,1584288505538,-5830542568177,0.31488168,0,1
1584288505729,NaN,NaN,-0.115722656,-0.8586426,0.4543457,1584288505618,-5830542568177,0.31488168,0,1
1584288505732,NaN,NaN,-0.09326172,-0.8742676,0.4128418,1584288505698,-5830542568177,0.31488168,0,1
1584288508002,NaN,NaN,-0.05419922,-0.9013672,0.35742188,1584288505778,6419811368223,0.31488168,0,1
1584288508012,NaN,NaN,0.020019531,-1.0754395,0.24438477,1584288505858,6419811368223,0.31488168,0,1
1584288508016,NaN,NaN,0.28686523,-1.3200684,0.06933594,1584288505938,6419811368223,0.40210947,0,1
1584288508023,NaN,NaN,0.35302734,-1.0510254,-0.015625,1584288506018,6419811368223,0.40210947,0,1
1584288508031,NaN,NaN,0.31347656,-1.0583496,-0.10839844,1584288506098,6419811368223,0.40210947,0,1
1584288508037,NaN,NaN,0.2722168,-1.0461426,-0.052246094,1584288506178,6419811368223,0.40210947,0,1
1584288508040,NaN,NaN,0.2277832,-0.9904785,-0.021484375,1584288506258,6419811368223,0.40210947,0,1
1584288508043,NaN,NaN,0.17919922,-0.93408203,0.057861328,1584288506338,6419811368223,0.40210947,0,1
1584288508048,NaN,NaN,0.11352539,-0.84472656,0.07519531,1584288506418,6419811368223,0.40210947,0,1
1584288508053,NaN,NaN,0.083740234,-0.8000488,0.12792969,1584288506498,6419811368223,0.40210947,0,1
1584288508058,NaN,NaN,0.07397461,-0.8547363,0.1743164,1584288506578,6419811368223,0.40210947,0,1
1584288508061,NaN,NaN,0.011230469,-0.9379883,0.27490234,1584288506658,6419811368223,0.40210947,0,1
1584288508065,NaN,NaN,-0.0043945312,-0.8989258,0.27807617,1584288506738,6419811368223,0.40210947,0,1
1584288508068,NaN,NaN,-0.0029296875,-0.90234375,0.30029297,1584288506818,6419811368223,0.40210947,0,1
1584288508072,NaN,NaN,-0.05029297,-0.8845215,0.31323242,1584288506898,6419811368223,0.40210947,0,1
1584288508075,NaN,NaN,-0.045898438,-0.8977051,0.31933594,1584288506978,6419811368223,0.40210947,0,1
1584288508079,NaN,NaN,-0.05908203,-0.9465332,0.3618164,1584288507058,6419811368223,0.40210947,0,1
1584288508083,NaN,NaN,-0.047851562,-0.9445801,0.36523438,1584288507138,6419811368223,0.40210947,0,1
1584288508087,NaN,NaN,-0.035888672,-0.94433594,0.35742188,1584288507218,6419811368223,0.40210947,0,1
1584288508090,NaN,NaN,-0.028076172,-0.92749023,0.33154297,1584288507298,6419811368223,0.40210947,0,1
1584288508094,NaN,NaN,-0.03564453,-0.92456055,0.34936523,1584288507378,6419811368223,0.40210947,0,1
1584288508099,NaN,NaN,-0.04272461,-0.92626953,0.34643555,1584288507458,6419811368223,0.40210947,0,1
1584288508103,NaN,NaN,-0.057861328,-0.9194336,0.37695312,1584288507538,6419811368223,0.40210947,0,1
1584288508108,NaN,NaN,-0.06518555,-0.90771484,0.3701172,1584288507618,6419811368223,0.40210947,0,1
1584288508111,NaN,NaN,-0.061767578,-0.88793945,0.37597656,1584288507698,6419811368223,0.40210947,0,1
1584288508114,NaN,NaN,-0.064697266,-0.85302734,0.35473633,1584288507778,6419811368223,0.40210947,0,1
1584288508117,NaN,NaN,-0.037597656,-0.8305664,0.33447266,1584288507858,6419811368223,0.40210947,0,1
1584288508120,NaN,NaN,-0.0056152344,-0.82470703,0.30541992,1584288507938,6419811368223,0.40210947,0,1
1584288508124,NaN,NaN,0.064697266,-0.85546875,0.28735352,1584288508018,6419811368223,0.40210947,0,1
1584288508128,NaN,NaN,0.083496094,-0.83740234,0.23510742,1584288508098,6419811368223,0.40210947,0,1
1584288508131,NaN,NaN,0.14550781,-0.9206543,0.18286133,1584288508178,6419811368223,0.40210947,0,1
1584288508134,NaN,NaN,0.22363281,-0.9458008,0.13330078,1584288508258,6419811368223,0.40210947,0,1
1584288510588,NaN,NaN,0.24926758,-1.0063477,0.1394043,1584288508338,223421230915,0.40210947,0,1
1584288510592,NaN,NaN,0.3942871,-1.072998,0.079833984,1584288508418,223421230915,0.40210947,0,1
1584288510597,NaN,3.4467804,0.38916016,-0.98535156,0.092285156,1584288508498,223421230915,0.28979287,0,1
1584288510601,NaN,3.70222,0.3623047,-1.0405273,0.079833984,1584288508578,223421230915,0.17035715,0,1
1584288510608,NaN,3.7341735,0.31152344,-1.0175781,0.17358398,1584288508658,223421230915,0.17035715,0,1
1584288510613,NaN,3.4882696,0.22045898,-1.0664062,0.27026367,1584288508738,223421230915,0.17035715,0,1
1584288510617,NaN,3.072786,0.13916016,-1.0561523,0.33984375,1584288508818,223421230915,0.17035715,0,1
1584288510622,NaN,2.445428,0.051513672,-0.8991699,0.38232422,1584288508898,223421230915,0.184743,0,1
1584288510626,NaN,1.6149954,-0.027832031,-0.8239746,0.4169922,1584288508978,223421230915,0.184743,0,1
1584288510629,NaN,0.7023783,-0.037841797,-0.85961914,0.46362305,1584288509058,223421230915,0.184743,0,1
1584288510633,NaN,-0.1927151,-0.1262207,-0.8935547,0.51708984,1584288509138,223421230915,0.184743,0,1
1584288510637,NaN,-0.96237993,-0.14257812,-0.85498047,0.5073242,1584288509218,223421230915,0.184743,0,1
1584288510641,NaN,-1.5172853,-0.099121094,-0.80908203,0.51049805,1584288509298,223421230915,0.184743,0,1
1584288510644,NaN,-1.8718647,-0.123291016,-0.8227539,0.513916,1584288509378,223421230915,0.184743,0,1
1584288510647,NaN,-2.8029668,-0.1303711,-0.81396484,0.5480957,1584288509458,223421230915,0.184743,0,1
1584288510650,NaN,-3.7230186,-0.15454102,-0.8132324,0.55737305,1584288509538,223421230915,0.184743,0,1
1584288510653,NaN,-4.4130383,-0.14501953,-0.7819824,0.54833984,1584288509618,223421230915,0.184743,0,1
1584288510657,NaN,-4.8400116,-0.1628418,-0.81225586,0.5583496,1584288509698,223421230915,0.184743,0,1
1584288510660,NaN,-5.0788236,-0.15283203,-0.8186035,0.5449219,1584288509778,223421230915,0.184743,0,1
1584288510663,NaN,-5.0420933,-0.13867188,-0.8161621,0.53881836,1584288509858,223421230915,0.184743,0,1
1584288510666,NaN,-4.801309,-0.13842773,-0.8190918,0.53564453,1584288509938,223421230915,0.184743,0,1
1584288510669,NaN,-4.4586096,-0.13256836,-0.8288574,0.5239258,1584288510018,223421230915,0.184743,0,1
1584288510672,NaN,-4.0169816,-0.1171875,-0.81811523,0.51782227,1584288510098,223421230915,0.184743,0,1
1584288510675,NaN,-3.6074932,-0.1274414,-0.8244629,0.52783203,1584288510178,223421230915,0.184743,0,1
1584288510678,NaN,-3.2302125,-0.10961914,-0.8659668,0.50146484,1584288510258,223421230915,0.184743,0,1
1584288510681,NaN,-2.8965006,-0.07006836,-0.8647461,0.47509766,1584288510338,223421230915,0.184743,0,1
1584288510684,NaN,-2.1609237,-0.017089844,-0.87768555,0.4165039,1584288510418,223421230915,0.184743,0,1
1584288510687,NaN,-1.3005604,-0.011474609,-0.97387695,0.34936523,1584288510498,223421230915,0.184743,0,1
1584288510691,NaN,NaN,0.14770508,-1.2438965,0.19580078,1584288510578,223421230915,0.34904262,0,1
1584288510692,NaN,NaN,0.3425293,-1.1013184,0.14990234,1584288510658,223421230915,0.34904262,0,1
1584288510695,NaN,NaN,0.31860352,-1.0026855,0.01171875,1584288510738,223421230915,0.34904262,0,1
1584288510698,NaN,NaN,0.27026367,-1.0083008,0.038085938,1584288510818,223421230915,0.34904262,0,1
1584288513171,NaN,NaN,0.2763672,-1.005127,0.107910156,1584288510898,-5973250381369,0.34904262,0,1
1584288513177,NaN,NaN,0.18823242,-0.95874023,0.1418457,1584288510978,-5973250381369,0.34904262,0,1
1584288513181,NaN,NaN,0.18457031,-0.9267578,0.1809082,1584288511058,-5973250381369,0.34904262,0,1
1584288513189,NaN,NaN,0.12109375,-0.8742676,0.22729492,1584288511138,-5973250381369,0.34904262,0,1
1584288513192,NaN,NaN,0.092285156,-0.7998047,0.24194336,1584288511218,-5973250381369,0.34904262,0,1
1584288513195,NaN,NaN,0.06933594,-0.876709,0.2956543,1584288511298,-5973250381369,0.34904262,0,1
1584288513200,NaN,NaN,-0.02368164,-0.86572266,0.32470703,1584288511378,-5973250381369,0.34904262,0,1
1584288513204,NaN,NaN,0.014160156,-0.8864746,0.3330078,1584288511458,-5973250381369,0.34904262,0,1
1584288513208,NaN,NaN,0.01586914,-0.88549805,0.36376953,1584288511538,-5973250381369,0.34904262,0,1
1584288513211,NaN,NaN,0.01171875,-0.9145508,0.3696289,1584288511618,-5973250381369,0.34904262,0,1
1584288513214,NaN,NaN,0.017089844,-0.91503906,0.38623047,1584288511698,-5973250381369,0.34904262,0,1
1584288513218,NaN,NaN,-0.013427734,-0.88256836,0.39794922,1584288511778,-5973250381369,0.34904262,0,1
1584288513222,NaN,NaN,-0.013183594,-0.8984375,0.41845703,1584288511858,-5973250381369,0.34904262,0,1
1584288513225,NaN,NaN,-0.029296875,-0.89282227,0.40234375,1584288511938,-5973250381369,0.34904262,0,1
1584288513228,NaN,NaN,-0.014160156,-0.87890625,0.4140625,1584288512018,-5973250381369,0.34904262,0,1
1584288513231,NaN,NaN,-0.0126953125,-0.8859863,0.40405273,1584288512098,-5973250381369,0.34904262,0,1
1584288513234,NaN,NaN,-0.024902344,-0.89404297,0.4074707,1584288512178,-5973250381369,0.34904262,0,1
1584288513237,NaN,NaN,-0.057373047,-0.9140625,0.42236328,1584288512258,-5973250381369,0.34904262,0,1
1584288513240,NaN,NaN,-0.056152344,-0.9016113,0.41918945,1584288512338,-5973250381369,0.34904262,0,1
1584288513243,NaN,NaN,-0.045166016,-0.89208984,0.3959961,1584288512418,-5973250381369,0.34904262,0,1
1584288513246,NaN,NaN,-0.036376953,-0.8745117,0.38891602,1584288512498,-5973250381369,0.34904262,0,1
1584288513249,NaN,NaN,-0.048339844,-0.8718262,0.3540039,1584288512578,-5973250381369,0.34904262,0,1
1584288513252,NaN,NaN,-0.041259766,-0.9145508,0.36401367,1584288512658,-5973250381369,0.34904262,0,1
1584288513255,NaN,NaN,0.005859375,-0.861084,0.28759766,1584288512738,-5973250381369,0.34904262,0,1
1584288513258,NaN,NaN,0.032714844,-0.85839844,0.2783203,1584288512818,-5973250381369,0.34904262,0,1
1584288513260,NaN,NaN,0.12988281,-0.89746094,0.23046875,1584288512898,-5973250381369,0.34904262,0,1
1584288513264,NaN,NaN,0.15209961,-0.8918457,0.17163086,1584288512978,-5973250381369,0.34904262,0,1
1584288513268,NaN,NaN,0.13452148,-0.9567871,0.12402344,1584288513058,-5973250381369,0.34904262,0,1
1584288513271,NaN,-0.27815697,0.23876953,-0.9753418,0.13476562,1584288513138,-5973250381369,0.24574715,0,1
1584288513274,NaN,0.74463016,0.2944336,-0.99780273,0.08276367,1584288513218,-5973250381369,0.17145139,0,1
1584288513278,NaN,1.6730547,0.28881836,-0.98168945,0.056884766,1584288513298,-5973250381369,0.1151402,0,1
1584288513281,NaN,2.4661665,0.3425293,-0.9760742,0.08569336,1584288513378,-5973250381369,0.1151402,0,1
1584288515751,NaN,3.1631324,0.30493164,-0.9741211,0.0546875,1584288513458,6277103555031,0.1151402,0,1
1584288515763,NaN,3.7525797,0.31884766,-0.97387695,0.16259766,1584288513538,6277103555031,0.1151402,0,1
1584288515767,NaN,4.150429,0.18432617,-1.046875,0.23608398,1584288513618,6277103555031,0.16977923,0,1
1584288515771,NaN,4.4371405,0.15405273,-1.1210938,0.37548828,1584288513698,6277103555031,0.16977923,0,1
1584288515775,NaN,4.552237,0.049804688,-1.019043,0.42626953,1584288513778,6277103555031,0.16977923,0,1
1584288515782,NaN,4.546975,-0.028076172,-0.8232422,0.41064453,1584288513858,6277103555031,0.21129958,0,1
1584288515785,NaN,4.3742766,-0.03564453,-0.8112793,0.42578125,1584288513938,6277103555031,0.21129958,0,1
1584288515789,NaN,3.9894803,-0.07763672,-0.87646484,0.49804688,1584288514018,6277103555031,0.21129958,0,1
1584288515792,NaN,3.0434904,-0.119384766,-0.85009766,0.52856445,1584288514098,6277103555031,0.21129958,0,1
1584288515795,NaN,1.9147421,-0.16503906,-0.81933594,0.53930664,1584288514178,6277103555031,0.21129958,0,1
1584288515798,NaN,0.79432964,-0.16064453,-0.81347656,0.5012207,1584288514258,6277103555031,0.21129958,0,1
1584288515802,NaN,-0.3295023,-0.15332031,-0.8432617,0.49731445,1584288514338,6277103555031,0.21129958,0,1
1584288515805,NaN,-1.4368497,-0.11816406,-0.8491211,0.52001953,1584288514418,6277103555031,0.21129958,0,1
1584288515808,NaN,-2.423604,-0.13623047,-0.82836914,0.52246094,1584288514498,6277103555031,0.21129958,0,1
1584288515811,NaN,-3.1720963,-0.12475586,-0.8310547,0.49853516,1584288514578,6277103555031,0.21129958,0,1
1584288515814,NaN,-3.7740772,-0.11791992,-0.8310547,0.52978516,1584288514658,6277103555031,0.21129958,0,1
1584288515817,NaN,-4.121744,-0.11694336,-0.83251953,0.51538086,1584288514738,6277103555031,0.21129958,0,1
1584288515820,NaN,-4.2762427,-0.123046875,-0.8310547,0.5,1584288514818,6277103555031,0.21129958,0,1
1584288515824,NaN,-4.286764,-0.06738281,-0.85546875,0.48388672,1584288514898,6277103555031,0.21129958,0,1
1584288515827,NaN,-4.1272187,-0.05078125,-0.8623047,0.46679688,1584288514978,6277103555031,0.21129958,0,1
1584288515830,NaN,-3.5708282,-0.060302734,-0.8989258,0.41601562,1584288515058,6277103555031,0.21129958,0,1
1584288515832,NaN,-2.8353224,-0.030273438,-0.89868164,0.38745117,1584288515138,6277103555031,0.21129958,0,1
1584288515835,NaN,-2.0198011,0.035888672,-0.9355469,0.27856445,1584288515218,6277103555031,0.21129958,0,1
1584288515838,NaN,-1.0873677,0.111816406,-1.0256348,0.17163086,1584288515298,6277103555031,0.21129958,0,1
1584288515841,NaN,NaN,0.2763672,-1.2280273,0.022216797,1584288515378,6277103555031,0.30060652,0,1
1584288515844,NaN,NaN,0.40698242,-1.1196289,-0.044433594,1584288515458,6277103555031,0.30060652,0,1
1584288515846,NaN,NaN,0.36010742,-1.0297852,-0.14526367,1584288515538,6277103555031,0.30060652,0,1
1584288515850,NaN,NaN,0.3564453,-0.9904785,-0.07128906,1584288515618,6277103555031,0.30060652,0,1
1584288515852,NaN,NaN,0.33911133,-0.9621582,-0.018798828,1584288515698,6277103555031,0.30060652,0,1
1584288515855,NaN,NaN,0.26660156,-0.9465332,0.037841797,1584288515778,6277103555031,0.30060652,0,1
1584288515858,NaN,NaN,0.1953125,-0.9326172,0.11035156,1584288515858,6277103555031,0.30060652,0,1
1584288515861,NaN,NaN,0.17089844,-0.89208984,0.14990234,1584288515938,6277103555031,0.30060652,0,1
1584288518337,NaN,NaN,0.103027344,-0.81762695,0.18432617,1584288516018,80713417723,0.30060652,0,1
1584288518344,NaN,NaN,0.025390625,-0.89575195,0.25073242,1584288516098,80713417723,0.30060652,0,1
1584288518352,NaN,NaN,0.04638672,-0.8754883,0.24926758,1584288516178,80713417723,0.30060652,0,1
1584288518358,NaN,NaN,0.018066406,-0.8713379,0.29492188,1584288516258,80713417723,0.30060652,0,1
1584288518365,NaN,NaN,0.022949219,-0.9152832,0.33642578,1584288516338,80713417723,0.30060652,0,1
1584288518370,NaN,NaN,-0.00390625,-0.9211426,0.34545898,1584288516418,80713417723,0.30060652,0,1
1584288518374,NaN,NaN,0.010498047,-0.9091797,0.36523438,1584288516498,80713417723,0.30060652,0,1
1584288518379,NaN,NaN,0.010986328,-0.89990234,0.3623047,1584288516578,80713417723,0.30060652,0,1
1584288518382,NaN,NaN,0.0036621094,-0.90649414,0.35864258,1584288516658,80713417723,0.30060652,0,1
1584288518386,NaN,NaN,7.324219E-4,-0.9289551,0.37548828,1584288516738,80713417723,0.30060652,0,1
1584288518390,NaN,NaN,-0.01171875,-0.91967773,0.36767578,1584288516818,80713417723,0.30060652,0,1
1584288518394,NaN,NaN,-0.012451172,-0.92944336,0.36865234,1584288516898,80713417723,0.30060652,0,1
1584288518399,NaN,NaN,-0.01928711,-0.9169922,0.36035156,1584288516978,80713417723,0.30060652,0,1
1584288518405,NaN,NaN,-0.040771484,-0.9160156,0.36621094,1584288517058,80713417723,0.30060652,0,1
1584288518409,NaN,NaN,-0.028320312,-0.91674805,0.36254883,1584288517138,80713417723,0.30060652,0,1
1584288518414,NaN,NaN,-0.03515625,-0.92041016,0.36889648,1584288517218,80713417723,0.30060652,0,1
1584288518418,NaN,NaN,-0.03857422,-0.9187012,0.3671875,1584288517298,80713417723,0.30060652,0,1
1584288518421,NaN,NaN,-0.01928711,-0.8918457,0.3486328,1584288517378,80713417723,0.30060652,0,1
1584288518425,NaN,NaN,-0.0024414062,-0.8786621,0.3239746,1584288517458,80713417723,0.30060652,0,1
1584288518429,NaN,NaN,0.018310547,-0.8808594,0.30639648,1584288517538,80713417723,0.30060652,0,1
1584288518432,NaN,NaN,0.06298828,-0.8828125,0.23901367,1584288517618,80713417723,0.30060652,0,1
1584288518435,NaN,NaN,0.103271484,-0.8991699,0.20458984,1584288517698,80713417723,0.30060652,0,1
1584288518438,NaN,NaN,0.12988281,-0.84814453,0.13574219,1584288517778,80713417723,0.30060652,0,1
1584288518442,NaN,NaN,0.16772461,-0.9057617,0.068847656,1584288517858,80713417723,0.30060652,0,1
1584288518444,NaN,-0.032055657,0.28637695,-0.9760742,0.06323242,1584288517938,80713417723,0.1823536,0,1
1584288518448,NaN,1.0136234,0.26708984,-0.9536133,0.02368164,1584288518018,80713417723,0.14295408,0,1
1584288518451,NaN,2.0359843,0.37768555,-1.0688477,-0.004638672,1584288518098,80713417723,0.162211,0,1
1584288518454,NaN,2.9943666,0.35107422,-0.9958496,-0.0048828125,1584288518178,80713417723,0.162211,0,1
1584288518457,NaN,3.8120193,0.37719727,-1.0124512,0.021484375,1584288518258,80713417723,0.162211,0,1
1584288518460,NaN,4.418324,0.27246094,-0.92529297,0.052490234,1584288518338,80713417723,0.162211,0,1
1584288518464,NaN,4.7914014,0.22265625,-1.072998,0.20336914,1584288518418,80713417723,0.21693718,0,1
1584288518467,NaN,4.9613347,0.1315918,-1.213623,0.3149414,1584288518498,80713417723,0.21693718,0,1
1584288520922,NaN,4.890606,0.03955078,-1.0002441,0.43359375,1584288518578,-6115958194561,0.26092237,0,1
1584288520929,NaN,4.6834083,-0.041748047,-0.75341797,0.41601562,1584288518658,-6115958194561,0.26092237,0,1
1584288520936,NaN,4.217108,-0.06982422,-0.77563477,0.49780273,1584288518738,-6115958194561,0.26092237,0,1
1584288520941,NaN,3.4275825,-0.14379883,-0.83813477,0.5827637,1584288518818,-6115958194561,0.26092237,0,1
1584288520946,NaN,2.291247,-0.16796875,-0.7775879,0.6213379,1584288518898,-6115958194561,0.26092237,0,1
1584288520951,NaN,1.0742384,-0.1887207,-0.6916504,0.6242676,1584288518978,-6115958194561,0.26092237,0,1
1584288520956,NaN,-0.35011673,-0.17041016,-0.71240234,0.6582031,1584288519058,-6115958194561,0.26092237,0,1
1584288520960,NaN,-1.7600712,-0.19750977,-0.72094727,0.6767578,1584288519138,-6115958194561,0.26092237,0,1
1584288520965,NaN,-3.1648855,-0.20825195,-0.69873047,0.6760254,1584288519218,-6115958194561,0.26092237,0,1
1584288520968,NaN,-4.349352,-0.1940918,-0.6855469,0.66796875,1584288519298,-6115958194561,0.26092237,0,1
1584288520971,NaN,-5.3070617,-0.19458008,-0.6945801,0.6682129,1584288519378,-6115958194561,0.26092237,0,1
1584288520974,NaN,-6.079369,-0.1928711,-0.6994629,0.66748047,1584288519458,-6115958194561,0.26092237,0,1
1584288520977,NaN,-6.4938617,-0.18945312,-0.7092285,0.6748047,1584288519538,-6115958194561,0.26092237,0,1
1584288520980,NaN,-6.6845527,-0.18920898,-0.7038574,0.6677246,1584288519618,-6115958194561,0.26092237,0,1
1584288520983,NaN,-6.6562524,-0.18823242,-0.7089844,0.66381836,1584288519698,-6115958194561,0.26092237,0,1
1584288520986,NaN,-6.3584175,-0.17480469,-0.7182617,0.64208984,1584288519778,-6115958194561,0.26092237,0,1
1584288520988,NaN,-5.7850933,-0.17871094,-0.71899414,0.62646484,1584288519858,-6115958194561,0.26092237,0,1
1584288520992,NaN,-5.069314,-0.15332031,-0.75634766,0.6154785,1584288519938,-6115958194561,0.26092237,0,1
1584288520996,NaN,-4.2285366,-0.13842773,-0.748291,0.6008301,1584288520018,-6115958194561,0.26092237,0,1
1584288520998,NaN,-3.3184497,-0.12207031,-0.8112793,0.58203125,1584288520098,-6115958194561,0.26092237,0,1
1584288521002,NaN,-2.291981,-0.099609375,-0.86083984,0.46923828,1584288520178,-6115958194561,0.26092237,0,1
1584288521006,NaN,-1.326274,-0.035888672,-0.8833008,0.42407227,1584288520258,-6115958194561,0.26092237,0,1
1584288521010,NaN,-0.3435633,0.0026855469,-0.9123535,0.33325195,1584288520338,-6115958194561,0.26092237,0,1
1584288521013,NaN,0.66849154,0.049316406,-0.9135742,0.2541504,1584288520418,-6115958194561,0.26092237,0,1
1584288521016,NaN,1.6630765,0.11816406,-1.0388184,0.08862305,1584288520498,-6115958194561,0.26092237,0,1
1584288521020,NaN,NaN,0.34545898,-1.2553711,-0.19799805,1584288520578,-6115958194561,0.42509967,0,1
1584288521022,NaN,NaN,0.421875,-0.9921875,-0.27807617,1584288520658,-6115958194561,0.42509967,0,1
1584288521026,NaN,NaN,0.44091797,-0.951416,-0.29760742,1584288520738,-6115958194561,0.42509967,0,1
1584288521029,NaN,NaN,0.38330078,-0.9387207,-0.28442383,1584288520818,-6115958194561,0.42509967,0,1
1584288521032,NaN,NaN,0.3955078,-0.93896484,-0.22460938,1584288520898,-6115958194561,0.42509967,0,1
1584288521036,NaN,NaN,0.34179688,-0.9279785,-0.17089844,1584288520978,-6115958194561,0.42509967,0,1
1584288521039,NaN,NaN,0.30249023,-0.92578125,-0.1003418,1584288521058,-6115958194561,0.42509967,0,1
1584288523505,NaN,NaN,0.23217773,-0.94189453,-0.055419922,1584288521138,6134395741839,0.42509967,0,1
1584288523511,NaN,NaN,0.19067383,-0.9267578,0.017333984,1584288521218,6134395741839,0.42509967,0,1
1584288523513,NaN,NaN,0.15112305,-0.87841797,0.06640625,1584288521298,6134395741839,0.42509967,0,1
1584288523519,NaN,NaN,0.10986328,-0.8623047,0.09814453,1584288521378,6134395741839,0.42509967,0,1
1584288523523,NaN,NaN,0.10083008,-0.8847656,0.12475586,1584288521458,6134395741839,0.42509967,0,1
1584288523530,NaN,NaN,0.099365234,-0.92529297,0.16870117,1584288521538,6134395741839,0.42509967,0,1
1584288523534,NaN,NaN,0.0871582,-0.9511719,0.19824219,1584288521618,6134395741839,0.42509967,0,1
1584288523540,NaN,NaN,0.06347656,-0.9501953,0.19702148,1584288521698,6134395741839,0.42509967,0,1
1584288523544,NaN,NaN,0.068359375,-0.93969727,0.21020508,1584288521778,6134395741839,0.42509967,0,1
1584288523549,NaN,NaN,0.061279297,-0.97631836,0.21704102,1584288521858,6134395741839,0.42509967,0,1
1584288523553,NaN,NaN,0.06567383,-0.9812012,0.21533203,1584288521938,6134395741839,0.42509967,0,1
1584288523557,NaN,NaN,0.08178711,-0.9814453,0.2121582,1584288522018,6134395741839,0.42509967,0,1
1584288523562,NaN,NaN,0.07495117,-0.9711914,0.21191406,1584288522098,6134395741839,0.42509967,0,1
1584288523567,NaN,NaN,0.0715332,-0.9602051,0.21704102,1584288522178,6134395741839,0.42509967,0,1
1584288523571,NaN,NaN,0.068115234,-0.9680176,0.22216797,1584288522258,6134395741839,0.42509967,0,1
1584288523574,NaN,NaN,0.05908203,-0.9645996,0.23022461,1584288522338,6134395741839,0.42509967,0,1
1584288523577,NaN,NaN,0.05078125,-0.96435547,0.23095703,1584288522418,6134395741839,0.42509967,0,1
1584288523580,NaN,NaN,0.041015625,-0.95654297,0.23095703,1584288522498,6134395741839,0.42509967,0,1
1584288523583,NaN,NaN,0.037353516,-0.9580078,0.23388672,1584288522578,6134395741839,0.42509967,0,1
1584288523587,NaN,NaN,0.044433594,-0.9433594,0.22753906,1584288522658,6134395741839,0.42509967,0,1
1584288523591,NaN,NaN,0.045654297,-0.9255371,0.2211914,1584288522738,6134395741839,0.42509967,0,1
1584288523595,NaN,NaN,0.068847656,-0.9284668,0.20385742,1584288522818,6134395741839,0.42509967,0,1
1584288523600,NaN,NaN,0.0925293,-0.9284668,0.14477539,1584288522898,6134395741839,0.42509967,0,1
1584288523603,NaN,NaN,0.12768555,-0.85058594,0.091552734,1584288522978,6134395741839,0.42509967,0,1
1584288523606,NaN,NaN,0.16772461,-0.9248047,0.067871094,1584288523058,6134395741839,0.42509967,0,1
1584288523609,NaN,2.5730693,0.23364258,-0.94091797,0.01171875,1584288523138,6134395741839,0.28551272,0,1
1584288523612,NaN,3.4944363,0.25732422,-0.9404297,-0.044921875,1584288523218,6134395741839,0.100667976,0,1
1584288523615,NaN,4.4009786,0.31567383,-0.93359375,-0.088378906,1584288523298,6134395741839,0.100667976,0,1
1584288523618,NaN,5.2686815,0.33129883,-0.9379883,-0.11767578,1584288523378,6134395741839,0.100667976,0,1
1584288523622,NaN,6.076759,0.43432617,-0.9753418,-0.12646484,1584288523458,6134395741839,0.10994165,0,1
1584288523625,NaN,6.869722,0.42871094,-0.95947266,-0.16748047,1584288523538,6134395741839,0.10994165,0,1
1584288523628,NaN,7.5476933,0.44213867,-0.9416504,-0.15332031,1584288523618,6134395741839,0.10994165,0,1
1584288526087,NaN,7.937105,0.35107422,-0.907959,-0.104003906,1584288523698,-62275870445,0.10994165,0,1
1584288526091,NaN,8.069884,0.2836914,-1.0175781,0.0061035156,1584288523778,-62275870445,0.16935301,0,1
1584288526096,NaN,7.882769,0.22290039,-1.2023926,0.15258789,1584288523858,-62275870445,0.24353562,0,1
1584288526101,NaN,7.416268,0.122558594,-1.1333008,0.3022461,1584288523938,-62275870445,0.24353562,0,1
1584288526108,NaN,NaN,-0.036865234,-0.7993164,0.37939453,1584288524018,-62275870445,0.37803888,0,1
1584288526114,NaN,NaN,-0.034423828,-0.7919922,0.42578125,1584288524098,-62275870445,0.37803888,0,1
1584288526118,NaN,NaN,-0.07543945,-0.91503906,0.50439453,1584288524178,-62275870445,0.37803888,0,1
1584288526122,NaN,NaN,-0.12402344,-0.8378906,0.5666504,1584288524258,-62275870445,0.37803888,0,1
1584288526126,NaN,NaN,-0.15039062,-0.7463379,0.5600586,1584288524338,-62275870445,0.37803888,0,1
1584288526130,NaN,NaN,-0.14038086,-0.76293945,0.5656738,1584288524418,-62275870445,0.37803888,0,1
1584288526134,NaN,NaN,-0.15600586,-0.80908203,0.57373047,1584288524498,-62275870445,0.37803888,0,1
1584288526138,NaN,NaN,-0.1574707,-0.7453613,0.6069336,1584288524578,-62275870445,0.37803888,0,1
1584288526142,NaN,NaN,-0.17285156,-0.7590332,0.6184082,1584288524658,-62275870445,0.37803888,0,1
1584288526147,NaN,NaN,-0.16625977,-0.76220703,0.62597656,1584288524738,-62275870445,0.37803888,0,1
1584288526150,NaN,NaN,-0.14819336,-0.75,0.623291,1584288524818,-62275870445,0.37803888,0,1
1584288526153,NaN,NaN,-0.14550781,-0.75439453,0.60839844,1584288524898,-62275870445,0.37803888,0,1
1584288526156,NaN,NaN,-0.1496582,-0.75634766,0.6032715,1584288524978,-62275870445,0.37803888,0,1
1584288526159,NaN,NaN,-0.15527344,-0.7844238,0.6101074,1584288525058,-62275870445,0.37803888,0,1
1584288526162,NaN,NaN,-0.13208008,-0.7763672,0.59521484,1584288525138,-62275870445,0.37803888,0,1
1584288526166,NaN,NaN,-0.12109375,-0.78027344,0.57470703,1584288525218,-62275870445,0.37803888,0,1
1584288526169,NaN,NaN,-0.103027344,-0.81640625,0.55810547,1584288525298,-62275870445,0.37803888,0,1
1584288526171,NaN,NaN,-0.08300781,-0.81689453,0.5371094,1584288525378,-62275870445,0.37803888,0,1
1584288526175,NaN,NaN,-0.0703125,-0.84521484,0.5175781,1584288525458,-62275870445,0.37803888,0,1
1584288526178,NaN,NaN,-0.034179688,-0.8676758,0.45385742,1584288525538,-62275870445,0.37803888,0,1
1584288526181,NaN,NaN,0.010498047,-0.8955078,0.4074707,1584288525618,-62275870445,0.37803888,0,1
1584288526184,NaN,NaN,0.05029297,-0.9291992,0.31176758,1584288525698,-62275870445,0.37803888,0,1
1584288526187,NaN,NaN,0.0949707,-0.95825195,0.2006836,1584288525778,-62275870445,0.37803888,0,1
1584288526190,NaN,NaN,0.20385742,-1.1279297,0.052246094,1584288525858,-62275870445,0.37803888,0,1
1584288526194,NaN,NaN,0.4663086,-1.1411133,-0.18554688,1584288525938,-62275870445,0.37803888,0,1
1584288526197,NaN,NaN,0.46118164,-0.94970703,-0.21191406,1584288526018,-62275870445,0.37803888,0,1
1584288526201,NaN,NaN,0.44848633,-0.9836426,-0.17895508,1584288526098,-62275870445,0.37803888,0,1
1584288526205,NaN,NaN,0.41137695,-0.94873047,-0.1003418,1584288526178,-62275870445,0.37803888,0,1
1584288528671,NaN,NaN,0.3713379,-0.9436035,-0.03515625,1584288526258,-6258666007754,0.37803888,0,1
1584288528675,NaN,NaN,0.30786133,-0.95410156,0.06665039,1584288526338,-6258666007754,0.37803888,0,1
1584288528680,NaN,NaN,0.25097656,-0.93969727,0.12573242,1584288526418,-6258666007754,0.37803888,0,1
1584288528685,NaN,NaN,0.16552734,-0.9211426,0.15795898,1584288526498,-6258666007754,0.37803888,0,1
1584288528690,NaN,NaN,0.125,-0.8937988,0.22680664,1584288526578,-6258666007754,0.35440078,0,1
1584288528693,NaN,NaN,0.088378906,-0.8430176,0.24414062,1584288526658,-6258666007754,0.35440078,0,1
1584288528697,NaN,NaN,0.061767578,-0.84399414,0.27294922,1584288526738,-6258666007754,0.35440078,0,1
1584288528700,NaN,NaN,0.041259766,-0.8652344,0.296875,1584288526818,-6258666007754,0.35440078,0,1
1584288528704,NaN,NaN,0.052246094,-0.8713379,0.32470703,1584288526898,-6258666007754,0.35440078,0,1
1584288528707,NaN,NaN,0.009277344,-0.888916,0.34521484,1584288526978,-6258666007754,0.35440078,0,1
1584288528711,NaN,NaN,0.04296875,-0.9328613,0.3269043,1584288527058,-6258666007754,0.35440078,0,1
1584288528718,NaN,NaN,0.02368164,-0.93310547,0.35742188,1584288527138,-6258666007754,0.35440078,0,1
1584288528720,NaN,NaN,0.03515625,-0.92041016,0.33764648,1584288527218,-6258666007754,0.35440078,0,1
1584288528723,NaN,NaN,0.041748047,-0.93188477,0.35229492,1584288527298,-6258666007754,0.35440078,0,1
1584288528728,NaN,NaN,0.039794922,-0.9309082,0.3154297,1584288527378,-6258666007754,0.35440078,0,1
1584288528729,NaN,NaN,0.041503906,-0.95092773,0.33984375,1584288527458,-6258666007754,0.35440078,0,1
1584288528733,NaN,NaN,0.04663086,-0.95092773,0.31958008,1584288527538,-6258666007754,0.35440078,0,1
1584288528736,NaN,NaN,0.029785156,-0.9460449,0.3347168,1584288527618,-6258666007754,0.35440078,0,1
1584288528739,NaN,NaN,0.033203125,-0.94506836,0.3190918,1584288527698,-6258666007754,0.35440078,0,1
1584288528742,NaN,NaN,0.033203125,-0.9345703,0.32104492,1584288527778,-6258666007754,0.35440078,0,1
1584288528745,NaN,NaN,0.033447266,-0.9289551,0.32226562,1584288527858,-6258666007754,0.35440078,0,1
1584288528748,NaN,NaN,0.03515625,-0.9260254,0.32910156,1584288527938,-6258666007754,0.35440078,0,1
1584288528751,NaN,NaN,0.03930664,-0.91552734,0.31982422,1584288528018,-6258666007754,0.35440078,0,1
1584288528754,NaN,NaN,0.052734375,-0.9099121,0.30297852,1584288528098,-6258666007754,0.35440078,0,1
1584288528758,NaN,NaN,0.087890625,-0.8811035,0.28149414,1584288528178,-6258666007754,0.35440078,0,1
1584288528761,NaN,NaN,0.103027344,-0.91674805,0.23779297,1584288528258,-6258666007754,0.35440078,0,1
1584288528765,NaN,NaN,0.1484375,-0.89086914,0.21459961,1584288528338,-6258666007754,0.35440078,0,1
1584288528769,NaN,NaN,0.1772461,-0.8989258,0.15283203,1584288528418,-6258666007754,0.35440078,0,1
1584288528772,NaN,6.8550105,0.20800781,-0.8955078,0.092041016,1584288528498,-6258666007754,0.19328183,0,1
1584288528775,NaN,6.1471477,0.27319336,-0.9260254,0.059570312,1584288528578,-6258666007754,0.12043287,0,1
1584288528778,NaN,5.3866296,0.28759766,-0.95751953,-0.020263672,1584288528658,-6258666007754,0.12043287,0,1
1584288528781,NaN,4.563037,0.34448242,-0.91430664,-0.033447266,1584288528738,-6258666007754,0.12043287,0,1
1584288531055,NaN,3.732175,0.3720703,-0.93969727,-0.08862305,1584288528818,5991687928646,0.12043287,0,1
1584288531060,NaN,2.8603432,0.3984375,-0.9724121,-0.13696289,1584288528898,5991687928646,0.09319011,0,1
1584288531064,NaN,1.9596075,0.3828125,-0.97558594,-0.12890625,1584288528978,5991687928646,0.09319011,0,1
1584288531069,NaN,1.0942972,0.3918457,-1.005127,-0.107910156,1584288529058,5991687928646,0.08702201,0,1
1584288531074,NaN,0.3881997,0.31396484,-0.9958496,-0.016601562,1584288529138,5991687928646,0.12036925,0,1
1584288531077,NaN,-0.12194717,0.2668457,-1.1584473,0.09765625,1584288529218,5991687928646,0.20423774,0,1
1584288531083,NaN,-0.39120233,0.12866211,-1.1010742,0.24194336,1584288529298,5991687928646,0.20785847,0,1
1584288531087,NaN,-0.40637097,0.008544922,-0.8874512,0.3383789,1584288529378,5991687928646,0.2633681,0,1
1584288531091,NaN,-0.7444648,-0.01586914,-0.8498535,0.36254883,1584288529458,5991687928646,0.2633681,0,1
1584288531095,NaN,-1.127885,-0.03540039,-0.9055176,0.4326172,1584288529538,5991687928646,0.2633681,0,1
1584288531099,NaN,-1.6547257,-0.08154297,-0.89746094,0.5058594,1584288529618,5991687928646,0.2633681,0,1
1584288531103,NaN,-2.2507277,-0.12036133,-0.7993164,0.5358887,1584288529698,5991687928646,0.2633681,0,1
1584288531106,NaN,-2.9396343,-0.12646484,-0.7963867,0.5463867,1584288529778,5991687928646,0.2633681,0,1
1584288531110,NaN,-3.6981497,-0.13623047,-0.81396484,0.5710449,1584288529858,5991687928646,0.2633681,0,1
1584288531113,NaN,-4.41748,-0.13916016,-0.7727051,0.5773926,1584288529938,5991687928646,0.2633681,0,1
1584288531115,NaN,-5.1195197,-0.13647461,-0.7885742,0.5871582,1584288530018,5991687928646,0.2633681,0,1
1584288531119,NaN,-5.705834,-0.140625,-0.77319336,0.60253906,1584288530098,5991687928646,0.2633681,0,1
1584288531122,NaN,-6.265173,-0.15356445,-0.7739258,0.61083984,1584288530178,5991687928646,0.2633681,0,1
1584288531125,NaN,-6.6302667,-0.119384766,-0.7578125,0.58740234,1584288530258,5991687928646,0.2633681,0,1
1584288531128,NaN,-6.8373427,-0.13623047,-0.77441406,0.58496094,1584288530338,5991687928646,0.2633681,0,1
1584288531131,NaN,-6.7530074,-0.107177734,-0.76953125,0.58154297,1584288530418,5991687928646,0.2633681,0,1
1584288531134,NaN,-6.5217233,-0.10058594,-0.76831055,0.5698242,1584288530498,5991687928646,0.2633681,0,1
1584288531138,NaN,-6.058701,-0.12597656,-0.82543945,0.5344238,1584288530578,5991687928646,0.2633681,0,1
1584288531141,NaN,-5.3913846,-0.07373047,-0.8469238,0.52612305,1584288530658,5991687928646,0.2633681,0,1
1584288531144,NaN,-4.554073,-0.020507812,-0.87402344,0.43310547,1584288530738,5991687928646,0.2633681,0,1
1584288531146,NaN,-3.5293474,0.047607422,-0.9094238,0.33740234,1584288530818,5991687928646,0.2633681,0,1
1584288531149,NaN,-2.3428183,0.087402344,-0.9584961,0.16577148,1584288530898,5991687928646,0.2633681,0,1
1584288531152,NaN,NaN,0.2783203,-1.1818848,-0.04296875,1584288530978,5991687928646,0.36045063,0,1
1584288531154,NaN,NaN,0.50634766,-1.1430664,-0.13671875,1584288531058,5991687928646,0.36045063,0,1
1584288531157,NaN,NaN,0.3828125,-0.9345703,-0.25268555,1584288531138,5991687928646,0.36045063,0,1
1584288531160,NaN,NaN,0.38623047,-0.98217773,-0.22631836,1584288531218,5991687928646,0.36045063,0,1
1584288531162,NaN,NaN,0.38598633,-0.91918945,-0.22290039,1584288531298,5991687928646,0.36045063,0,1
1584288533641,NaN,NaN,0.3317871,-0.93066406,-0.20043945,1584288531378,-204983683638,0.36045063,0,1
1584288533648,NaN,NaN,0.31811523,-0.9172363,-0.14013672,1584288531458,-204983683638,0.36045063,0,1
1584288533652,NaN,NaN,0.2919922,-0.90893555,-0.079589844,1584288531538,-204983683638,0.36045063,0,1
1584288533660,NaN,NaN,0.24169922,-0.89819336,-0.013916016,1584288531618,-204983683638,0.36045063,0,1
1584288533666,NaN,NaN,0.20703125,-0.9104004,0.032714844,1584288531698,-204983683638,0.36045063,0,1
1584288533671,NaN,NaN,0.1730957,-0.9086914,0.09838867,1584288531778,-204983683638,0.36045063,0,1
1584288533676,NaN,NaN,0.13452148,-0.8942871,0.11791992,1584288531858,-204983683638,0.36045063,0,1
1584288533680,NaN,NaN,0.14868164,-0.91064453,0.15478516,1584288531938,-204983683638,0.36045063,0,1
1584288533683,NaN,NaN,0.13305664,-0.93530273,0.20092773,1584288532018,-204983683638,0.36045063,0,1
1584288533689,NaN,NaN,0.12768555,-0.9489746,0.21484375,1584288532098,-204983683638,0.36045063,0,1
1584288533693,NaN,NaN,0.1184082,-0.95458984,0.24072266,1584288532178,-204983683638,0.36045063,0,1
1584288533698,NaN,NaN,0.09838867,-0.9291992,0.22875977,1584288532258,-204983683638,0.36045063,0,1
1584288533702,NaN,NaN,0.11206055,-0.9489746,0.23925781,1584288532338,-204983683638,0.36045063,0,1
1584288533705,NaN,NaN,0.11425781,-0.9484863,0.24047852,1584288532418,-204983683638,0.36045063,0,1
1584288533710,NaN,NaN,0.099365234,-0.9641113,0.23657227,1584288532498,-204983683638,0.36045063,0,1
1584288533715,NaN,NaN,0.10595703,-0.9465332,0.24047852,1584288532578,-204983683638,0.36045063,0,1
1584288533719,NaN,NaN,0.10498047,-0.96435547,0.23901367,1584288532658,-204983683638,0.36045063,0,1
1584288533723,NaN,NaN,0.11767578,-0.9663086,0.23168945,1584288532738,-204983683638,0.36045063,0,1
1584288533726,NaN,NaN,0.118652344,-0.9465332,0.23461914,1584288532818,-204983683638,0.36045063,0,1
1584288533729,NaN,NaN,0.111083984,-0.9404297,0.23071289,1584288532898,-204983683638,0.36045063,0,1
1584288533732,NaN,NaN,0.09301758,-0.9387207,0.22290039,1584288532978,-204983683638,0.36045063,0,1
1584288533735,NaN,NaN,0.12915039,-0.9147949,0.20239258,1584288533058,-204983683638,0.36045063,0,1
1584288533738,NaN,NaN,0.15795898,-0.9152832,0.20507812,1584288533138,-204983683638,0.36045063,0,1
1584288533741,NaN,NaN,0.1508789,-0.9440918,0.2084961,1584288533218,-204983683638,0.36045063,0,1
1584288533745,NaN,NaN,0.18920898,-0.9172363,0.17260742,1584288533298,-204983683638,0.36045063,0,1
1584288533749,NaN,NaN,0.18774414,-0.9291992,0.1706543,1584288533378,-204983683638,0.36045063,0,1
1584288533752,NaN,NaN,0.20800781,-0.9055176,0.17602539,1584288533458,-204983683638,0.36045063,0,1
1584288533755,NaN,-1.0484618,0.25756836,-0.93408203,0.11743164,1584288533538,-204983683638,0.26866308,0,1
1584288533758,NaN,0.16538775,0.25976562,-0.8642578,0.111328125,1584288533618,-204983683638,0.26866308,0,1
1584288533760,NaN,1.4561687,0.32592773,-0.9440918,0.08105469,1584288533698,-204983683638,0.108015604,0,1
1584288533763,NaN,2.5539422,0.33642578,-0.939209,0.05419922,1584288533778,-204983683638,0.108015604,0,1
1584288533766,NaN,3.458484,0.33666992,-0.94921875,0.05419922,1584288533858,-204983683638,0.108015604,0,1
1584288536223,NaN,4.225747,0.30273438,-1.0302734,0.12402344,1584288533938,-6401373820946,0.11223593,0,1
1584288536230,NaN,4.8052673,0.18188477,-1.0456543,0.2211914,1584288534018,-6401373820946,0.15582943,0,1
1584288536234,NaN,5.212404,0.19262695,-1.2453613,0.31323242,1584288534098,-6401373820946,0.22015867,0,1
1584288536239,NaN,5.341952,0.016845703,-1.0458984,0.33691406,1584288534178,-6401373820946,0.26691818,0,1
1584288536243,NaN,5.285416,-0.047607422,-0.7624512,0.27392578,1584288534258,-6401373820946,0.2974291,0,1
1584288536249,NaN,4.9314346,-0.07006836,-0.9133301,0.39575195,1584288534338,-6401373820946,0.2974291,0,1
1584288536253,NaN,4.2524133,-0.11450195,-0.9567871,0.40698242,1584288534418,-6401373820946,0.2974291,0,1
1584288536256,NaN,3.329498,-0.11303711,-0.9135742,0.43139648,1584288534498,-6401373820946,0.2974291,0,1
1584288536261,NaN,2.402653,-0.09667969,-0.84887695,0.4272461,1584288534578,-6401373820946,0.2974291,0,1
1584288536265,NaN,1.3490556,-0.04736328,-0.9025879,0.41503906,1584288534658,-6401373820946,0.2974291,0,1
1584288536269,NaN,0.27401564,-0.03491211,-0.8989258,0.43017578,1584288534738,-6401373820946,0.2974291,0,1
1584288536273,NaN,-0.79850584,-0.037841797,-0.91308594,0.42285156,1584288534818,-6401373820946,0.2974291,0,1
1584288536277,NaN,-1.7570628,-0.043701172,-0.8696289,0.41625977,1584288534898,-6401373820946,0.2974291,0,1
1584288536281,NaN,-2.4055805,0.0017089844,-0.8881836,0.39233398,1584288534978,-6401373820946,0.2974291,0,1
1584288536285,NaN,-2.9913924,9.765625E-4,-0.9111328,0.4086914,1584288535058,-6401373820946,0.2974291,0,1
1584288536289,NaN,-3.2914114,-0.015136719,-0.9013672,0.43774414,1584288535138,-6401373820946,0.2974291,0,1
1584288536292,NaN,-3.420624,-0.0087890625,-0.8774414,0.4309082,1584288535218,-6401373820946,0.2974291,0,1
1584288536294,NaN,-3.3194163,-0.020507812,-0.88916016,0.41674805,1584288535298,-6401373820946,0.2974291,0,1
1584288536297,NaN,-3.0406408,-0.045898438,-0.90771484,0.4086914,1584288535378,-6401373820946,0.2974291,0,1
1584288536300,NaN,-2.553335,0.009765625,-0.9025879,0.37109375,1584288535458,-6401373820946,0.2974291,0,1
1584288536304,NaN,-1.9901385,0.06298828,-0.907959,0.296875,1584288535538,-6401373820946,0.2974291,0,1
1584288536308,NaN,-1.3558396,0.12182617,-0.97802734,0.22045898,1584288535618,-6401373820946,0.2974291,0,1
1584288536312,NaN,-0.6231102,0.17700195,-1.0256348,0.17138672,1584288535698,-6401373820946,0.2974291,0,1
1584288536315,NaN,0.08165401,0.14770508,-0.9741211,0.14916992,1584288535778,-6401373820946,0.2974291,0,1
1584288536319,NaN,0.7560811,0.15039062,-0.9724121,0.15771484,1584288535858,-6401373820946,0.2974291,0,1
1584288536322,NaN,1.2303476,0.1538086,-0.9770508,0.16699219,1584288535938,-6401373820946,0.2974291,0,1
1584288536327,NaN,1.7068162,0.14819336,-0.97387695,0.19067383,1584288536018,-6401373820946,0.2974291,0,1
1584288536328,NaN,2.0684435,0.15039062,-0.96533203,0.21386719,1584288536098,-6401373820946,0.2974291,0,1
1584288536331,NaN,2.341027,0.15844727,-0.9626465,0.22290039,1584288536178,-6401373820946,0.2974291,0,1
1584288536334,NaN,2.5562212,0.15307617,-0.9445801,0.22509766,1584288536258,-6401373820946,0.2974291,0,1
1584288536337,NaN,2.7517064,0.14160156,-0.9501953,0.23291016,1584288536338,-6401373820946,0.2974291,0,1
1584288536339,NaN,2.8264258,0.14990234,-0.9633789,0.22680664,1584288536418,-6401373820946,0.2974291,0,1
1584288538807,NaN,2.7420166,0.14428711,-0.96069336,0.22143555,1584288536498,5848980115454,0.2974291,0,1
1584288538812,NaN,2.5342195,0.15942383,-0.9584961,0.21655273,1584288536578,5848980115454,0.2974291,0,1
1584288538817,NaN,2.193106,0.15893555,-0.9655762,0.20996094,1584288536658,5848980115454,0.2974291,0,1
1584288538830,NaN,1.8819642,0.1694336,-0.9580078,0.20458984,1584288536738,5848980115454,0.2974291,0,1
1584288538834,NaN,1.5697633,0.1730957,-0.9626465,0.20947266,1584288536818,5848980115454,0.19521925,0,1
1584288538842,NaN,1.3105386,0.17626953,-0.95581055,0.20751953,1584288536898,5848980115454,0.119209394,0,1
1584288538847,NaN,1.0765878,0.15917969,-0.9592285,0.20507812,1584288536978,5848980115454,0.119209394,0,1
1584288538851,NaN,0.84902257,0.16503906,-0.95996094,0.20361328,1584288537058,5848980115454,0.119209394,0,1
1584288538856,NaN,0.62960166,0.16186523,-0.9655762,0.20532227,1584288537138,5848980115454,0.119209394,0,1
1584288538863,NaN,0.4299831,0.17041016,-0.95288086,0.20751953,1584288537218,5848980115454,0.119209394,0,1
1584288538867,NaN,0.2484678,0.1652832,-0.96313477,0.20263672,1584288537298,5848980115454,0.119209394,0,1
1584288538870,NaN,0.10232553,0.1665039,-0.96240234,0.20263672,1584288537378,5848980115454,0.119209394,0,1
1584288538873,NaN,0.036329273,0.16601562,-0.9626465,0.19604492,1584288537458,5848980115454,0.119209394,0,1
1584288538877,NaN,0.027694307,0.16259766,-0.97021484,0.20410156,1584288537538,5848980115454,0.119209394,0,1
1584288538882,NaN,0.061107103,0.16015625,-0.99487305,0.22143555,1584288537618,5848980115454,0.119209394,0,1
1584288538884,NaN,0.0643309,0.16088867,-0.95092773,0.23486328,1584288537698,5848980115454,0.119209394,0,1
1584288538887,NaN,0.038104486,0.13305664,-0.935791,0.2541504,1584288537778,5848980115454,0.119209394,0,1
1584288538890,NaN,-0.002650857,0.13745117,-0.9511719,0.2668457,1584288537858,5848980115454,0.119209394,0,1
1584288538892,NaN,-0.06266108,0.115234375,-0.9379883,0.26831055,1584288537938,5848980115454,0.119209394,0,1
1584288538895,NaN,-0.15480402,0.10839844,-0.92944336,0.27539062,1584288538018,5848980115454,0.119209394,0,1
1584288538898,NaN,-0.233905,0.12084961,-0.9250488,0.26660156,1584288538098,5848980115454,0.119209394,0,1
1584288538901,NaN,-0.30807495,0.13256836,-0.9543457,0.25927734,1584288538178,5848980115454,0.08785739,0,1
1584288538903,NaN,-0.38927922,0.11035156,-0.9929199,0.2397461,1584288538258,5848980115454,0.063289426,0,1
1584288538906,NaN,-0.44493365,0.13183594,-0.94750977,0.22216797,1584288538338,5848980115454,0.053222656,0,1
1584288538909,NaN,-0.4875203,0.14453125,-0.9838867,0.20605469,1584288538418,5848980115454,0.053222656,0,1
1584288538914,NaN,-0.51365155,0.14135742,-0.95703125,0.2097168,1584288538498,5848980115454,0.053222656,0,1
1584288538916,NaN,-0.50817055,0.14941406,-0.96435547,0.20898438,1584288538578,5848980115454,0.053222656,0,1
1584288538920,NaN,-0.46520138,0.15673828,-0.96240234,0.20776367,1584288538658,5848980115454,0.053222656,0,1
1584288538924,NaN,-0.36773697,0.15429688,-0.96118164,0.20532227,1584288538738,5848980115454,0.053222656,0,1
1584288538927,NaN,-0.26587248,0.1430664,-0.96435547,0.21044922,1584288538818,5848980115454,0.053222656,0,1
1584288538930,NaN,-0.14146647,0.14257812,-0.9682617,0.20581055,1584288538898,5848980115454,0.053222656,0,1
1584288538932,NaN,-0.002456233,0.14477539,-0.95825195,0.21606445,1584288538978,5848980115454,0.053222656,0,1
1584288541393,NaN,0.12029848,0.14379883,-0.9802246,0.20532227,1584288539058,-419749090868,0.053222656,0,1
1584288541415,NaN,0.20850737,0.13378906,-0.96533203,0.21044922,1584288539138,-419749090868,0.053222656,0,1
1584288541419,NaN,0.27882206,0.14331055,-0.9584961,0.22607422,1584288539218,-419749090868,0.053222656,0,1
1584288541423,NaN,0.30880398,0.14526367,-0.9550781,0.23413086,1584288539298,-419749090868,0.053222656,0,1
1584288541428,NaN,0.26540378,0.14575195,-0.96606445,0.28955078,1584288539378,-419749090868,0.05650049,0,1
1584288541433,NaN,0.21173261,0.14379883,-0.9169922,0.30688477,1584288539458,-419749090868,0.05650049,0,1
1584288541439,NaN,0.14561902,0.18432617,-0.93066406,0.3244629,1584288539538,-419749090868,0.05650049,0,1
1584288541443,NaN,0.051219776,0.18701172,-0.9050293,0.3317871,1584288539618,-419749090868,0.05650049,0,1
1584288541448,NaN,-0.0868052,0.16577148,-0.91015625,0.33911133,1584288539698,-419749090868,0.05650049,0,1
1584288541452,NaN,-0.22410147,0.15405273,-0.9296875,0.3503418,1584288539778,-419749090868,0.05650049,0,1
1584288541456,NaN,-0.37775365,0.123291016,-0.90405273,0.31982422,1584288539858,-419749090868,0.05650049,0,1
1584288541460,NaN,-0.5108533,0.13598633,-0.92700195,0.31030273,1584288539938,-419749090868,0.05650049,0,1
1584288541464,NaN,-0.62668484,0.1418457,-0.9338379,0.2800293,1584288540018,-419749090868,0.05650049,0,1
1584288541469,NaN,-0.72506016,0.12841797,-0.9592285,0.29858398,1584288540098,-419749090868,0.05650049,0,1
1584288541474,NaN,-0.7985826,0.12792969,-0.94799805,0.2890625,1584288540178,-419749090868,0.05650049,0,1
1584288541477,NaN,-0.8323094,0.14550781,-0.9367676,0.28198242,1584288540258,-419749090868,0.05650049,0,1
1584288541480,NaN,-0.7668068,0.1381836,-0.94970703,0.2697754,1584288540338,-419749090868,0.05650049,0,1
1584288541485,NaN,-0.6781209,0.14282227,-0.9482422,0.28393555,1584288540418,-419749090868,0.05650049,0,1
1584288541489,NaN,-0.60310215,0.14013672,-0.9362793,0.28149414,1584288540498,-419749090868,0.05650049,0,1
1584288541493,NaN,-0.49561164,0.1538086,-0.9550781,0.27392578,1584288540578,-419749090868,0.05650049,0,1
1584288541497,NaN,-0.35607874,0.14379883,-0.93774414,0.25952148,1584288540658,-419749090868,0.05650049,0,1
1584288541502,NaN,-0.21962778,0.13354492,-0.9489746,0.27905273,1584288540738,-419749090868,0.05650049,0,1
1584288541507,NaN,-0.085394494,0.12817383,-0.9584961,0.27661133,1584288540818,-419749090868,0.05650049,0,1
1584288541512,NaN,0.0014255954,0.11743164,-0.9433594,0.28027344,1584288540898,-419749090868,0.05650049,0,1
1584288541515,NaN,0.048100278,0.12451172,-0.96484375,0.2915039,1584288540978,-419749090868,0.05650049,0,1
1584288541519,NaN,0.116245754,0.14648438,-0.94750977,0.30151367,1584288541058,-419749090868,0.05650049,0,1
1584288541522,NaN,0.14544274,0.12939453,-0.9326172,0.31958008,1584288541138,-419749090868,0.05650049,0,1
1584288541525,NaN,0.15058483,0.14526367,-0.9147949,0.32104492,1584288541218,-419749090868,0.05650049,0,1
1584288541529,NaN,0.09999593,0.1430664,-0.91308594,0.32836914,1584288541298,-419749090868,0.05650049,0,1
1584288541532,NaN,0.038442537,0.13061523,-0.9133301,0.3293457,1584288541378,-419749090868,0.05650049,0,1
1584288541536,NaN,0.014621675,0.13867188,-0.9177246,0.2980957,1584288541458,-419749090868,0.05650049,0,1
1584288541539,NaN,-0.04959227,0.13647461,-0.9550781,0.31103516,1584288541538,-419749090868,0.05650049,0,1
1584288544171,NaN,-0.11991838,0.14355469,-0.9501953,0.29541016,1584288541618,-6616139228176,0.05650049,0,1
1584288544176,NaN,-0.16882844,0.14477539,-0.94311523,0.29589844,1584288541698,-6616139228176,0.05650049,0,1
1584288544181,NaN,-0.20539002,0.15185547,-0.94311523,0.28515625,1584288541778,-6616139228176,0.05650049,0,1
1584288544190,NaN,-0.20371139,0.15258789,-0.94384766,0.28076172,1584288541858,-6616139228176,0.05650049,0,1
1584288544194,NaN,-0.16580382,0.15673828,-0.94628906,0.2705078,1584288541938,-6616139228176,0.052080408,0,1
1584288544197,NaN,-0.13784862,0.17089844,-0.9567871,0.2722168,1584288542018,-6616139228176,0.050346274,0,1
1584288544200,NaN,-0.049668934,0.16259766,-0.9538574,0.25024414,1584288542098,-6616139228176,0.050346274,0,1
1584288544204,NaN,0.033129167,0.16381836,-0.9370117,0.26098633,1584288542178,-6616139228176,0.050346274,0,1
1584288544207,NaN,0.130735,0.14672852,-0.9472656,0.25878906,1584288542258,-6616139228176,0.050346274,0,1
1584288544212,NaN,0.23271553,0.14550781,-0.95288086,0.25976562,1584288542338,-6616139228176,0.050346274,0,1
1584288544216,NaN,0.27491876,0.15966797,-0.93896484,0.27612305,1584288542418,-6616139228176,0.039592203,0,1
1584288544219,NaN,0.34133017,0.17626953,-0.94921875,0.2878418,1584288542498,-6616139228176,0.039592203,0,1
1584288544222,NaN,0.37679228,0.17602539,-0.9484863,0.29736328,1584288542578,-6616139228176,0.039592203,0,1
1584288544226,NaN,0.38454238,0.15820312,-0.9147949,0.29833984,1584288542658,-6616139228176,0.039592203,0,1
1584288544230,NaN,0.34934238,0.114990234,-0.9460449,0.30908203,1584288542738,-6616139228176,0.05439955,0,1
1584288544233,NaN,0.29430243,0.12866211,-0.9230957,0.3178711,1584288542818,-6616139228176,0.05439955,0,1
1584288544237,NaN,0.21770334,0.13208008,-0.9248047,0.3227539,1584288542898,-6616139228176,0.05439955,0,1
1584288544240,NaN,0.14179127,0.15454102,-0.9406738,0.32055664,1584288542978,-6616139228176,0.05439955,0,1
1584288544244,NaN,0.01226603,0.10620117,-0.91186523,0.29711914,1584288543058,-6616139228176,0.060958937,0,1
1584288544248,NaN,-0.078567766,0.11694336,-0.9819336,0.29541016,1584288543138,-6616139228176,0.070907615,0,1
1584288544251,NaN,-0.17679769,0.06713867,-0.9362793,0.2685547,1584288543218,-6616139228176,0.07270514,0,1
1584288544254,NaN,-0.2999245,0.07788086,-0.9638672,0.3095703,1584288543298,-6616139228176,0.07270514,0,1
1584288544258,NaN,-0.38757524,0.076660156,-0.9428711,0.31030273,1584288543378,-6616139228176,0.07270514,0,1
1584288544261,NaN,-0.5155927,0.053955078,-0.9523926,0.34643555,1584288543458,-6616139228176,0.07270514,0,1
1584288544265,NaN,-0.615192,0.076660156,-0.90722656,0.3479004,1584288543538,-6616139228176,0.07270514,0,1
1584288544268,NaN,-0.7049455,0.09106445,-0.9277344,0.38793945,1584288543618,-6616139228176,0.07270514,0,1
1584288544272,NaN,-0.76191235,0.08544922,-0.90283203,0.40966797,1584288543698,-6616139228176,0.07270514,0,1
1584288544275,NaN,-0.8167627,0.099609375,-0.87402344,0.42333984,1584288543778,-6616139228176,0.07270514,0,1
1584288544279,NaN,-0.85373807,0.11645508,-0.88134766,0.42822266,1584288543858,-6616139228176,0.07270514,0,1
1584288544283,NaN,-0.93245625,0.10498047,-0.87158203,0.44604492,1584288543938,-6616139228176,0.07270514,0,1
1584288544286,NaN,-0.9890385,0.091308594,-0.86816406,0.44995117,1584288544018,-6616139228176,0.07270514,0,1
1584288544289,NaN,-1.090823,0.12646484,-0.87597656,0.46899414,1584288544098,-6616139228176,0.07270514,0,1
1584288546559,NaN,-1.175247,0.11035156,-0.8601074,0.45410156,1584288544178,5634214708224,0.07270514,0,1
1584288546566,NaN,-1.2306949,0.106933594,-0.87719727,0.46655273,1584288544258,5634214708224,0.07270514,0,1
1584288546575,NaN,-1.2820485,0.103271484,-0.8679199,0.4584961,1584288544338,5634214708224,0.07270514,0,1
1584288546583,NaN,-1.2644187,0.1003418,-0.8798828,0.45629883,1584288544418,5634214708224,0.07270514,0,1
1584288546589,NaN,-1.2458415,0.10986328,-0.8820801,0.4567871,1584288544498,5634214708224,0.07270514,0,1
1584288546593,NaN,-1.218033,0.10498047,-0.87158203,0.46142578,1584288544578,5634214708224,0.07270514,0,1
1584288546597,NaN,-1.1668986,0.103271484,-0.8803711,0.4658203,1584288544658,5634214708224,0.07270514,0,1
1584288546603,NaN,-1.0818838,0.12036133,-0.8737793,0.44750977,1584288544738,5634214708224,0.07270514,0,1
1584288546608,NaN,-1.0210972,0.12207031,-0.86743164,0.46313477,1584288544818,5634214708224,0.07270514,0,1
1584288546611,NaN,-0.9136629,0.10961914,-0.86621094,0.46679688,1584288544898,5634214708224,0.07270514,0,1
1584288546616,NaN,-0.809321,0.10083008,-0.8605957,0.4736328,1584288544978,5634214708224,0.07270514,0,1
1584288546621,NaN,-0.66028404,0.107666016,-0.86987305,0.44458008,1584288545058,5634214708224,0.07270514,0,1
1584288546625,NaN,-0.5216984,0.099365234,-0.87402344,0.4416504,1584288545138,5634214708224,0.07270514,0,1
1584288546629,NaN,-0.38955197,0.09814453,-0.8757324,0.44311523,1584288545218,5634214708224,0.07270514,0,1
1584288546632,NaN,-0.25676012,0.0949707,-0.8874512,0.4350586,1584288545298,5634214708224,0.07270514,0,1
1584288546636,NaN,-0.16006772,0.08886719,-0.89868164,0.4338379,1584288545378,5634214708224,0.07270514,0,1
1584288546639,NaN,-0.07030453,0.09057617,-0.8942871,0.42504883,1584288545458,5634214708224,0.07270514,0,1
1584288546642,NaN,0.028490826,0.08886719,-0.9020996,0.41723633,1584288545538,5634214708224,0.07270514,0,1
1584288546645,NaN,0.11267965,0.092041016,-0.8991699,0.40625,1584288545618,5634214708224,0.07270514,0,1
1584288546649,NaN,0.15842089,0.09448242,-0.90722656,0.40234375,1584288545698,5634214708224,0.07270514,0,1
1584288546651,NaN,0.24603252,0.107910156,-0.91137695,0.39404297,1584288545778,5634214708224,0.050584264,0,1
1584288546654,NaN,0.32863414,0.106933594,-0.9067383,0.39111328,1584288545858,5634214708224,0.05057307,0,1
1584288546657,NaN,0.42176127,0.107177734,-0.9074707,0.39160156,1584288545938,5634214708224,0.05057307,0,1
1584288546660,NaN,0.46411958,0.107421875,-0.90966797,0.39208984,1584288546018,5634214708224,0.05057307,0,1
1584288546663,NaN,0.5041185,0.10546875,-0.90893555,0.39086914,1584288546098,5634214708224,0.047235373,0,1
1584288546666,NaN,0.5394543,0.09863281,-0.90722656,0.39111328,1584288546178,5634214708224,0.04073858,0,1
1584288546670,NaN,0.55922157,0.1003418,-0.9104004,0.39160156,1584288546258,5634214708224,0.04073858,0,1
1584288546673,NaN,0.57962704,0.10229492,-0.90722656,0.38793945,1584288546338,5634214708224,0.04073858,0,1
1584288546676,NaN,0.5933586,0.103027344,-0.9108887,0.3881836,1584288546418,5634214708224,0.04073858,0,1
1584288546679,NaN,0.5738868,0.104003906,-0.9116211,0.40063477,1584288546498,5634214708224,0.04073858,0,1
1584288546682,NaN,0.53572786,0.099365234,-0.9121094,0.40283203,1584288546578,5634214708224,0.04073858,0,1
1584288546686,NaN,0.50105596,0.11376953,-0.89868164,0.39916992,1584288546658,5634214708224,0.03125477,0,1
1584288549337,NaN,0.42636833,0.09863281,-0.9008789,0.40600586,1584288546738,-562456904060,0.03125477,0,1
1584288549343,NaN,0.33771667,0.11035156,-0.90527344,0.41796875,1584288546818,-562456904060,0.03125477,0,1
1584288549351,NaN,0.2474962,0.106933594,-0.88916016,0.4008789,1584288546898,-562456904060,0.03125477,0,1
1584288549353,NaN,0.17798775,0.119628906,-0.89501953,0.4111328,1584288546978,-562456904060,0.03125477,0,1
1584288549359,NaN,0.12290283,0.1315918,-0.88916016,0.39282227,1584288547058,-562456904060,0.03125477,0,1
1584288549363,NaN,0.06584251,0.1274414,-0.89208984,0.3996582,1584288547138,-562456904060,0.03125477,0,1
1584288549368,NaN,0.017531537,0.1159668,-0.91186523,0.40429688,1584288547218,-562456904060,0.03125477,0,1
1584288549372,NaN,-0.042538296,0.11010742,-0.9016113,0.41333008,1584288547298,-562456904060,0.03125477,0,1
1584288549374,NaN,-0.09688728,0.11035156,-0.90063477,0.4099121,1584288547378,-562456904060,0.03125477,0,1
1584288549377,NaN,-0.11762142,0.107666016,-0.90356445,0.4013672,1584288547458,-562456904060,0.03125477,0,1
1584288549381,NaN,-0.13201052,0.09887695,-0.8964844,0.40478516,1584288547538,-562456904060,0.03125477,0,1
1584288549387,NaN,-0.14829679,0.10205078,-0.8876953,0.41137695,1584288547618,-562456904060,0.023735693,0,1
1584288549391,NaN,-0.13359435,0.10839844,-0.89501953,0.4033203,1584288547698,-562456904060,0.023735693,0,1
1584288549396,NaN,-0.07856447,0.10253906,-0.90893555,0.37353516,1584288547778,-562456904060,0.033393763,0,1
1584288549399,NaN,-0.022373319,0.10644531,-0.9157715,0.35595703,1584288547858,-562456904060,0.033393763,0,1
1584288549403,NaN,0.067187466,0.123046875,-0.91748047,0.32788086,1584288547938,-562456904060,0.033393763,0,1
1584288549407,NaN,0.16196339,0.13500977,-0.92626953,0.29223633,1584288548018,-562456904060,0.038612057,0,1
1584288549411,NaN,0.32270518,0.16357422,-1.001709,0.25097656,1584288548098,-562456904060,0.09060578,0,1
1584288549415,NaN,0.49395952,0.13330078,-0.95532227,0.21289062,1584288548178,-562456904060,0.09060578,0,1
1584288549419,NaN,0.68985444,0.15649414,-0.99316406,0.22802734,1584288548258,-562456904060,0.09060578,0,1
1584288549423,NaN,0.8664871,0.1574707,-0.96484375,0.23730469,1584288548338,-562456904060,0.09060578,0,1
1584288549426,NaN,1.0069596,0.1616211,-0.95874023,0.2512207,1584288548418,-562456904060,0.09060578,0,1
1584288549429,NaN,1.1322728,0.1496582,-0.92944336,0.2709961,1584288548498,-562456904060,0.09060578,0,1
1584288549432,NaN,1.2572793,0.14794922,-0.91845703,0.28637695,1584288548578,-562456904060,0.09060578,0,1
1584288549436,NaN,1.3680629,0.13452148,-0.93115234,0.27661133,1584288548658,-562456904060,0.09060578,0,1
1584288549439,NaN,1.4231896,0.13110352,-0.9482422,0.27563477,1584288548738,-562456904060,0.09060578,0,1
1584288549442,NaN,1.4691228,0.12182617,-0.96484375,0.25976562,1584288548818,-562456904060,0.09060578,0,1
1584288549445,NaN,1.4587307,0.115722656,-0.9555664,0.26098633,1584288548898,-562456904060,0.09060578,0,1
1584288549448,NaN,1.4037784,0.12182617,-0.94970703,0.2536621,1584288548978,-562456904060,0.09060578,0,1
1584288549453,NaN,1.2427144,0.13867188,-0.9616699,0.24902344,1584288549058,-562456904060,0.09060578,0,1
1584288549455,NaN,1.0588452,0.13842773,-0.9589844,0.23901367,1584288549138,-562456904060,0.09060578,0,1
1584288549459,NaN,0.86005163,0.15039062,-0.94921875,0.24487305,1584288549218,-562456904060,0.09060578,0,1
1584288551923,NaN,0.7040127,0.1508789,-0.96069336,0.23388672,1584288549298,-6758847041369,0.09060578,0,1
1584288551930,NaN,0.5713925,0.14282227,-0.95703125,0.24316406,1584288549378,-6758847041369,0.09060578,0,1
1584288551935,NaN,0.49032882,0.1484375,-0.9729004,0.23583984,1584288549458,-6758847041369,0.09060578,0,1
1584288551941,NaN,0.44164976,0.13891602,-0.95751953,0.21899414,1584288549538,-6758847041369,0.09060578,0,1
1584288551949,NaN,0.37813243,0.1303711,-0.9577637,0.22314453,1584288549618,-6758847041369,0.09060578,0,1
1584288551952,NaN,0.30531803,0.13916016,-0.96777344,0.2602539,1584288549698,-6758847041369,0.09060578,0,1
1584288551956,NaN,0.17090668,0.107910156,-0.94555664,0.3100586,1584288549778,-6758847041369,0.09060578,0,1
1584288551960,NaN,0.054696336,0.10961914,-0.9433594,0.32543945,1584288549858,-6758847041369,0.09060578,0,1
1584288551964,NaN,-0.044506174,0.09399414,-0.923584,0.32421875,1584288549938,-6758847041369,0.09060578,0,1
1584288551968,8.823529,-0.14651537,0.091552734,-0.92944336,0.37329102,1584288550018,-6758847041369,0.09060578,0,1
1584288551970,NaN,-0.25263044,0.110839844,-0.8947754,0.37573242,1584288550098,-6758847041369,0.09060578,0,1
1584288551974,NaN,-0.35466766,0.123291016,-0.90478516,0.3857422,1584288550178,-6758847041369,0.09060578,0,1
1584288551978,NaN,-0.5101688,0.106933594,-0.8796387,0.39746094,1584288550258,-6758847041369,0.09060578,0,1
1584288551980,NaN,-0.6702122,0.0847168,-0.8769531,0.40551758,1584288550338,-6758847041369,0.09060578,0,1
1584288551984,NaN,-0.8793712,0.037597656,-0.9042969,0.41503906,1584288550418,-6758847041369,0.09060578,0,1
1584288551987,NaN,-1.1056002,0.10205078,-0.8864746,0.39697266,1584288550498,-6758847041369,0.09060578,0,1
1584288551991,NaN,-1.2865878,0.13012695,-0.92700195,0.38085938,1584288550578,-6758847041369,0.09060578,0,1
1584288551995,NaN,-1.3927749,0.041503906,-0.9326172,0.34716797,1584288550658,-6758847041369,0.09497729,0,1
1584288551998,NaN,-1.3231202,0.04321289,-0.9667969,0.2775879,1584288550738,-6758847041369,0.09497729,0,1
1584288552003,NaN,-1.2306672,0.041259766,-0.93188477,0.2631836,1584288550818,-6758847041369,0.09497729,0,1
1584288552007,NaN,-1.1298617,0.018066406,-0.9506836,0.2775879,1584288550898,-6758847041369,0.09497729,0,1
1584288552011,NaN,-0.97468835,0.052978516,-0.9499512,0.31884766,1584288550978,-6758847041369,0.09497729,0,1
1584288552015,NaN,-0.7492755,0.072509766,-0.9772949,0.27514648,1584288551058,-6758847041369,0.09497729,0,1
1584288552019,NaN,-0.52079314,0.056640625,-0.939209,0.25952148,1584288551138,-6758847041369,0.09497729,0,1
1584288552022,NaN,-0.23400728,0.07055664,-0.9694824,0.25708008,1584288551218,-6758847041369,0.09497729,0,1
1584288552026,NaN,0.050058383,0.072509766,-0.95166016,0.26635742,1584288551298,-6758847041369,0.09497729,0,1
1584288552030,NaN,0.35550526,0.07128906,-0.9621582,0.2685547,1584288551378,-6758847041369,0.09497729,0,1
1584288552033,NaN,0.6246028,0.059326172,-0.9567871,0.28271484,1584288551458,-6758847041369,0.09497729,0,1
1584288552036,NaN,0.82044965,0.03540039,-0.97387695,0.3076172,1584288551538,-6758847041369,0.09497729,0,1
1584288552039,NaN,0.91024184,0.029785156,-0.90893555,0.3388672,1584288551618,-6758847041369,0.09497729,0,1
1584288552043,NaN,0.81005937,0.0073242188,-0.94262695,0.3623047,1584288551698,-6758847041369,0.09497729,0,1
1584288552047,NaN,0.6680672,0.0068359375,-0.9260254,0.38964844,1584288551778,-6758847041369,0.09497729,0,1
1584288554111,NaN,0.52776647,-0.0043945312,-0.89331055,0.3881836,1584288551858,5491506895032,0.09497729,0,1
1584288554117,NaN,0.39570996,-0.015380859,-0.90649414,0.40820312,1584288551938,5491506895032,0.09497729,0,1
1584288554122,NaN,0.15271999,-0.008544922,-0.8835449,0.4165039,1584288552018,5491506895032,0.09497729,0,1
1584288554128,NaN,-0.08938745,0.001953125,-0.88012695,0.4086914,1584288552098,5491506895032,0.09497729,0,1
1584288554131,27.777779,-0.36504653,0.01586914,-0.87231445,0.39672852,1584288552178,5491506895032,0.09497729,0,1
1584288554135,NaN,-0.6247908,-4.8828125E-4,-0.93774414,0.4194336,1584288552258,5491506895032,0.09497729,0,1
1584288554138,NaN,-0.8894051,-0.016113281,-0.9194336,0.40893555,1584288552338,5491506895032,0.09497729,0,1
1584288554142,NaN,-1.1180099,0.0031738281,-0.9104004,0.41674805,1584288552418,5491506895032,0.09497729,0,1
1584288554145,NaN,-1.2814525,0.0126953125,-0.89624023,0.4020996,1584288552498,5491506895032,0.09497729,0,1
1584288554149,NaN,-1.3440279,0.0056152344,-0.9091797,0.41723633,1584288552578,5491506895032,0.09497729,0,1
1584288554152,NaN,-1.3208792,0.004638672,-0.8996582,0.41210938,1584288552658,5491506895032,0.09497729,0,1
1584288554157,NaN,-1.2428633,0.0034179688,-0.9003906,0.41235352,1584288552738,5491506895032,0.09497729,0,1
1584288554158,NaN,-1.1526392,0.0048828125,-0.90185547,0.4111328,1584288552818,5491506895032,0.09497729,0,1
1584288554162,NaN,-1.0742507,-9.765625E-4,-0.9003906,0.41918945,1584288552898,5491506895032,0.09497729,0,1
1584288554165,NaN,-0.92555696,-0.00390625,-0.90625,0.42089844,1584288552978,5491506895032,0.09497729,0,1
1584288554168,NaN,-0.7926474,0.0036621094,-0.890625,0.42163086,1584288553058,5491506895032,0.09497729,0,1
1584288554171,NaN,-0.64798266,-0.0053710938,-0.90722656,0.4074707,1584288553138,5491506895032,0.09497729,0,1
1584288554175,NaN,-0.51489353,-0.013671875,-0.90844727,0.40112305,1584288553218,5491506895032,0.077540696,0,1
1584288554179,NaN,-0.3793583,-0.0056152344,-0.90405273,0.39697266,1584288553298,5491506895032,0.07228748,0,1
1584288554237,NaN,-0.24599403,-0.0034179688,-0.91186523,0.4038086,1584288553378,5491506895032,0.07228748,0,1
1584288554242,NaN,-0.14675905,-0.0036621094,-0.9108887,0.40820312,1584288553458,5491506895032,0.07228748,0,1
1584288554248,NaN,-0.09503805,-0.0024414062,-0.8918457,0.42236328,1584288553538,5491506895032,0.07228748,0,1
1584288554252,NaN,-0.048083495,-0.016113281,-0.9057617,0.42041016,1584288553618,5491506895032,0.07228748,0,1
1584288554257,NaN,-0.03605282,-0.0107421875,-0.8894043,0.42504883,1584288553698,5491506895032,0.07228748,0,1
1584288554261,NaN,-0.02950269,-0.0014648438,-0.9001465,0.4189453,1584288553778,5491506895032,0.07228748,0,1
1584288554267,NaN,-0.028633045,-0.0026855469,-0.89208984,0.42578125,1584288553858,5491506895032,0.07228748,0,1
1584288554269,NaN,-0.039959308,-0.0053710938,-0.89208984,0.42260742,1584288553938,5491506895032,0.07228748,0,1
1584288554272,NaN,-0.03303369,-0.0061035156,-0.8898926,0.4194336,1584288554018,5491506895032,0.07228748,0,1
1584288554275,NaN,-0.044216797,-0.008544922,-0.89404297,0.41357422,1584288554098,5491506895032,0.07228748,0,1
1584288554278,NaN,-0.06533972,-0.0012207031,-0.89282227,0.41918945,1584288554178,5491506895032,0.0711627,0,1
1584288554283,NaN,-0.090297975,-0.01586914,-0.90527344,0.42358398,1584288554258,5491506895032,0.0711627,0,1
1584288554286,NaN,-0.12989761,-0.01171875,-0.8886719,0.43188477,1584288554338,5491506895032,0.0711627,0,1
1584288556696,NaN,-0.15330152,-0.009765625,-0.8984375,0.43408203,1584288554418,-705164717252,0.0711627,0,1
1584288556701,NaN,-0.1572291,-0.013671875,-0.89501953,0.44213867,1584288554498,-705164717252,0.0711627,0,1
1584288556707,NaN,-0.16531813,-0.01171875,-0.8881836,0.43066406,1584288554578,-705164717252,0.0711627,0,1
1584288556711,NaN,-0.15749063,-0.009277344,-0.888916,0.43359375,1584288554658,-705164717252,0.0711627,0,1
1584288556714,NaN,-0.16296865,-0.010009766,-0.89404297,0.43164062,1584288554738,-705164717252,0.0711627,0,1
1584288556719,NaN,-0.17166819,-0.009765625,-0.88549805,0.4440918,1584288554818,-705164717252,0.026260726,0,1
1584288556723,NaN,-0.1789888,-0.018066406,-0.8930664,0.4399414,1584288554898,-705164717252,0.023762045,0,1
1584288556727,NaN,-0.20018359,-0.012939453,-0.88305664,0.4423828,1584288554978,-705164717252,0.023762045,0,1
1584288556732,NaN,-0.21328293,-0.0146484375,-0.8918457,0.44189453,1584288555058,-705164717252,0.023762045,0,1
1584288556737,NaN,-0.21664137,-0.019042969,-0.8898926,0.4453125,1584288555138,-705164717252,0.023762045,0,1
1584288556742,NaN,-0.21593583,-0.0126953125,-0.88623047,0.44067383,1584288555218,-705164717252,0.023762045,0,1
1584288556747,NaN,-0.1961981,-0.014160156,-0.8942871,0.44799805,1584288555298,-705164717252,0.023762045,0,1
1584288556750,NaN,-0.18341257,-0.017578125,-0.88916016,0.4440918,1584288555378,-705164717252,0.023762045,0,1
1584288556754,NaN,-0.1702392,-0.0075683594,-0.8847656,0.43945312,1584288555458,-705164717252,0.023762045,0,1
1584288556756,NaN,-0.16065338,-0.020996094,-0.8967285,0.43945312,1584288555538,-705164717252,0.023762045,0,1
1584288556759,NaN,-0.16099209,-0.010009766,-0.88183594,0.43920898,1584288555618,-705164717252,0.023762045,0,1
1584288556763,NaN,-0.15616617,-2.4414062E-4,-0.89086914,0.44140625,1584288555698,-705164717252,0.023762045,0,1
1584288556765,NaN,-0.14265697,-0.009765625,-0.8808594,0.44604492,1584288555778,-705164717252,0.023762045,0,1
1584288556769,NaN,-0.13267015,-0.009765625,-0.8796387,0.43920898,1584288555858,-705164717252,0.023762045,0,1
1584288556772,NaN,-0.10637816,-0.0024414062,-0.8852539,0.43676758,1584288555938,-705164717252,0.023762045,0,1
1584288556776,NaN,-0.076950915,-0.0031738281,-0.8833008,0.42993164,1584288556018,-705164717252,0.023762045,0,1
1584288556779,NaN,-0.05426682,0.0036621094,-0.8828125,0.4440918,1584288556098,-705164717252,0.019721063,0,1
1584288556781,NaN,-0.03801575,-0.01586914,-0.8955078,0.44921875,1584288556178,-705164717252,0.023852177,0,1
1584288556783,NaN,-0.03316313,-0.017089844,-0.8803711,0.4477539,1584288556258,-705164717252,0.023852177,0,1
1584288556786,NaN,-0.023541374,-0.0126953125,-0.8947754,0.4501953,1584288556338,-705164717252,0.023852177,0,1
1584288556789,NaN,-0.029615171,-0.01586914,-0.8845215,0.44799805,1584288556418,-705164717252,0.023852177,0,1
1584288556792,NaN,-0.033154603,-0.013427734,-0.88012695,0.44262695,1584288556498,-705164717252,0.023852177,0,1
1584288556795,NaN,-0.028859176,-0.011230469,-0.8874512,0.4453125,1584288556578,-705164717252,0.023852177,0,1
1584288556798,NaN,-0.031363443,-0.0126953125,-0.8845215,0.44995117,1584288556658,-705164717252,0.023852177,0,1
1584288556802,NaN,-0.034907404,-0.011474609,-0.87890625,0.45385742,1584288556738,-705164717252,0.023852177,0,1
1584288556805,NaN,-0.04537378,-0.015625,-0.8798828,0.45751953,1584288556818,-705164717252,0.023852177,0,1
1584288556808,NaN,-0.06585586,-0.009277344,-0.8786621,0.4519043,1584288556898,-705164717252,0.023852177,0,1
1584288559329,NaN,-0.093453474,-0.015380859,-0.8803711,0.45458984,1584288556978,-6901554854561,0.023852177,0,1
1584288559335,NaN,-0.11252928,-0.01977539,-0.8828125,0.46557617,1584288557058,-6901554854561,0.023852177,0,1
1584288559342,NaN,-0.11913151,-0.016113281,-0.87768555,0.45336914,1584288557138,-6901554854561,0.023852177,0,1
1584288559349,NaN,-0.11496193,-0.016113281,-0.8823242,0.45043945,1584288557218,-6901554854561,0.023852177,0,1
1584288559353,NaN,-0.116052926,-0.015625,-0.88720703,0.44995117,1584288557298,-6901554854561,0.023852177,0,1
1584288559356,NaN,-0.12490565,-0.017578125,-0.8798828,0.46728516,1584288557378,-6901554854561,0.023852177,0,1
1584288559361,NaN,-0.14084028,-0.024169922,-0.87841797,0.47216797,1584288557458,-6901554854561,0.023852177,0,1
1584288559366,NaN,-0.15583837,-0.014892578,-0.87597656,0.46264648,1584288557538,-6901554854561,0.023852177,0,1
1584288559371,NaN,-0.16318828,-0.010986328,-0.8713379,0.46704102,1584288557618,-6901554854561,0.023852177,0,1
1584288559375,NaN,-0.17150986,-0.013671875,-0.87402344,0.47143555,1584288557698,-6901554854561,0.023852177,0,1
1584288559381,NaN,-0.16073573,-0.0041503906,-0.86987305,0.45874023,1584288557778,-6901554854561,0.023852177,0,1
1584288559386,NaN,-0.15281586,-0.005859375,-0.87231445,0.4580078,1584288557858,-6901554854561,0.023852177,0,1
1584288559390,NaN,-0.12548667,-0.00390625,-0.87768555,0.44604492,1584288557938,-6901554854561,0.023852177,0,1
1584288559393,NaN,-0.09494981,-0.0063476562,-0.8725586,0.44604492,1584288558018,-6901554854561,0.023852177,0,1
1584288559397,NaN,-0.07281419,-0.019042969,-0.89282227,0.4440918,1584288558098,-6901554854561,0.023991708,0,1
1584288559402,NaN,-0.065202944,-0.015136719,-0.8918457,0.44677734,1584288558178,-6901554854561,0.023991708,0,1
1584288559407,NaN,-0.04802976,-0.0021972656,-0.89331055,0.4362793,1584288558258,-6901554854561,0.023991708,0,1
1584288559412,NaN,-0.0032993034,-0.0063476562,-0.8886719,0.4350586,1584288558338,-6901554854561,0.023991708,0,1
1584288559417,NaN,0.05844903,-0.001953125,-0.89404297,0.4326172,1584288558418,-6901554854561,0.023991708,0,1
1584288559421,NaN,0.11352998,-0.0036621094,-0.88916016,0.4206543,1584288558498,-6901554854561,0.023991708,0,1
1584288559424,NaN,0.16647653,-0.009277344,-0.90478516,0.4362793,1584288558578,-6901554854561,0.023991708,0,1
1584288559427,NaN,0.21580845,-0.01953125,-0.89160156,0.43310547,1584288558658,-6901554854561,0.023991708,0,1
1584288559431,NaN,0.2444259,-0.009277344,-0.8857422,0.43188477,1584288558738,-6901554854561,0.023991708,0,1
1584288559435,NaN,0.28162906,-0.004638672,-0.9003906,0.4309082,1584288558818,-6901554854561,0.023991708,0,1
1584288559440,NaN,0.29478717,-0.0068359375,-0.8913574,0.42578125,1584288558898,-6901554854561,0.023991708,0,1
1584288559443,NaN,0.30775356,-0.009033203,-0.90405273,0.42749023,1584288558978,-6901554854561,0.023991708,0,1
1584288559448,NaN,0.30113485,-0.013916016,-0.9003906,0.44091797,1584288559058,-6901554854561,0.023991708,0,1
1584288559449,NaN,0.2945418,0.007080078,-0.9020996,0.45507812,1584288559138,-6901554854561,0.025382407,0,1
1584288559453,NaN,0.26309663,0.014160156,-0.8859863,0.45825195,1584288559218,-6901554854561,0.025382407,0,1
1584288559467,NaN,0.2086726,0.03149414,-0.8779297,0.46948242,1584288559298,-6901554854561,0.025382407,0,1
1584288559467,NaN,0.11959946,0.041015625,-0.85791016,0.4885254,1584288559378,-6901554854561,0.029224562,0,1
1584288559468,NaN,0.028998038,0.05908203,-0.82373047,0.46606445,1584288559458,-6901554854561,0.044711743,0,1
1584288561863,NaN,-0.08674386,0.04736328,-0.81884766,0.50561523,1584288559538,5348799081839,0.044711743,0,1
1584288561870,NaN,-0.17984383,0.011962891,-0.87890625,0.5085449,1584288559618,5348799081839,0.069776826,0,1
1584288561876,NaN,-0.22922708,-0.038085938,-0.87280273,0.45458984,1584288559698,5348799081839,0.073846385,0,1
1584288561883,NaN,-0.2573265,-0.049804688,-0.90112305,0.42333984,1584288559778,5348799081839,0.073846385,0,1
1584288561889,NaN,-0.27191758,-0.04321289,-0.8935547,0.4165039,1584288559858,5348799081839,0.073846385,0,1
1584288561892,NaN,-0.31309524,-0.06640625,-0.8967285,0.43945312,1584288559938,5348799081839,0.073846385,0,1
1584288561896,NaN,-0.3037913,-0.084228516,-0.8876953,0.40795898,1584288560018,5348799081839,0.073846385,0,1
1584288561900,NaN,-0.28512815,-0.07421875,-0.88964844,0.41796875,1584288560098,5348799081839,0.073846385,0,1
1584288561904,NaN,-0.18760018,-0.08203125,-0.9172363,0.3630371,1584288560178,5348799081839,0.073846385,0,1
1584288561909,NaN,-0.056366444,-0.04638672,-0.9250488,0.35205078,1584288560258,5348799081839,0.073846385,0,1
1584288561912,NaN,0.15289177,-0.047851562,-0.9519043,0.32617188,1584288560338,5348799081839,0.073846385,0,1
1584288561915,NaN,0.3416256,-0.02734375,-0.9423828,0.34570312,1584288560418,5348799081839,0.073846385,0,1
1584288561920,NaN,0.58659136,-0.010986328,-0.9301758,0.3425293,1584288560498,5348799081839,0.073846385,0,1
1584288561922,NaN,0.81242085,-0.001953125,-0.9489746,0.32226562,1584288560578,5348799081839,0.073846385,0,1
1584288561926,NaN,0.9632675,-4.8828125E-4,-0.9428711,0.31713867,1584288560658,5348799081839,0.073846385,0,1
1584288561930,NaN,1.0513488,-7.324219E-4,-0.9370117,0.3178711,1584288560738,5348799081839,0.073846385,0,1
1584288561933,NaN,1.1271688,-0.010986328,-0.96435547,0.33813477,1584288560818,5348799081839,0.073846385,0,1
1584288561935,NaN,1.2234756,-0.032714844,-0.9206543,0.34350586,1584288560898,5348799081839,0.073846385,0,1
1584288561939,NaN,1.2658528,-0.03515625,-0.9328613,0.3491211,1584288560978,5348799081839,0.073846385,0,1
1584288561942,NaN,1.3031121,-0.03173828,-0.9260254,0.35888672,1584288561058,5348799081839,0.073846385,0,1
1584288561946,NaN,1.2221383,-0.044189453,-0.92041016,0.3642578,1584288561138,5348799081839,0.073846385,0,1
1584288561949,NaN,1.0827476,-0.02709961,-0.89697266,0.38476562,1584288561218,5348799081839,0.073846385,0,1
1584288561950,NaN,0.8558267,-0.041503906,-0.89868164,0.39379883,1584288561298,5348799081839,0.073846385,0,1
1584288561954,NaN,0.66531163,-0.040283203,-0.8977051,0.39868164,1584288561378,5348799081839,0.073846385,0,1
1584288561957,NaN,0.4644446,-0.041748047,-0.8955078,0.37475586,1584288561458,5348799081839,0.073846385,0,1
1584288561960,NaN,0.24225245,-0.047607422,-0.92871094,0.38354492,1584288561538,5348799081839,0.073846385,0,1
1584288561963,NaN,0.064349174,-0.07495117,-0.92285156,0.3720703,1584288561618,5348799081839,0.073846385,0,1
1584288561966,27.777779,-0.054887217,-0.06225586,-0.9291992,0.3479004,1584288561698,5348799081839,0.073846385,0,1
1584288561970,NaN,-0.14860837,-0.06616211,-0.93188477,0.33642578,1584288561778,5348799081839,0.073846385,0,1
1584288561973,NaN,-0.22000271,-0.07324219,-0.9362793,0.33520508,1584288561858,5348799081839,0.073846385,0,1
1584288561976,NaN,-0.2577807,-0.08984375,-0.9445801,0.3251953,1584288561938,5348799081839,0.073846385,0,1
1584288561980,NaN,-0.29003882,-0.07739258,-0.93066406,0.32836914,1584288562018,5348799081839,0.073846385,0,1
1584288564447,NaN,-0.2664869,-0.07348633,-0.9296875,0.33764648,1584288562098,-847872530445,0.073846385,0,1
1584288564451,NaN,-0.18265742,-0.057373047,-0.9375,0.33642578,1584288562178,-847872530445,0.073846385,0,1
1584288564456,NaN,-0.06119943,-0.05419922,-0.9284668,0.33789062,1584288562258,-847872530445,0.0619646,0,1
1584288564461,NaN,0.046820953,-0.06298828,-0.92993164,0.34350586,1584288562338,-847872530445,0.0619646,0,1
1584288564465,NaN,0.12081178,-0.068359375,-0.93237305,0.34106445,1584288562418,-847872530445,0.0619646,0,1
1584288564469,NaN,0.20800363,-0.061035156,-0.9291992,0.34375,1584288562498,-847872530445,0.0619646,0,1
1584288564473,NaN,0.28305516,-0.06542969,-0.93066406,0.34375,1584288562578,-847872530445,0.0619646,0,1
1584288564476,NaN,0.31361255,-0.057373047,-0.92456055,0.34326172,1584288562658,-847872530445,0.0619646,0,1
1584288564481,NaN,0.31526646,-0.059326172,-0.92944336,0.34887695,1584288562738,-847872530445,0.049099587,0,1
1584288564486,NaN,0.29010648,-0.056396484,-0.9277344,0.35107422,1584288562818,-847872530445,0.049099587,0,1
1584288564491,NaN,0.24064554,-0.056640625,-0.9248047,0.35205078,1584288562898,-847872530445,0.049099587,0,1
1584288564496,NaN,0.20228618,-0.046875,-0.9289551,0.3425293,1584288562978,-847872530445,0.049099587,0,1
1584288564499,NaN,0.16799374,-0.05444336,-0.92944336,0.34960938,1584288563058,-847872530445,0.049099587,0,1
1584288564502,NaN,0.10729159,-0.052734375,-0.9304199,0.34716797,1584288563138,-847872530445,0.049099587,0,1
1584288564506,NaN,0.039067313,-0.05834961,-0.9296875,0.35864258,1584288563218,-847872530445,0.049099587,0,1
1584288564510,NaN,-0.023311766,-0.049316406,-0.920166,0.34985352,1584288563298,-847872530445,0.049099587,0,1
1584288564513,35.714287,-0.091364056,-0.05126953,-0.92407227,0.37426758,1584288563378,-847872530445,0.049099587,0,1
1584288564518,NaN,-0.1529343,-0.05493164,-0.920166,0.3774414,1584288563458,-847872530445,0.03552393,0,1
1584288564522,NaN,-0.21446635,-0.05493164,-0.91503906,0.38476562,1584288563538,-847872530445,0.03552393,0,1
1584288564526,NaN,-0.261379,-0.05493164,-0.904541,0.3930664,1584288563618,-847872530445,0.03552393,0,1
1584288564530,NaN,-0.3060694,-0.05029297,-0.9067383,0.41064453,1584288563698,-847872530445,0.03552393,0,1
1584288564533,NaN,-0.35146642,-0.048339844,-0.8959961,0.41723633,1584288563778,-847872530445,0.034842897,0,1
1584288564536,NaN,-0.38449657,-0.049072266,-0.8984375,0.421875,1584288563858,-847872530445,0.034842897,0,1
1584288564539,NaN,-0.44973516,-0.044921875,-0.88623047,0.42871094,1584288563938,-847872530445,0.034842897,0,1
1584288564542,NaN,-0.5202665,-0.03564453,-0.88378906,0.4345703,1584288564018,-847872530445,0.034842897,0,1
1584288564544,NaN,-0.6016128,-0.039794922,-0.89282227,0.44970703,1584288564098,-847872530445,0.030227134,0,1
1584288564548,NaN,-0.6648203,-0.037109375,-0.8859863,0.43945312,1584288564178,-847872530445,0.028029427,0,1
1584288564551,NaN,-0.73314005,-0.03491211,-0.8857422,0.43432617,1584288564258,-847872530445,0.024801612,0,1
1584288564555,NaN,-0.76499957,-0.028808594,-0.8886719,0.43652344,1584288564338,-847872530445,0.024801612,0,1
1584288564558,NaN,-0.80000585,-0.025390625,-0.8864746,0.44262695,1584288564418,-847872530445,0.024801612,0,1
1584288564561,NaN,-0.82797974,-0.03125,-0.8874512,0.45507812,1584288564498,-847872530445,0.024801612,0,1
1584288564564,NaN,-0.8398101,-0.024414062,-0.876709,0.4501953,1584288564578,-847872530445,0.024801612,0,1
1584288567030,NaN,-0.82737845,-0.016113281,-0.8811035,0.44995117,1584288564658,-7044262667753,0.024801612,0,1
1584288567038,NaN,-0.80358857,-0.01586914,-0.88427734,0.45629883,1584288564738,-7044262667753,0.024801612,0,1
1584288567045,NaN,-0.78047246,-0.0107421875,-0.8774414,0.45751953,1584288564818,-7044262667753,0.024801612,0,1
1584288567052,NaN,-0.73130035,-0.001953125,-0.873291,0.45507812,1584288564898,-7044262667753,0.024801612,0,1
1584288567057,NaN,-0.66834205,0.0012207031,-0.88183594,0.45141602,1584288564978,-7044262667753,0.024801612,0,1
1584288567061,NaN,-0.5966236,0.001953125,-0.873291,0.45825195,1584288565058,-7044262667753,0.024801612,0,1
1584288567065,NaN,-0.53367835,-0.01171875,-0.8898926,0.4567871,1584288565138,-7044262667753,0.024801612,0,1
1584288567069,NaN,-0.47627154,-0.011962891,-0.8796387,0.453125,1584288565218,-7044262667753,0.024801612,0,1
1584288567073,NaN,-0.42224565,-0.008056641,-0.89086914,0.44335938,1584288565298,-7044262667753,0.024801612,0,1
1584288567076,NaN,-0.36298874,-0.021972656,-0.88305664,0.44726562,1584288565378,-7044262667753,0.024801612,0,1
1584288567079,NaN,-0.28775805,-0.022705078,-0.88061523,0.4362793,1584288565458,-7044262667753,0.024801612,0,1
1584288567082,NaN,-0.19664271,-0.025878906,-0.90405273,0.41748047,1584288565538,-7044262667753,0.03021234,0,1
1584288567085,NaN,-0.12323622,-0.03491211,-0.8935547,0.41992188,1584288565618,-7044262667753,0.03021234,0,1
1584288567089,NaN,-0.05014943,-0.0390625,-0.8977051,0.42114258,1584288565698,-7044262667753,0.03021234,0,1
1584288567092,NaN,0.035436843,-0.060791016,-0.8964844,0.41796875,1584288565778,-7044262667753,0.03021234,0,1
1584288567096,NaN,0.107602976,-0.05883789,-0.89160156,0.42358398,1584288565858,-7044262667753,0.03021234,0,1
1584288567100,NaN,0.16158988,-0.060302734,-0.890625,0.42578125,1584288565938,-7044262667753,0.03021234,0,1
1584288567105,NaN,0.22408383,-0.06347656,-0.89697266,0.43188477,1584288566018,-7044262667753,0.03021234,0,1
1584288567110,NaN,0.2787517,-0.08203125,-0.8937988,0.4272461,1584288566098,-7044262667753,0.03021234,0,1
1584288567113,NaN,0.35021266,-0.095947266,-0.890625,0.41552734,1584288566178,-7044262667753,0.03021234,0,1
1584288567116,NaN,0.4081018,-0.099853516,-0.90112305,0.41137695,1584288566258,-7044262667753,0.03021234,0,1
1584288567121,NaN,0.47466925,-0.09814453,-0.89868164,0.3972168,1584288566338,-7044262667753,0.03021234,0,1
1584288567124,NaN,0.52583283,-0.1105957,-0.9013672,0.3942871,1584288566418,-7044262667753,0.03021234,0,1
1584288567127,NaN,0.5323114,-0.115234375,-0.9057617,0.39624023,1584288566498,-7044262667753,0.03021234,0,1
1584288567130,NaN,0.54771876,-0.10986328,-0.9067383,0.39233398,1584288566578,-7044262667753,0.03021234,0,1
1584288567133,NaN,0.5681371,-0.12426758,-0.91674805,0.38720703,1584288566658,-7044262667753,0.03021234,0,1
1584288567136,NaN,0.56753767,-0.12060547,-0.89819336,0.38110352,1584288566738,-7044262667753,0.03021234,0,1
1584288567140,NaN,0.5561896,-0.10961914,-0.8991699,0.40673828,1584288566818,-7044262667753,0.03021234,0,1
1584288567142,NaN,0.552713,-0.12915039,-0.9099121,0.41992188,1584288566898,-7044262667753,0.03021234,0,1
1584288567145,NaN,0.5440133,-0.10107422,-0.8989258,0.40307617,1584288566978,-7044262667753,0.03453619,0,1
1584288567148,NaN,0.53362066,-0.10644531,-0.90185547,0.40161133,1584288567058,-7044262667753,0.03453619,0,1
1584288567151,NaN,0.48300096,-0.10644531,-0.88549805,0.41723633,1584288567138,-7044262667753,0.03453619,0,1
1584288569613,NaN,0.41723552,-0.115722656,-0.8911133,0.43652344,1584288567218,5206091268647,0.03453619,1,1
1584288569632,NaN,0.32332674,-0.10424805,-0.88256836,0.43896484,1584288567298,5206091268647,0.03453619,1,1
1584288569633,NaN,0.22483577,-0.10668945,-0.8781738,0.43579102,1584288567378,5206091268647,0.03453619,1,1
1584288569634,NaN,0.14664052,-0.10131836,-0.8823242,0.4326172,1584288567458,5206091268647,0.03453619,1,1
1584288569635,NaN,0.065584935,-0.10107422,-0.8823242,0.42797852,1584288567538,5206091268647,0.03453619,1,1
1584288569638,NaN,-0.025738178,-0.099853516,-0.8925781,0.41625977,1584288567618,5206091268647,0.03453619,1,1
1584288569643,NaN,-0.09974539,-0.122558594,-0.876709,0.41333008,1584288567698,5206091268647,0.03453619,1,1
1584288569645,NaN,-0.12653567,-0.119628906,-0.88427734,0.40063477,1584288567778,5206091268647,0.03453619,1,1
1584288569649,NaN,-0.15661804,-0.1003418,-0.9055176,0.4033203,1584288567858,5206091268647,0.03453619,1,1
1584288569652,13.157895,-0.17755006,-0.07348633,-0.9152832,0.38061523,1584288567938,5206091268647,0.036498003,1,1
1584288569655,NaN,-0.20411839,-0.056640625,-0.9267578,0.38793945,1584288568018,5206091268647,0.036498003,1,1
1584288569660,NaN,-0.20835884,-0.05126953,-0.88964844,0.4008789,1584288568098,5206091268647,0.039665904,1,1
1584288569664,NaN,-0.18498687,-0.041259766,-0.9091797,0.4038086,1584288568178,5206091268647,0.039665904,1,1
1584288569667,NaN,-0.13301447,-0.01586914,-0.9248047,0.39624023,1584288568258,5206091268647,0.039665904,1,1
1584288569671,NaN,-0.052980587,-0.020751953,-0.9152832,0.36254883,1584288568338,5206091268647,0.039665904,1,1
1584288569674,NaN,0.025564557,-0.009277344,-0.9421387,0.37036133,1584288568418,5206091268647,0.039665904,1,1
1584288569676,NaN,0.091745235,0.024414062,-0.91015625,0.35839844,1584288568498,5206091268647,0.04796975,1,1
1584288569680,NaN,0.16371624,0.046142578,-0.9445801,0.34692383,1584288568578,5206091268647,0.04796975,1,1
1584288569684,NaN,0.22922303,0.04296875,-0.9243164,0.34057617,1584288568658,5206091268647,0.04796975,1,1
1584288569687,NaN,0.25918102,0.03955078,-0.9321289,0.3388672,1584288568738,5206091268647,0.04796975,1,1
1584288569690,NaN,0.29139182,0.029541016,-0.92993164,0.34155273,1584288568818,5206091268647,0.04796975,1,1
1584288569694,NaN,0.29354802,0.028808594,-0.935791,0.35009766,1584288568898,5206091268647,0.04796975,1,1
1584288569697,NaN,0.30359146,0.014892578,-0.91625977,0.3552246,1584288568978,5206091268647,0.04796975,1,1
1584288569700,NaN,0.34227487,0.01953125,-0.92529297,0.35742188,1584288569058,5206091268647,0.04796975,1,1
1584288569704,NaN,0.3593142,0.030517578,-0.92578125,0.36743164,1584288569138,5206091268647,0.04796975,1,1
1584288569707,NaN,0.35529783,0.016113281,-0.91503906,0.36791992,1584288569218,5206091268647,0.04796975,1,1
1584288569711,NaN,0.28823012,0.021484375,-0.9111328,0.3864746,1584288569298,5206091268647,0.04796975,1,1
1584288569714,NaN,0.25377753,0.06762695,-0.94091797,0.35058594,1584288569378,5206091268647,0.065607086,1,1
1584288569717,NaN,0.22693424,0.052490234,-0.92285156,0.35473633,1584288569458,5206091268647,0.065607086,1,1
1584288569720,NaN,0.16828592,0.05419922,-0.91137695,0.36206055,1584288569538,5206091268647,0.065607086,1,1
1584288569723,NaN,0.11648551,0.04711914,-0.92871094,0.36132812,1584288569618,5206091268647,0.065607086,1,1
1584288569727,NaN,0.0680539,0.037841797,-0.9272461,0.3569336,1584288569698,5206091268647,0.065607086,1,1
1584288572200,NaN,0.023170775,0.028564453,-0.923584,0.35375977,1584288569778,-990580343637,0.065607086,3,1
1584288572207,NaN,-0.006792838,0.05834961,-0.9255371,0.3630371,1584288569858,-990580343637,0.065607086,3,1
1584288572213,NaN,-0.029187672,0.04272461,-0.9187012,0.36645508,1584288569938,-990580343637,0.065607086,3,1
1584288572218,28.846153,-0.075583614,0.04272461,-0.9250488,0.36938477,1584288570018,-990580343637,0.065607086,3,1
1584288572223,NaN,-0.10241673,0.04248047,-0.92333984,0.36816406,1584288570098,-990580343637,0.065607086,3,1
1584288572228,NaN,-0.12708196,0.043701172,-0.9301758,0.3828125,1584288570178,-990580343637,0.065607086,3,1
1584288572231,NaN,-0.10033869,0.043701172,-0.9074707,0.38012695,1584288570258,-990580343637,0.065607086,3,1
1584288572236,NaN,-0.14504923,0.036376953,-0.9279785,0.3972168,1584288570338,-990580343637,0.065607086,3,1
1584288572240,NaN,-0.1965849,0.037109375,-0.8955078,0.40649414,1584288570418,-990580343637,0.065607086,3,1
1584288572244,NaN,-0.22103284,0.04345703,-0.9086914,0.42236328,1584288570498,-990580343637,0.065607086,3,1
1584288572248,NaN,-0.27814135,0.026123047,-0.8835449,0.43701172,1584288570578,-990580343637,0.065607086,3,1
1584288572252,NaN,-0.34685305,0.030761719,-0.8781738,0.44555664,1584288570658,-990580343637,0.065607086,3,1
1584288572256,NaN,-0.3975493,0.05102539,-0.8803711,0.41577148,1584288570738,-990580343637,0.065607086,3,1
1584288572261,NaN,-0.43665615,0.033935547,-0.88842773,0.41796875,1584288570818,-990580343637,0.065607086,3,1
1584288572266,NaN,-0.48166957,0.017089844,-0.9067383,0.43359375,1584288570898,-990580343637,0.065607086,3,1
1584288572269,NaN,-0.51861113,0.017333984,-0.9030762,0.42285156,1584288570978,-990580343637,0.065607086,3,1
1584288572273,NaN,-0.56836605,0.024902344,-0.8935547,0.4230957,1584288571058,-990580343637,0.065607086,3,1
1584288572276,NaN,-0.59026253,0.029785156,-0.9016113,0.41088867,1584288571138,-990580343637,0.065607086,3,1
1584288572281,NaN,-0.6269406,0.025390625,-0.89868164,0.42211914,1584288571218,-990580343637,0.065607086,3,1
1584288572285,NaN,-0.61055595,0.03466797,-0.90527344,0.41503906,1584288571298,-990580343637,0.065607086,3,1
1584288572289,NaN,-0.5709754,0.028808594,-0.8977051,0.41845703,1584288571378,-990580343637,0.065607086,3,1
1584288572292,NaN,-0.5081108,0.03100586,-0.90771484,0.40112305,1584288571458,-990580343637,0.065607086,3,1
1584288572294,NaN,-0.4074752,0.03100586,-0.9067383,0.4104004,1584288571538,-990580343637,0.065607086,3,1
1584288572298,NaN,-0.28630653,0.020751953,-0.904541,0.4091797,1584288571618,-990580343637,0.065607086,3,1
1584288572301,NaN,-0.21523423,0.028808594,-0.89868164,0.41308594,1584288571698,-990580343637,0.065607086,3,1
1584288572304,NaN,-0.15093708,0.030517578,-0.9030762,0.41210938,1584288571778,-990580343637,0.065607086,3,1
1584288572307,NaN,-0.082079,0.025878906,-0.9030762,0.41357422,1584288571858,-990580343637,0.065607086,3,1
1584288572309,NaN,-0.02016679,0.02734375,-0.90625,0.40551758,1584288571938,-990580343637,0.036091547,3,1
1584288572313,NaN,0.04612426,0.025146484,-0.90527344,0.40966797,1584288572018,-990580343637,0.036091547,3,1
1584288572316,NaN,0.07903258,0.02758789,-0.9086914,0.41210938,1584288572098,-990580343637,0.036091547,3,1
1584288572318,NaN,0.118976295,0.028564453,-0.90625,0.41845703,1584288572178,-990580343637,0.036091547,3,1
1584288572321,NaN,0.15191959,0.01977539,-0.9121094,0.40405273,1584288572258,-990580343637,0.036091547,3,1
1584288574780,NaN,0.16516529,0.030029297,-0.8964844,0.4111328,1584288572338,-7186970480945,0.036091547,3,1
1584288574785,NaN,0.14077164,0.020263672,-0.91503906,0.41601562,1584288572418,-7186970480945,0.036091547,3,1
1584288574789,NaN,0.12860017,0.030517578,-0.92578125,0.39770508,1584288572498,-7186970480945,0.036091547,3,1
1584288574794,NaN,0.10278419,0.0390625,-0.9187012,0.40014648,1584288572578,-7186970480945,0.036091547,3,1
1584288574798,NaN,0.06348962,0.0021972656,-0.88793945,0.44848633,1584288572658,-7186970480945,0.068132736,3,1
1584288574802,NaN,-0.015554572,-0.01171875,-0.80126953,0.4567871,1584288572738,-7186970480945,0.088171616,3,1
1584288574808,NaN,-0.08876362,-0.0056152344,-0.8901367,0.48608398,1584288572818,-7186970480945,0.09377066,3,1
1584288574811,20.833334,-0.21718049,-0.10888672,-0.8310547,0.51708984,1584288572898,-7186970480945,0.12295141,3,1
1584288574814,NaN,-0.35608926,-0.13549805,-0.8046875,0.5148926,1584288572978,-7186970480945,0.12295141,3,1
1584288574817,NaN,-0.46237037,-0.063964844,-0.8286133,0.50268555,1584288573058,-7186970480945,0.12295141,3,1
1584288574821,NaN,-0.4904418,-0.016845703,-0.88061523,0.4309082,1584288573138,-7186970480945,0.12295141,3,1
1584288574824,NaN,-0.46639022,0.007080078,-1.0180664,0.40966797,1584288573218,-7186970480945,0.14112553,3,1
1584288574828,NaN,-0.2868736,0.17773438,-1.064209,0.26733398,1584288573298,-7186970480945,0.22696033,3,1
1584288574831,NaN,-0.0051119328,0.33129883,-0.9223633,0.11425781,1584288573378,-7186970480945,0.2591034,3,1
1584288574834,NaN,0.29457623,0.2475586,-0.826416,-0.010009766,1584288573458,-7186970480945,0.2591034,3,1
1584288574837,NaN,0.6804604,0.25,-0.8925781,-0.06274414,1584288573538,-7186970480945,0.2591034,3,1
1584288574841,NaN,1.2416377,0.40405273,-0.8352051,-0.10986328,1584288573618,-7186970480945,0.2591034,3,1
1584288574844,NaN,1.9100448,0.37353516,-0.83984375,-0.13598633,1584288573698,-7186970480945,0.2591034,3,1
1584288574847,NaN,2.6143672,0.39526367,-0.95458984,-0.13623047,1584288573778,-7186970480945,0.2591034,3,1
1584288574850,NaN,3.4181824,0.33447266,-1.0195312,-0.12866211,1584288573858,-7186970480945,0.2591034,3,1
1584288574853,NaN,4.202208,0.29785156,-1.1467285,-0.12036133,1584288573938,-7186970480945,0.2591034,3,1
1584288574857,NaN,4.8954854,0.27514648,-1.1567383,-0.1262207,1584288574018,-7186970480945,0.2591034,3,1
1584288574860,NaN,5.504936,0.375,-1.1640625,-0.21899414,1584288574098,-7186970480945,0.2591034,3,1
1584288574863,NaN,6.008661,0.42260742,-0.9921875,-0.15673828,1584288574178,-7186970480945,0.2591034,3,1
1584288574867,NaN,6.264946,0.46191406,-0.95996094,-0.20629883,1584288574258,-7186970480945,0.2591034,3,1
1584288574870,NaN,6.1529613,0.33691406,-0.99072266,-0.122802734,1584288574338,-7186970480945,0.2591034,3,1
1584288574873,NaN,5.8465896,0.29858398,-0.9416504,-0.03466797,1584288574418,-7186970480945,0.2591034,3,1
1584288574876,NaN,5.3363075,0.24926758,-0.97387695,0.07470703,1584288574498,-7186970480945,0.2591034,3,1
1584288574879,NaN,4.5814166,0.2512207,-0.7897949,0.15625,1584288574578,-7186970480945,0.2591034,3,1
1584288574882,NaN,3.666529,0.14916992,-0.7224121,0.23632812,1584288574658,-7186970480945,0.2591034,3,1
1584288574884,NaN,2.5672185,0.057128906,-0.8132324,0.36450195,1584288574738,-7186970480945,0.2591034,3,1
1584288574887,NaN,1.4949799,0.14526367,-0.935791,0.31079102,1584288574818,-7186970480945,0.2591034,3,1
1584288577165,NaN,0.37785506,0.018310547,-0.842041,0.37963867,1584288574898,5063383455455,0.2591034,3,1
1584288577169,NaN,-0.69909114,0.045898438,-0.9411621,0.3996582,1584288574978,5063383455455,0.2591034,3,1
1584288577171,NaN,-1.933735,-0.023925781,-0.8918457,0.40112305,1584288575058,5063383455455,0.2591034,3,1
1584288577176,NaN,-3.111908,-0.048828125,-0.8911133,0.4008789,1584288575138,5063383455455,0.2591034,3,1
1584288577179,NaN,-4.276847,-0.071777344,-0.89086914,0.421875,1584288575218,5063383455455,0.2591034,3,1
1584288577184,NaN,-5.02582,-0.059326172,-0.93188477,0.40942383,1584288575298,5063383455455,0.2591034,3,1
1584288577187,NaN,-5.530743,-0.036865234,-0.9448242,0.43847656,1584288575378,5063383455455,0.2591034,3,1
1584288577191,NaN,-5.803557,-0.05834961,-0.9328613,0.40966797,1584288575458,5063383455455,0.2591034,3,1
1584288577194,NaN,-5.8506794,-0.016845703,-0.89624023,0.41967773,1584288575538,5063383455455,0.2591034,3,1
1584288577197,NaN,-5.6767807,-0.022460938,-0.8791504,0.4038086,1584288575618,5063383455455,0.2591034,3,1
1584288577200,NaN,-5.261414,-0.024169922,-0.85546875,0.3894043,1584288575698,5063383455455,0.2591034,3,1
1584288577204,NaN,-5.039886,-0.037597656,-0.86938477,0.40429688,1584288575778,5063383455455,0.2591034,3,1
1584288577208,NaN,-4.629695,-0.048095703,-0.90600586,0.43847656,1584288575858,5063383455455,0.2591034,3,1
1584288577211,NaN,-4.194897,-0.028808594,-0.90527344,0.4140625,1584288575938,5063383455455,0.20134366,3,1
1584288577214,NaN,-3.54759,-0.036132812,-0.88549805,0.390625,1584288576018,5063383455455,0.20134366,3,1
1584288577217,NaN,-2.9088,-0.033691406,-0.9016113,0.4169922,1584288576098,5063383455455,0.20134366,3,1
1584288577221,NaN,-2.1692798,-0.05078125,-0.8937988,0.41381836,1584288576178,5063383455455,0.20134366,3,1
1584288577233,NaN,-1.6034187,-0.044189453,-0.87109375,0.42456055,1584288576258,5063383455455,0.20134366,3,1
1584288577234,NaN,-1.1147809,-0.033203125,-0.8977051,0.4284668,1584288576338,5063383455455,0.20134366,3,1
1584288577235,NaN,-0.7611801,-0.0546875,-0.88061523,0.43701172,1584288576418,5063383455455,0.20134366,3,1
1584288577236,NaN,-0.5309369,-0.057617188,-0.8618164,0.43676758,1584288576498,5063383455455,0.20134366,3,1
1584288577238,NaN,-0.41781962,-0.04711914,-0.86499023,0.42382812,1584288576578,5063383455455,0.20134366,3,1
1584288577242,NaN,-0.39370832,-0.027832031,-0.89624023,0.43164062,1584288576658,5063383455455,0.20134366,3,1
1584288577246,NaN,-0.250148,-0.052734375,-0.8996582,0.43725586,1584288576738,5063383455455,0.20134366,3,1
1584288577250,NaN,-0.20247746,-0.048583984,-0.8847656,0.42700195,1584288576818,5063383455455,0.20134366,3,1
1584288577253,NaN,-0.19028293,-0.03100586,-0.85180664,0.45117188,1584288576898,5063383455455,0.20134366,3,1
1584288577255,NaN,-0.22582382,-0.052246094,-0.8564453,0.42138672,1584288576978,5063383455455,0.20134366,3,1
1584288577260,NaN,-0.25085014,-0.020751953,-0.85058594,0.44091797,1584288577058,5063383455455,0.20134366,3,1
1584288577264,NaN,-0.27797073,-0.03491211,-0.8713379,0.43310547,1584288577138,5063383455455,0.18206704,3,1
1584288577267,NaN,-0.2827553,-0.045166016,-0.85058594,0.45581055,1584288577218,5063383455455,0.18206704,3,1
1584288577271,NaN,-0.26791885,-0.04345703,-0.8898926,0.40307617,1584288577298,5063383455455,0.1721806,3,1
1584288577275,NaN,-0.25063232,-0.04321289,-0.9013672,0.4814453,1584288577378,5063383455455,0.1721806,3,1
1584288579751,NaN,-0.16353114,-0.01586914,-0.9699707,0.45214844,1584288577458,-1133288156829,0.10481825,3,1
1584288579757,NaN,-0.13320717,-0.055664062,-0.99731445,0.48486328,1584288577538,-1133288156829,0.08549664,3,1
1584288579762,NaN,-0.18163067,-0.07055664,-0.8527832,0.47998047,1584288577618,-1133288156829,0.14537852,3,1
1584288579768,NaN,-0.16677333,-0.048095703,-0.8718262,0.43115234,1584288577698,-1133288156829,0.14537852,3,1
1584288579773,NaN,-0.20771152,-0.07836914,-0.8894043,0.4736328,1584288577778,-1133288156829,0.14537852,3,1
1584288579777,NaN,-0.19153488,-0.07006836,-0.86279297,0.46777344,1584288577858,-1133288156829,0.14537852,3,1
1584288579781,NaN,-0.19409496,-0.07348633,-0.88012695,0.48266602,1584288577938,-1133288156829,0.14537852,3,1
1584288579784,NaN,-0.20379555,-0.0637207,-0.84643555,0.46289062,1584288578018,-1133288156829,0.14537852,3,1
1584288579789,NaN,-0.22919846,-0.064453125,-0.8845215,0.4794922,1584288578098,-1133288156829,0.14537852,3,1
1584288579794,NaN,-0.1873372,-0.05419922,-0.87353516,0.43554688,1584288578178,-1133288156829,0.14537852,3,1
1584288579800,NaN,-0.22336994,-0.05102539,-0.87597656,0.43652344,1584288578258,-1133288156829,0.14537852,3,1
1584288579803,NaN,-0.18520057,-0.043945312,-0.8989258,0.44018555,1584288578338,-1133288156829,0.14537852,3,1
1584288579807,NaN,-0.25870368,-0.03930664,-0.9038086,0.4416504,1584288578418,-1133288156829,0.14537852,3,1
1584288579810,NaN,-0.26290295,-0.026611328,-0.87231445,0.44091797,1584288578498,-1133288156829,0.14537852,3,1
1584288579813,NaN,-0.15036227,-0.04272461,-0.8720703,0.43188477,1584288578578,-1133288156829,0.14537852,3,1
1584288579816,NaN,-0.15233749,-0.049560547,-0.88427734,0.44555664,1584288578658,-1133288156829,0.14537852,3,1
1584288579820,NaN,-0.09503899,-0.064697266,-0.8779297,0.4506836,1584288578738,-1133288156829,0.14537852,3,1
1584288579823,NaN,-0.062198926,-0.06567383,-0.8688965,0.46191406,1584288578818,-1133288156829,0.14537852,3,1
1584288579825,NaN,-0.018848846,-0.07324219,-0.86865234,0.46899414,1584288578898,-1133288156829,0.14537852,3,1
1584288579828,NaN,0.009299497,-0.079589844,-0.8532715,0.4658203,1584288578978,-1133288156829,0.14537852,3,1
1584288579831,NaN,0.028641915,-0.08935547,-0.8640137,0.47802734,1584288579058,-1133288156829,0.14537852,3,1
1584288579835,NaN,-0.019577734,-0.076416016,-0.8691406,0.4699707,1584288579138,-1133288156829,0.14537852,3,1
1584288579838,NaN,-0.029807536,-0.09350586,-0.87402344,0.4658203,1584288579218,-1133288156829,0.14537852,3,1
1584288579841,NaN,-0.09384999,-0.080566406,-0.8894043,0.4741211,1584288579298,-1133288156829,0.14537852,3,1
1584288579843,NaN,-0.107018076,-0.088134766,-0.89941406,0.46875,1584288579378,-1133288156829,0.14537852,3,1
1584288579847,NaN,-0.14254175,-0.08520508,-0.9172363,0.48632812,1584288579458,-1133288156829,0.14537852,3,1
1584288579850,NaN,-0.23663537,-0.08154297,-0.8828125,0.48413086,1584288579538,-1133288156829,0.14537852,3,1
1584288579853,NaN,-0.26225987,-0.08300781,-0.88549805,0.4724121,1584288579618,-1133288156829,0.14537852,3,1
1584288579856,NaN,-0.30205968,-0.07861328,-0.85180664,0.4633789,1584288579698,-1133288156829,0.14537852,3,1
1584288579859,NaN,-0.31945768,-0.080078125,-0.845459,0.45288086,1584288579778,-1133288156829,0.14537852,3,1
1584288579861,NaN,-0.336417,-0.07885742,-0.85839844,0.47924805,1584288579858,-1133288156829,0.14537852,3,1
1584288579864,NaN,-0.32977536,-0.0703125,-0.8635254,0.4794922,1584288579938,-1133288156829,0.14537852,3,1
1584288582334,NaN,-0.30984828,-0.07495117,-0.8625488,0.484375,1584288580018,-7329678294138,0.14537852,3,1
1584288582342,NaN,-0.28664258,-0.07373047,-0.82958984,0.46411133,1584288580098,-7329678294138,0.14537852,3,1
1584288582347,NaN,-0.23645078,-0.048095703,-0.82666016,0.45141602,1584288580178,-7329678294138,0.057020295,3,1
1584288582352,NaN,-0.20078413,-0.071777344,-0.87939453,0.48339844,1584288580258,-7329678294138,0.06606519,3,1
1584288582356,NaN,-0.1582229,-0.084228516,-0.8864746,0.46020508,1584288580338,-7329678294138,0.06606519,3,1
1584288582361,NaN,-0.14611028,-0.08520508,-0.85180664,0.48950195,1584288580418,-7329678294138,0.06606519,3,1
1584288582367,NaN,-0.08139969,-0.07861328,-0.8820801,0.45361328,1584288580498,-7329678294138,0.06606519,3,1
1584288582370,NaN,-0.062027004,-0.09008789,-0.84375,0.46020508,1584288580578,-7329678294138,0.06606519,3,1
1584288582373,NaN,-0.025062824,-0.0847168,-0.8857422,0.45703125,1584288580658,-7329678294138,0.06606519,3,1
1584288582377,NaN,-0.008392234,-0.07861328,-0.87768555,0.4621582,1584288580738,-7329678294138,0.06606519,3,1
1584288582381,NaN,0.011087448,-0.09082031,-0.83862305,0.44628906,1584288580818,-7329678294138,0.06606519,3,1
1584288582385,NaN,0.020892672,-0.07299805,-0.88500977,0.47460938,1584288580898,-7329678294138,0.06606519,3,1
1584288582390,NaN,0.06211242,-0.056640625,-0.88623047,0.44091797,1584288580978,-7329678294138,0.06606519,3,1
1584288582394,NaN,0.09423802,-0.06225586,-0.8623047,0.4555664,1584288581058,-7329678294138,0.06606519,3,1
1584288582398,NaN,0.10448859,-0.057373047,-0.8640137,0.4296875,1584288581138,-7329678294138,0.06606519,3,1
1584288582403,NaN,0.11089054,-0.072753906,-0.8413086,0.4580078,1584288581218,-7329678294138,0.06606519,3,1
1584288582407,NaN,0.15356402,-0.033203125,-0.8757324,0.4194336,1584288581298,-7329678294138,0.06606519,3,1
1584288582411,NaN,0.22472592,-0.042236328,-0.8823242,0.46655273,1584288581378,-7329678294138,0.06606519,3,1
1584288582414,NaN,0.23917615,-0.037597656,-0.9206543,0.4519043,1584288581458,-7329678294138,0.06606519,3,1
1584288582418,NaN,0.29615474,-0.049560547,-0.8955078,0.44628906,1584288581538,-7329678294138,0.06606519,3,1
1584288582421,NaN,0.2641854,-0.06274414,-0.8845215,0.50341797,1584288581618,-7329678294138,0.06606519,3,1
1584288582425,NaN,0.30590555,-0.055419922,-0.9523926,0.44213867,1584288581698,-7329678294138,0.09173484,3,1
1584288582429,NaN,0.25712183,-0.091552734,-0.8312988,0.51049805,1584288581778,-7329678294138,0.14367421,3,1
1584288582432,NaN,0.24873096,-0.08862305,-0.8647461,0.4489746,1584288581858,-7329678294138,0.14367421,3,1
1584288582436,NaN,0.14042349,-0.0949707,-0.85913086,0.5031738,1584288581938,-7329678294138,0.14367421,3,1
