local_ts,breathing_rate,breathing_signal,accel_x,accel_y,accel_z,bs_timestamp,rs_ts,activity_level,current_exercise,pred_exercise
1584365906114,NaN,0.06351451,0.4272461,-0.83984375,-0.34301758,1584365903352,-6884450847384,0.04300272,1,1
1584365906115,NaN,0.2062763,0.42651367,-0.8461914,-0.3413086,1584365903432,-6884450847384,0.04300272,1,1
1584365906117,NaN,0.32287094,0.43139648,-0.8466797,-0.33691406,1584365903512,-6884450847384,0.04300272,1,1
1584365906135,NaN,0.36662474,0.4423828,-0.84521484,-0.3149414,1584365903592,-6884450847384,0.04300272,1,1
1584365906137,NaN,0.3900654,0.4482422,-0.8491211,-0.30371094,1584365903672,-6884450847384,0.04300272,1,1
1584365906138,NaN,0.3870872,0.4489746,-0.85717773,-0.29077148,1584365903752,-6884450847384,0.04300272,1,1
1584365906160,NaN,0.34041825,0.4555664,-0.85717773,-0.27539062,1584365903832,-6884450847384,0.04300272,1,1
1584365906161,NaN,0.25910845,0.45654297,-0.857666,-0.2644043,1584365903912,-6884450847384,0.04300272,1,1
1584365906162,NaN,0.1451985,0.46289062,-0.85717773,-0.2602539,1584365903992,-6884450847384,0.039686933,1,1
1584365906163,NaN,0.016404917,0.45214844,-0.85913086,-0.25927734,1584365904072,-6884450847384,0.039686933,1,1
1584365906164,37.5,-0.1131411,0.44995117,-0.85009766,-0.26953125,1584365904152,-6884450847384,0.039686933,1,1
1584365906166,NaN,-0.24253225,0.44702148,-0.86376953,-0.27807617,1584365904232,-6884450847384,0.039686933,1,1
1584365906167,NaN,-0.3577964,0.44555664,-0.8581543,-0.2919922,1584365904312,-6884450847384,0.039686933,1,1
1584365906189,NaN,-0.45552802,0.44311523,-0.8552246,-0.29858398,1584365904392,-6884450847384,0.039686933,1,1
1584365906190,NaN,-0.5297724,0.45092773,-0.8520508,-0.30615234,1584365904472,-6884450847384,0.030705476,1,1
1584365906191,NaN,-0.5385429,0.4489746,-0.83984375,-0.30908203,1584365904552,-6884450847384,0.027863067,1,1
1584365906193,NaN,-0.48044062,0.40820312,-0.83813477,-0.33691406,1584365904632,-6884450847384,0.049394906,1,1
1584365906194,NaN,-0.36625537,0.39990234,-0.84643555,-0.37695312,1584365904712,-6884450847384,0.049394906,1,1
1584365906195,NaN,-0.23787625,0.41308594,-0.8442383,-0.36376953,1584365904792,-6884450847384,0.049394906,1,1
1584365906196,NaN,-0.10924532,0.42944336,-0.84643555,-0.34594727,1584365904872,-6884450847384,0.049394906,1,1
1584365906197,NaN,0.036172226,0.41967773,-0.83691406,-0.33691406,1584365904952,-6884450847384,0.049394906,1,1
1584365906198,NaN,0.18126146,0.41577148,-0.8569336,-0.34179688,1584365905032,-6884450847384,0.049394906,1,1
1584365906200,NaN,0.31388426,0.4111328,-0.85424805,-0.34399414,1584365905112,-6884450847384,0.049394906,1,1
1584365906203,NaN,0.43210304,0.41870117,-0.8483887,-0.34326172,1584365905192,-6884450847384,0.049394906,1,1
1584365906207,NaN,0.51730645,0.42407227,-0.85058594,-0.33398438,1584365905272,-6884450847384,0.049394906,1,1
1584365906210,NaN,0.5826213,0.4309082,-0.8425293,-0.32763672,1584365905352,-6884450847384,0.049394906,1,1
1584365906213,NaN,0.64005065,0.42993164,-0.8383789,-0.3305664,1584365905432,-6884450847384,0.049394906,1,1
1584365906216,NaN,0.6517863,0.44262695,-0.8520508,-0.31469727,1584365905512,-6884450847384,0.049394906,1,1
1584365906219,NaN,0.5836204,0.4477539,-0.8417969,-0.31958008,1584365905592,-6884450847384,0.049394906,1,1
1584365906225,NaN,0.42695293,0.44506836,-0.84716797,-0.29907227,1584365905672,-6884450847384,0.049394906,1,1
1584365906229,NaN,0.2847185,0.45483398,-0.84350586,-0.30297852,1584365905752,-6884450847384,0.049394906,1,1
1584365906232,NaN,0.1570647,0.45581055,-0.85058594,-0.28271484,1584365905832,-6884450847384,0.049394906,1,1
1584365908686,NaN,0.032770116,0.4567871,-0.85058594,-0.28930664,1584365905912,5293845494978,0.049394906,1,1
1584365908692,NaN,-0.093510635,0.45507812,-0.8461914,-0.29052734,1584365905992,5293845494978,0.049394906,1,1
1584365908699,31.25,-0.21492307,0.45703125,-0.8469238,-0.2956543,1584365906072,5293845494978,0.049394906,1,1
1584365908703,NaN,-0.31968027,0.44628906,-0.85546875,-0.296875,1584365906152,5293845494978,0.049394906,1,1
1584365908708,NaN,-0.39502928,0.45263672,-0.8474121,-0.2998047,1584365906232,5293845494978,0.049394906,1,1
1584365908712,NaN,-0.44197968,0.4489746,-0.8469238,-0.31030273,1584365906312,5293845494978,0.049394906,1,1
1584365908716,NaN,-0.48875996,0.4494629,-0.84277344,-0.31445312,1584365906392,5293845494978,0.049394906,1,1
1584365908720,NaN,-0.49437103,0.45166016,-0.84375,-0.31835938,1584365906472,5293845494978,0.049394906,1,1
1584365908724,NaN,-0.4625319,0.44702148,-0.8444824,-0.32421875,1584365906552,5293845494978,0.049394906,1,1
1584365908728,NaN,-0.3681978,0.44555664,-0.8383789,-0.32617188,1584365906632,5293845494978,0.049394906,1,1
1584365908733,NaN,-0.28811276,0.44799805,-0.84399414,-0.32641602,1584365906712,5293845494978,0.049394906,1,1
1584365908737,NaN,-0.19244401,0.4416504,-0.83813477,-0.32763672,1584365906792,5293845494978,0.049394906,1,1
1584365908741,NaN,-0.10630738,0.44677734,-0.84106445,-0.33251953,1584365906872,5293845494978,0.049394906,1,1
1584365908744,NaN,-0.020633057,0.44506836,-0.8391113,-0.3310547,1584365906952,5293845494978,0.049394906,1,1
1584365908747,NaN,0.06528938,0.44018555,-0.8388672,-0.3317871,1584365907032,5293845494978,0.049394906,1,1
1584365908751,NaN,0.14343822,0.43823242,-0.8413086,-0.33666992,1584365907112,5293845494978,0.049394906,1,1
1584365908754,NaN,0.20572977,0.4453125,-0.84033203,-0.33154297,1584365907192,5293845494978,0.041724484,1,1
1584365908757,NaN,0.23337837,0.44799805,-0.8388672,-0.31958008,1584365907272,5293845494978,0.024493279,1,1
1584365908760,NaN,0.25330958,0.4543457,-0.8432617,-0.31762695,1584365907352,5293845494978,0.024493279,1,1
1584365908763,NaN,0.23303382,0.45825195,-0.84472656,-0.29370117,1584365907432,5293845494978,0.024493279,1,1
1584365908767,NaN,0.18961489,0.46069336,-0.85498047,-0.27783203,1584365907512,5293845494978,0.024493279,1,1
1584365908770,NaN,0.11286531,0.47143555,-0.8520508,-0.26367188,1584365907592,5293845494978,0.024493279,1,1
1584365908773,NaN,0.038873374,0.46264648,-0.8520508,-0.2607422,1584365907672,5293845494978,0.024493279,1,1
1584365908777,NaN,-0.062467482,0.46850586,-0.8430176,-0.25708008,1584365907752,5293845494978,0.024493279,1,1
1584365908781,34.090908,-0.149698,0.46289062,-0.8522949,-0.2722168,1584365907832,5293845494978,0.024493279,1,1
1584365908785,NaN,-0.22214383,0.45581055,-0.8581543,-0.28588867,1584365907912,5293845494978,0.024493279,1,1
1584365908788,NaN,-0.29073867,0.45654297,-0.84936523,-0.2932129,1584365907992,5293845494978,0.024493279,1,1
1584365908791,NaN,-0.35328242,0.44702148,-0.8522949,-0.3022461,1584365908072,5293845494978,0.024286777,1,1
1584365908795,NaN,-0.40200648,0.44628906,-0.8444824,-0.30249023,1584365908152,5293845494978,0.024286777,1,1
1584365908801,NaN,-0.41629502,0.44921875,-0.84643555,-0.31201172,1584365908232,5293845494978,0.024286777,1,1
1584365908803,NaN,-0.41523227,0.44921875,-0.8432617,-0.31713867,1584365908312,5293845494978,0.024286777,1,1
1584365908807,NaN,-0.37618372,0.4399414,-0.8486328,-0.3100586,1584365908392,5293845494978,0.024286777,1,1
1584365911070,NaN,-0.29668236,0.44506836,-0.8430176,-0.32250977,1584365908472,-902826117306,0.024286777,1,1
1584365911075,NaN,-0.18772705,0.45141602,-0.8388672,-0.3232422,1584365908552,-902826117306,0.024286777,1,1
1584365911080,NaN,-0.07765072,0.44458008,-0.83984375,-0.32592773,1584365908632,-902826117306,0.024286777,1,1
1584365911086,NaN,0.04946472,0.44311523,-0.83984375,-0.3317871,1584365908712,-902826117306,0.024286777,1,1
1584365911090,NaN,0.14861391,0.44628906,-0.84106445,-0.32763672,1584365908792,-902826117306,0.024286777,1,1
1584365911094,NaN,0.22862518,0.43481445,-0.84228516,-0.32983398,1584365908872,-902826117306,0.024286777,1,1
1584365911102,NaN,0.29718947,0.4423828,-0.84033203,-0.33032227,1584365908952,-902826117306,0.024286777,1,1
1584365911107,NaN,0.34904978,0.4440918,-0.83935547,-0.32958984,1584365909032,-902826117306,0.024286777,1,1
1584365911112,NaN,0.3870186,0.44335938,-0.84399414,-0.32226562,1584365909112,-902826117306,0.024286777,1,1
1584365911115,NaN,0.3956207,0.4416504,-0.83813477,-0.3100586,1584365909192,-902826117306,0.024286777,1,1
1584365911119,NaN,0.40314916,0.46166992,-0.84033203,-0.33496094,1584365909272,-902826117306,0.032027118,1,1
1584365911122,NaN,0.40508676,0.44604492,-0.8762207,-0.34423828,1584365909352,-902826117306,0.040226936,1,1
1584365911125,NaN,0.38896534,0.4411621,-0.8544922,-0.3540039,1584365909432,-902826117306,0.040226936,1,1
1584365911129,NaN,0.4322786,0.3474121,-0.85595703,-0.4038086,1584365909512,-902826117306,0.10616834,1,1
1584365911132,NaN,0.45173863,0.35742188,-0.88061523,-0.3894043,1584365909592,-902826117306,0.10616834,1,1
1584365911136,NaN,0.4226657,0.36132812,-0.8659668,-0.34277344,1584365909672,-902826117306,0.10616834,1,1
1584365911140,NaN,0.34214887,0.38671875,-0.85961914,-0.25610352,1584365909752,-902826117306,0.10616834,1,1
1584365911143,NaN,0.26367107,0.39135742,-0.85424805,-0.2602539,1584365909832,-902826117306,0.10616834,1,1
1584365911146,NaN,0.21784133,0.35498047,-0.8625488,-0.2758789,1584365909912,-902826117306,0.10616834,1,1
1584365911150,NaN,0.15054037,0.36669922,-0.94311523,-0.25219727,1584365909992,-902826117306,0.10616834,1,1
1584365911153,NaN,0.066928454,0.4650879,-0.876709,-0.24658203,1584365910072,-902826117306,0.118834555,1,1
1584365911156,NaN,0.0067600706,0.4152832,-0.87646484,-0.2277832,1584365910152,-902826117306,0.118834555,1,1
1584365911160,NaN,-0.07858582,0.40795898,-0.92578125,-0.22631836,1584365910232,-902826117306,0.118834555,1,1
1584365911163,24.193548,-0.19777246,0.4182129,-0.90356445,-0.2084961,1584365910312,-902826117306,0.118834555,1,1
1584365911166,NaN,-0.33511472,0.33081055,-0.9433594,-0.18286133,1584365910392,-902826117306,0.118834555,1,1
1584365911170,NaN,-0.62814593,0.32543945,-0.9682617,-0.16137695,1584365910472,-902826117306,0.118834555,1,1
1584365911173,NaN,-0.9161744,0.3305664,-0.9326172,-0.118652344,1584365910552,-902826117306,0.118834555,1,1
1584365911176,NaN,-1.1558925,0.3232422,-0.92285156,-0.083984375,1584365910632,-902826117306,0.118834555,1,1
1584365911180,NaN,-1.2729684,0.3203125,-0.9030762,-0.059570312,1584365910712,-902826117306,0.118834555,1,1
1584365911182,NaN,-1.4225549,0.31054688,-0.9440918,-0.0234375,1584365910792,-902826117306,0.118834555,1,1
1584365911187,NaN,-1.5956888,0.29223633,-0.92871094,-0.04345703,1584365910872,-902826117306,0.118834555,1,1
1584365911188,NaN,-1.7577635,0.32177734,-0.9538574,0.007080078,1584365910952,-902826117306,0.118834555,1,1
1584365913657,NaN,-1.915483,0.25390625,-0.9477539,0.044189453,1584365911032,-7099216254614,0.118834555,1,1
1584365913664,NaN,-2.0960958,0.21582031,-0.97558594,0.06689453,1584365911112,-7099216254614,0.118834555,1,1
1584365913668,NaN,-2.2728348,0.16674805,-0.9831543,0.08129883,1584365911192,-7099216254614,0.118834555,1,1
1584365913674,NaN,-2.4324882,0.10620117,-0.96118164,0.092041016,1584365911272,-7099216254614,0.118834555,1,1
1584365913678,NaN,-2.5579643,0.060546875,-0.9904785,0.0859375,1584365911352,-7099216254614,0.118834555,1,1
1584365913684,NaN,-2.572242,0.107421875,-1.0151367,0.0715332,1584365911432,-7099216254614,0.118834555,1,1
1584365913686,NaN,-2.5299892,0.13916016,-0.98217773,0.06323242,1584365911512,-7099216254614,0.118834555,1,1
1584365913689,NaN,-2.5138369,0.15014648,-0.96484375,0.119140625,1584365911592,-7099216254614,0.118834555,1,1
1584365913693,NaN,-2.4814632,0.14282227,-1.0192871,0.05419922,1584365911672,-7099216254614,0.118834555,1,1
1584365913697,NaN,-2.454403,0.14746094,-0.9321289,0.14135742,1584365911752,-7099216254614,0.123347566,1,1
1584365913703,NaN,-2.439747,0.026855469,-1.0126953,0.109375,1584365911832,-7099216254614,0.1485244,1,1
1584365913706,NaN,-2.454744,0.05834961,-0.9316406,0.21459961,1584365911912,-7099216254614,0.1485244,1,1
1584365913711,NaN,-2.3095129,0.13916016,-0.9995117,0.115478516,1584365911992,-7099216254614,0.1485244,1,1
1584365913714,NaN,-2.140651,0.3244629,-1.0083008,0.19213867,1584365912072,-7099216254614,0.20072651,1,1
1584365913717,NaN,-1.9641981,0.3635254,-0.9099121,0.22924805,1584365912152,-7099216254614,0.20072651,1,1
1584365913720,NaN,-1.7485772,0.3022461,-0.96191406,0.19799805,1584365912232,-7099216254614,0.20072651,1,1
1584365913724,NaN,-1.6102873,0.22241211,-0.8745117,0.2409668,1584365912312,-7099216254614,0.20072651,1,1
1584365913727,NaN,-1.5043577,0.17041016,-0.9033203,0.20581055,1584365912392,-7099216254614,0.20072651,1,1
1584365913730,NaN,-1.3214699,0.18432617,-1.0197754,0.06323242,1584365912472,-7099216254614,0.20072651,1,1
1584365913733,NaN,-1.2105203,0.12988281,-0.9111328,0.20361328,1584365912552,-7099216254614,0.20072651,1,1
1584365913736,NaN,-1.1314038,0.080322266,-1.0075684,0.083984375,1584365912632,-7099216254614,0.20072651,1,1
1584365913740,NaN,-0.97672695,0.03515625,-1.0192871,0.12963867,1584365912712,-7099216254614,0.20072651,1,1
1584365913742,NaN,-0.7944894,0.017333984,-1.0170898,0.09326172,1584365912792,-7099216254614,0.20072651,1,1
1584365913747,NaN,-0.4703628,0.061279297,-1.0090332,0.096191406,1584365912872,-7099216254614,0.20072651,1,1
1584365913750,NaN,-0.35842654,0.11450195,-1.0422363,0.07421875,1584365912952,-7099216254614,0.20072651,1,1
1584365913754,NaN,-0.22293107,0.24487305,-0.9484863,0.083496094,1584365913032,-7099216254614,0.20072651,1,1
1584365913757,NaN,-0.015337278,0.32592773,-0.94091797,0.060302734,1584365913112,-7099216254614,0.20072651,1,1
1584365913761,NaN,0.090849005,0.39916992,-0.90649414,0.13769531,1584365913192,-7099216254614,0.20072651,1,1
1584365913764,NaN,0.34600273,0.33544922,-0.9304199,0.08154297,1584365913272,-7099216254614,0.20072651,1,1
1584365913768,NaN,0.4930675,0.23828125,-0.94873047,0.17407227,1584365913352,-7099216254614,0.20072651,1,1
1584365913772,NaN,0.40881446,0.19213867,-0.9465332,0.1496582,1584365913432,-7099216254614,0.20072651,1,1
1584365913776,NaN,0.6499054,0.17333984,-1.0268555,0.017089844,1584365913512,-7099216254614,0.20072651,1,1
1584365916239,NaN,0.6495697,0.14990234,-0.9394531,0.14453125,1584365913592,5151137681786,0.20072651,1,1
1584365916245,NaN,0.7321339,0.0703125,-1.0014648,0.040771484,1584365913672,5151137681786,0.20072651,1,1
1584365916252,NaN,0.7237046,0.026123047,-1.0163574,0.091796875,1584365913752,5151137681786,0.20072651,1,1
1584365916260,NaN,0.61134386,0.008544922,-0.97802734,0.09423828,1584365913832,5151137681786,0.20072651,1,1
1584365916265,NaN,0.49071908,0.059326172,-1.0180664,0.16918945,1584365913912,5151137681786,0.20072651,1,1
1584365916267,NaN,0.28659928,-0.0637207,-0.9938965,0.17089844,1584365913992,5151137681786,0.20072651,1,1
1584365916271,NaN,-0.06785849,-0.1418457,-0.90844727,0.18457031,1584365914072,5151137681786,0.20072651,1,1
1584365916274,NaN,-0.31445724,-0.091552734,-0.9140625,0.18334961,1584365914152,5151137681786,0.20072651,1,1
1584365916277,15.306123,-0.70208883,-0.15307617,-0.90722656,0.16967773,1584365914232,5151137681786,0.20072651,1,1
1584365916281,NaN,-0.74970555,-0.13183594,-0.9238281,0.026611328,1584365914312,5151137681786,0.20072651,1,1
1584365916284,NaN,NaN,0.21435547,-1.1230469,0.26098633,1584365914392,5151137681786,0.46310717,1,1
1584365916289,NaN,NaN,0.15332031,-0.82421875,0.055908203,1584365914472,5151137681786,0.46310717,1,1
1584365916292,NaN,NaN,0.1640625,-0.9304199,0.14624023,1584365914552,5151137681786,0.46310717,1,1
1584365916295,NaN,NaN,0.24291992,-0.8823242,0.014160156,1584365914632,5151137681786,0.46310717,1,1
1584365916299,NaN,NaN,0.17504883,-0.9790039,-0.009521484,1584365914712,5151137681786,0.46310717,1,1
1584365916302,NaN,NaN,0.25561523,-1.0424805,-0.12524414,1584365914792,5151137681786,0.46310717,1,1
1584365916305,NaN,NaN,0.07885742,-0.96435547,-0.05126953,1584365914872,5151137681786,0.46310717,1,1
1584365916308,NaN,NaN,0.059814453,-1.0019531,-0.13232422,1584365914952,5151137681786,0.46310717,1,1
1584365916311,NaN,NaN,0.08569336,-1.0314941,-0.087890625,1584365915032,5151137681786,0.46310717,1,1
1584365916314,NaN,NaN,-0.007080078,-1.0209961,-0.13110352,1584365915112,5151137681786,0.46310717,1,1
1584365916317,NaN,NaN,0.044677734,-1.0847168,-0.040771484,1584365915192,5151137681786,0.46310717,1,1
1584365916320,NaN,NaN,-0.0048828125,-1.0961914,0.05834961,1584365915272,5151137681786,0.46310717,1,1
1584365916324,NaN,NaN,-0.029296875,-1.1364746,0.18945312,1584365915352,5151137681786,0.46310717,1,1
1584365916327,NaN,NaN,-0.016601562,-1.0825195,0.19042969,1584365915432,5151137681786,0.46310717,1,1
1584365916329,NaN,NaN,-0.08081055,-0.8703613,0.27612305,1584365915512,5151137681786,0.46310717,1,1
1584365916332,NaN,NaN,-0.119628906,-0.85375977,0.34960938,1584365915592,5151137681786,0.46310717,1,1
1584365916335,NaN,NaN,-0.09741211,-0.95336914,0.35424805,1584365915672,5151137681786,0.46310717,1,1
1584365916338,NaN,NaN,-0.13793945,-0.9626465,0.3840332,1584365915752,5151137681786,0.46310717,1,1
1584365916341,NaN,NaN,-0.15991211,-0.8305664,0.37963867,1584365915832,5151137681786,0.46310717,1,1
1584365916343,NaN,NaN,-0.10620117,-0.82006836,0.4411621,1584365915912,5151137681786,0.46310717,1,1
1584365916346,NaN,NaN,-0.091796875,-0.9255371,0.44555664,1584365915992,5151137681786,0.46310717,1,1
1584365916349,NaN,NaN,-0.15234375,-0.87841797,0.5004883,1584365916072,5151137681786,0.46310717,1,1
1584365919019,NaN,NaN,-0.1496582,-0.79785156,0.47509766,1584365916152,-1045533930498,0.46310717,1,1
1584365919025,NaN,NaN,-0.22290039,-0.8190918,0.53759766,1584365916232,-1045533930498,0.46310717,1,1
1584365919030,NaN,NaN,-0.25976562,-0.80200195,0.5415039,1584365916312,-1045533930498,0.46310717,1,1
1584365919036,NaN,NaN,-0.21264648,-0.8261719,0.5349121,1584365916392,-1045533930498,0.46310717,1,1
1584365919041,NaN,NaN,-0.20385742,-0.8125,0.5239258,1584365916472,-1045533930498,0.46310717,1,1
1584365919044,NaN,NaN,-0.21411133,-0.8161621,0.53515625,1584365916552,-1045533930498,0.46310717,1,1
1584365919047,NaN,NaN,-0.25561523,-0.79956055,0.54003906,1584365916632,-1045533930498,0.46310717,1,1
1584365919051,NaN,NaN,-0.2734375,-0.7792969,0.56811523,1584365916712,-1045533930498,0.46310717,1,1
1584365919055,NaN,NaN,-0.27734375,-0.7495117,0.5769043,1584365916792,-1045533930498,0.46310717,1,1
1584365919058,NaN,NaN,-0.25634766,-0.76342773,0.5827637,1584365916872,-1045533930498,0.46310717,1,1
1584365919061,NaN,NaN,-0.25048828,-0.74902344,0.5690918,1584365916952,-1045533930498,0.3675331,1,1
1584365919065,NaN,-1.1645722,-0.24975586,-0.7668457,0.5710449,1584365917032,-1045533930498,0.23764943,1,1
1584365919069,NaN,-1.9643373,-0.27124023,-0.7553711,0.5969238,1584365917112,-1045533930498,0.23764943,1,1
1584365919072,NaN,-2.4741447,-0.28100586,-0.7397461,0.61206055,1584365917192,-1045533930498,0.23764943,1,1
1584365919076,NaN,-3.1378515,-0.26586914,-0.7480469,0.5854492,1584365917272,-1045533930498,0.23764943,1,1
1584365919079,NaN,-3.6996286,-0.24389648,-0.74243164,0.6184082,1584365917352,-1045533930498,0.23764943,1,1
1584365919084,NaN,-4.225432,-0.23852539,-0.7351074,0.61206055,1584365917432,-1045533930498,0.23764943,1,1
1584365919087,NaN,-4.656944,-0.23706055,-0.7453613,0.6159668,1584365917512,-1045533930498,0.23764943,1,1
1584365919090,NaN,-4.962805,-0.22436523,-0.7541504,0.60668945,1584365917592,-1045533930498,0.23764943,1,1
1584365919094,NaN,-5.11667,-0.2253418,-0.7194824,0.6022949,1584365917672,-1045533930498,0.23764943,1,1
1584365919097,NaN,-5.317659,-0.21240234,-0.73876953,0.6064453,1584365917752,-1045533930498,0.23764943,1,1
1584365919100,NaN,-5.4771156,-0.26171875,-0.73828125,0.6340332,1584365917832,-1045533930498,0.23764943,1,1
1584365919104,NaN,-5.9269576,-0.24414062,-0.7561035,0.6257324,1584365917912,-1045533930498,0.23764943,1,1
1584365919106,NaN,-5.490357,-0.24536133,-0.7216797,0.62231445,1584365917992,-1045533930498,0.23764943,1,1
1584365919110,NaN,-4.8864245,-0.2800293,-0.72998047,0.62475586,1584365918072,-1045533930498,0.13396737,1,1
1584365919113,NaN,-4.3726606,-0.30664062,-0.7080078,0.6274414,1584365918152,-1045533930498,0.13396737,1,1
1584365919116,NaN,-3.8375654,-0.31640625,-0.7104492,0.60913086,1584365918232,-1045533930498,0.13396737,1,1
1584365919120,NaN,-3.3257735,-0.30810547,-0.7036133,0.6237793,1584365918312,-1045533930498,0.13396737,1,1
1584365919122,NaN,-2.8491077,-0.32104492,-0.70043945,0.6328125,1584365918392,-1045533930498,0.106538504,1,1
1584365919125,NaN,-2.3882275,-0.3017578,-0.70043945,0.63842773,1584365918472,-1045533930498,0.106538504,1,1
1584365919128,NaN,-2.0225818,-0.2956543,-0.6994629,0.65112305,1584365918552,-1045533930498,0.09859927,1,1
1584365919131,NaN,-1.6938375,-0.28222656,-0.7026367,0.6401367,1584365918632,-1045533930498,0.09859927,1,1
1584365921406,NaN,-1.3706007,-0.27929688,-0.69555664,0.6315918,1584365918712,-7241924067807,0.09859927,1,1
1584365921410,NaN,-1.0048763,-0.29589844,-0.72021484,0.6435547,1584365918792,-7241924067807,0.05651051,1,1
1584365921415,NaN,-0.6050592,-0.27661133,-0.6972656,0.6477051,1584365918872,-7241924067807,0.05651051,1,1
1584365921422,NaN,-0.6116727,-0.30664062,-0.6777344,0.6413574,1584365918952,-7241924067807,0.05651051,1,1
1584365921426,NaN,-0.6282775,-0.30371094,-0.69189453,0.66137695,1584365919032,-7241924067807,0.05651051,1,1
1584365921429,NaN,-0.6053578,-0.31469727,-0.7023926,0.638916,1584365919112,-7241924067807,0.05651051,1,1
1584365921433,NaN,-0.573662,-0.29760742,-0.6867676,0.6345215,1584365919192,-7241924067807,0.05651051,1,1
1584365921436,NaN,-0.53306,-0.28149414,-0.68725586,0.63720703,1584365919272,-7241924067807,0.05651051,1,1
1584365921439,NaN,-0.50937897,-0.31298828,-0.6665039,0.67163086,1584365919352,-7241924067807,0.05651051,1,1
1584365921442,NaN,-0.47175512,-0.30126953,-0.6623535,0.6376953,1584365919432,-7241924067807,0.05651051,1,1
1584365921447,NaN,-0.41877446,-0.29858398,-0.65844727,0.6516113,1584365919512,-7241924067807,0.05651051,1,1
1584365921451,NaN,-0.401698,-0.30493164,-0.68359375,0.6657715,1584365919592,-7241924067807,0.05651051,1,1
1584365921455,NaN,-0.35566294,-0.2788086,-0.68969727,0.65625,1584365919672,-7241924067807,0.05651051,1,1
1584365921459,NaN,-0.32810676,-0.2709961,-0.7077637,0.64575195,1584365919752,-7241924067807,0.05651051,1,1
1584365921463,NaN,-0.25757048,-0.24926758,-0.70410156,0.6467285,1584365919832,-7241924067807,0.05651051,1,1
1584365921467,NaN,-0.14858161,-0.24389648,-0.7158203,0.62646484,1584365919912,-7241924067807,0.05651051,1,1
1584365921471,NaN,-0.031964336,-0.25024414,-0.75097656,0.63183594,1584365919992,-7241924067807,0.05651051,1,1
1584365921475,NaN,0.039698493,-0.25,-0.7324219,0.5996094,1584365920072,-7241924067807,0.05651051,1,1
1584365921479,NaN,0.16267471,-0.22387695,-0.7819824,0.59106445,1584365920152,-7241924067807,0.05667166,1,1
1584365921482,NaN,0.27741513,-0.21264648,-0.78271484,0.5805664,1584365920232,-7241924067807,0.05667166,1,1
1584365921485,NaN,0.45435607,-0.23486328,-0.78344727,0.5793457,1584365920312,-7241924067807,0.05667166,1,1
1584365921488,NaN,0.56800354,-0.24609375,-0.7548828,0.5998535,1584365920392,-7241924067807,0.05667166,1,1
1584365921491,NaN,0.68257207,-0.27026367,-0.75390625,0.6015625,1584365920472,-7241924067807,0.05667166,1,1
1584365921493,NaN,0.78155255,-0.29370117,-0.74853516,0.61157227,1584365920552,-7241924067807,0.05667166,1,1
1584365921497,NaN,0.84838134,-0.2590332,-0.7351074,0.6176758,1584365920632,-7241924067807,0.05667166,1,1
1584365921501,NaN,0.8525668,-0.29711914,-0.7084961,0.61865234,1584365920712,-7241924067807,0.05667166,1,1
1584365921504,NaN,0.8120043,-0.31347656,-0.69628906,0.6430664,1584365920792,-7241924067807,0.05667166,1,1
1584365921507,NaN,0.7016209,-0.29638672,-0.66137695,0.6435547,1584365920872,-7241924067807,0.05667166,1,1
1584365921510,NaN,0.5597293,-0.30859375,-0.68847656,0.6657715,1584365920952,-7241924067807,0.05667166,1,1
1584365921514,NaN,0.4169364,-0.3005371,-0.6809082,0.6699219,1584365921032,-7241924067807,0.05667166,1,1
1584365921517,NaN,0.1957016,-0.27197266,-0.66552734,0.65966797,1584365921112,-7241924067807,0.05667166,1,1
1584365921520,NaN,-0.048178297,-0.27661133,-0.6623535,0.6687012,1584365921192,-7241924067807,0.05667166,1,1
1584365923989,NaN,-0.30958858,-0.265625,-0.6657715,0.6628418,1584365921272,5008429868593,0.05667166,1,1
1584365923995,NaN,-0.4970546,-0.2709961,-0.6567383,0.6604004,1584365921352,5008429868593,0.05667166,1,1
1584365924000,NaN,-0.66743493,-0.27612305,-0.6813965,0.6777344,1584365921432,5008429868593,0.05667166,1,1
1584365924005,NaN,-0.807522,-0.28295898,-0.6789551,0.6850586,1584365921512,5008429868593,0.05667166,1,1
1584365924012,NaN,-0.9341062,-0.2841797,-0.66625977,0.66918945,1584365921592,5008429868593,0.05667166,1,1
1584365924017,NaN,-0.98749375,-0.29101562,-0.6672363,0.6743164,1584365921672,5008429868593,0.05667166,1,1
1584365924024,NaN,-0.97442365,-0.28076172,-0.66552734,0.6557617,1584365921752,5008429868593,0.05667166,1,1
1584365924030,NaN,-0.9108224,-0.27978516,-0.68652344,0.6772461,1584365921832,5008429868593,0.05667166,1,1
1584365924036,NaN,-0.83815193,-0.2849121,-0.66967773,0.66064453,1584365921912,5008429868593,0.05667166,1,1
1584365924041,NaN,-0.7339588,-0.2763672,-0.7055664,0.6743164,1584365921992,5008429868593,0.05667166,1,1
1584365924045,NaN,-0.61105424,-0.28076172,-0.68359375,0.66503906,1584365922072,5008429868593,0.05667166,1,1
1584365924050,NaN,-0.43856427,-0.26733398,-0.69799805,0.6430664,1584365922152,5008429868593,0.05667166,1,1
1584365924054,NaN,-0.2890258,-0.25561523,-0.70288086,0.65527344,1584365922232,5008429868593,0.05667166,1,1
1584365924058,NaN,-0.15401395,-0.24121094,-0.69970703,0.6542969,1584365922312,5008429868593,0.05667166,1,1
1584365924062,NaN,-0.029593566,-0.24194336,-0.7114258,0.6503906,1584365922392,5008429868593,0.05667166,1,1
1584365924065,NaN,0.103960015,-0.24487305,-0.7211914,0.6381836,1584365922472,5008429868593,0.05667166,1,1
1584365924069,NaN,0.25926706,-0.23266602,-0.74609375,0.6376953,1584365922552,5008429868593,0.05667166,1,1
1584365924072,NaN,0.37920013,-0.23901367,-0.72436523,0.63500977,1584365922632,5008429868593,0.05667166,1,1
1584365924076,NaN,0.4173716,-0.25048828,-0.7023926,0.6711426,1584365922712,5008429868593,0.04647209,1,1
1584365924079,NaN,0.40701428,-0.29174805,-0.6743164,0.66381836,1584365922792,5008429868593,0.050440896,1,1
1584365924083,NaN,0.4082255,-0.32739258,-0.689209,0.6520996,1584365922872,5008429868593,0.050440896,1,1
1584365924087,NaN,0.37830243,-0.31640625,-0.6887207,0.642334,1584365922952,5008429868593,0.050440896,1,1
1584365924092,NaN,0.34354714,-0.32104492,-0.65185547,0.65771484,1584365923032,5008429868593,0.050440896,1,1
1584365924096,NaN,0.23566921,-0.3425293,-0.6496582,0.6760254,1584365923112,5008429868593,0.050440896,1,1
1584365924099,NaN,0.11936853,-0.3256836,-0.6164551,0.6777344,1584365923192,5008429868593,0.050440896,1,1
1584365924103,NaN,0.0050405017,-0.31762695,-0.6296387,0.6672363,1584365923272,5008429868593,0.050440896,1,1
1584365924107,NaN,-0.1122668,-0.30688477,-0.6616211,0.6960449,1584365923352,5008429868593,0.050440896,1,1
1584365924112,NaN,-0.2625195,-0.30297852,-0.64331055,0.68481445,1584365923432,5008429868593,0.050440896,1,1
1584365924115,NaN,-0.42557678,-0.2763672,-0.6635742,0.6738281,1584365923512,5008429868593,0.050440896,1,1
1584365924120,NaN,-0.56449836,-0.26708984,-0.6672363,0.68530273,1584365923592,5008429868593,0.050440896,1,1
1584365924123,NaN,-0.62731165,-0.27856445,-0.6652832,0.68237305,1584365923672,5008429868593,0.050440896,1,1
1584365924126,NaN,-0.63771695,-0.27807617,-0.657959,0.685791,1584365923752,5008429868593,0.050440896,1,1
1584365926574,NaN,-0.6391816,-0.2854004,-0.6809082,0.67529297,1584365923832,-1188241743691,0.050440896,1,1
1584365926581,NaN,-0.6512676,-0.28320312,-0.6604004,0.6738281,1584365923912,-1188241743691,0.050440896,1,1
1584365926588,NaN,-0.6145686,-0.29785156,-0.6621094,0.67285156,1584365923992,-1188241743691,0.050440896,1,1
1584365926596,NaN,-0.52080303,-0.30273438,-0.66430664,0.6755371,1584365924072,-1188241743691,0.050440896,1,1
1584365926605,NaN,-0.40475932,-0.29125977,-0.6489258,0.68310547,1584365924152,-1188241743691,0.050440896,1,1
1584365926609,NaN,-0.30228624,-0.28222656,-0.66748047,0.6843262,1584365924232,-1188241743691,0.050440896,1,1
1584365926614,NaN,-0.20183764,-0.26293945,-0.66845703,0.6801758,1584365924312,-1188241743691,0.050440896,1,1
1584365926619,NaN,-0.09954115,-0.2758789,-0.6542969,0.6906738,1584365924392,-1188241743691,0.050440896,1,1
1584365926623,NaN,-0.019461917,-0.27294922,-0.66552734,0.6838379,1584365924472,-1188241743691,0.050440896,1,1
1584365926627,NaN,0.070053555,-0.25756836,-0.6833496,0.6669922,1584365924552,-1188241743691,0.050440896,1,1
1584365926631,NaN,0.1302384,-0.24804688,-0.68530273,0.68188477,1584365924632,-1188241743691,0.050440896,1,1
1584365926635,NaN,0.16989647,-0.24975586,-0.67871094,0.6801758,1584365924712,-1188241743691,0.050440896,1,1
1584365926638,NaN,0.17153214,-0.26220703,-0.6809082,0.68896484,1584365924792,-1188241743691,0.050440896,1,1
1584365926641,NaN,0.22306436,-0.26098633,-0.6916504,0.6635742,1584365924872,-1188241743691,0.050440896,1,1
1584365926644,NaN,0.25107154,-0.2631836,-0.6906738,0.6582031,1584365924952,-1188241743691,0.050440896,1,1
1584365926648,NaN,0.25789756,-0.26538086,-0.69091797,0.67285156,1584365925032,-1188241743691,0.050440896,1,1
1584365926652,NaN,0.24551493,-0.29882812,-0.67163086,0.6713867,1584365925112,-1188241743691,0.050440896,1,1
1584365926656,NaN,0.22430192,-0.31958008,-0.6767578,0.6567383,1584365925192,-1188241743691,0.050440896,1,1
1584365926659,NaN,0.18172906,-0.31152344,-0.64282227,0.64746094,1584365925272,-1188241743691,0.050440896,1,1
1584365926663,NaN,0.16087587,-0.32348633,-0.64160156,0.6574707,1584365925352,-1188241743691,0.044364456,1,1
1584365926667,NaN,0.12696822,-0.3564453,-0.6599121,0.6936035,1584365925432,-1188241743691,0.05222213,1,1
1584365926671,NaN,0.06878437,-0.30395508,-0.6582031,0.6789551,1584365925512,-1188241743691,0.054522675,1,1
1584365926674,NaN,-0.003001203,-0.30810547,-0.63916016,0.6833496,1584365925592,-1188241743691,0.054522675,1,1
1584365926678,NaN,-0.074942715,-0.32543945,-0.6472168,0.68481445,1584365925672,-1188241743691,0.054522675,1,1
1584365926681,NaN,-0.106517345,-0.3190918,-0.6484375,0.6694336,1584365925752,-1188241743691,0.054522675,1,1
1584365926684,25.0,-0.17876314,-0.31640625,-0.66259766,0.67211914,1584365925832,-1188241743691,0.054522675,1,1
1584365926688,NaN,-0.26081032,-0.3059082,-0.6621094,0.6894531,1584365925912,-1188241743691,0.054522675,1,1
1584365926690,NaN,-0.33149788,-0.32250977,-0.65478516,0.6687012,1584365925992,-1188241743691,0.054522675,1,1
1584365926695,NaN,-0.36550823,-0.32348633,-0.65527344,0.6672363,1584365926072,-1188241743691,0.054522675,1,1
1584365926698,NaN,-0.38187715,-0.31689453,-0.6604004,0.6591797,1584365926152,-1188241743691,0.054522675,1,1
1584365926701,NaN,-0.3837709,-0.3305664,-0.64697266,0.6801758,1584365926232,-1188241743691,0.054522675,1,1
1584365926704,NaN,-0.38738373,-0.32788086,-0.64697266,0.6882324,1584365926312,-1188241743691,0.054522675,1,1
1584365928959,NaN,-0.34940085,-0.31982422,-0.6333008,0.6813965,1584365926392,-7384631880999,0.054522675,1,1
1584365928962,NaN,-0.33357108,-0.32763672,-0.63964844,0.6804199,1584365926472,-7384631880999,0.054522675,1,1
1584365928966,NaN,-0.26284227,-0.31567383,-0.671875,0.6750488,1584365926552,-7384631880999,0.054522675,1,1
1584365928973,NaN,-0.22647019,-0.32104492,-0.6386719,0.70214844,1584365926632,-7384631880999,0.054522675,1,1
1584365928979,NaN,-0.2181412,-0.33032227,-0.63916016,0.6994629,1584365926712,-7384631880999,0.054522675,1,1
1584365928984,NaN,-0.18812723,-0.30493164,-0.6398926,0.6748047,1584365926792,-7384631880999,0.054522675,1,1
1584365928989,NaN,-0.138939,-0.28637695,-0.6550293,0.68896484,1584365926872,-7384631880999,0.054522675,1,1
1584365928995,NaN,-0.08123682,-0.3017578,-0.6777344,0.67944336,1584365926952,-7384631880999,0.054522675,1,1
1584365928998,NaN,-0.04192086,-0.2854004,-0.66796875,0.6628418,1584365927032,-7384631880999,0.054522675,1,1
1584365929004,NaN,-0.021146148,-0.3017578,-0.6779785,0.67041016,1584365927112,-7384631880999,0.054522675,1,1
1584365929007,NaN,0.014455476,-0.31567383,-0.6616211,0.6730957,1584365927192,-7384631880999,0.054522675,1,1
1584365929012,NaN,0.04269262,-0.31225586,-0.6477051,0.6635742,1584365927272,-7384631880999,0.054522675,1,1
1584365929015,NaN,0.063283175,-0.33544922,-0.64624023,0.64038086,1584365927352,-7384631880999,0.054522675,1,1
1584365929020,NaN,0.089721076,-0.34204102,-0.6533203,0.6772461,1584365927432,-7384631880999,0.054522675,1,1
1584365929023,NaN,0.03951216,-0.33935547,-0.65063477,0.69311523,1584365927512,-7384631880999,0.054522675,1,1
1584365929026,NaN,0.032744497,-0.33374023,-0.6184082,0.7050781,1584365927592,-7384631880999,0.054522675,1,1
1584365929029,NaN,0.056240622,-0.3322754,-0.6286621,0.6821289,1584365927672,-7384631880999,0.054522675,1,1
1584365929032,NaN,0.069746085,-0.29785156,-0.65112305,0.6899414,1584365927752,-7384631880999,0.054522675,1,1
1584365929035,NaN,0.052072644,-0.3095703,-0.6479492,0.69628906,1584365927832,-7384631880999,0.054522675,1,1
1584365929037,NaN,0.009192889,-0.30541992,-0.64282227,0.68652344,1584365927912,-7384631880999,0.054522675,1,1
1584365929041,NaN,-0.03457087,-0.29589844,-0.6508789,0.67944336,1584365927992,-7384631880999,0.054522675,1,1
1584365929044,NaN,-0.08518702,-0.30737305,-0.6347656,0.69628906,1584365928072,-7384631880999,0.043193575,1,1
1584365929047,NaN,-0.11082128,-0.30493164,-0.6586914,0.69970703,1584365928152,-7384631880999,0.043193575,1,1
1584365929050,NaN,-0.13105187,-0.29296875,-0.6455078,0.6875,1584365928232,-7384631880999,0.043193575,1,1
1584365929053,NaN,-0.15527083,-0.3010254,-0.6496582,0.6828613,1584365928312,-7384631880999,0.043193575,1,1
1584365929055,NaN,-0.16491759,-0.30322266,-0.63427734,0.6936035,1584365928392,-7384631880999,0.043193575,1,1
1584365929059,NaN,-0.13176335,-0.31054688,-0.6364746,0.6875,1584365928472,-7384631880999,0.043193575,1,1
1584365929062,NaN,-0.08745441,-0.31445312,-0.642334,0.69506836,1584365928552,-7384631880999,0.043193575,1,1
1584365929064,NaN,-0.08624218,-0.31933594,-0.63623047,0.6994629,1584365928632,-7384631880999,0.043193575,1,1
1584365929066,NaN,-0.10154832,-0.31323242,-0.642334,0.6948242,1584365928712,-7384631880999,0.043193575,1,1
1584365929069,NaN,-0.098936714,-0.31884766,-0.6386719,0.7043457,1584365928792,-7384631880999,0.043193575,1,1
1584365929072,NaN,-0.085756816,-0.3112793,-0.62939453,0.69262695,1584365928872,-7384631880999,0.043193575,1,1
1584365931543,NaN,-0.084656216,-0.3083496,-0.64282227,0.70532227,1584365928952,4865722055401,0.043193575,1,1
1584365931548,NaN,-0.03178948,-0.3046875,-0.6413574,0.67871094,1584365929032,4865722055401,0.043193575,1,1
1584365931555,NaN,-0.0050029084,-0.26879883,-0.6550293,0.6804199,1584365929112,4865722055401,0.043193575,1,1
1584365931562,NaN,-0.029281182,-0.28320312,-0.60595703,0.70092773,1584365929192,4865722055401,0.055101193,1,1
1584365931565,NaN,-0.042359103,-0.28198242,-0.63720703,0.7128906,1584365929272,4865722055401,0.055101193,1,1
1584365931569,NaN,-0.031117829,-0.2800293,-0.6333008,0.69262695,1584365929352,4865722055401,0.055101193,1,1
1584365931573,NaN,-0.038940962,-0.30004883,-0.6425781,0.7121582,1584365929432,4865722055401,0.055101193,1,1
1584365931576,NaN,-0.048565283,-0.28295898,-0.6542969,0.6982422,1584365929512,4865722055401,0.055101193,1,1
1584365931580,NaN,-0.028885098,-0.28100586,-0.6525879,0.7036133,1584365929592,4865722055401,0.055101193,1,1
1584365931583,NaN,9.0405345E-4,-0.3059082,-0.65185547,0.6760254,1584365929672,4865722055401,0.055101193,1,1
1584365931586,37.5,0.040735025,-0.32617188,-0.6665039,0.6765137,1584365929752,4865722055401,0.055101193,1,1
1584365931590,NaN,0.057302892,-0.3383789,-0.64038086,0.67993164,1584365929832,4865722055401,0.055101193,1,1
1584365931593,NaN,0.058656305,-0.32788086,-0.6254883,0.7089844,1584365929912,4865722055401,0.055101193,1,1
1584365931596,NaN,0.026990779,-0.32104492,-0.6308594,0.6940918,1584365929992,4865722055401,0.055101193,1,1
1584365931600,NaN,-0.027491085,-0.32104492,-0.6359863,0.6945801,1584365930072,4865722055401,0.055101193,1,1
1584365931603,NaN,0.01077084,-0.30395508,-0.6298828,0.6958008,1584365930152,4865722055401,0.055101193,1,1
1584365931606,NaN,0.034144025,-0.29589844,-0.64282227,0.6916504,1584365930232,4865722055401,0.055101193,1,1
1584365931609,NaN,-0.015658261,-0.3149414,-0.6040039,0.7211914,1584365930312,4865722055401,0.055101193,1,1
1584365931612,NaN,-0.05883697,-0.33984375,-0.60058594,0.72875977,1584365930392,4865722055401,0.055101193,1,1
1584365931615,NaN,-0.10516113,-0.3017578,-0.6213379,0.70410156,1584365930472,4865722055401,0.055101193,1,1
1584365931619,NaN,-0.1505415,-0.30859375,-0.63134766,0.70654297,1584365930552,4865722055401,0.055101193,1,1
1584365931622,NaN,-0.20831044,-0.33081055,-0.6230469,0.7097168,1584365930632,4865722055401,0.055101193,1,1
1584365931625,NaN,-0.26191768,-0.3173828,-0.6352539,0.6970215,1584365930712,4865722055401,0.055101193,1,1
1584365931627,NaN,-0.27501604,-0.32373047,-0.6257324,0.69091797,1584365930792,4865722055401,0.055101193,1,1
1584365931630,NaN,-0.23952484,-0.32617188,-0.63427734,0.685791,1584365930872,4865722055401,0.055101193,1,1
1584365931633,NaN,-0.2142107,-0.32226562,-0.6347656,0.6843262,1584365930952,4865722055401,0.055101193,1,1
1584365931636,NaN,-0.16948463,-0.30249023,-0.623291,0.66967773,1584365931032,4865722055401,0.055101193,1,1
1584365931639,NaN,-0.19094585,-0.3317871,-0.6369629,0.7109375,1584365931112,4865722055401,0.055101193,1,1
1584365931643,NaN,-0.23703182,-0.3215332,-0.6152344,0.71875,1584365931192,4865722055401,0.055101193,1,1
1584365931646,NaN,-0.16229904,-0.28955078,-0.6303711,0.704834,1584365931272,4865722055401,0.055101193,1,1
1584365931649,NaN,-0.072817855,-0.30566406,-0.6257324,0.69311523,1584365931352,4865722055401,0.055101193,1,1
1584365931653,NaN,-0.016111521,-0.28759766,-0.65625,0.70410156,1584365931432,4865722055401,0.055101193,1,1
1584365934128,34.090908,0.044904962,-0.27368164,-0.6586914,0.68774414,1584365931512,-1330949556883,0.055101193,1,1
1584365934133,NaN,0.13842666,-0.27319336,-0.6621094,0.6921387,1584365931592,-1330949556883,0.055101193,1,1
1584365934139,NaN,0.19751038,-0.27734375,-0.6743164,0.7126465,1584365931672,-1330949556883,0.055101193,1,1
1584365934144,NaN,0.23756285,-0.2932129,-0.6496582,0.6816406,1584365931752,-1330949556883,0.05241751,1,1
1584365934150,NaN,0.25612807,-0.2836914,-0.64819336,0.6621094,1584365931832,-1330949556883,0.05241751,1,1
1584365934153,NaN,0.26857588,-0.2824707,-0.6472168,0.6953125,1584365931912,-1330949556883,0.05241751,1,1
1584365934156,NaN,0.26802972,-0.29101562,-0.64208984,0.68969727,1584365931992,-1330949556883,0.05241751,1,1
1584365934160,NaN,0.32758597,-0.2770996,-0.6628418,0.6850586,1584365932072,-1330949556883,0.05241751,1,1
1584365934164,NaN,0.46315327,-0.26904297,-0.689209,0.64208984,1584365932152,-1330949556883,0.05241751,1,1
1584365934168,NaN,0.5103162,-0.26000977,-0.71362305,0.66430664,1584365932232,-1330949556883,0.05241751,1,1
1584365934172,NaN,0.585946,-0.23925781,-0.7297363,0.625,1584365932312,-1330949556883,0.05241751,1,1
1584365934176,NaN,0.6493659,-0.24682617,-0.7253418,0.62768555,1584365932392,-1330949556883,0.05241751,1,1
1584365934179,NaN,0.70395774,-0.24316406,-0.75,0.6291504,1584365932472,-1330949556883,0.05241751,1,1
1584365934184,NaN,0.7452099,-0.24829102,-0.73217773,0.5966797,1584365932552,-1330949556883,0.05241751,1,1
1584365934188,NaN,0.801022,-0.25341797,-0.73706055,0.61987305,1584365932632,-1330949556883,0.05241751,1,1
1584365934191,NaN,0.85946554,-0.27172852,-0.73950195,0.62109375,1584365932712,-1330949556883,0.05241751,1,1
1584365934194,NaN,0.90450054,-0.28051758,-0.73461914,0.60131836,1584365932792,-1330949556883,0.05241751,1,1
1584365934198,NaN,0.9908807,-0.26391602,-0.73217773,0.5932617,1584365932872,-1330949556883,0.05241751,1,1
1584365934202,NaN,1.0900689,-0.27368164,-0.73950195,0.5983887,1584365932952,-1330949556883,0.05241751,1,1
1584365934205,NaN,1.1247602,-0.26782227,-0.7416992,0.6147461,1584365933032,-1330949556883,0.05241751,1,1
1584365934208,NaN,1.058101,-0.27807617,-0.7241211,0.6123047,1584365933112,-1330949556883,0.05241751,1,1
1584365934212,NaN,1.0085117,-0.2590332,-0.71777344,0.6105957,1584365933192,-1330949556883,0.05241751,1,1
1584365934216,NaN,0.8999048,-0.26611328,-0.73657227,0.5944824,1584365933272,-1330949556883,0.05241751,1,1
1584365934219,NaN,0.83981985,-0.26416016,-0.767334,0.60253906,1584365933352,-1330949556883,0.05241751,1,1
1584365934222,NaN,0.769008,-0.24853516,-0.7531738,0.5891113,1584365933432,-1330949556883,0.05241751,1,1
1584365934225,NaN,0.7104764,-0.26538086,-0.7780762,0.5683594,1584365933512,-1330949556883,0.05241751,1,1
1584365934228,NaN,0.67655855,-0.2709961,-0.77856445,0.55200195,1584365933592,-1330949556883,0.05241751,1,1
1584365934231,NaN,0.65082186,-0.25756836,-0.77197266,0.5476074,1584365933672,-1330949556883,0.05105342,1,1
1584365934233,NaN,0.6298594,-0.26879883,-0.8029785,0.56933594,1584365933752,-1330949556883,0.05105342,1,1
1584365934237,NaN,0.54476994,-0.31835938,-0.7763672,0.5720215,1584365933832,-1330949556883,0.05631716,1,1
1584365934240,NaN,0.4393895,-0.30688477,-0.7331543,0.5727539,1584365933912,-1330949556883,0.05631716,1,1
1584365934243,NaN,0.37484387,-0.33618164,-0.7570801,0.56469727,1584365933992,-1330949556883,0.05631716,1,1
1584365936712,NaN,0.3406417,-0.34521484,-0.7258301,0.58813477,1584365934072,-7527339694191,0.05631716,1,1
1584365936719,NaN,0.2954247,-0.35302734,-0.70288086,0.5817871,1584365934152,-7527339694191,0.05631716,1,1
1584365936724,NaN,0.2691994,-0.34960938,-0.7265625,0.57836914,1584365934232,-7527339694191,0.05631716,1,1
1584365936729,NaN,0.21343894,-0.34643555,-0.7207031,0.5720215,1584365934312,-7527339694191,0.05631716,1,1
1584365936734,NaN,0.19143617,-0.34179688,-0.74560547,0.55371094,1584365934392,-7527339694191,0.05631716,1,1
1584365936742,NaN,0.14930618,-0.31982422,-0.75878906,0.54711914,1584365934472,-7527339694191,0.05631716,1,1
1584365936745,NaN,0.058538962,-0.36254883,-0.7644043,0.5710449,1584365934552,-7527339694191,0.05631716,1,1
1584365936750,NaN,-0.023318589,-0.34814453,-0.7546387,0.53930664,1584365934632,-7527339694191,0.05631716,1,1
1584365936753,NaN,-0.10624683,-0.3623047,-0.75805664,0.54785156,1584365934712,-7527339694191,0.05631716,1,1
1584365936760,NaN,-0.12526363,-0.35717773,-0.74560547,0.5358887,1584365934792,-7527339694191,0.05631716,1,1
1584365936763,NaN,-0.10889376,-0.35961914,-0.7548828,0.5527344,1584365934872,-7527339694191,0.05631716,1,1
1584365936766,NaN,-0.113053,-0.36108398,-0.75439453,0.53564453,1584365934952,-7527339694191,0.05631716,1,1
1584365936769,NaN,-0.06610084,-0.34814453,-0.76293945,0.5493164,1584365935032,-7527339694191,0.05631716,1,1
1584365936773,NaN,-0.011206244,-0.3623047,-0.73413086,0.54418945,1584365935112,-7527339694191,0.05631716,1,1
1584365936778,NaN,0.04424603,-0.359375,-0.751709,0.53686523,1584365935192,-7527339694191,0.05631716,1,1
1584365936781,NaN,0.115303904,-0.34350586,-0.7663574,0.53808594,1584365935272,-7527339694191,0.05631716,1,1
1584365936784,NaN,0.13140213,-0.3461914,-0.76586914,0.5456543,1584365935352,-7527339694191,0.05631716,1,1
1584365936787,NaN,0.13832995,-0.3425293,-0.7680664,0.55126953,1584365935432,-7527339694191,0.05631716,1,1
1584365936790,15.0,0.18791527,-0.3540039,-0.7585449,0.546875,1584365935512,-7527339694191,0.05631716,1,1
1584365936794,NaN,0.19730587,-0.34179688,-0.7548828,0.5551758,1584365935592,-7527339694191,0.05631716,1,1
1584365936797,NaN,0.21147192,-0.3359375,-0.75561523,0.56469727,1584365935672,-7527339694191,0.05631716,1,1
1584365936800,NaN,0.20333053,-0.2927246,-0.7624512,0.5661621,1584365935752,-7527339694191,0.05631716,1,1
1584365936803,NaN,0.1452519,-0.3305664,-0.736084,0.6008301,1584365935832,-7527339694191,0.05769834,1,1
1584365936807,NaN,0.07407496,-0.32592773,-0.6972656,0.57910156,1584365935912,-7527339694191,0.05769834,1,1
1584365936809,NaN,-0.014110063,-0.30688477,-0.7260742,0.58813477,1584365935992,-7527339694191,0.05769834,1,1
1584365936812,NaN,-0.0947163,-0.31420898,-0.7414551,0.609375,1584365936072,-7527339694191,0.05769834,1,1
1584365936815,NaN,-0.21279699,-0.30273438,-0.7080078,0.6191406,1584365936152,-7527339694191,0.05769834,1,1
1584365936819,NaN,-0.33056808,-0.2998047,-0.71850586,0.6062012,1584365936232,-7527339694191,0.05769834,1,1
1584365936821,NaN,-0.422577,-0.296875,-0.7297363,0.6279297,1584365936312,-7527339694191,0.05769834,1,1
1584365936824,NaN,-0.48613957,-0.2758789,-0.7248535,0.60546875,1584365936392,-7527339694191,0.05769834,1,1
1584365936826,NaN,-0.5612919,-0.25512695,-0.7331543,0.60424805,1584365936472,-7527339694191,0.05769834,1,1
1584365936829,NaN,-0.6053859,-0.24291992,-0.74902344,0.61206055,1584365936552,-7527339694191,0.05769834,1,1
1584365939295,NaN,-0.66174525,-0.2607422,-0.7302246,0.6298828,1584365936632,4723014242209,0.05769834,1,1
1584365939300,NaN,-0.7209417,-0.26000977,-0.7246094,0.63061523,1584365936712,4723014242209,0.05769834,1,1
1584365939307,NaN,-0.7272747,-0.25146484,-0.7175293,0.6376953,1584365936792,4723014242209,0.05769834,1,1
1584365939315,NaN,-0.696184,-0.24804688,-0.72314453,0.6164551,1584365936872,4723014242209,0.05769834,1,1
1584365939319,NaN,-0.6959863,-0.25878906,-0.7224121,0.638916,1584365936952,4723014242209,0.05769834,1,1
1584365939323,NaN,-0.6920419,-0.2548828,-0.72387695,0.63549805,1584365937032,4723014242209,0.05769834,1,1
1584365939326,NaN,-0.6260306,-0.26782227,-0.701416,0.6237793,1584365937112,4723014242209,0.05769834,1,1
1584365939329,NaN,-0.5790984,-0.26782227,-0.72998047,0.6430664,1584365937192,4723014242209,0.05769834,1,1
1584365939333,NaN,-0.5200838,-0.27197266,-0.70874023,0.63134766,1584365937272,4723014242209,0.05769834,1,1
1584365939337,NaN,-0.47711828,-0.28125,-0.71362305,0.63061523,1584365937352,4723014242209,0.05769834,1,1
1584365939341,NaN,-0.43214273,-0.28222656,-0.71240234,0.62353516,1584365937432,4723014242209,0.05769834,1,1
1584365939345,NaN,-0.3651167,-0.28881836,-0.73876953,0.5996094,1584365937512,4723014242209,0.05769834,1,1
1584365939350,NaN,-0.25970548,-0.31323242,-0.73999023,0.595459,1584365937592,4723014242209,0.05769834,1,1
1584365939354,NaN,-0.14023392,-0.31347656,-0.7434082,0.58203125,1584365937672,4723014242209,0.05769834,1,1
1584365939357,NaN,-0.025868883,-0.31640625,-0.73706055,0.5720215,1584365937752,4723014242209,0.05769834,1,1
1584365939360,NaN,0.048272073,-0.3305664,-0.73339844,0.5822754,1584365937832,4723014242209,0.05769834,1,1
1584365939362,25.0,0.15683557,-0.31445312,-0.73950195,0.5749512,1584365937912,4723014242209,0.05769834,1,1
1584365939366,NaN,0.25215715,-0.3125,-0.7297363,0.5749512,1584365937992,4723014242209,0.05769834,1,1
1584365939370,NaN,0.3350437,-0.3461914,-0.7373047,0.5749512,1584365938072,4723014242209,0.05769834,1,1
1584365939372,NaN,0.4403182,-0.34106445,-0.76123047,0.5739746,1584365938152,4723014242209,0.05769834,1,1
1584365939376,NaN,0.53448397,-0.31958008,-0.7434082,0.5593262,1584365938232,4723014242209,0.05769834,1,1
1584365939380,NaN,0.62806803,-0.31445312,-0.7648926,0.56762695,1584365938312,4723014242209,0.05769834,1,1
1584365939384,NaN,0.7120847,-0.30981445,-0.75927734,0.5637207,1584365938392,4723014242209,0.04472707,1,1
1584365939387,NaN,0.73761576,-0.3190918,-0.75024414,0.56152344,1584365938472,4723014242209,0.036684517,1,1
1584365939389,NaN,0.74087995,-0.32543945,-0.76660156,0.55371094,1584365938552,4723014242209,0.036684517,1,1
1584365939392,NaN,0.7088914,-0.3112793,-0.76171875,0.560791,1584365938632,4723014242209,0.036684517,1,1
1584365939396,NaN,0.65907055,-0.31835938,-0.765625,0.56274414,1584365938712,4723014242209,0.036209438,1,1
1584365939399,NaN,0.63200235,-0.31347656,-0.76782227,0.564209,1584365938792,4723014242209,0.036209438,1,1
1584365939402,NaN,0.5927909,-0.32739258,-0.74438477,0.54589844,1584365938872,4723014242209,0.036209438,1,1
1584365939406,NaN,0.5658162,-0.3166504,-0.76708984,0.5527344,1584365938952,4723014242209,0.036209438,1,1
1584365939408,NaN,0.52530605,-0.28198242,-0.7783203,0.53222656,1584365939032,4723014242209,0.04181581,1,1
1584365939412,NaN,0.46323478,-0.2709961,-0.7956543,0.5427246,1584365939112,4723014242209,0.04181581,1,1
1584365941879,NaN,0.40388358,-0.30200195,-0.78881836,0.55493164,1584365939192,-1473657370075,0.04181581,1,1
1584365941901,NaN,0.32887676,-0.31933594,-0.7614746,0.5703125,1584365939272,-1473657370075,0.04181581,1,1
1584365941905,NaN,0.27989143,-0.32250977,-0.7697754,0.54785156,1584365939352,-1473657370075,0.04181581,1,1
1584365941908,NaN,0.24289401,-0.31713867,-0.7512207,0.5583496,1584365939432,-1473657370075,0.04181581,1,1
1584365941911,NaN,0.18446983,-0.29003906,-0.767334,0.564209,1584365939512,-1473657370075,0.04181581,1,1
1584365941916,NaN,0.17346936,-0.25732422,-0.796875,0.5476074,1584365939592,-1473657370075,0.047101427,1,1
1584365941919,NaN,0.1550823,-0.24365234,-0.76000977,0.53466797,1584365939672,-1473657370075,0.047101427,1,1
1584365941923,NaN,0.1297562,-0.24780273,-0.7692871,0.54907227,1584365939752,-1473657370075,0.047101427,1,1
1584365941928,NaN,0.09753505,-0.24243164,-0.798584,0.5612793,1584365939832,-1473657370075,0.047101427,1,1
1584365941931,NaN,0.044965714,-0.22070312,-0.78393555,0.56103516,1584365939912,-1473657370075,0.047101427,1,1
1584365941935,NaN,-0.02297839,-0.20727539,-0.7832031,0.5644531,1584365939992,-1473657370075,0.047101427,1,1
1584365941938,NaN,-0.07262811,-0.20019531,-0.7915039,0.5600586,1584365940072,-1473657370075,0.047101427,1,1
1584365941942,NaN,-0.1312297,-0.20581055,-0.79541016,0.58154297,1584365940152,-1473657370075,0.047101427,1,1
1584365941949,NaN,-0.13616936,-0.21899414,-0.80078125,0.5661621,1584365940232,-1473657370075,0.047101427,1,1
1584365941952,NaN,-0.16593467,-0.22045898,-0.7763672,0.53100586,1584365940312,-1473657370075,0.047101427,1,1
1584365941956,NaN,-0.1528678,-0.20629883,-0.80126953,0.5292969,1584365940392,-1473657370075,0.047101427,1,1
1584365941959,NaN,-0.11445626,-0.2043457,-0.8322754,0.54467773,1584365940472,-1473657370075,0.047101427,1,1
1584365941964,NaN,-0.11231462,-0.2055664,-0.8171387,0.52612305,1584365940552,-1473657370075,0.047101427,1,1
1584365941968,NaN,-0.09494551,-0.21166992,-0.8129883,0.5319824,1584365940632,-1473657370075,0.047101427,1,1
1584365941971,NaN,-0.07821288,-0.23339844,-0.79907227,0.5439453,1584365940712,-1473657370075,0.047101427,1,1
1584365941974,NaN,-0.05570689,-0.2319336,-0.8066406,0.5402832,1584365940792,-1473657370075,0.047101427,1,1
1584365941978,NaN,-0.024679186,-0.23852539,-0.7963867,0.56030273,1584365940872,-1473657370075,0.047101427,1,1
1584365941981,NaN,0.035114545,-0.24584961,-0.78393555,0.54711914,1584365940952,-1473657370075,0.047101427,1,1
1584365941984,NaN,0.088228524,-0.2668457,-0.8017578,0.5576172,1584365941032,-1473657370075,0.047101427,1,1
1584365941988,18.75,0.1677103,-0.2685547,-0.76831055,0.5332031,1584365941112,-1473657370075,0.047101427,1,1
1584365941991,NaN,0.1942333,-0.25195312,-0.77685547,0.5361328,1584365941192,-1473657370075,0.047101427,1,1
1584365941994,NaN,0.20397402,-0.24829102,-0.76293945,0.53564453,1584365941272,-1473657370075,0.047101427,1,1
1584365941999,NaN,0.13793154,-0.23803711,-0.78686523,0.60546875,1584365941352,-1473657370075,0.0745185,1,1
1584365942002,NaN,0.09386683,-0.2421875,-0.78466797,0.5612793,1584365941432,-1473657370075,0.0745185,1,1
1584365942005,NaN,0.041451644,-0.24902344,-0.7607422,0.5656738,1584365941512,-1473657370075,0.0745185,1,1
1584365942008,NaN,0.0052642873,-0.2487793,-0.7910156,0.55908203,1584365941592,-1473657370075,0.0745185,1,1
1584365942013,NaN,-0.014236535,-0.23583984,-0.7963867,0.5527344,1584365941672,-1473657370075,0.0745185,1,1
1584365944461,NaN,-0.04886653,-0.23730469,-0.779541,0.55371094,1584365941752,-7670047507384,0.0745185,1,1
1584365944466,NaN,-0.058912206,-0.26367188,-0.79248047,0.5678711,1584365941832,-7670047507384,0.0745185,1,1
1584365944471,NaN,-0.092888124,-0.26733398,-0.7609863,0.56030273,1584365941912,-7670047507384,0.0745185,1,1
1584365944476,NaN,-0.12525481,-0.26757812,-0.7775879,0.5593262,1584365941992,-7670047507384,0.0745185,1,1
1584365944482,NaN,-0.18385442,-0.27441406,-0.76831055,0.5656738,1584365942072,-7670047507384,0.0745185,1,1
1584365944486,NaN,-0.22972108,-0.27978516,-0.76538086,0.578125,1584365942152,-7670047507384,0.0745185,1,1
1584365944489,NaN,-0.24550538,-0.29418945,-0.76049805,0.576416,1584365942232,-7670047507384,0.0745185,1,1
1584365944493,NaN,-0.18556885,-0.27856445,-0.7453613,0.5817871,1584365942312,-7670047507384,0.0745185,1,1
1584365944496,NaN,-0.1977145,-0.2878418,-0.7470703,0.6047363,1584365942392,-7670047507384,0.0745185,1,1
1584365944501,NaN,-0.18183887,-0.29492188,-0.74316406,0.607666,1584365942472,-7670047507384,0.0745185,1,1
1584365944505,NaN,-0.1973282,-0.30297852,-0.73999023,0.59936523,1584365942552,-7670047507384,0.0745185,1,1
1584365944511,NaN,-0.22629845,-0.3046875,-0.7336426,0.59277344,1584365942632,-7670047507384,0.0745185,1,1
1584365944516,NaN,-0.24115527,-0.28393555,-0.7285156,0.5900879,1584365942712,-7670047507384,0.0745185,1,1
1584365944520,NaN,-0.28846687,-0.2866211,-0.732666,0.6101074,1584365942792,-7670047507384,0.0745185,1,1
1584365944524,NaN,-0.32289976,-0.28173828,-0.7272949,0.6152344,1584365942872,-7670047507384,0.0745185,1,1
1584365944526,NaN,-0.360422,-0.2746582,-0.73413086,0.6069336,1584365942952,-7670047507384,0.0745185,1,1
1584365944531,NaN,-0.3789568,-0.25854492,-0.72558594,0.5905762,1584365943032,-7670047507384,0.0745185,1,1
1584365944533,NaN,-0.38350382,-0.26391602,-0.73828125,0.6003418,1584365943112,-7670047507384,0.0745185,1,1
1584365944536,NaN,-0.4034089,-0.28759766,-0.7282715,0.609375,1584365943192,-7670047507384,0.0745185,1,1
1584365944539,NaN,-0.45392433,-0.2878418,-0.7163086,0.6303711,1584365943272,-7670047507384,0.0745185,1,1
1584365944543,NaN,-0.44989586,-0.27563477,-0.7248535,0.6298828,1584365943352,-7670047507384,0.0745185,1,1
1584365944546,NaN,-0.45095158,-0.27905273,-0.71240234,0.61865234,1584365943432,-7670047507384,0.0745185,1,1
1584365944549,NaN,-0.43892586,-0.29125977,-0.7258301,0.61865234,1584365943512,-7670047507384,0.0745185,1,1
1584365944553,NaN,-0.43124685,-0.28808594,-0.7216797,0.6196289,1584365943592,-7670047507384,0.0745185,1,1
1584365944554,NaN,-0.42169297,-0.27978516,-0.7167969,0.6176758,1584365943672,-7670047507384,0.0745185,1,1
1584365944558,NaN,-0.3853548,-0.2841797,-0.72314453,0.6201172,1584365943752,-7670047507384,0.0745185,1,1
1584365944560,NaN,-0.3366835,-0.27661133,-0.7297363,0.6123047,1584365943832,-7670047507384,0.0745185,1,1
1584365944564,NaN,-0.30033806,-0.27294922,-0.72924805,0.6213379,1584365943912,-7670047507384,0.044438288,1,1
1584365944567,NaN,-0.26766858,-0.28344727,-0.73291016,0.6179199,1584365943992,-7670047507384,0.03260626,1,1
1584365944570,NaN,-0.24310972,-0.28271484,-0.7290039,0.6130371,1584365944072,-7670047507384,0.03260626,1,1
1584365944573,NaN,-0.21846862,-0.2861328,-0.71777344,0.6213379,1584365944152,-7670047507384,0.03260626,1,1
1584365944576,NaN,-0.1686064,-0.2866211,-0.7265625,0.6237793,1584365944232,-7670047507384,0.03260626,1,1
1584365947241,NaN,-0.13830933,-0.28564453,-0.7128906,0.62524414,1584365944312,4580306429017,0.03260626,1,1
1584365947246,NaN,-0.11788571,-0.28759766,-0.70825195,0.626709,1584365944392,4580306429017,0.032597117,1,1
1584365947251,NaN,-0.122792006,-0.29003906,-0.7019043,0.6430664,1584365944472,4580306429017,0.02725095,1,1
1584365947262,NaN,-0.1148602,-0.28149414,-0.69921875,0.6315918,1584365944552,4580306429017,0.02725095,1,1
1584365947268,NaN,-0.11888925,-0.2998047,-0.6904297,0.64868164,1584365944632,4580306429017,0.02725095,1,1
1584365947273,NaN,-0.13574317,-0.3095703,-0.6911621,0.6477051,1584365944712,4580306429017,0.02725095,1,1
1584365947280,NaN,-0.17476381,-0.30664062,-0.6838379,0.6459961,1584365944792,4580306429017,0.02725095,1,1
1584365947288,NaN,-0.1892104,-0.30126953,-0.6862793,0.6376953,1584365944872,4580306429017,0.02725095,1,1
1584365947295,NaN,-0.21170676,-0.29101562,-0.6923828,0.63305664,1584365944952,4580306429017,0.02725095,1,1
1584365947297,NaN,-0.23303752,-0.3112793,-0.69189453,0.6333008,1584365945032,4580306429017,0.02725095,1,1
1584365947301,NaN,-0.23143016,-0.30029297,-0.6887207,0.6184082,1584365945112,4580306429017,0.02725095,1,1
1584365947304,NaN,-0.25447837,-0.27368164,-0.71875,0.63720703,1584365945192,4580306429017,0.044309337,1,1
1584365947309,NaN,-0.26485127,-0.27416992,-0.7248535,0.64746094,1584365945272,4580306429017,0.044309337,1,1
1584365947313,NaN,-0.25935864,-0.2824707,-0.71435547,0.62939453,1584365945352,4580306429017,0.044309337,1,1
1584365947316,NaN,-0.21019669,-0.26635742,-0.72094727,0.6191406,1584365945432,4580306429017,0.044309337,1,1
1584365947319,NaN,-0.17628634,-0.2626953,-0.72143555,0.6237793,1584365945512,4580306429017,0.044309337,1,1
1584365947322,NaN,-0.12151184,-0.28051758,-0.7272949,0.6335449,1584365945592,4580306429017,0.044309337,1,1
1584365947325,NaN,-0.08367139,-0.27416992,-0.70214844,0.6347656,1584365945672,4580306429017,0.044309337,1,1
1584365947328,NaN,-0.024677932,-0.26708984,-0.70996094,0.6269531,1584365945752,4580306429017,0.044309337,1,1
1584365947331,NaN,0.006485631,-0.2866211,-0.7084961,0.6459961,1584365945832,4580306429017,0.044309337,1,1
1584365947343,12.5,0.03867271,-0.2783203,-0.69433594,0.62768555,1584365945912,4580306429017,0.044309337,1,1
1584365947344,NaN,0.055693228,-0.29370117,-0.6999512,0.6538086,1584365945992,4580306429017,0.044309337,1,1
1584365947346,NaN,0.057090092,-0.3125,-0.6970215,0.642334,1584365946072,4580306429017,0.044309337,1,1
1584365947347,NaN,0.06318831,-0.30395508,-0.6953125,0.6347656,1584365946152,4580306429017,0.044309337,1,1
1584365947349,NaN,0.07291906,-0.27319336,-0.7038574,0.6296387,1584365946232,4580306429017,0.044309337,1,1
1584365947352,NaN,0.05066969,-0.29052734,-0.7026367,0.65405273,1584365946312,4580306429017,0.044309337,1,1
1584365947355,NaN,-0.010850586,-0.31958008,-0.68774414,0.6567383,1584365946392,4580306429017,0.044309337,1,1
1584365947360,NaN,-0.049272027,-0.3215332,-0.68359375,0.6315918,1584365946472,4580306429017,0.044309337,1,1
1584365947362,NaN,-0.08687204,-0.31201172,-0.7001953,0.6274414,1584365946552,4580306429017,0.044309337,1,1
1584365947365,NaN,-0.10487112,-0.30200195,-0.6899414,0.63671875,1584365946632,4580306429017,0.044309337,1,1
1584365947367,NaN,-0.14291234,-0.30249023,-0.69091797,0.63427734,1584365946712,4580306429017,0.044309337,1,1
1584365947370,NaN,-0.15302347,-0.29516602,-0.6894531,0.6357422,1584365946792,4580306429017,0.044309337,1,1
1584365949629,NaN,-0.1748873,-0.3166504,-0.6882324,0.6477051,1584365946872,-1616365183268,0.044309337,1,1
1584365949637,NaN,-0.17228858,-0.3071289,-0.6816406,0.64697266,1584365946952,-1616365183268,0.044309337,1,1
1584365949643,NaN,-0.18313716,-0.29907227,-0.6694336,0.6520996,1584365947032,-1616365183268,0.044309337,1,1
1584365949648,NaN,-0.19992845,-0.28466797,-0.6755371,0.6621094,1584365947112,-1616365183268,0.044309337,1,1
1584365949651,NaN,-0.23840392,-0.29467773,-0.68896484,0.6760254,1584365947192,-1616365183268,0.044309337,1,1
1584365949654,NaN,-0.2258497,-0.3010254,-0.6801758,0.64331055,1584365947272,-1616365183268,0.044309337,1,1
1584365949658,NaN,-0.16864395,-0.2836914,-0.6916504,0.6401367,1584365947352,-1616365183268,0.044309337,1,1
1584365949662,NaN,-0.1307308,-0.27905273,-0.7019043,0.6411133,1584365947432,-1616365183268,0.044309337,1,1
1584365949665,NaN,-0.11379007,-0.26489258,-0.71435547,0.6472168,1584365947512,-1616365183268,0.044309337,1,1
1584365949669,NaN,-0.08876187,-0.2788086,-0.70874023,0.6347656,1584365947592,-1616365183268,0.044309337,1,1
1584365949674,NaN,-0.04116181,-0.3022461,-0.7297363,0.6208496,1584365947672,-1616365183268,0.044309337,1,1
1584365949677,NaN,-0.011972574,-0.29516602,-0.71484375,0.6203613,1584365947752,-1616365183268,0.034464493,1,1
1584365949680,31.25,0.044413377,-0.28320312,-0.7158203,0.6218262,1584365947832,-1616365183268,0.034464493,1,1
1584365949684,NaN,0.088470936,-0.2849121,-0.7194824,0.63134766,1584365947912,-1616365183268,0.034464493,1,1
1584365949687,NaN,0.13852553,-0.29858398,-0.701416,0.63305664,1584365947992,-1616365183268,0.034464493,1,1
1584365949692,NaN,0.17778736,-0.3125,-0.6850586,0.6340332,1584365948072,-1616365183268,0.034464493,1,1
1584365949695,NaN,0.22616573,-0.3100586,-0.68774414,0.6489258,1584365948152,-1616365183268,0.034464493,1,1
1584365949698,NaN,0.2383991,-0.30908203,-0.69506836,0.6496582,1584365948232,-1616365183268,0.034464493,1,1
1584365949702,NaN,0.21402709,-0.30004883,-0.6923828,0.6447754,1584365948312,-1616365183268,0.034464493,1,1
1584365949705,NaN,0.18855448,-0.30664062,-0.6948242,0.6394043,1584365948392,-1616365183268,0.034464493,1,1
1584365949708,NaN,0.18572515,-0.29760742,-0.72143555,0.6286621,1584365948472,-1616365183268,0.034464493,1,1
1584365949711,NaN,0.1791534,-0.26757812,-0.7072754,0.6203613,1584365948552,-1616365183268,0.034464493,1,1
1584365949714,NaN,0.15587507,-0.28759766,-0.7258301,0.611084,1584365948632,-1616365183268,0.034464493,1,1
1584365949718,NaN,0.14075951,-0.29614258,-0.7258301,0.61499023,1584365948712,-1616365183268,0.034464493,1,1
1584365949721,NaN,0.09204069,-0.29614258,-0.7011719,0.6171875,1584365948792,-1616365183268,0.034464493,1,1
1584365949724,NaN,0.048283726,-0.29125977,-0.7062988,0.62646484,1584365948872,-1616365183268,0.034464493,1,1
1584365949727,NaN,0.02633542,-0.30200195,-0.70703125,0.62158203,1584365948952,-1616365183268,0.034464493,1,1
1584365949730,NaN,0.02587235,-0.30297852,-0.6994629,0.6308594,1584365949032,-1616365183268,0.034464493,1,1
1584365949733,NaN,0.0323128,-0.2944336,-0.6960449,0.63720703,1584365949112,-1616365183268,0.034464493,1,1
1584365949735,NaN,0.03669803,-0.29516602,-0.6916504,0.640625,1584365949192,-1616365183268,0.034464493,1,1
1584365949738,NaN,0.046758477,-0.29516602,-0.70751953,0.66015625,1584365949272,-1616365183268,0.034464493,1,1
1584365949741,NaN,0.07267036,-0.28515625,-0.6977539,0.63061523,1584365949352,-1616365183268,0.034464493,1,1
1584365952013,NaN,0.04374062,-0.3083496,-0.6850586,0.6303711,1584365949432,-7812755320576,0.034464493,1,1
1584365952019,NaN,0.033997998,-0.27783203,-0.7138672,0.61987305,1584365949512,-7812755320576,0.04326045,1,1
1584365952024,NaN,0.015909879,-0.2692871,-0.717041,0.6359863,1584365949592,-7812755320576,0.04326045,1,1
1584365952028,NaN,0.01572335,-0.26831055,-0.73339844,0.62719727,1584365949672,-7812755320576,0.04326045,1,1
1584365952036,NaN,0.057479113,-0.27148438,-0.7331543,0.611084,1584365949752,-7812755320576,0.04326045,1,1
1584365952044,NaN,0.09562675,-0.28857422,-0.7397461,0.60595703,1584365949832,-7812755320576,0.04326045,1,1
1584365952048,NaN,0.11477766,-0.28759766,-0.7348633,0.6105957,1584365949912,-7812755320576,0.04326045,1,1
1584365952053,NaN,0.1341937,-0.28320312,-0.732666,0.6171875,1584365949992,-7812755320576,0.04326045,1,1
1584365952057,NaN,0.14081562,-0.28808594,-0.7182617,0.62158203,1584365950072,-7812755320576,0.04326045,1,1
1584365952061,NaN,0.14830051,-0.3095703,-0.7077637,0.61938477,1584365950152,-7812755320576,0.04326045,1,1
1584365952065,NaN,0.16157676,-0.31469727,-0.7128906,0.6196289,1584365950232,-7812755320576,0.04326045,1,1
1584365952069,NaN,0.16329405,-0.29248047,-0.70996094,0.60791016,1584365950312,-7812755320576,0.04326045,1,1
1584365952073,NaN,0.22507839,-0.29296875,-0.71655273,0.6057129,1584365950392,-7812755320576,0.04326045,1,1
1584365952076,NaN,0.23301326,-0.28344727,-0.72143555,0.60791016,1584365950472,-7812755320576,0.04326045,1,1
1584365952080,NaN,0.27026436,-0.2626953,-0.73461914,0.607666,1584365950552,-7812755320576,0.04326045,1,1
1584365952084,NaN,0.30279598,-0.26904297,-0.77075195,0.5891113,1584365950632,-7812755320576,0.04326045,1,1
1584365952088,NaN,0.31403375,-0.2705078,-0.76586914,0.56811523,1584365950712,-7812755320576,0.04326045,1,1
1584365952092,NaN,0.347831,-0.25439453,-0.7836914,0.55249023,1584365950792,-7812755320576,0.04326045,1,1
1584365952097,NaN,0.38911128,-0.23608398,-0.7832031,0.56469727,1584365950872,-7812755320576,0.04326045,1,1
1584365952100,NaN,0.42811826,-0.22827148,-0.7866211,0.5720215,1584365950952,-7812755320576,0.04326045,1,1
1584365952104,NaN,0.4914491,-0.22949219,-0.7819824,0.5625,1584365951032,-7812755320576,0.04326045,1,1
1584365952107,NaN,0.5558942,-0.23852539,-0.76953125,0.5786133,1584365951112,-7812755320576,0.04326045,1,1
1584365952111,NaN,0.6249351,-0.22338867,-0.7709961,0.5786133,1584365951192,-7812755320576,0.04326045,1,1
1584365952115,NaN,0.68593556,-0.20483398,-0.7692871,0.58496094,1584365951272,-7812755320576,0.04326045,1,1
1584365952119,NaN,0.7408146,-0.19677734,-0.7849121,0.57421875,1584365951352,-7812755320576,0.04326045,1,1
1584365952123,NaN,0.80118877,-0.21240234,-0.779541,0.5900879,1584365951432,-7812755320576,0.04326045,1,1
1584365952125,NaN,0.8267884,-0.21386719,-0.767334,0.578125,1584365951512,-7812755320576,0.04326045,1,1
1584365952128,NaN,0.82494193,-0.19360352,-0.77001953,0.5751953,1584365951592,-7812755320576,0.04326045,1,1
1584365952131,NaN,0.80511713,-0.1977539,-0.7753906,0.59277344,1584365951672,-7812755320576,0.04326045,1,1
1584365952134,NaN,0.7292509,-0.20166016,-0.77124023,0.6020508,1584365951752,-7812755320576,0.04326045,1,1
1584365952137,NaN,0.65902644,-0.19311523,-0.7663574,0.5839844,1584365951832,-7812755320576,0.04326045,1,1
1584365952141,NaN,0.5908152,-0.19213867,-0.78100586,0.5854492,1584365951912,-7812755320576,0.04326045,1,1
1584365954599,NaN,0.50355357,-0.2084961,-0.7792969,0.576416,1584365951992,4437598615824,0.04326045,1,1
1584365954607,NaN,0.43987238,-0.21484375,-0.7873535,0.5827637,1584365952072,4437598615824,0.041111425,1,1
1584365954612,NaN,0.36524382,-0.21582031,-0.7792969,0.5715332,1584365952152,4437598615824,0.041111425,1,1
1584365954620,NaN,0.29782155,-0.21704102,-0.78027344,0.57006836,1584365952232,4437598615824,0.041111425,1,1
1584365954629,NaN,0.20721747,-0.2175293,-0.7849121,0.5600586,1584365952312,4437598615824,0.041111425,1,1
1584365954638,NaN,0.16051184,-0.2006836,-0.779541,0.5583496,1584365952392,4437598615824,0.041111425,1,1
1584365954644,NaN,0.13496311,-0.21606445,-0.80493164,0.5629883,1584365952472,4437598615824,0.041111425,1,1
1584365954650,NaN,0.10471904,-0.21240234,-0.79711914,0.5720215,1584365952552,4437598615824,0.041111425,1,1
1584365954656,NaN,0.09946948,-0.20141602,-0.78271484,0.5673828,1584365952632,4437598615824,0.041111425,1,1
1584365954663,NaN,0.13979118,-0.18896484,-0.7861328,0.5727539,1584365952712,4437598615824,0.041111425,1,1
1584365954666,NaN,0.15616554,-0.18530273,-0.78222656,0.578125,1584365952792,4437598615824,0.041111425,1,1
1584365954669,NaN,0.17756365,-0.16894531,-0.7919922,0.56518555,1584365952872,4437598615824,0.041111425,1,1
1584365954673,NaN,0.20338272,-0.18334961,-0.80078125,0.56689453,1584365952952,4437598615824,0.041111425,1,1
1584365954677,NaN,0.2150137,-0.17797852,-0.79174805,0.560791,1584365953032,4437598615824,0.041111425,1,1
1584365954681,NaN,0.2387092,-0.17407227,-0.8046875,0.5588379,1584365953112,4437598615824,0.041111425,1,1
1584365954685,NaN,0.2679866,-0.1772461,-0.80688477,0.5510254,1584365953192,4437598615824,0.030046163,1,1
1584365954689,NaN,0.30144656,-0.17675781,-0.8071289,0.54711914,1584365953272,4437598615824,0.030046163,1,1
1584365954693,NaN,0.31428176,-0.17236328,-0.8093262,0.54174805,1584365953352,4437598615824,0.030046163,1,1
1584365954696,NaN,0.3197118,-0.17529297,-0.81274414,0.5407715,1584365953432,4437598615824,0.030046163,1,1
1584365954699,NaN,0.34982792,-0.18286133,-0.8190918,0.5422363,1584365953512,4437598615824,0.030046163,1,1
1584365954702,NaN,0.36886021,-0.18408203,-0.81225586,0.5410156,1584365953592,4437598615824,0.030046163,1,1
1584365954705,NaN,0.37030733,-0.20043945,-0.8251953,0.5439453,1584365953672,4437598615824,0.030046163,1,1
1584365954709,NaN,0.38258946,-0.19750977,-0.8000488,0.53759766,1584365953752,4437598615824,0.030046163,1,1
1584365954713,NaN,0.3695326,-0.18701172,-0.8041992,0.54125977,1584365953832,4437598615824,0.030046163,1,1
1584365954715,NaN,0.34942067,-0.20166016,-0.810791,0.5539551,1584365953912,4437598615824,0.030046163,1,1
1584365954719,NaN,0.3177614,-0.20361328,-0.80126953,0.55810547,1584365953992,4437598615824,0.030046163,1,1
1584365954722,NaN,0.3002858,-0.17382812,-0.81152344,0.5344238,1584365954072,4437598615824,0.039409623,1,1
1584365954727,NaN,0.26198152,-0.19042969,-0.80322266,0.5385742,1584365954152,4437598615824,0.039409623,1,1
1584365954731,NaN,0.2297743,-0.19433594,-0.8100586,0.5354004,1584365954232,4437598615824,0.039409623,1,1
1584365954735,NaN,0.20203954,-0.17919922,-0.8210449,0.53466797,1584365954312,4437598615824,0.039409623,1,1
1584365954740,NaN,0.17249657,-0.1899414,-0.81030273,0.52441406,1584365954392,4437598615824,0.039409623,1,1
1584365954743,NaN,0.13365325,-0.19750977,-0.81689453,0.5305176,1584365954472,4437598615824,0.039409623,1,1
1584365957183,NaN,0.09087943,-0.19140625,-0.81518555,0.5505371,1584365954552,-1759072996460,0.039409623,1,1
1584365957189,NaN,0.0574746,-0.17944336,-0.80615234,0.5473633,1584365954632,-1759072996460,0.039409623,1,1
1584365957195,NaN,0.034596335,-0.16918945,-0.80981445,0.55737305,1584365954712,-1759072996460,0.039409623,1,1
1584365957202,NaN,0.022785189,-0.16552734,-0.8059082,0.55566406,1584365954792,-1759072996460,0.039409623,1,1
1584365957207,NaN,0.01874485,-0.17822266,-0.79785156,0.5566406,1584365954872,-1759072996460,0.039409623,1,1
1584365957209,NaN,0.039460566,-0.17114258,-0.8051758,0.55322266,1584365954952,-1759072996460,0.039409623,1,1
1584365957213,NaN,0.01812412,-0.15942383,-0.8120117,0.5505371,1584365955032,-1759072996460,0.039409623,1,1
1584365957218,NaN,0.024096804,-0.15795898,-0.8095703,0.5522461,1584365955112,-1759072996460,0.039409623,1,1
1584365957222,NaN,0.009813662,-0.17285156,-0.795166,0.55737305,1584365955192,-1759072996460,0.039409623,1,1
1584365957227,NaN,-0.016948102,-0.1784668,-0.8041992,0.55444336,1584365955272,-1759072996460,0.039409623,1,1
1584365957230,NaN,-0.031452913,-0.1730957,-0.8078613,0.5510254,1584365955352,-1759072996460,0.039409623,1,1
1584365957234,NaN,-0.048372637,-0.171875,-0.8088379,0.56518555,1584365955432,-1759072996460,0.039409623,1,1
1584365957237,NaN,-0.06204168,-0.18237305,-0.7939453,0.5722656,1584365955512,-1759072996460,0.039409623,1,1
1584365957240,NaN,-0.082028605,-0.1953125,-0.7878418,0.56274414,1584365955592,-1759072996460,0.039409623,1,1
1584365957244,NaN,-0.102442265,-0.19189453,-0.7963867,0.5625,1584365955672,-1759072996460,0.039409623,1,1
1584365957248,NaN,-0.11854618,-0.19506836,-0.7998047,0.5612793,1584365955752,-1759072996460,0.039409623,1,1
1584365957252,NaN,-0.14002234,-0.19702148,-0.7800293,0.5666504,1584365955832,-1759072996460,0.039409623,1,1
1584365957257,NaN,-0.19359243,-0.20507812,-0.77978516,0.57592773,1584365955912,-1759072996460,0.039409623,1,1
1584365957263,NaN,-0.22513752,-0.20019531,-0.7770996,0.5593262,1584365955992,-1759072996460,0.039409623,1,1
1584365957266,NaN,-0.2624955,-0.19238281,-0.7780762,0.5595703,1584365956072,-1759072996460,0.039409623,1,1
1584365957271,NaN,-0.25521216,-0.19311523,-0.8054199,0.56469727,1584365956152,-1759072996460,0.039409623,1,1
1584365957274,NaN,-0.25493434,-0.19580078,-0.8005371,0.57470703,1584365956232,-1759072996460,0.039409623,1,1
1584365957277,NaN,-0.26142624,-0.19824219,-0.7944336,0.5566406,1584365956312,-1759072996460,0.039409623,1,1
1584365957281,NaN,-0.25044194,-0.19360352,-0.79785156,0.5539551,1584365956392,-1759072996460,0.039409623,1,1
1584365957284,NaN,-0.2215168,-0.19726562,-0.8054199,0.5600586,1584365956472,-1759072996460,0.039409623,1,1
1584365957286,NaN,-0.18539278,-0.19116211,-0.79956055,0.55322266,1584365956552,-1759072996460,0.039409623,1,1
1584365957291,NaN,-0.15130872,-0.1953125,-0.81103516,0.5444336,1584365956632,-1759072996460,0.02782989,1,1
1584365957293,NaN,-0.12443396,-0.19921875,-0.810791,0.55029297,1584365956712,-1759072996460,0.02782989,1,1
1584365957296,NaN,-0.09001905,-0.20654297,-0.80029297,0.5566406,1584365956792,-1759072996460,0.02782989,1,1
1584365957298,NaN,-0.027873062,-0.20385742,-0.7980957,0.5505371,1584365956872,-1759072996460,0.02782989,1,1
1584365957301,NaN,0.018550593,-0.1953125,-0.795166,0.55859375,1584365956952,-1759072996460,0.02782989,1,1
1584365957304,NaN,0.048930254,-0.19335938,-0.79125977,0.5710449,1584365957032,-1759072996460,0.02782989,1,1
1584365959765,NaN,0.050198942,-0.18457031,-0.7973633,0.56884766,1584365957112,-7955463133768,0.02782989,1,1
1584365959771,NaN,0.076472044,-0.18115234,-0.80126953,0.5703125,1584365957192,-7955463133768,0.02782989,1,1
1584365959776,NaN,0.09464034,-0.1772461,-0.79589844,0.56640625,1584365957272,-7955463133768,0.02782989,1,1
1584365959783,NaN,0.10336126,-0.1796875,-0.80444336,0.5600586,1584365957352,-7955463133768,0.02782989,1,1
1584365959786,NaN,0.10364795,-0.18041992,-0.80126953,0.5498047,1584365957432,-7955463133768,0.02782989,1,1
1584365959791,NaN,0.094039105,-0.18139648,-0.80078125,0.5529785,1584365957512,-7955463133768,0.02782989,1,1
1584365959795,NaN,0.060082946,-0.19873047,-0.79589844,0.5578613,1584365957592,-7955463133768,0.02782989,1,1
1584365959799,NaN,0.0350469,-0.18798828,-0.7854004,0.5566406,1584365957672,-7955463133768,0.02782989,1,1
1584365959809,NaN,0.023952698,-0.1862793,-0.78686523,0.5498047,1584365957752,-7955463133768,0.02782989,1,1
1584365959814,NaN,-0.0052846465,-0.19042969,-0.7919922,0.5571289,1584365957832,-7955463133768,0.02782989,1,1
1584365959820,NaN,-0.020332307,-0.19848633,-0.795166,0.564209,1584365957912,-7955463133768,0.02782989,1,1
1584365959823,NaN,-4.1987747E-4,-0.18798828,-0.8083496,0.5563965,1584365957992,-7955463133768,0.02782989,1,1
1584365959829,NaN,0.017928777,-0.18334961,-0.8066406,0.5546875,1584365958072,-7955463133768,0.02782989,1,1
1584365959833,NaN,0.024258548,-0.18969727,-0.8066406,0.5510254,1584365958152,-7955463133768,0.02782989,1,1
1584365959839,NaN,0.047047835,-0.18408203,-0.8066406,0.5371094,1584365958232,-7955463133768,0.02782989,1,1
1584365959842,NaN,0.051738765,-0.18188477,-0.81274414,0.55371094,1584365958312,-7955463133768,0.02782989,1,1
1584365959846,NaN,0.03514852,-0.18188477,-0.7988281,0.55981445,1584365958392,-7955463133768,0.02782989,1,1
1584365959857,NaN,0.025338948,-0.19067383,-0.7976074,0.55737305,1584365958472,-7955463133768,0.02782989,1,1
1584365959858,NaN,0.050055306,-0.18774414,-0.80322266,0.5551758,1584365958552,-7955463133768,0.02782989,1,1
1584365959861,NaN,0.071797654,-0.18896484,-0.8010254,0.5563965,1584365958632,-7955463133768,0.02782989,1,1
1584365959866,NaN,0.07227966,-0.18847656,-0.8005371,0.55493164,1584365958712,-7955463133768,0.019225203,1,1
1584365959871,NaN,0.08188633,-0.18041992,-0.79956055,0.55810547,1584365958792,-7955463133768,0.019225203,1,1
1584365959875,NaN,0.09496689,-0.18432617,-0.798584,0.5583496,1584365958872,-7955463133768,0.018658798,1,1
1584365959879,NaN,0.07133754,-0.19604492,-0.8015137,0.5551758,1584365958952,-7955463133768,0.018658798,1,1
1584365959882,NaN,0.0569551,-0.18530273,-0.8088379,0.5563965,1584365959032,-7955463133768,0.018658798,1,1
1584365959885,NaN,0.04820626,-0.1977539,-0.8041992,0.53930664,1584365959112,-7955463133768,0.021647442,1,1
1584365959888,NaN,0.03041554,-0.1965332,-0.82299805,0.53759766,1584365959192,-7955463133768,0.021647442,1,1
1584365959893,NaN,0.035301127,-0.19921875,-0.81591797,0.5305176,1584365959272,-7955463133768,0.021647442,1,1
1584365959896,NaN,0.09003243,-0.20043945,-0.82910156,0.50439453,1584365959352,-7955463133768,0.029286701,1,1
1584365959900,NaN,0.13735467,-0.21411133,-0.8312988,0.51293945,1584365959432,-7955463133768,0.029286701,1,1
1584365959902,NaN,0.16985203,-0.21948242,-0.8215332,0.49804688,1584365959512,-7955463133768,0.029286701,1,1
1584365959905,NaN,0.20719229,-0.21435547,-0.8276367,0.5012207,1584365959592,-7955463133768,0.029286701,1,1
1584365962550,NaN,0.23863481,-0.21801758,-0.8171387,0.5083008,1584365959672,4294890802632,0.029286701,1,1
1584365962555,NaN,0.2473418,-0.23339844,-0.8125,0.5344238,1584365959752,4294890802632,0.0306676,1,1
1584365962561,NaN,0.24684654,-0.21850586,-0.8071289,0.54467773,1584365959832,4294890802632,0.0306676,1,1
1584365962565,NaN,0.2545344,-0.20629883,-0.8051758,0.55078125,1584365959912,4294890802632,0.0306676,1,1
1584365962568,NaN,0.2482351,-0.20678711,-0.795166,0.55200195,1584365959992,4294890802632,0.0306676,1,1
1584365962572,NaN,0.23619343,-0.20043945,-0.7976074,0.54541016,1584365960072,4294890802632,0.0306676,1,1
1584365962575,NaN,0.2204539,-0.1940918,-0.80737305,0.5432129,1584365960152,4294890802632,0.0306676,1,1
1584365962579,NaN,0.19160503,-0.18408203,-0.8034668,0.5488281,1584365960232,4294890802632,0.0306676,1,1
1584365962583,NaN,0.09679017,-0.19580078,-0.79907227,0.55493164,1584365960312,4294890802632,0.0306676,1,1
1584365962586,NaN,0.026371589,-0.19580078,-0.8066406,0.5427246,1584365960392,4294890802632,0.0306676,1,1
1584365962589,NaN,-0.06260326,-0.203125,-0.80029297,0.5578613,1584365960472,4294890802632,0.0306676,1,1
1584365962593,NaN,-0.15693611,-0.20458984,-0.8017578,0.5576172,1584365960552,4294890802632,0.0306676,1,1
1584365962596,NaN,-0.2192071,-0.20507812,-0.8034668,0.5419922,1584365960632,4294890802632,0.0306676,1,1
1584365962599,NaN,-0.24075033,-0.20507812,-0.8137207,0.55078125,1584365960712,4294890802632,0.0306676,1,1
1584365962602,NaN,-0.25931147,-0.20874023,-0.7998047,0.55615234,1584365960792,4294890802632,0.0306676,1,1
1584365962605,NaN,-0.27432492,-0.21655273,-0.7885742,0.5546875,1584365960872,4294890802632,0.0306676,1,1
1584365962608,NaN,-0.285017,-0.23242188,-0.78637695,0.5671387,1584365960952,4294890802632,0.0306676,1,1
1584365962612,NaN,-0.2999619,-0.22875977,-0.7895508,0.5683594,1584365961032,4294890802632,0.0306676,1,1
1584365962615,NaN,-0.32954252,-0.23632812,-0.7675781,0.5671387,1584365961112,4294890802632,0.0306676,1,1
1584365962619,NaN,-0.34485766,-0.23046875,-0.7739258,0.56640625,1584365961192,4294890802632,0.0306676,1,1
1584365962621,NaN,-0.32693195,-0.22583008,-0.7685547,0.57250977,1584365961272,4294890802632,0.0306676,1,1
1584365962624,NaN,-0.34268382,-0.23046875,-0.7692871,0.57788086,1584365961352,4294890802632,0.0306676,1,1
1584365962627,NaN,-0.3221107,-0.23583984,-0.77001953,0.5732422,1584365961432,4294890802632,0.0306676,1,1
1584365962630,NaN,-0.3010139,-0.23339844,-0.78344727,0.5834961,1584365961512,4294890802632,0.0306676,1,1
1584365962632,NaN,-0.31736818,-0.23706055,-0.76538086,0.5776367,1584365961592,4294890802632,0.0306676,1,1
1584365962635,NaN,-0.354112,-0.23535156,-0.7680664,0.5812988,1584365961672,4294890802632,0.0306676,1,1
1584365962639,NaN,-0.363369,-0.21435547,-0.7858887,0.57470703,1584365961752,4294890802632,0.0306676,1,1
1584365962641,NaN,-0.36799955,-0.20874023,-0.77490234,0.56884766,1584365961832,4294890802632,0.0306676,1,1
1584365962644,NaN,-0.35570621,-0.21069336,-0.7849121,0.57373047,1584365961912,4294890802632,0.0306676,1,1
1584365962647,NaN,-0.32458153,-0.20776367,-0.79663086,0.5617676,1584365961992,4294890802632,0.0306676,1,1
1584365962649,NaN,-0.2705443,-0.21679688,-0.78686523,0.56274414,1584365962072,4294890802632,0.0306676,1,1
1584365962652,NaN,-0.22024514,-0.2241211,-0.7988281,0.5578613,1584365962152,4294890802632,0.0306676,1,1
1584365964930,NaN,-0.17126578,-0.21801758,-0.7932129,0.5637207,1584365962232,-1901780809652,0.0306676,1,1
1584365964936,NaN,-0.10273018,-0.21948242,-0.78759766,0.55810547,1584365962312,-1901780809652,0.028318208,1,1
1584365964939,NaN,-0.07328809,-0.22436523,-0.7819824,0.5810547,1584365962392,-1901780809652,0.028318208,1,1
1584365964942,NaN,-0.05020256,-0.21972656,-0.7729492,0.58447266,1584365962472,-1901780809652,0.028318208,1,1
1584365964947,NaN,-0.010718278,-0.22143555,-0.7729492,0.5917969,1584365962552,-1901780809652,0.028318208,1,1
1584365964951,NaN,0.020924479,-0.22705078,-0.7631836,0.5969238,1584365962632,-1901780809652,0.028318208,1,1
1584365964954,NaN,0.01226975,-0.21923828,-0.7583008,0.5957031,1584365962712,-1901780809652,0.028318208,1,1
1584365964957,NaN,0.0067670196,-0.2163086,-0.7644043,0.5932617,1584365962792,-1901780809652,0.028318208,1,1
1584365964960,NaN,-0.024928987,-0.21899414,-0.75390625,0.6047363,1584365962872,-1901780809652,0.028318208,1,1
1584365964962,NaN,-0.08114564,-0.21386719,-0.7468262,0.59472656,1584365962952,-1901780809652,0.028318208,1,1
1584365964970,NaN,-0.13256556,-0.21679688,-0.74975586,0.59106445,1584365963032,-1901780809652,0.028318208,1,1
1584365964970,NaN,-0.19084536,-0.21020508,-0.7578125,0.5866699,1584365963112,-1901780809652,0.028318208,1,1
1584365964974,NaN,-0.24810956,-0.21118164,-0.77783203,0.6101074,1584365963192,-1901780809652,0.030839127,1,1
1584365964978,NaN,-0.29828456,-0.1899414,-0.78027344,0.59399414,1584365963272,-1901780809652,0.030839127,1,1
1584365964982,NaN,-0.31455684,-0.18945312,-0.7614746,0.5871582,1584365963352,-1901780809652,0.030839127,1,1
1584365964985,NaN,-0.3024368,-0.1940918,-0.7775879,0.57714844,1584365963432,-1901780809652,0.030839127,1,1
1584365964990,NaN,-0.28236327,-0.2006836,-0.7883301,0.5800781,1584365963512,-1901780809652,0.030839127,1,1
1584365964994,NaN,-0.22818322,-0.18261719,-0.798584,0.560791,1584365963592,-1901780809652,0.030839127,1,1
1584365964997,NaN,-0.1506209,-0.16772461,-0.79711914,0.5510254,1584365963672,-1901780809652,0.030839127,1,1
1584365965000,NaN,-0.079431094,-0.18261719,-0.8066406,0.5517578,1584365963752,-1901780809652,0.030839127,1,1
1584365965003,NaN,0.028189356,-0.2019043,-0.81274414,0.5437012,1584365963832,-1901780809652,0.030839127,1,1
1584365965007,8.928572,0.13992508,-0.2055664,-0.8051758,0.5432129,1584365963912,-1901780809652,0.030839127,1,1
1584365965010,NaN,0.24041247,-0.19482422,-0.8129883,0.54541016,1584365963992,-1901780809652,0.030839127,1,1
1584365965013,NaN,0.33213934,-0.20629883,-0.8083496,0.54663086,1584365964072,-1901780809652,0.030839127,1,1
1584365965016,NaN,0.41910338,-0.22729492,-0.8083496,0.5600586,1584365964152,-1901780809652,0.030839127,1,1
1584365965019,NaN,0.5040271,-0.2097168,-0.80737305,0.52783203,1584365964232,-1901780809652,0.036721867,1,1
1584365965022,NaN,0.57994777,-0.19873047,-0.8137207,0.5344238,1584365964312,-1901780809652,0.036721867,1,1
1584365965025,NaN,0.61400455,-0.20263672,-0.8041992,0.53564453,1584365964392,-1901780809652,0.036721867,1,1
1584365965028,NaN,0.6303044,-0.20874023,-0.8076172,0.54711914,1584365964472,-1901780809652,0.036721867,1,1
1584365965032,NaN,0.6091464,-0.21166992,-0.8010254,0.5317383,1584365964552,-1901780809652,0.036721867,1,1
1584365965034,NaN,0.56980807,-0.20532227,-0.80371094,0.54003906,1584365964632,-1901780809652,0.036721867,1,1
1584365965037,NaN,0.5281541,-0.19995117,-0.795166,0.53271484,1584365964712,-1901780809652,0.036721867,1,1
1584365967518,NaN,0.4522406,-0.20288086,-0.798584,0.5415039,1584365964792,-8098170946961,0.036721867,1,1
1584365967523,NaN,0.3778259,-0.20385742,-0.8046875,0.5578613,1584365964872,-8098170946961,0.036721867,1,1
1584365967530,NaN,0.30455676,-0.21606445,-0.80566406,0.5546875,1584365964952,-8098170946961,0.036721867,1,1
1584365967537,NaN,0.25460833,-0.20214844,-0.80200195,0.53930664,1584365965032,-8098170946961,0.036721867,1,1
1584365967543,NaN,0.215885,-0.19799805,-0.8000488,0.5422363,1584365965112,-8098170946961,0.036721867,1,1
1584365967548,NaN,0.15176241,-0.19433594,-0.80078125,0.5332031,1584365965192,-8098170946961,0.036721867,1,1
1584365967551,NaN,0.09065925,-0.2019043,-0.8334961,0.54785156,1584365965272,-8098170946961,0.036721867,1,1
1584365967555,NaN,0.056794453,-0.1928711,-0.8054199,0.52685547,1584365965352,-8098170946961,0.036721867,1,1
1584365967558,NaN,0.051105168,-0.18823242,-0.82006836,0.52001953,1584365965432,-8098170946961,0.036721867,1,1
1584365967562,NaN,0.015732268,-0.21459961,-0.8088379,0.5583496,1584365965512,-8098170946961,0.047859658,1,1
1584365967565,NaN,0.013797763,-0.20898438,-0.7871094,0.5163574,1584365965592,-8098170946961,0.047859658,1,1
1584365967571,NaN,-0.027896004,-0.24291992,-0.78149414,0.56762695,1584365965672,-8098170946961,0.061739106,1,1
1584365967575,NaN,-0.058930267,-0.22705078,-0.80859375,0.5986328,1584365965752,-8098170946961,0.061739106,1,1
1584365967580,NaN,-0.031074867,-0.20800781,-0.8034668,0.5307617,1584365965832,-8098170946961,0.07067818,1,1
1584365967584,NaN,-0.008128324,-0.2487793,-0.7988281,0.52856445,1584365965912,-8098170946961,0.07067818,1,1
1584365967587,NaN,-0.020887524,-0.2548828,-0.7976074,0.54589844,1584365965992,-8098170946961,0.07067818,1,1
1584365967590,NaN,-0.050763916,-0.25146484,-0.78564453,0.55493164,1584365966072,-8098170946961,0.07067818,1,1
1584365967594,NaN,-0.070240356,-0.25439453,-0.78564453,0.55249023,1584365966152,-8098170946961,0.07067818,1,1
1584365967599,NaN,-0.09047288,-0.25634766,-0.79956055,0.54589844,1584365966232,-8098170946961,0.07067818,1,1
1584365967603,NaN,-0.110053636,-0.23803711,-0.8015137,0.5361328,1584365966312,-8098170946961,0.07067818,1,1
1584365967605,NaN,-0.1498172,-0.21801758,-0.79541016,0.51782227,1584365966392,-8098170946961,0.07067818,1,1
1584365967609,NaN,-0.13916413,-0.22705078,-0.7832031,0.5437012,1584365966472,-8098170946961,0.07067818,1,1
1584365967612,NaN,-0.17895544,-0.23632812,-0.7993164,0.5683594,1584365966552,-8098170946961,0.07067818,1,1
1584365967615,NaN,-0.14969957,-0.2290039,-0.77978516,0.57592773,1584365966632,-8098170946961,0.07067818,1,1
1584365967618,NaN,-0.1096012,-0.20996094,-0.77905273,0.57373047,1584365966712,-8098170946961,0.07067818,1,1
1584365967622,NaN,-0.17153823,-0.2121582,-0.7805176,0.57958984,1584365966792,-8098170946961,0.07067818,1,1
1584365967625,NaN,-0.21432675,-0.19897461,-0.7919922,0.5761719,1584365966872,-8098170946961,0.07067818,1,1
1584365967628,NaN,-0.22127374,-0.17773438,-0.7854004,0.57177734,1584365966952,-8098170946961,0.07067818,1,1
1584365967631,NaN,-0.20471698,-0.16967773,-0.7944336,0.5734863,1584365967032,-8098170946961,0.07067818,1,1
1584365967634,NaN,-0.20557135,-0.17163086,-0.78125,0.59277344,1584365967112,-8098170946961,0.07067818,1,1
1584365967637,NaN,-0.22681089,-0.17626953,-0.7788086,0.5932617,1584365967192,-8098170946961,0.07067818,1,1
1584365967640,NaN,-0.27224395,-0.16259766,-0.7729492,0.5996094,1584365967272,-8098170946961,0.07067818,1,1
1584365970102,NaN,-0.32980227,-0.16552734,-0.7668457,0.60058594,1584365967352,4152182989440,0.07067818,1,1
1584365970107,NaN,-0.38378367,-0.17407227,-0.76220703,0.6113281,1584365967432,4152182989440,0.07067818,1,1
1584365970112,NaN,-0.4050877,-0.18188477,-0.7585449,0.61328125,1584365967512,4152182989440,0.07067818,1,1
1584365970119,NaN,-0.4459571,-0.17578125,-0.7487793,0.6166992,1584365967592,4152182989440,0.07067818,1,1
1584365970127,NaN,-0.49626586,-0.18383789,-0.748291,0.61743164,1584365967672,4152182989440,0.07067818,1,1
1584365970134,NaN,-0.4965748,-0.19726562,-0.751709,0.623291,1584365967752,4152182989440,0.07067818,1,1
1584365970139,NaN,-0.51866645,-0.19726562,-0.7463379,0.6201172,1584365967832,4152182989440,0.07067818,1,1
1584365970144,NaN,-0.54178363,-0.1899414,-0.76049805,0.61499023,1584365967912,4152182989440,0.07067818,1,1
1584365970148,NaN,-0.57833856,-0.19238281,-0.75561523,0.6057129,1584365967992,4152182989440,0.07067818,1,1
1584365970151,NaN,-0.56706315,-0.19384766,-0.763916,0.6040039,1584365968072,4152182989440,0.07067818,1,1
1584365970155,NaN,-0.54205877,-0.20483398,-0.7614746,0.6064453,1584365968152,4152182989440,0.07067818,1,1
1584365970162,NaN,-0.48480728,-0.19848633,-0.75756836,0.5913086,1584365968232,4152182989440,0.07067818,1,1
1584365970165,NaN,-0.40950933,-0.19702148,-0.76171875,0.59350586,1584365968312,4152182989440,0.07067818,1,1
1584365970170,NaN,-0.33023027,-0.1965332,-0.76220703,0.58154297,1584365968392,4152182989440,0.041093297,1,1
1584365970174,NaN,-0.26322192,-0.19750977,-0.7595215,0.5944824,1584365968472,4152182989440,0.030882582,1,1
1584365970179,NaN,-0.20926528,-0.20898438,-0.7609863,0.61743164,1584365968552,4152182989440,0.030882582,1,1
1584365970185,NaN,-0.15774505,-0.20239258,-0.75268555,0.6152344,1584365968632,4152182989440,0.030882582,1,1
1584365970186,NaN,-0.10573557,-0.20092773,-0.7570801,0.61694336,1584365968712,4152182989440,0.030882582,1,1
1584365970190,NaN,-0.046817888,-0.18530273,-0.7546387,0.6154785,1584365968792,4152182989440,0.030882582,1,1
1584365970193,NaN,-0.0058299764,-0.1821289,-0.76049805,0.6135254,1584365968872,4152182989440,0.030882582,1,1
1584365970196,NaN,0.034180775,-0.18066406,-0.76000977,0.607666,1584365968952,4152182989440,0.030882582,1,1
1584365970200,NaN,0.03835754,-0.18945312,-0.7558594,0.6140137,1584365969032,4152182989440,0.030882582,1,1
1584365970203,NaN,0.042039674,-0.19140625,-0.75146484,0.61621094,1584365969112,4152182989440,0.025699787,1,1
1584365970205,NaN,0.021853834,-0.18237305,-0.75097656,0.6152344,1584365969192,4152182989440,0.025699787,1,1
1584365970209,NaN,-0.0030432742,-0.18383789,-0.7548828,0.6179199,1584365969272,4152182989440,0.025699787,1,1
1584365970213,NaN,-0.056074638,-0.18774414,-0.7463379,0.61621094,1584365969352,4152182989440,0.025699787,1,1
1584365970215,NaN,-0.09561527,-0.19873047,-0.74902344,0.62524414,1584365969432,4152182989440,0.025699787,1,1
1584365970220,NaN,-0.11917894,-0.20019531,-0.751709,0.6323242,1584365969512,4152182989440,0.025699787,1,1
1584365970223,NaN,-0.121957384,-0.19677734,-0.7529297,0.611084,1584365969592,4152182989440,0.025699787,1,1
1584365970228,NaN,-0.120483525,-0.2043457,-0.75878906,0.60546875,1584365969672,4152182989440,0.025699787,1,1
1584365970232,NaN,-0.11732606,-0.20263672,-0.76220703,0.60913086,1584365969752,4152182989440,0.025699787,1,1
1584365970237,NaN,-0.10251505,-0.20361328,-0.75805664,0.5913086,1584365969832,4152182989440,0.025699787,1,1
1584365972683,NaN,-0.08850554,-0.20751953,-0.7644043,0.5932617,1584365969912,-2044488622844,0.025699787,1,1
1584365972689,NaN,-0.055107277,-0.21020508,-0.76000977,0.5859375,1584365969992,-2044488622844,0.025699787,1,1
1584365972694,NaN,-0.017999293,-0.2109375,-0.7595215,0.5878906,1584365970072,-2044488622844,0.025699787,1,1
1584365972700,9.615385,0.01859954,-0.20800781,-0.7578125,0.5996094,1584365970152,-2044488622844,0.025699787,1,1
1584365972703,NaN,0.040386677,-0.21704102,-0.75390625,0.6203613,1584365970232,-2044488622844,0.025699787,1,1
1584365972707,NaN,0.07827643,-0.21484375,-0.7492676,0.61328125,1584365970312,-2044488622844,0.025699787,1,1
1584365972712,NaN,0.11085381,-0.20483398,-0.75024414,0.6164551,1584365970392,-2044488622844,0.025699787,1,1
1584365972715,NaN,0.139629,-0.2084961,-0.75219727,0.61376953,1584365970472,-2044488622844,0.025699787,1,1
1584365972718,NaN,0.12899055,-0.2109375,-0.74487305,0.61938477,1584365970552,-2044488622844,0.025699787,1,1
1584365972722,NaN,0.10418621,-0.21508789,-0.7451172,0.62060547,1584365970632,-2044488622844,0.025699787,1,1
1584365972725,NaN,0.07417787,-0.20703125,-0.7373047,0.6213379,1584365970712,-2044488622844,0.025699787,1,1
1584365972730,NaN,0.022055907,-0.2109375,-0.7363281,0.6311035,1584365970792,-2044488622844,0.025699787,1,1
1584365972734,NaN,-0.0352916,-0.20898438,-0.7348633,0.6359863,1584365970872,-2044488622844,0.025699787,1,1
1584365972738,NaN,-0.099857666,-0.21459961,-0.7336426,0.6298828,1584365970952,-2044488622844,0.025699787,1,1
1584365972742,NaN,-0.16907322,-0.21191406,-0.73461914,0.63671875,1584365971032,-2044488622844,0.025699787,1,1
1584365972746,NaN,-0.22929512,-0.21142578,-0.7270508,0.64331055,1584365971112,-2044488622844,0.022967393,1,1
1584365972749,NaN,-0.25918046,-0.21484375,-0.73217773,0.6472168,1584365971192,-2044488622844,0.022967393,1,1
1584365972752,NaN,-0.28788102,-0.21826172,-0.73095703,0.63378906,1584365971272,-2044488622844,0.022967393,1,1
1584365972755,NaN,-0.30936304,-0.22167969,-0.73779297,0.6308594,1584365971352,-2044488622844,0.022967393,1,1
1584365972759,NaN,-0.33987764,-0.22436523,-0.73095703,0.62524414,1584365971432,-2044488622844,0.022967393,1,1
1584365972762,NaN,-0.3341752,-0.22680664,-0.73999023,0.6218262,1584365971512,-2044488622844,0.022967393,1,1
1584365972764,NaN,-0.32038888,-0.22265625,-0.74072266,0.6218262,1584365971592,-2044488622844,0.022967393,1,1
1584365972767,NaN,-0.29443473,-0.22241211,-0.73828125,0.6164551,1584365971672,-2044488622844,0.022967393,1,1
1584365972770,NaN,-0.23894763,-0.21923828,-0.7453613,0.6113281,1584365971752,-2044488622844,0.022967393,1,1
1584365972776,NaN,-0.16743445,-0.2121582,-0.7409668,0.59814453,1584365971832,-2044488622844,0.022967393,1,1
1584365972780,NaN,-0.112454206,-0.21191406,-0.74365234,0.6176758,1584365971912,-2044488622844,0.022967393,1,1
1584365972784,NaN,-0.057179093,-0.21508789,-0.73876953,0.62475586,1584365971992,-2044488622844,0.022967393,1,1
1584365972787,NaN,0.002222317,-0.21899414,-0.7368164,0.6296387,1584365972072,-2044488622844,0.022967393,1,1
1584365972790,30.0,0.043556184,-0.21459961,-0.7375488,0.63256836,1584365972152,-2044488622844,0.022967393,1,1
1584365972793,NaN,0.06478531,-0.2121582,-0.7314453,0.63500977,1584365972232,-2044488622844,0.022967393,1,1
1584365972796,NaN,0.070576705,-0.2109375,-0.73095703,0.63623047,1584365972312,-2044488622844,0.022967393,1,1
1584365972800,NaN,0.07633119,-0.20629883,-0.7297363,0.63720703,1584365972392,-2044488622844,0.022967393,1,1
1584365975268,NaN,0.059077248,-0.21313477,-0.73046875,0.6413574,1584365972472,-8240878760153,0.022967393,1,1
1584365975275,NaN,0.041989986,-0.20629883,-0.72558594,0.63549805,1584365972552,-8240878760153,0.022967393,1,1
1584365975281,NaN,0.010587238,-0.20507812,-0.72753906,0.64331055,1584365972632,-8240878760153,0.022967393,1,1
1584365975285,NaN,-0.03775337,-0.2121582,-0.7290039,0.6425781,1584365972712,-8240878760153,0.022967393,1,1
1584365975290,NaN,-0.10725293,-0.20776367,-0.72143555,0.6455078,1584365972792,-8240878760153,0.01971653,1,1
1584365975294,NaN,-0.15003936,-0.21313477,-0.7265625,0.65112305,1584365972872,-8240878760153,0.01971653,1,1
1584365975300,NaN,-0.18752933,-0.20776367,-0.7216797,0.6513672,1584365972952,-8240878760153,0.01971653,1,1
1584365975304,NaN,-0.22206552,-0.21289062,-0.7258301,0.6496582,1584365973032,-8240878760153,0.01971653,1,1
1584365975307,NaN,-0.24740426,-0.2133789,-0.73413086,0.64990234,1584365973112,-8240878760153,0.01971653,1,1
1584365975313,NaN,-0.24676324,-0.20825195,-0.73706055,0.63964844,1584365973192,-8240878760153,0.01971653,1,1
1584365975319,NaN,-0.22885291,-0.20458984,-0.73706055,0.62475586,1584365973272,-8240878760153,0.01971653,1,1
1584365975323,NaN,-0.19886707,-0.21362305,-0.7446289,0.6220703,1584365973352,-8240878760153,0.01971653,1,1
1584365975328,NaN,-0.15300332,-0.21313477,-0.74194336,0.6098633,1584365973432,-8240878760153,0.01971653,1,1
1584365975331,NaN,-0.10822818,-0.21044922,-0.74658203,0.61376953,1584365973512,-8240878760153,0.01971653,1,1
1584365975335,NaN,-0.050332963,-0.2133789,-0.7470703,0.6113281,1584365973592,-8240878760153,0.01971653,1,1
1584365975338,NaN,0.004891701,-0.2109375,-0.74194336,0.6130371,1584365973672,-8240878760153,0.01971653,1,1
1584365975343,37.5,0.07395939,-0.21020508,-0.7404785,0.61816406,1584365973752,-8240878760153,0.01971653,1,1
1584365975347,NaN,0.1265295,-0.21533203,-0.74316406,0.6298828,1584365973832,-8240878760153,0.01971653,1,1
1584365975351,NaN,0.1829222,-0.21166992,-0.74316406,0.6237793,1584365973912,-8240878760153,0.01971653,1,1
1584365975354,NaN,0.22222035,-0.20629883,-0.74316406,0.63012695,1584365973992,-8240878760153,0.01971653,1,1
1584365975357,NaN,0.25191388,-0.20239258,-0.7402344,0.62524414,1584365974072,-8240878760153,0.01971653,1,1
1584365975361,NaN,0.2575367,-0.20800781,-0.73461914,0.6303711,1584365974152,-8240878760153,0.01971653,1,1
1584365975365,NaN,0.24457484,-0.21264648,-0.73706055,0.6333008,1584365974232,-8240878760153,0.01971653,1,1
1584365975369,NaN,0.2144001,-0.20336914,-0.7302246,0.6254883,1584365974312,-8240878760153,0.01971653,1,1
1584365975374,NaN,0.17968209,-0.20751953,-0.74316406,0.6220703,1584365974392,-8240878760153,0.01971653,1,1
1584365975376,NaN,0.14216076,-0.19970703,-0.74487305,0.62719727,1584365974472,-8240878760153,0.0153362295,1,1
1584365975381,NaN,0.099208,-0.19360352,-0.74902344,0.6220703,1584365974552,-8240878760153,0.0153362295,1,1
1584365975383,NaN,0.065958865,-0.19018555,-0.7480469,0.6213379,1584365974632,-8240878760153,0.0153362295,1,1
1584365975386,NaN,0.03011626,-0.19213867,-0.74438477,0.6262207,1584365974712,-8240878760153,0.0153362295,1,1
1584365975389,NaN,0.001359739,-0.20629883,-0.7441406,0.63671875,1584365974792,-8240878760153,0.017628914,1,1
1584365975393,NaN,-0.04618746,-0.20483398,-0.73583984,0.64404297,1584365974872,-8240878760153,0.017628914,1,1
1584365975398,NaN,-0.06866894,-0.21044922,-0.74194336,0.63500977,1584365974952,-8240878760153,0.017628914,1,1
1584365977652,NaN,-0.09414203,-0.2121582,-0.73095703,0.6357422,1584365975032,4009475176247,0.017628914,1,1
1584365977657,NaN,-0.09014564,-0.21533203,-0.73876953,0.6225586,1584365975112,4009475176247,0.017628914,1,1
1584365977663,NaN,-0.07459777,-0.22216797,-0.73876953,0.61987305,1584365975192,4009475176247,0.017628914,1,1
1584365977669,NaN,-0.043512773,-0.22241211,-0.7475586,0.6154785,1584365975272,4009475176247,0.017628914,1,1
1584365977672,NaN,-0.026996307,-0.2109375,-0.73950195,0.6086426,1584365975352,4009475176247,0.017628914,1,1
1584365977676,NaN,-0.0018984253,-0.20922852,-0.74438477,0.6105957,1584365975432,4009475176247,0.017628914,1,1
1584365977679,NaN,0.023728758,-0.2019043,-0.74365234,0.59887695,1584365975512,4009475176247,0.017628914,1,1
1584365977684,NaN,0.03222693,-0.21313477,-0.7404785,0.62402344,1584365975592,4009475176247,0.027722595,1,1
1584365977686,31.25,0.04326524,-0.22070312,-0.7438965,0.6328125,1584365975672,4009475176247,0.027722595,1,1
1584365977690,NaN,0.053410996,-0.21020508,-0.73706055,0.62719727,1584365975752,4009475176247,0.027722595,1,1
1584365977694,NaN,0.07489117,-0.20385742,-0.73583984,0.6386719,1584365975832,4009475176247,0.027722595,1,1
1584365977698,NaN,0.06667868,-0.20605469,-0.73291016,0.6435547,1584365975912,4009475176247,0.027722595,1,1
1584365977709,NaN,0.07193542,-0.20458984,-0.73535156,0.6411133,1584365975992,4009475176247,0.027722595,1,1
1584365977710,NaN,0.051963747,-0.20532227,-0.734375,0.6323242,1584365976072,4009475176247,0.027722595,1,1
1584365977714,NaN,0.026082002,-0.20288086,-0.7324219,0.6286621,1584365976152,4009475176247,0.027722595,1,1
1584365977718,NaN,-0.021702275,-0.20678711,-0.73046875,0.6401367,1584365976232,4009475176247,0.027722595,1,1
1584365977721,NaN,-0.060824867,-0.20825195,-0.7294922,0.64941406,1584365976312,4009475176247,0.027722595,1,1
1584365977723,NaN,-0.105045535,-0.20947266,-0.7224121,0.64453125,1584365976392,4009475176247,0.027722595,1,1
1584365977727,NaN,-0.15705033,-0.2097168,-0.73095703,0.65356445,1584365976472,4009475176247,0.027722595,1,1
1584365977731,NaN,-0.18232779,-0.20458984,-0.7265625,0.6489258,1584365976552,4009475176247,0.027722595,1,1
1584365977735,NaN,-0.22799212,-0.23144531,-0.6970215,0.6738281,1584365976632,4009475176247,0.047053315,1,1
1584365977739,NaN,-0.259673,-0.23388672,-0.7043457,0.6611328,1584365976712,4009475176247,0.047053315,1,1
1584365977742,NaN,-0.27626148,-0.24194336,-0.6875,0.64501953,1584365976792,4009475176247,0.047053315,1,1
1584365977745,NaN,-0.27763614,-0.2421875,-0.7038574,0.66015625,1584365976872,4009475176247,0.047053315,1,1
1584365977748,NaN,-0.27386174,-0.23266602,-0.7192383,0.64282227,1584365976952,4009475176247,0.047053315,1,1
1584365977752,NaN,-0.25061074,-0.22924805,-0.7336426,0.62475586,1584365977032,4009475176247,0.047053315,1,1
1584365977755,NaN,-0.22245957,-0.23950195,-0.7312012,0.62402344,1584365977112,4009475176247,0.047053315,1,1
1584365977757,NaN,-0.16970497,-0.23583984,-0.73046875,0.6154785,1584365977192,4009475176247,0.047053315,1,1
1584365977760,NaN,-0.11062062,-0.23388672,-0.72387695,0.61328125,1584365977272,4009475176247,0.047053315,1,1
1584365977763,NaN,-0.065806784,-0.24145508,-0.7272949,0.6413574,1584365977352,4009475176247,0.047053315,1,1
1584365977767,NaN,-0.021692874,-0.24682617,-0.7233887,0.6525879,1584365977432,4009475176247,0.047053315,1,1
1584365977770,NaN,0.005281873,-0.24633789,-0.7097168,0.6477051,1584365977512,4009475176247,0.047053315,1,1
1584365980236,31.25,0.07181799,-0.23901367,-0.7062988,0.6464844,1584365977592,-2187196436037,0.047053315,1,1
1584365980242,NaN,0.106281646,-0.22973633,-0.7141113,0.6569824,1584365977672,-2187196436037,0.047053315,1,1
1584365980248,NaN,0.11961316,-0.2253418,-0.7084961,0.65649414,1584365977752,-2187196436037,0.047053315,1,1
1584365980254,NaN,0.1342044,-0.22241211,-0.70947266,0.6555176,1584365977832,-2187196436037,0.047053315,1,1
1584365980261,NaN,0.11725285,-0.2211914,-0.70947266,0.657959,1584365977912,-2187196436037,0.047053315,1,1
1584365980266,NaN,0.0654537,-0.22094727,-0.70336914,0.66015625,1584365977992,-2187196436037,0.047053315,1,1
1584365980271,NaN,0.008878499,-0.21972656,-0.7036133,0.66259766,1584365978072,-2187196436037,0.047053315,1,1
1584365980273,NaN,-0.07186854,-0.22485352,-0.6999512,0.6760254,1584365978152,-2187196436037,0.047053315,1,1
1584365980277,NaN,-0.14080836,-0.23657227,-0.7077637,0.66625977,1584365978232,-2187196436037,0.047053315,1,1
1584365980282,NaN,-0.1659437,-0.22705078,-0.7055664,0.63720703,1584365978312,-2187196436037,0.047053315,1,1
1584365980286,NaN,-0.16761674,-0.23779297,-0.7260742,0.6435547,1584365978392,-2187196436037,0.047053315,1,1
1584365980290,NaN,-0.15960379,-0.23901367,-0.72436523,0.64086914,1584365978472,-2187196436037,0.047053315,1,1
1584365980293,NaN,-0.17537624,-0.23339844,-0.7229004,0.64575195,1584365978552,-2187196436037,0.047053315,1,1
1584365980296,NaN,-0.15823524,-0.23608398,-0.72558594,0.63061523,1584365978632,-2187196436037,0.047053315,1,1
1584365980299,NaN,-0.13357644,-0.23950195,-0.7158203,0.62768555,1584365978712,-2187196436037,0.047053315,1,1
1584365980303,NaN,-0.10464987,-0.23706055,-0.7141113,0.6142578,1584365978792,-2187196436037,0.047053315,1,1
1584365980305,NaN,-0.06747686,-0.24633789,-0.7180176,0.6398926,1584365978872,-2187196436037,0.047053315,1,1
1584365980309,NaN,-0.01503703,-0.24658203,-0.7141113,0.65625,1584365978952,-2187196436037,0.047053315,1,1
1584365980312,41.666668,0.03082568,-0.23144531,-0.70166016,0.6591797,1584365979032,-2187196436037,0.047053315,1,1
1584365980316,NaN,0.10928694,-0.22680664,-0.7194824,0.6574707,1584365979112,-2187196436037,0.047053315,1,1
1584365980320,NaN,0.161327,-0.22216797,-0.7145996,0.65063477,1584365979192,-2187196436037,0.030652048,1,1
1584365980322,NaN,0.16285022,-0.2253418,-0.7097168,0.6557617,1584365979272,-2187196436037,0.030652048,1,1
1584365980326,NaN,0.13005549,-0.22558594,-0.70410156,0.6657715,1584365979352,-2187196436037,0.030652048,1,1
1584365980328,NaN,0.08973058,-0.22070312,-0.7011719,0.66381836,1584365979432,-2187196436037,0.030652048,1,1
1584365980332,NaN,0.05430838,-0.22241211,-0.69970703,0.66674805,1584365979512,-2187196436037,0.030652048,1,1
1584365980336,NaN,-0.007303819,-0.22851562,-0.6958008,0.6635742,1584365979592,-2187196436037,0.030652048,1,1
1584365980339,NaN,-0.06903962,-0.22607422,-0.69384766,0.66430664,1584365979672,-2187196436037,0.030652048,1,1
1584365980342,NaN,-0.15337525,-0.23266602,-0.69433594,0.6809082,1584365979752,-2187196436037,0.030652048,1,1
1584365980347,NaN,-0.20898902,-0.22875977,-0.69799805,0.67407227,1584365979832,-2187196436037,0.030652048,1,1
1584365980358,NaN,-0.2335757,-0.23388672,-0.70166016,0.6608887,1584365979912,-2187196436037,0.030652048,1,1
1584365980360,NaN,-0.22445297,-0.2446289,-0.70947266,0.6496582,1584365979992,-2187196436037,0.030652048,1,1
1584365980360,NaN,-0.23283409,-0.23779297,-0.720459,0.6394043,1584365980072,-2187196436037,0.030652048,1,1
1584365982821,NaN,-0.22590245,-0.24243164,-0.71875,0.6315918,1584365980152,-8383586573345,0.030652048,1,1
1584365982826,NaN,-0.19254152,-0.23486328,-0.7236328,0.63305664,1584365980232,-8383586573345,0.030652048,1,1
1584365982829,NaN,-0.12684332,-0.23608398,-0.7207031,0.62231445,1584365980312,-8383586573345,0.030652048,1,1
1584365982833,NaN,-0.06275212,-0.2290039,-0.70874023,0.6184082,1584365980392,-8383586573345,0.030652048,1,1
1584365982839,NaN,-0.018802153,-0.23876953,-0.71484375,0.6574707,1584365980472,-8383586573345,0.040724676,1,1
1584365982841,NaN,0.017536333,-0.24145508,-0.6977539,0.6706543,1584365980552,-8383586573345,0.040724676,1,1
1584365982844,37.5,0.059134394,-0.2290039,-0.69970703,0.6628418,1584365980632,-8383586573345,0.040724676,1,1
1584365982848,NaN,0.13189285,-0.22607422,-0.7050781,0.6574707,1584365980712,-8383586573345,0.040724676,1,1
1584365982852,NaN,0.17876232,-0.22680664,-0.7067871,0.66259766,1584365980792,-8383586573345,0.040724676,1,1
1584365982856,NaN,0.19247885,-0.22680664,-0.7077637,0.66137695,1584365980872,-8383586573345,0.040724676,1,1
1584365982860,NaN,0.16680832,-0.22802734,-0.70043945,0.6586914,1584365980952,-8383586573345,0.040724676,1,1
1584365982864,NaN,0.13126692,-0.22851562,-0.704834,0.6582031,1584365981032,-8383586573345,0.040724676,1,1
1584365982867,NaN,0.0735197,-0.23071289,-0.6928711,0.6699219,1584365981112,-8383586573345,0.040724676,1,1
1584365982870,NaN,0.0069350204,-0.23803711,-0.69018555,0.6743164,1584365981192,-8383586573345,0.040724676,1,1
1584365982874,NaN,-0.07881559,-0.2355957,-0.68969727,0.671875,1584365981272,-8383586573345,0.040724676,1,1
1584365982880,NaN,-0.15229638,-0.22753906,-0.6936035,0.66796875,1584365981352,-8383586573345,0.040724676,1,1
1584365982883,NaN,-0.18962394,-0.23046875,-0.6940918,0.6706543,1584365981432,-8383586573345,0.040724676,1,1
1584365982886,NaN,-0.19464312,-0.22827148,-0.69799805,0.67749023,1584365981512,-8383586573345,0.040724676,1,1
1584365982889,NaN,-0.20794047,-0.234375,-0.6972656,0.6765137,1584365981592,-8383586573345,0.040724676,1,1
1584365982893,NaN,-0.22843055,-0.23364258,-0.7050781,0.6611328,1584365981672,-8383586573345,0.040724676,1,1
1584365982898,NaN,-0.23269778,-0.23657227,-0.704834,0.6520996,1584365981752,-8383586573345,0.040724676,1,1
1584365982901,NaN,-0.21952052,-0.23828125,-0.7175293,0.6491699,1584365981832,-8383586573345,0.040724676,1,1
1584365982904,NaN,-0.1931215,-0.24121094,-0.7114258,0.6508789,1584365981912,-8383586573345,0.040724676,1,1
1584365982907,NaN,-0.1498379,-0.24365234,-0.71435547,0.6364746,1584365981992,-8383586573345,0.040724676,1,1
1584365982911,NaN,-0.06718445,-0.2355957,-0.7207031,0.62646484,1584365982072,-8383586573345,0.040724676,1,1
1584365982914,NaN,0.026691094,-0.23266602,-0.72265625,0.6191406,1584365982152,-8383586573345,0.040724676,1,1
1584365982917,37.5,0.11718988,-0.23266602,-0.72094727,0.6291504,1584365982232,-8383586573345,0.040724676,1,1
1584365982921,NaN,0.181352,-0.2434082,-0.71777344,0.6533203,1584365982312,-8383586573345,0.040724676,1,1
1584365982925,NaN,0.22749798,-0.22827148,-0.7133789,0.64575195,1584365982392,-8383586573345,0.040724676,1,1
1584365982927,NaN,0.2510186,-0.23413086,-0.7026367,0.65625,1584365982472,-8383586573345,0.040724676,1,1
1584365982930,NaN,0.2674475,-0.24316406,-0.69677734,0.66674805,1584365982552,-8383586573345,0.040724676,1,1
1584365982936,NaN,0.28716925,-0.265625,-0.71850586,0.65185547,1584365982632,-8383586573345,0.040724676,1,1
1584365985403,NaN,0.3032044,-0.2446289,-0.72143555,0.6311035,1584365982712,3866767363055,0.040724676,1,1
1584365985411,NaN,0.29298106,-0.2409668,-0.7241211,0.6477051,1584365982792,3866767363055,0.040724676,1,1
1584365985419,NaN,0.27610126,-0.23168945,-0.7102051,0.65283203,1584365982872,3866767363055,0.040724676,1,1
1584365985423,NaN,0.23899452,-0.24267578,-0.704834,0.65283203,1584365982952,3866767363055,0.040724676,1,1
1584365985427,NaN,0.18137872,-0.25561523,-0.7055664,0.6430664,1584365983032,3866767363055,0.034618072,1,1
1584365985432,NaN,0.11300689,-0.25952148,-0.70336914,0.63842773,1584365983112,3866767363055,0.034618072,1,1
1584365985435,NaN,0.04225111,-0.25512695,-0.6958008,0.6582031,1584365983192,3866767363055,0.034618072,1,1
1584365985438,NaN,0.0030781813,-0.24951172,-0.69873047,0.6616211,1584365983272,3866767363055,0.034618072,1,1
1584365985442,NaN,-0.03888591,-0.2524414,-0.69799805,0.6647949,1584365983352,3866767363055,0.034618072,1,1
1584365985447,NaN,-0.034466103,-0.25097656,-0.71728516,0.6386719,1584365983432,3866767363055,0.034618072,1,1
1584365985451,NaN,-0.0064878934,-0.24902344,-0.72265625,0.6335449,1584365983512,3866767363055,0.034618072,1,1
1584365985456,NaN,-0.00753096,-0.25317383,-0.7246094,0.62597656,1584365983592,3866767363055,0.034618072,1,1
1584365985461,NaN,-0.036345188,-0.25024414,-0.7241211,0.6430664,1584365983672,3866767363055,0.034618072,1,1
1584365985465,NaN,-0.031756487,-0.25390625,-0.71606445,0.62939453,1584365983752,3866767363055,0.034618072,1,1
1584365985470,NaN,-0.012945707,-0.25878906,-0.6999512,0.6274414,1584365983832,3866767363055,0.034618072,1,1
1584365985474,NaN,0.023015654,-0.25756836,-0.7062988,0.62597656,1584365983912,3866767363055,0.034618072,1,1
1584365985478,NaN,0.030042872,-0.24902344,-0.6916504,0.642334,1584365983992,3866767363055,0.034618072,1,1
1584365985482,NaN,0.040153146,-0.24975586,-0.71899414,0.6604004,1584365984072,3866767363055,0.034618072,1,1
1584365985487,NaN,0.06757355,-0.23266602,-0.6982422,0.65527344,1584365984152,3866767363055,0.034618072,1,1
1584365985490,NaN,0.080750994,-0.24243164,-0.7097168,0.67041016,1584365984232,3866767363055,0.034618072,1,1
1584365985494,NaN,0.10819358,-0.23120117,-0.70751953,0.64990234,1584365984312,3866767363055,0.034618072,1,1
1584365985498,NaN,0.059835616,-0.24584961,-0.701416,0.6665039,1584365984392,3866767363055,0.034618072,1,1
1584365985501,NaN,0.0020128216,-0.24267578,-0.7036133,0.65112305,1584365984472,3866767363055,0.034618072,1,1
1584365985505,NaN,-0.05823098,-0.24047852,-0.6970215,0.6665039,1584365984552,3866767363055,0.034618072,1,1
1584365985510,NaN,-0.08581581,-0.24511719,-0.6928711,0.6677246,1584365984632,3866767363055,0.034618072,1,1
1584365985514,NaN,-0.13043039,-0.25195312,-0.69189453,0.66430664,1584365984712,3866767363055,0.034618072,1,1
1584365985517,NaN,-0.173819,-0.24975586,-0.69140625,0.66259766,1584365984792,3866767363055,0.034618072,1,1
1584365985520,NaN,-0.22547032,-0.25512695,-0.6933594,0.6640625,1584365984872,3866767363055,0.034618072,1,1
1584365985523,NaN,-0.2328636,-0.25097656,-0.6879883,0.6640625,1584365984952,3866767363055,0.034618072,1,1
1584365985526,NaN,-0.25075936,-0.25708008,-0.6911621,0.6789551,1584365985032,3866767363055,0.034618072,1,1
1584365985529,NaN,-0.24836011,-0.25146484,-0.701416,0.65966797,1584365985112,3866767363055,0.034618072,1,1
1584365985531,NaN,-0.24508522,-0.25390625,-0.6916504,0.6542969,1584365985192,3866767363055,0.032781277,1,1
1584365987989,NaN,-0.25840694,-0.2512207,-0.70458984,0.65625,1584365985272,-2329904249229,0.032781277,1,1
1584365987995,NaN,-0.2182147,-0.25268555,-0.70654297,0.6513672,1584365985352,-2329904249229,0.032781277,1,1
1584365987999,NaN,-0.19143963,-0.25463867,-0.7023926,0.64575195,1584365985432,-2329904249229,0.032781277,1,1
1584365988004,NaN,-0.12273806,-0.2487793,-0.7097168,0.6374512,1584365985512,-2329904249229,0.032781277,1,1
1584365988008,NaN,-0.052220892,-0.24560547,-0.7126465,0.625,1584365985592,-2329904249229,0.032781277,1,1
1584365988012,NaN,0.021186689,-0.24145508,-0.7109375,0.6176758,1584365985672,-2329904249229,0.032781277,1,1
1584365988017,17.045454,0.07800691,-0.24804688,-0.7180176,0.63964844,1584365985752,-2329904249229,0.032781277,1,1
1584365988021,NaN,0.121193685,-0.2548828,-0.70825195,0.65771484,1584365985832,-2329904249229,0.032781277,1,1
1584365988024,NaN,0.1437174,-0.24951172,-0.6982422,0.6608887,1584365985912,-2329904249229,0.032781277,1,1
1584365988027,NaN,0.18371923,-0.24169922,-0.70166016,0.6616211,1584365985992,-2329904249229,0.032781277,1,1
1584365988030,NaN,0.18295574,-0.24316406,-0.69970703,0.65478516,1584365986072,-2329904249229,0.032781277,1,1
1584365988033,NaN,0.18157227,-0.24511719,-0.70336914,0.6611328,1584365986152,-2329904249229,0.032781277,1,1
1584365988036,NaN,0.17773397,-0.24389648,-0.69873047,0.65966797,1584365986232,-2329904249229,0.032781277,1,1
1584365988039,NaN,0.15149273,-0.24536133,-0.6960449,0.66137695,1584365986312,-2329904249229,0.032781277,1,1
1584365988042,NaN,0.12724525,-0.2434082,-0.6921387,0.6657715,1584365986392,-2329904249229,0.032781277,1,1
1584365988046,NaN,0.07176731,-0.24291992,-0.69311523,0.6682129,1584365986472,-2329904249229,0.032781277,1,1
1584365988049,NaN,-0.007454964,-0.23876953,-0.6882324,0.6687012,1584365986552,-2329904249229,0.032781277,1,1
1584365988053,NaN,-0.09230062,-0.24316406,-0.6894531,0.6738281,1584365986632,-2329904249229,0.027367719,1,1
1584365988056,NaN,-0.16417529,-0.2434082,-0.68481445,0.6789551,1584365986712,-2329904249229,0.024007851,1,1
1584365988060,NaN,-0.20007665,-0.23876953,-0.6862793,0.67333984,1584365986792,-2329904249229,0.024007851,1,1
1584365988063,NaN,-0.22779793,-0.23706055,-0.69018555,0.6838379,1584365986872,-2329904249229,0.024007851,1,1
1584365988067,NaN,-0.25760707,-0.23876953,-0.6906738,0.6760254,1584365986952,-2329904249229,0.024007851,1,1
1584365988070,NaN,-0.27516502,-0.23632812,-0.6875,0.6689453,1584365987032,-2329904249229,0.024007851,1,1
1584365988074,NaN,-0.2873424,-0.2512207,-0.69384766,0.6730957,1584365987112,-2329904249229,0.024007851,1,1
1584365988079,NaN,-0.2758304,-0.24731445,-0.6982422,0.65185547,1584365987192,-2329904249229,0.024007851,1,1
1584365988082,NaN,-0.24875689,-0.25097656,-0.7097168,0.6520996,1584365987272,-2329904249229,0.024007851,1,1
1584365988091,NaN,-0.21114922,-0.25097656,-0.70751953,0.65234375,1584365987352,-2329904249229,0.024007851,1,1
1584365988094,NaN,-0.15759178,-0.24291992,-0.7067871,0.64086914,1584365987432,-2329904249229,0.024007851,1,1
1584365988097,NaN,-0.07708757,-0.23950195,-0.7150879,0.6298828,1584365987512,-2329904249229,0.024007851,1,1
1584365988101,NaN,0.013584609,-0.24072266,-0.71435547,0.6245117,1584365987592,-2329904249229,0.024007851,1,1
1584365988104,31.25,0.09270987,-0.24511719,-0.7084961,0.6425781,1584365987672,-2329904249229,0.024007851,1,1
1584365988116,NaN,0.13511176,-0.25048828,-0.7043457,0.6623535,1584365987752,-2329904249229,0.024007851,1,1
1584365990571,NaN,0.17310803,-0.25170898,-0.69628906,0.66503906,1584365987832,-8526294386537,0.024007851,1,1
1584365990578,NaN,0.19926053,-0.23779297,-0.6953125,0.66259766,1584365987912,-8526294386537,0.024007851,1,1
1584365990585,NaN,0.22369833,-0.23242188,-0.6999512,0.6657715,1584365987992,-8526294386537,0.024007851,1,1
1584365990592,NaN,0.2332549,-0.23925781,-0.6916504,0.67089844,1584365988072,-8526294386537,0.024007851,1,1
1584365990599,NaN,0.21270739,-0.23950195,-0.69140625,0.6682129,1584365988152,-8526294386537,0.024007851,1,1
1584365990604,NaN,0.1775012,-0.23950195,-0.6899414,0.6657715,1584365988232,-8526294386537,0.024007851,1,1
1584365990610,NaN,0.13675867,-0.23999023,-0.6887207,0.66967773,1584365988312,-8526294386537,0.022039017,1,1
1584365990615,NaN,0.079203576,-0.24194336,-0.6862793,0.6760254,1584365988392,-8526294386537,0.022039017,1,1
1584365990623,NaN,9.220143E-4,-0.2434082,-0.68774414,0.6706543,1584365988472,-8526294386537,0.022039017,1,1
1584365990627,NaN,-0.08813012,-0.23754883,-0.68481445,0.67041016,1584365988552,-8526294386537,0.022039017,1,1
1584365990631,NaN,-0.15962414,-0.2421875,-0.6875,0.6809082,1584365988632,-8526294386537,0.022039017,1,1
1584365990634,NaN,-0.20215864,-0.23803711,-0.6826172,0.67871094,1584365988712,-8526294386537,0.022039017,1,1
1584365990638,NaN,-0.23794377,-0.2421875,-0.6816406,0.6789551,1584365988792,-8526294386537,0.022039017,1,1
1584365990641,NaN,-0.26674733,-0.23876953,-0.68310547,0.6813965,1584365988872,-8526294386537,0.022039017,1,1
1584365990650,NaN,-0.2940894,-0.2434082,-0.6838379,0.6862793,1584365988952,-8526294386537,0.022039017,1,1
1584365990650,NaN,-0.29778022,-0.24194336,-0.685791,0.6755371,1584365989032,-8526294386537,0.022039017,1,1
1584365990652,NaN,-0.28373706,-0.23876953,-0.69091797,0.66967773,1584365989112,-8526294386537,0.022039017,1,1
1584365990656,NaN,-0.25559726,-0.2475586,-0.69433594,0.6604004,1584365989192,-8526294386537,0.022039017,1,1
1584365990659,NaN,-0.2207333,-0.24609375,-0.6965332,0.6586914,1584365989272,-8526294386537,0.022039017,1,1
1584365990663,NaN,-0.16836816,-0.24926758,-0.6960449,0.6555176,1584365989352,-8526294386537,0.022039017,1,1
1584365990667,NaN,-0.10983088,-0.25585938,-0.70458984,0.657959,1584365989432,-8526294386537,0.022039017,1,1
1584365990670,NaN,-0.027295018,-0.23657227,-0.7121582,0.6335449,1584365989512,-8526294386537,0.032020606,1,1
1584365990674,31.25,0.061348576,-0.23095703,-0.720459,0.62158203,1584365989592,-8526294386537,0.032020606,1,1
1584365990678,NaN,0.12290274,-0.24194336,-0.7089844,0.6425781,1584365989672,-8526294386537,0.032020606,1,1
1584365990690,NaN,0.15739977,-0.23901367,-0.6989746,0.6672363,1584365989752,-8526294386537,0.032020606,1,1
1584365990691,NaN,0.18021275,-0.23730469,-0.68530273,0.67529297,1584365989832,-8526294386537,0.032020606,1,1
1584365990692,NaN,0.2046197,-0.24194336,-0.685791,0.6796875,1584365989912,-8526294386537,0.032020606,1,1
1584365990695,NaN,0.20958531,-0.25683594,-0.6821289,0.6767578,1584365989992,-8526294386537,0.032020606,1,1
1584365990699,NaN,0.20731924,-0.25756836,-0.68310547,0.6726074,1584365990072,-8526294386537,0.032020606,1,1
1584365990702,NaN,0.18842067,-0.25878906,-0.6809082,0.6699219,1584365990152,-8526294386537,0.032020606,1,1
1584365990706,NaN,0.15914981,-0.25634766,-0.68066406,0.6743164,1584365990232,-8526294386537,0.032020606,1,1
1584365990709,NaN,0.11982841,-0.25854492,-0.68188477,0.67700195,1584365990312,-8526294386537,0.032020606,1,1
1584365993155,NaN,0.078832336,-0.25952148,-0.68359375,0.6750488,1584365990392,3724059549863,0.032020606,1,1
1584365993160,NaN,0.0027211953,-0.25610352,-0.68310547,0.67285156,1584365990472,3724059549863,0.032020606,1,1
1584365993164,NaN,-0.10200856,-0.26513672,-0.68481445,0.6779785,1584365990552,3724059549863,0.032020606,1,1
1584365993169,NaN,-0.17877726,-0.25927734,-0.673584,0.67626953,1584365990632,3724059549863,0.032020606,1,1
1584365993175,NaN,-0.20920563,-0.27124023,-0.6816406,0.6779785,1584365990712,3724059549863,0.032020606,1,1
1584365993181,NaN,-0.20582648,-0.25805664,-0.6855469,0.6647949,1584365990792,3724059549863,0.032020606,1,1
1584365993185,NaN,-0.19239797,-0.2644043,-0.6936035,0.6599121,1584365990872,3724059549863,0.032020606,1,1
1584365993187,NaN,-0.1576276,-0.2578125,-0.70532227,0.6425781,1584365990952,3724059549863,0.032020606,1,1
1584365993191,NaN,-0.12502179,-0.25268555,-0.70336914,0.64331055,1584365991032,3724059549863,0.032020606,1,1
1584365993195,NaN,-0.083638184,-0.24853516,-0.7077637,0.6452637,1584365991112,3724059549863,0.032020606,1,1
1584365993199,NaN,-0.028479151,-0.24365234,-0.70703125,0.63549805,1584365991192,3724059549863,0.032020606,1,1
1584365993202,NaN,0.027761677,-0.23950195,-0.69799805,0.63134766,1584365991272,3724059549863,0.032020606,1,1
1584365993206,34.090908,0.056586925,-0.25195312,-0.6953125,0.6738281,1584365991352,3724059549863,0.044349004,1,1
1584365993211,NaN,0.09103351,-0.24487305,-0.68725586,0.6821289,1584365991432,3724059549863,0.044349004,1,1
1584365993215,NaN,0.1361487,-0.22973633,-0.6813965,0.68115234,1584365991512,3724059549863,0.044349004,1,1
1584365993220,NaN,0.17424755,-0.21972656,-0.68408203,0.6821289,1584365991592,3724059549863,0.044349004,1,1
1584365993224,NaN,0.18552895,-0.2331543,-0.6887207,0.68310547,1584365991672,3724059549863,0.044349004,1,1
1584365993227,NaN,0.16994292,-0.2277832,-0.6870117,0.6730957,1584365991752,3724059549863,0.044349004,1,1
1584365993230,NaN,0.12955505,-0.23168945,-0.6816406,0.67871094,1584365991832,3724059549863,0.044349004,1,1
1584365993233,NaN,0.05966009,-0.24145508,-0.68652344,0.6801758,1584365991912,3724059549863,0.044349004,1,1
1584365993237,NaN,-0.0030552123,-0.23168945,-0.68408203,0.67626953,1584365991992,3724059549863,0.044349004,1,1
1584365993240,NaN,-0.06940061,-0.23803711,-0.68188477,0.67944336,1584365992072,3724059549863,0.044349004,1,1
1584365993242,NaN,-0.15810046,-0.23730469,-0.67407227,0.6867676,1584365992152,3724059549863,0.044349004,1,1
1584365993246,NaN,-0.24163131,-0.23071289,-0.6726074,0.6838379,1584365992232,3724059549863,0.044349004,1,1
1584365993250,NaN,-0.26885846,-0.23095703,-0.67993164,0.6887207,1584365992312,3724059549863,0.044349004,1,1
1584365993253,NaN,-0.27845147,-0.2355957,-0.67944336,0.69555664,1584365992392,3724059549863,0.044349004,1,1
1584365993256,NaN,-0.2709448,-0.23071289,-0.6801758,0.67871094,1584365992472,3724059549863,0.044349004,1,1
1584365993260,NaN,-0.26302737,-0.23339844,-0.68603516,0.67578125,1584365992552,3724059549863,0.044349004,1,1
1584365993263,NaN,-0.25124565,-0.23461914,-0.69384766,0.673584,1584365992632,3724059549863,0.044349004,1,1
1584365993266,NaN,-0.23055512,-0.24121094,-0.69555664,0.6621094,1584365992712,3724059549863,0.044349004,1,1
1584365993269,NaN,-0.18159814,-0.24560547,-0.7038574,0.657959,1584365992792,3724059549863,0.044349004,1,1
1584365993272,NaN,-0.11717605,-0.24267578,-0.70458984,0.6501465,1584365992872,3724059549863,0.044349004,1,1
