"# PR data"
"# Start time: 20191119T220508"
"# Subject: diana"
"# Activity type: Leg slide"
"# Correctness: Incorrect"
"# Notes: "
""
"timestamp","seq","accel_x","accel_y","accel_z","gyro_x","gyro_y","gyro_z"
"1574201109131","0","0.5908203","-0.81640625","-0.25585938","9.125","4.0","-16.96875"
"1574201109132","1","0.5488281","-0.828125","-0.28710938","8.78125","-2.9375","-3.625"
"1574201109133","2","0.50097656","-0.828125","-0.31835938","2.59375","-4.84375","-1.71875"
"1574201109133","3","0.53027344","-0.8076172","-0.2861328","-0.25","-4.09375","1.09375"
"1574201109134","4","0.515625","-0.8339844","-0.27929688","-6.25","-3.5","4.75"
"1574201109134","5","0.50878906","-0.8095703","-0.29589844","-5.4375","-0.25","4.3125"
"1574201109135","6","0.5029297","-0.80859375","-0.27734375","-10.21875","4.5","3.09375"
"1574201109136","7","0.4951172","-0.8339844","-0.26757812","-4.34375","7.3125","2.0625"
"1574201109136","8","0.49121094","-0.86328125","-0.22949219","-8.1875","16.9375","0.65625"
"1574201109136","9","0.48339844","-0.828125","-0.24707031","-4.40625","11.09375","3.34375"
"1574201109136","10","0.5419922","-0.8154297","-0.29003906","-0.5625","0.21875","9.9375"
"1574201109137","11","0.5175781","-0.8066406","-0.29785156","4.0","-2.9375","10.59375"
"1574201109141","12","0.48535156","-0.81640625","-0.33398438","8.71875","0.21875","0.65625"
"1574201109141","13","0.51171875","-0.8183594","-0.29882812","13.28125","4.5625","-8.25"
"1574201109142","14","0.51953125","-0.81640625","-0.26171875","6.46875","2.25","-5.5"
"1574201109142","15","0.4873047","-0.8408203","-0.2890625","3.40625","2.0625","-2.59375"
"1574201109142","16","0.5078125","-0.83984375","-0.296875","-1.0625","0.90625","0.0"
"1574201109142","17","0.49414062","-0.8232422","-0.29589844","-0.125","3.15625","1.3125"
"1574201109143","18","0.49121094","-0.8261719","-0.2763672","-2.75","4.5","0.53125"
"1574201109143","19","0.51953125","-0.8203125","-0.26953125","-5.15625","4.125","-2.53125"
"1574201109334","20","0.52734375","-0.8232422","-0.25195312","-8.9375","1.28125","-3.90625"
"1574201109334","21","0.5488281","-0.8046875","-0.296875","-8.4375","-5.625","0.65625"
"1574201109335","22","0.5175781","-0.8154297","-0.2783203","-2.625","-9.78125","3.90625"
"1574201109335","23","0.5","-0.8300781","-0.27734375","-1.125","-14.125","-1.59375"
"1574201109335","24","0.484375","-0.8251953","-0.2841797","-1.46875","-6.96875","-2.15625"
"1574201109336","25","0.4765625","-0.84375","-0.30859375","-0.8125","-2.40625","-4.78125"
"1574201109336","26","0.4921875","-0.8486328","-0.265625","-4.21875","-4.96875","-6.78125"
"1574201109337","27","0.45996094","-0.80371094","-0.33496094","-3.1875","-5.375","-3.0625"
"1574201109337","28","0.50390625","-0.83203125","-0.3095703","-0.5625","0.90625","-0.5"
"1574201109338","29","0.49902344","-0.83203125","-0.32128906","-4.09375","-2.21875","2.65625"
"1574201109930","30","0.47070312","-0.82421875","-0.3076172","-5.4375","1.5625","0.90625"
"1574201109930","31","0.5126953","-0.7558594","-0.29882812","-3.625","6.40625","-4.09375"
"1574201109933","32","0.49414062","-0.8125","-0.296875","0.28125","-1.0","-1.84375"
"1574201109933","33","0.49414062","-0.8417969","-0.2578125","-7.34375","1.03125","-0.5625"
"1574201109933","34","0.4736328","-0.8359375","-0.3017578","-1.25","-8.25","0.65625"
"1574201109934","35","0.4609375","-0.8125","-0.29785156","0.84375","-1.125","-0.875"
"1574201109934","36","0.5234375","-0.78027344","-0.36523438","-3.0","6.09375","1.8125"
"1574201109936","37","0.57128906","-0.74121094","-0.31640625","-6.125","7.96875","-2.28125"
"1574201109936","38","0.21582031","-0.9160156","-0.20019531","-42.4375","92.875","5.0625"
"1574201109936","39","0.6796875","-0.79785156","-0.4716797","-6.84375","4.6875","-15.59375"
"1574201110129","40","0.6503906","-0.92871094","-0.1796875","-16.96875","21.46875","-2.625"
"1574201110130","41","0.45703125","-0.7392578","-0.2919922","19.5625","0.65625","-2.59375"
"1574201110130","42","0.48632812","-0.6875","-0.32421875","4.125","2.375","1.8125"
"1574201110130","43","0.54003906","-0.83496094","-0.35742188","11.59375","19.15625","-4.96875"
"1574201110130","44","0.5761719","-0.82421875","-0.25390625","8.78125","-2.875","1.21875"
"1574201110131","45","0.5126953","-0.8408203","-0.25195312","12.0625","0.65625","2.96875"
"1574201110131","46","0.5058594","-0.8515625","-0.27929688","5.90625","1.875","4.1875"
"1574201110131","47","0.51953125","-0.7832031","-0.28027344","7.5","2.0625","1.5"
"1574201110131","48","0.53027344","-0.7919922","-0.28027344","5.125","7.5","-1.34375"
"1574201110133","49","0.54003906","-0.8105469","-0.29003906","6.5625","3.34375","-1.46875"
"1574201110526","50","0.5332031","-0.82128906","-0.29101562","10.65625","-4.53125","4.3125"
"1574201110526","51","0.45410156","-0.80078125","-0.265625","17.9375","-7.46875","6.5625"
"1574201110527","52","0.5283203","-0.95703125","-0.23535156","11.40625","8.59375","4.5625"
"1574201110527","53","0.51953125","-0.8808594","-0.2685547","6.8125","15.0625","0.46875"
"1574201110527","54","0.5","-0.7158203","-0.2763672","11.875","-3.3125","-4.09375"
"1574201110527","55","0.4501953","-0.6904297","-0.25683594","10.40625","-20.21875","-13.1875"
"1574201110528","56","0.5839844","-0.90234375","-0.2783203","-0.3125","-20.84375","-18.5"
"1574201110528","57","0.6142578","-0.9433594","-0.24511719","5.34375","-8.6875","-15.28125"
"1574201110528","58","0.48828125","-0.81640625","-0.18457031","0.15625","-7.65625","-16.1875"
"1574201110528","59","0.47753906","-0.76953125","-0.20019531","4.375","-15.46875","-10.4375"
"1574201110925","60","0.4892578","-0.8544922","-0.23339844","-5.15625","-4.03125","-5.8125"
"1574201110925","61","0.58203125","-0.8105469","-0.21484375","-10.6875","4.0","-8.5"
"1574201110926","62","0.5810547","-0.78515625","-0.24609375","-0.125","-7.34375","-6.25"
"1574201110926","63","0.546875","-0.80566406","-0.22851562","-2.9375","-7.28125","-3.96875"
"1574201110926","64","0.5263672","-0.8076172","-0.265625","-4.59375","-12.34375","-1.96875"
"1574201110927","65","0.5390625","-0.8027344","-0.27539062","0.21875","-18.875","2.3125"
"1574201110927","66","0.5625","-0.8066406","-0.24609375","7.5625","-11.78125","5.21875"
"1574201110927","67","0.53808594","-0.7949219","-0.2529297","7.84375","-8.3125","5.0"
"1574201110927","68","0.5205078","-0.80859375","-0.2861328","7.84375","-13.625","1.5"
"1574201110928","69","0.49121094","-0.81152344","-0.26757812","5.84375","-4.40625","-1.90625"
"1574201111321","70","0.50878906","-0.76660156","-0.2626953","9.9375","18.53125","-8.75"
"1574201111322","71","0.5263672","-0.75390625","-0.27539062","19.21875","22.75","-9.53125"
"1574201111322","72","0.5810547","-0.7753906","-0.2548828","35.25","8.34375","-3.1875"
"1574201111323","73","0.58984375","-0.84472656","-0.17578125","41.4375","7.375","16.21875"
"1574201111323","74","0.5566406","-0.91503906","-0.15820312","33.3125","6.5625","22.375"
"1574201111324","75","0.625","-0.8457031","-0.072265625","8.21875","-12.15625","37.09375"
"1574201111324","76","0.4453125","-0.86621094","-0.09082031","7.1875","-22.28125","14.8125"
"1574201111324","77","0.4033203","-0.8515625","-0.17871094","-8.9375","4.625","-5.21875"
"1574201111324","78","0.46289062","-0.953125","-0.21679688","-18.6875","50.34375","-28.875"
"1574201111325","79","0.49316406","-0.9355469","-0.09667969","-18.8125","37.28125","-24.125"
"1574201111917","80","0.5097656","-0.7998047","-0.13964844","-17.59375","36.96875","-23.6875"
"1574201111918","81","0.6113281","-0.7714844","-0.16699219","-21.1875","9.875","-7.8125"
"1574201111918","82","0.5517578","-0.81640625","-0.16601562","-16.875","-4.40625","-1.90625"
"1574201111918","83","0.51953125","-0.796875","-0.17089844","-9.34375","-3.75","1.875"
"1574201111918","84","0.5019531","-0.7988281","-0.20410156","3.65625","-9.28125","-3.125"
"1574201111920","85","0.5283203","-0.7783203","-0.19921875","10.53125","-4.90625","-4.53125"
"1574201111920","86","0.54589844","-0.78808594","-0.15820312","14.6875","-4.40625","-2.875"
"1574201111920","87","0.5595703","-0.84277344","-0.16601562","9.4375","-11.375","1.625"
"1574201111921","88","0.47851562","-0.8300781","-0.16503906","17.0","-3.875","3.40625"
"1574201111921","89","0.5","-0.8017578","-0.18457031","16.15625","4.6875","6.8125"
"1574201112116","90","0.6152344","-0.81933594","-0.22363281","20.1875","-2.03125","-5.15625"
"1574201112117","91","0.5878906","-0.8076172","-0.13085938","24.9375","-4.09375","-3.1875"
"1574201112117","92","0.4951172","-0.84765625","-0.09667969","20.4375","-4.78125","-3.25"
"1574201112117","93","0.53515625","-0.82421875","-0.12109375","21.59375","0.71875","0.40625"
"1574201112117","94","0.5234375","-0.8339844","-0.11621094","15.3125","5.90625","2.78125"
"1574201112118","95","0.5654297","-0.8730469","-0.103515625","16.53125","8.59375","-3.25"
"1574201112118","96","0.5078125","-0.87597656","-0.083984375","14.5","14.75","-3.4375"
"1574201112120","97","0.5673828","-0.8652344","-0.09082031","19.6875","5.40625","-9.40625"
"1574201112121","98","0.5107422","-0.8222656","-0.037109375","13.65625","10.375","-5.6875"
"1574201112121","99","0.5292969","-0.7685547","-0.036132812","13.40625","3.90625","-8.1875"
"1574201112911","100","0.5546875","-0.81152344","-0.029296875","8.46875","0.84375","-8.5"
"1574201112912","101","0.5517578","-0.8330078","-0.01953125","6.875","1.09375","-5.4375"
"1574201112912","102","0.5654297","-0.82910156","-0.0107421875","1.3125","-4.65625","-1.0"
"1574201112913","103","0.5830078","-0.8154297","-0.028320312","4.25","-8.8125","2.3125"
"1574201112913","104","0.54003906","-0.8378906","-0.020507812","9.1875","-8.125","2.125"
"1574201112913","105","0.53222656","-0.8515625","-0.044921875","5.71875","-5.21875","-0.5625"
"1574201112913","106","0.56933594","-0.8457031","-0.032226562","5.21875","1.5625","-2.09375"
"1574201112914","107","0.5751953","-0.8544922","-0.005859375","7.90625","2.5","-6.96875"
"1574201112914","108","0.61035156","-0.84472656","-0.021484375","4.75","6.6875","-9.71875"
"1574201112915","109","0.56152344","-0.76464844","-0.005859375","7.3125","-1.34375","-12.03125"
"1574201113106","110","0.5498047","-0.75683594","0.053710938","8.21875","5.46875","-14.1875"
"1574201113107","111","0.61816406","-0.75683594","0.036132812","20.0","5.0","-17.59375"
"1574201113107","112","0.6357422","-0.7578125","0.043945312","23.90625","-1.71875","-14.25"
"1574201113107","113","0.59277344","-0.7685547","0.038085938","18.90625","-1.46875","-14.71875"
"1574201113108","114","0.64160156","-0.78125","0.03125","13.71875","0.46875","-21.9375"
"1574201113108","115","0.60253906","-0.76464844","0.048828125","19.03125","-6.0625","-15.09375"
"1574201113108","116","0.5576172","-0.76953125","0.059570312","8.03125","0.71875","-5.25"
"1574201113108","117","0.57714844","-0.70410156","0.034179688","0.59375","-1.0625","-1.0625"
"1574201113108","118","0.66015625","-0.81347656","0.028320312","-6.84375","3.65625","-0.5625"
"1574201113109","119","0.64941406","-0.828125","0.04296875","4.6875","4.5625","0.96875"
"1574201113309","120","0.63378906","-0.8017578","0.045898438","-2.34375","0.34375","0.28125"
"1574201113310","121","0.6621094","-0.7841797","0.05859375","-1.78125","-2.46875","-0.375"
"1574201113310","122","0.5439453","-0.7128906","0.041015625","-3.96875","-0.625","6.15625"
"1574201113310","123","0.64941406","-0.7626953","0.053710938","-6.59375","1.6875","3.09375"
"1574201113311","124","0.6455078","-0.76464844","0.04296875","4.8125","-2.09375","5.21875"
"1574201113311","125","0.6113281","-0.7890625","0.038085938","1.28125","-0.5","4.9375"
"1574201113311","126","0.6191406","-0.7910156","0.033203125","0.84375","-3.75","2.4375"
"1574201113311","127","0.6279297","-0.7939453","0.02734375","-0.3125","-3.96875","0.15625"
"1574201113312","128","0.5996094","-0.7705078","0.02734375","-0.0625","-10.09375","2.125"
"1574201113312","129","0.62109375","-0.7890625","0.05078125","-1.0","-7.71875","-0.25"
"1574201113904","130","0.64453125","-0.7470703","0.034179688","7.1875","-11.78125","-1.3125"
"1574201113905","131","0.5878906","-0.7558594","0.041992188","4.5","-9.96875","0.15625"
"1574201113905","132","0.6376953","-0.77441406","0.0390625","6.625","-14.65625","-2.8125"
"1574201113906","133","0.6113281","-0.78808594","0.024414062","8.65625","-14.53125","-3.4375"
"1574201113907","134","0.6152344","-0.76953125","0.02734375","6.40625","-9.0","-1.90625"
"1574201113907","135","0.6142578","-0.7578125","0.01953125","8.96875","-13.5625","4.75"
"1574201113907","136","0.57128906","-0.81347656","0.040039062","-1.53125","-2.03125","3.71875"
"1574201113907","137","0.6123047","-0.7714844","0.013671875","4.0","-5.09375","3.09375"
"1574201113908","138","0.5830078","-0.77441406","0.024414062","1.6875","-0.5625","7.125"
"1574201113908","139","0.62109375","-0.7138672","0.01953125","8.21875","-8.6875","11.8125"
"1574201114105","140","0.61328125","-0.7421875","0.06933594","13.09375","-12.65625","21.71875"
"1574201114106","141","0.60546875","-0.82714844","-0.001953125","23.0","-11.90625","6.875"
"1574201114106","142","0.5449219","-0.8388672","0.060546875","4.9375","-7.28125","16.34375"
"1574201114107","143","0.5390625","-0.88183594","-0.0234375","4.625","-4.09375","21.59375"
"1574201114107","144","0.48242188","-0.84277344","-0.032226562","-12.15625","6.40625","24.28125"
"1574201114108","145","0.5390625","-0.8613281","-0.0078125","-13.8125","2.90625","16.15625"
"1574201114109","146","0.5332031","-0.8466797","0.018554688","-4.15625","11.65625","20.5625"
"1574201114109","147","0.5527344","-0.85253906","-0.009765625","-8.0","2.4375","12.0625"
"1574201114109","148","0.59472656","-0.81152344","-0.00390625","-2.625","-3.8125","1.5625"
"1574201114109","149","0.57714844","-0.8105469","-0.015625","-5.375","-10.8125","-0.3125"
"1574201114699","150","0.56152344","-0.82910156","-0.0078125","-3.4375","-15.28125","-7.65625"
"1574201114700","151","0.5683594","-0.8066406","-0.0107421875","0.34375","-14.53125","-13.25"
"1574201114700","152","0.5439453","-0.8144531","-0.0068359375","-0.5625","-13.8125","-10.9375"
"1574201114700","153","0.5263672","-0.8251953","-0.026367188","-1.59375","-13.9375","-6.375"
"1574201114700","154","0.52441406","-0.828125","-0.020507812","-9.15625","-9.71875","-6.125"
"1574201114701","155","0.5058594","-0.87597656","-0.032226562","-3.1875","-7.8125","2.71875"
"1574201114701","156","0.42871094","-0.9423828","-0.059570312","-2.9375","4.5","3.40625"
"1574201114701","157","0.4375","-0.9140625","-0.07421875","-3.875","0.96875","-3.96875"
"1574201114702","158","0.41308594","-0.8300781","-0.0107421875","-0.625","6.625","-4.84375"
"1574201114702","159","0.4716797","-0.84277344","-0.036132812","11.71875","6.46875","-7.28125"
"1574201115095","160","0.5644531","-0.84375","0.041992188","6.9375","12.875","-4.09375"
"1574201115096","161","0.5498047","-0.87109375","0.0029296875","35.1875","-4.09375","-4.03125"
"1574201115096","162","0.62890625","-0.7636719","-0.015625","14.3125","-2.40625","-6.84375"
"1574201115096","163","0.58203125","-0.7988281","0.028320312","11.40625","7.625","-2.8125"
"1574201115097","164","0.59472656","-0.84472656","0.022460938","11.71875","1.75","-9.15625"
"1574201115097","165","0.5234375","-0.80566406","0.029296875","5.65625","8.03125","-8.125"
"1574201115097","166","0.5517578","-0.8173828","0.021484375","4.4375","13.96875","-5.375"
"1574201115097","167","0.6201172","-0.8144531","0.036132812","3.40625","15.84375","-7.34375"
"1574201115098","168","0.5800781","-0.7597656","0.059570312","8.71875","15.96875","-3.6875"
"1574201115099","169","0.5361328","-0.7988281","0.06347656","0.78125","11.40625","-2.03125"
"1574201115298","170","0.62597656","-0.81640625","0.076171875","1.21875","13.96875","-9.90625"
"1574201115299","171","0.57128906","-0.7685547","0.08496094","2.65625","9.5","-1.78125"
"1574201115299","172","0.5859375","-0.82128906","0.08984375","-0.875","8.65625","0.21875"
"1574201115299","173","0.5751953","-0.7919922","0.059570312","1.8125","6.46875","0.53125"
"1574201115299","174","0.57714844","-0.8017578","0.078125","-0.5","7.75","-0.1875"
"1574201115300","175","0.5908203","-0.7861328","0.091796875","0.78125","4.8125","-1.78125"
"1574201115300","176","0.5439453","-0.7988281","0.111328125","-0.375","4.8125","4.875"
"1574201115300","177","0.5410156","-0.86328125","0.064453125","-11.5","16.46875","2.5"
"1574201115300","178","0.61035156","-0.7548828","0.111328125","-14.125","12.1875","3.71875"
"1574201115301","179","0.5546875","-0.8232422","0.11035156","-6.59375","4.0","11.71875"
"1574201115892","180","0.54589844","-0.8417969","0.053710938","-11.1875","9.09375","5.90625"
"1574201115894","181","0.50683594","-0.8017578","0.0859375","-18.625","7.84375","13.28125"
"1574201115894","182","0.46289062","-0.875","0.040039062","-28.59375","14.9375","15.84375"
"1574201115894","183","0.53515625","-0.87890625","0.021484375","-38.96875","25.9375","15.625"
"1574201115895","184","0.5185547","-0.87890625","0.0078125","-44.9375","20.0","18.21875"
"1574201115895","185","0.55859375","-0.96875","0.0048828125","-53.0625","24.15625","3.90625"
"1574201115895","186","0.5058594","-0.86816406","-0.017578125","-40.375","16.15625","1.625"
"1574201115896","187","0.40527344","-0.77441406","-0.0087890625","-53.3125","20.0625","12.9375"
"1574201115896","188","0.4404297","-0.859375","-0.028320312","-49.09375","32.6875","12.625"
"1574201115896","189","0.50878906","-0.8798828","-0.05078125","-48.65625","41.5625","15.3125"
"1574201116090","190","0.5048828","-0.8496094","-0.057617188","-35.78125","33.3125","20.5"
"1574201116091","191","0.48046875","-0.88671875","-0.09472656","-23.15625","27.21875","24.65625"
"1574201116091","192","0.43554688","-0.8720703","-0.09277344","-22.0625","31.25","20.8125"
"1574201116092","193","0.46289062","-0.91503906","-0.10644531","-14.1875","37.65625","24.15625"
"1574201116092","194","0.43066406","-0.9511719","-0.1015625","-14.40625","32.15625","23.84375"
"1574201116093","195","0.38867188","-0.91015625","-0.1328125","-12.84375","20.84375","17.6875"
"1574201116093","196","0.4189453","-0.83203125","-0.107421875","-12.46875","17.125","7.125"
"1574201116093","197","0.46289062","-0.8515625","-0.083984375","-4.71875","9.4375","4.4375"
"1574201116093","198","0.28710938","-0.9277344","-0.11425781","-3.96875","4.1875","13.59375"
"1574201116094","199","0.3310547","-0.9501953","-0.12402344","-18.75","18.28125","8.59375"
"1574201116489","200","0.4326172","-0.9433594","-0.11035156","-10.6875","17.5625","5.40625"
"1574201116490","201","0.3671875","-0.8828125","-0.12011719","2.375","10.0625","6.46875"
"1574201116490","202","0.3466797","-0.92871094","-0.14648438","-0.5","3.65625","3.65625"
"1574201116490","203","0.3876953","-0.9746094","-0.119140625","-5.25","5.59375","-0.9375"
"1574201116490","204","0.36523438","-0.9453125","-0.125","-3.125","5.96875","4.0"
"1574201116492","205","0.3203125","-0.9511719","-0.14941406","-9.28125","4.3125","4.875"
"1574201116492","206","0.3642578","-0.9326172","-0.11425781","-14.3125","12.875","6.03125"
"1574201116492","207","0.3701172","-0.9453125","-0.15039062","-10.6875","4.6875","11.03125"
"1574201116493","208","0.29882812","-0.9003906","-0.12890625","-6.59375","5.53125","15.3125"
"1574201116493","209","0.30371094","-0.91503906","-0.16210938","-10.4375","2.90625","14.5"
"1574201117085","210","0.3076172","-0.9394531","-0.14648438","-8.25","-3.0","12.375"
"1574201117086","211","0.24804688","-0.9433594","-0.16113281","-3.8125","-0.625","11.15625"
"1574201117086","212","0.31445312","-0.9375","-0.14941406","-7.78125","3.65625","4.6875"
"1574201117087","213","0.3330078","-0.9394531","-0.119140625","-2.28125","-0.5","9.125"
"1574201117087","214","0.2705078","-0.96484375","-0.17675781","-2.75","-1.78125","4.8125"
"1574201117087","215","0.2763672","-0.91308594","-0.12695312","-2.03125","4.0","3.21875"
"1574201117087","216","0.2890625","-0.98046875","-0.16601562","6.6875","0.90625","6.5625"
"1574201117089","217","0.24023438","-0.9501953","-0.15625","2.84375","5.59375","0.71875"
"1574201117089","218","0.26171875","-0.9189453","-0.125","4.6875","9.5","1.5"
"1574201117089","219","0.26464844","-0.97265625","-0.14160156","2.71875","12.625","1.5"
"1574201117283","220","0.26953125","-0.96972656","-0.12597656","2.5625","15.5","-2.46875"
"1574201117283","221","0.2841797","-0.97265625","-0.12402344","4.125","8.59375","-3.0625"
"1574201117283","222","0.28710938","-0.9736328","-0.140625","2.84375","5.125","-4.59375"
"1574201117284","223","0.28125","-0.9375","-0.12402344","2.5625","4.9375","-4.09375"
"1574201117284","224","0.26953125","-0.9658203","-0.13964844","-2.03125","3.28125","-1.0625"
"1574201117284","225","0.26757812","-0.95410156","-0.13867188","-3.0625","4.75","-4.15625"
"1574201117284","226","0.2841797","-0.9550781","-0.12695312","-3.90625","3.71875","-5.5"
"1574201117285","227","0.30371094","-0.921875","-0.11425781","-0.1875","4.875","-2.09375"
"1574201117285","228","0.29785156","-0.9667969","-0.12988281","-2.875","2.125","-0.1875"
"1574201117286","229","0.2626953","-0.94921875","-0.11621094","-8.4375","5.40625","-2.875"
"1574201117683","230","0.328125","-0.97265625","-0.12792969","1.875","5.21875","-1.90625"
"1574201117684","231","0.30859375","-0.9941406","-0.12597656","1.375","1.375","2.0625"
"1574201117684","232","0.2919922","-0.95410156","-0.107421875","3.53125","2.25","5.53125"
"1574201117684","233","0.23925781","-0.9638672","-0.12792969","5.65625","0.15625","8.46875"
"1574201117684","234","0.23730469","-0.9267578","-0.11816406","2.65625","2.125","1.375"
"1574201117685","235","0.2890625","-0.8925781","-0.12011719","5.21875","0.53125","-6.90625"
"1574201117685","236","0.29589844","-0.9716797","-0.08984375","-0.125","-0.5","-8.9375"
"1574201117685","237","0.31152344","-0.97558594","-0.1171875","-3.875","-1.25","-10.21875"
"1574201117685","238","0.3408203","-0.9736328","-0.11230469","-6.25","-0.375","-10.9375"
"1574201117685","239","0.31933594","-0.96875","-0.083984375","5.40625","2.65625","-6.71875"
"1574201118276","240","0.24902344","-0.95214844","-0.12207031","-0.5","3.34375","-3.25"
"1574201118278","241","0.29785156","-0.91015625","-0.11328125","0.21875","10.59375","-6.0"
"1574201118278","242","0.2890625","-0.9658203","-0.11621094","3.71875","7.5","-2.03125"
"1574201118278","243","0.2763672","-1.0039062","-0.107421875","0.0","12.1875","0.15625"
"1574201118279","244","0.2763672","-0.9355469","-0.10449219","-0.75","12.3125","-0.4375"
"1574201118279","245","0.29492188","-0.9267578","-0.103515625","1.15625","13.40625","-1.125"
"1574201118280","246","0.30859375","-0.9267578","-0.08203125","0.84375","17.4375","-3.5"
"1574201118280","247","0.3232422","-0.93652344","-0.08203125","2.90625","13.0","-4.40625"
"1574201118281","248","0.33007812","-0.9560547","-0.091796875","0.46875","13.0","-7.15625"
"1574201118281","249","0.35546875","-0.9560547","-0.07519531","9.5625","10.90625","-6.96875"
"1574201118476","250","0.3076172","-0.9658203","-0.09082031","10.0625","7.375","-4.53125"
"1574201118477","251","0.30273438","-0.9501953","-0.09277344","6.5625","7.5625","-1.65625"
"1574201118477","252","0.3095703","-0.91015625","-0.09082031","6.8125","1.5","-4.28125"
"1574201118478","253","0.3359375","-0.8886719","-0.076171875","12.875","-2.21875","-12.65625"
"1574201118479","254","0.3486328","-0.88964844","-0.072265625","15.90625","-7.15625","-19.25"
"1574201118479","255","0.3798828","-0.9394531","-0.07519531","6.75","-18.5625","-27.34375"
"1574201118479","256","0.47070312","-0.9394531","-0.022460938","12.0","-15.40625","-28.21875"
"1574201118480","257","0.40429688","-0.890625","-0.044921875","14.6875","-32.71875","-23.5"
"1574201118480","258","0.46972656","-0.87597656","-0.032226562","21.34375","-35.28125","-29.6875"
"1574201118480","259","0.5263672","-0.88671875","0.01171875","34.09375","-38.65625","-32.5625"
"1574201118873","260","0.5029297","-0.9082031","0.001953125","44.65625","-44.09375","-32.0"
"1574201118873","261","0.51953125","-0.86328125","0.018554688","40.28125","-43.46875","-35.21875"
"1574201118873","262","0.49316406","-0.8378906","0.01171875","32.8125","-39.9375","-25.78125"
"1574201118874","263","0.48535156","-0.8457031","0.03125","27.5625","-39.625","-22.96875"
"1574201118874","264","0.5566406","-0.890625","0.038085938","25.625","-27.59375","-16.1875"
"1574201118875","265","0.4736328","-0.8623047","0.034179688","21.90625","-20.28125","-11.3125"
"1574201118875","266","0.49902344","-0.8222656","0.025390625","19.15625","-19.53125","-16.4375"
"1574201118876","267","0.5498047","-0.8300781","0.026367188","18.96875","-16.875","-16.25"
"1574201118876","268","0.5390625","-0.80859375","0.046875","13.46875","-13.3125","-10.5625"
"1574201118876","269","0.57128906","-0.8300781","0.03515625","8.09375","-11.5","-6.65625"
"1574201119270","270","0.56640625","-0.83203125","0.04296875","6.5","-8.1875","-2.8125"
"1574201119271","271","0.56933594","-0.83203125","0.038085938","7.5625","-8.0625","-4.71875"
"1574201119271","272","0.5263672","-0.80371094","0.051757812","3.03125","-3.90625","-0.3125"
"1574201119271","273","0.59472656","-0.8232422","0.060546875","6.875","0.21875","-2.875"
"1574201119271","274","0.5800781","-0.79003906","0.0625","7.84375","-2.75","-1.0"
"1574201119272","275","0.5263672","-0.7753906","0.052734375","9.09375","-3.125","-0.5"
"1574201119272","276","0.5644531","-0.8173828","0.05859375","6.9375","-4.46875","-8.0"
"1574201119273","277","0.6201172","-0.7939453","0.08203125","12.125","-1.34375","-8.1875"
"1574201119273","278","0.57421875","-0.8027344","0.060546875","15.25","-5.21875","-5.8125"
"1574201119274","279","0.5761719","-0.80078125","0.060546875","4.875","2.25","-3.6875"
"1574201119670","280","0.546875","-0.80566406","0.06738281","-0.6875","-1.0625","-0.875"
"1574201119670","281","0.5986328","-0.81347656","0.07324219","-2.09375","1.9375","-2.34375"
"1574201119671","282","0.5908203","-0.7919922","0.040039062","2.96875","-4.65625","0.96875"
"1574201119671","283","0.58203125","-0.78222656","0.06933594","1.5","-1.3125","3.65625"
"1574201119671","284","0.5908203","-0.78222656","0.049804688","5.96875","-4.03125","3.34375"
"1574201119671","285","0.5732422","-0.7988281","0.046875","4.75","-3.6875","4.5625"
"1574201119672","286","0.56933594","-0.8222656","0.059570312","2.0625","-3.1875","2.65625"
"1574201119672","287","0.5683594","-0.81347656","0.07519531","1.09375","-1.53125","0.46875"
"1574201119672","288","0.56933594","-0.8076172","0.07324219","0.96875","2.96875","0.65625"
"1574201119673","289","0.55859375","-0.8251953","0.08496094","-0.9375","5.96875","-1.1875"
"1574201120067","290","0.5888672","-0.7890625","0.08886719","-0.75","7.625","-5.15625"
"1574201120068","291","0.5878906","-0.77441406","0.10449219","2.71875","8.71875","-6.375"
"1574201120068","292","0.5673828","-0.75097656","0.08886719","5.0625","3.59375","-4.09375"
"1574201120068","293","0.5878906","-0.7597656","0.095703125","1.75","3.21875","-1.0625"
"1574201120068","294","0.5654297","-0.80371094","0.06640625","-0.625","0.15625","4.25"
"1574201120068","295","0.5605469","-0.8222656","0.083984375","-7.15625","0.59375","5.125"
"1574201120069","296","0.57421875","-0.84375","0.047851562","-0.0625","3.15625","8.03125"
"1574201120069","297","0.53027344","-0.84277344","0.05859375","-5.6875","8.84375","5.34375"
"1574201120069","298","0.5517578","-0.8066406","0.06542969","-7.28125","12.125","-0.4375"
"1574201120069","299","0.609375","-0.80371094","0.0859375","-3.1875","10.78125","-5.3125"
"1574201120464","300","0.5908203","-0.7519531","0.11035156","0.0","2.0","-2.28125"
"1574201120466","301","0.5703125","-0.7919922","0.08691406","-2.9375","4.8125","0.40625"
"1574201120466","302","0.5673828","-0.79785156","0.08691406","-6.3125","9.3125","0.34375"
"1574201120467","303","0.56640625","-0.7871094","0.0625","-2.75","1.03125","3.78125"
"1574201120467","304","0.5751953","-0.8457031","0.064453125","0.40625","1.875","2.1875"
"1574201120467","305","0.5566406","-0.8330078","0.06347656","0.78125","-0.6875","1.15625"
"1574201120467","306","0.54296875","-0.8144531","0.05859375","-0.3125","-0.0625","0.65625"
"1574201120468","307","0.56640625","-0.8154297","0.07519531","-3.375","-0.5","0.71875"
"1574201120468","308","0.58691406","-0.81347656","0.08105469","-3.8125","0.78125","-0.25"
"1574201120468","309","0.57128906","-0.79296875","0.08203125","-5.03125","1.28125","3.21875"
"1574201120861","310","0.5644531","-0.79589844","0.05859375","-8.1875","-0.375","2.125"
"1574201120862","311","0.56152344","-0.80859375","0.07128906","-5.3125","-2.40625","3.90625"
"1574201120862","312","0.5517578","-0.82421875","0.060546875","-5.375","-2.03125","2.65625"
"1574201120865","313","0.5546875","-0.8173828","0.06542969","-5.4375","-0.8125","0.53125"
"1574201120866","314","0.57910156","-0.81640625","0.056640625","-1.53125","-2.40625","2.25"
"1574201120866","315","0.5498047","-0.8076172","0.0546875","-1.90625","-4.90625","3.90625"
"1574201120867","316","0.5283203","-0.7871094","0.05078125","-3.75","-5.21875","8.46875"
"1574201120867","317","0.52734375","-0.86816406","0.038085938","-10.6875","-1.25","14.625"
"1574201120867","318","0.49121094","-0.8828125","0.020507812","-13.375","5.71875","12.625"
"1574201120867","319","0.48339844","-0.89160156","0.018554688","-15.34375","7.3125","9.03125"
"1574201121258","320","0.56152344","-0.85058594","0.01953125","-9.59375","8.15625","1.6875"
"1574201121258","321","0.5126953","-0.7910156","0.018554688","-12.84375","8.15625","4.8125"
"1574201121258","322","0.52734375","-0.8574219","0.041015625","-22.96875","10.65625","6.21875"
"1574201121259","323","0.5253906","-0.8574219","-0.005859375","-26.4375","14.75","10.1875"
"1574201121259","324","0.46875","-0.89160156","-9.765625E-4","-30.21875","17.6875","18.0625"
"1574201121260","325","0.43652344","-0.95410156","-0.0107421875","-31.5625","30.1875","17.0625"
"1574201121260","326","0.41601562","-0.93652344","-0.051757812","-38.53125","36.375","16.65625"
"1574201121261","327","0.3828125","-0.87597656","-0.018554688","-44.75","40.375","20.4375"
"1574201121261","328","0.40527344","-0.94921875","-0.047851562","-49.5625","46.625","25.9375"
"1574201121261","329","0.4013672","-0.93847656","-0.059570312","-50.625","52.09375","31.46875"
"1574201121657","330","0.40820312","-0.89160156","-0.053710938","-44.8125","56.0","34.46875"
"1574201121658","331","0.39941406","-0.9003906","-0.11425781","-29.96875","39.59375","28.96875"
"1574201121658","332","0.3720703","-0.9394531","-0.12207031","-36.5625","39.78125","26.78125"
"1574201121658","333","0.42089844","-0.8671875","-0.12207031","-25.78125","36.96875","13.53125"
"1574201121658","334","0.46875","-0.8535156","-0.10449219","-8.8125","20.3125","8.84375"
"1574201121659","335","0.3720703","-0.93847656","-0.14746094","-2.46875","13.78125","11.9375"
"1574201121659","336","0.3046875","-0.9609375","-0.14648438","-16.25","15.125","11.53125"
"1574201121660","337","0.34765625","-0.9394531","-0.16210938","-11.71875","15.90625","10.84375"
"1574201121661","338","0.3330078","-0.9082031","-0.13769531","-6.84375","10.65625","6.875"
"1574201121661","339","0.35058594","-0.9296875","-0.13574219","-2.15625","8.21875","9.25"
"1574201122056","340","0.3154297","-0.93652344","-0.15917969","-7.21875","1.8125","8.71875"
"1574201122057","341","0.2783203","-0.9560547","-0.15429688","-3.75","0.21875","10.71875"
"1574201122057","342","0.24804688","-0.96777344","-0.17480469","-6.25","-1.53125","12.9375"
"1574201122057","343","0.2685547","-0.93359375","-0.16113281","-7.71875","-0.25","12.375"
"1574201122058","344","0.2548828","-0.953125","-0.15527344","-5.8125","0.09375","13.40625"
"1574201122058","345","0.21582031","-0.94628906","-0.15332031","-11.5625","-1.90625","12.0625"
"1574201122058","346","0.2548828","-0.92578125","-0.16894531","-5.3125","1.8125","10.71875"
"1574201122058","347","0.25976562","-0.9091797","-0.14941406","4.0","2.3125","11.40625"
"1574201122059","348","0.21484375","-0.97558594","-0.15625","1.09375","-0.1875","10.46875"
"1574201122060","349","0.23828125","-1.0078125","-0.16503906","-1.0","2.90625","4.25"
"1574201122453","350","0.2578125","-0.9482422","-0.14160156","4.9375","0.90625","-0.5"
"1574201122453","351","0.23144531","-0.94140625","-0.14941406","10.0","-3.90625","2.3125"
"1574201122454","352","0.20898438","-0.96191406","-0.16699219","5.1875","-1.59375","-2.21875"
"1574201122454","353","0.22363281","-0.93847656","-0.13964844","2.84375","-1.96875","-7.8125"
"1574201122454","354","0.2421875","-0.99902344","-0.14941406","5.84375","-3.875","-6.125"
"1574201122454","355","0.23144531","-0.9736328","-0.15722656","0.84375","-6.4375","-12.59375"
"1574201122455","356","0.24414062","-0.93847656","-0.13964844","3.9375","-2.09375","-7.09375"
"1574201122455","357","0.24707031","-0.9980469","-0.15820312","-3.25","-2.46875","0.46875"
"1574201122455","358","0.22753906","-1.0126953","-0.15039062","-5.21875","0.09375","-1.34375"
"1574201122455","359","0.23828125","-0.9746094","-0.15234375","-6.1875","-4.46875","0.0"
"1574201122849","360","0.23046875","-0.93847656","-0.15625","-3.90625","-5.8125","-1.1875"
"1574201122850","361","0.22265625","-0.9355469","-0.16113281","-8.1875","-1.96875","1.03125"
"1574201122850","362","0.234375","-0.9580078","-0.1796875","-9.0625","-6.1875","-3.90625"
"1574201122851","363","0.25878906","-0.9658203","-0.17089844","-11.125","-3.875","-3.875"
"1574201122851","364","0.2841797","-0.9472656","-0.19921875","-1.78125","-4.96875","-9.53125"
"1574201122851","365","0.2763672","-0.9580078","-0.13964844","-3.0","-5.09375","-1.71875"
"1574201122852","366","0.27148438","-0.9580078","-0.1953125","3.03125","-7.9375","-2.8125"
"1574201122852","367","0.26464844","-0.9658203","-0.18457031","-0.75","-9.65625","-4.03125"
"1574201122852","368","0.23046875","-0.9716797","-0.203125","0.0","-6.90625","-0.625"
"1574201122852","369","0.21875","-0.96777344","-0.20996094","-1.53125","-9.53125","-2.03125"
"1574201123246","370","0.19628906","-0.9736328","-0.20800781","-10.03125","-5.25","1.75"
"1574201123246","371","0.22265625","-0.98339844","-0.23144531","-8.8125","0.84375","2.84375"
"1574201123247","372","0.25976562","-0.9746094","-0.21875","-5.09375","-2.03125","7.125"
"1574201123247","373","0.19824219","-0.9375","-0.21386719","-8.8125","0.46875","11.15625"
"1574201123247","374","0.24609375","-0.91796875","-0.23925781","-1.78125","0.09375","4.4375"
"1574201123247","375","0.24023438","-0.92871094","-0.21777344","0.59375","-1.34375","3.53125"
"1574201123248","376","0.21582031","-0.953125","-0.2265625","2.3125","-3.0","-1.40625"
"1574201123248","377","0.20117188","-0.9394531","-0.21875","-2.53125","-2.40625","-8.4375"
"1574201123248","378","0.20019531","-0.8964844","-0.2529297","-7.71875","-0.6875","-14.53125"
"1574201123248","379","0.21679688","-0.7763672","-0.24414062","-6.84375","1.625","-21.25"
"1574201123644","380","0.24316406","-0.80859375","-0.18457031","-12.59375","5.1875","-29.4375"
"1574201123645","381","0.42773438","-1.0761719","-0.16992188","3.59375","-4.59375","-29.4375"
"1574201123645","382","0.53222656","-1.1435547","-0.083984375","1.5","6.5625","-25.90625"
"1574201123645","383","0.49316406","-1.0","0.0","18.0","7.25","-8.875"
"1574201123646","384","0.28808594","-0.9160156","-0.16210938","26.34375","-14.78125","16.53125"
"1574201123647","385","0.24609375","-0.89453125","-0.29785156","23.375","-11.96875","12.9375"
"1574201123648","386","0.28222656","-0.99316406","-0.22167969","13.09375","-5.25","-3.90625"
"1574201123648","387","0.265625","-1.0078125","-0.19335938","15.65625","-10.5","-7.34375"
"1574201123648","388","0.2578125","-1.0263672","-0.15429688","2.71875","3.34375","0.71875"
"1574201123648","389","0.2685547","-0.9550781","-0.18261719","-4.71875","5.46875","5.46875"
"1574201124235","390","0.2626953","-0.8730469","-0.19042969","-3.625","5.59375","4.9375"
"1574201124236","391","0.296875","-0.90527344","-0.19335938","0.0","1.8125","-3.8125"
"1574201124236","392","0.3017578","-0.9951172","-0.15625","2.71875","2.90625","-5.875"
"1574201124236","393","0.28125","-0.98535156","-0.16699219","1.3125","1.375","-7.46875"
"1574201124236","394","0.2705078","-0.95214844","-0.16015625","-2.8125","2.78125","-2.75"
"1574201124237","395","0.27539062","-0.9482422","-0.17578125","-0.75","-0.8125","0.15625"
"1574201124237","396","0.24023438","-0.9326172","-0.16796875","0.71875","-6.78125","-0.75"
"1574201124237","397","0.25","-0.8964844","-0.18652344","2.59375","-10.03125","-2.03125"
"1574201124237","398","0.3203125","-0.96875","-0.17382812","10.1875","-5.09375","1.15625"
"1574201124238","399","0.28125","-0.93652344","-0.17285156","7.4375","-3.0625","-0.3125"
"1574201124638","400","0.24707031","-0.8964844","-0.16699219","9.3125","-3.96875","-2.9375"
"1574201124639","401","0.2705078","-0.94921875","-0.18554688","2.25","-0.4375","-10.625"
"1574201124639","402","0.2685547","-0.8730469","-0.15234375","-0.625","1.9375","-17.65625"
"1574201124639","403","0.35742188","-0.9667969","-0.16210938","1.75","-2.9375","-22.125"
"1574201124639","404","0.38378906","-0.91015625","-0.123046875","14.4375","-6.96875","-26.5625"
"1574201124640","405","0.37695312","-0.8125","-0.12402344","29.90625","-27.46875","-33.71875"
"1574201124640","406","0.4609375","-0.9824219","-0.13378906","39.53125","-30.90625","-37.90625"
"1574201124640","407","0.4140625","-0.9765625","-0.09863281","55.78125","-15.6875","-48.53125"
"1574201124640","408","0.41210938","-0.9345703","0.048828125","43.0","-22.65625","-37.25"
"1574201124642","409","0.4140625","-0.8613281","-0.080078125","32.53125","-25.78125","-30.09375"
"1574201124838","410","0.515625","-0.9033203","-0.017578125","13.0","-12.90625","-24.75"
"1574201124838","411","0.5205078","-0.93066406","-0.024414062","17.4375","-16.3125","-19.0625"
"1574201124839","412","0.54296875","-0.81347656","-0.032226562","16.34375","-16.625","-20.40625"
"1574201124839","413","0.5341797","-0.86035156","-0.0234375","29.9375","-20.9375","-16.875"
"1574201124839","414","0.4296875","-0.85546875","-0.048828125","16.46875","-15.625","-27.125"
"1574201124839","415","0.4296875","-0.8173828","0.0146484375","3.03125","0.90625","-18.03125"
"1574201124840","416","0.51660156","-0.8535156","0.017578125","-2.03125","-0.5","-8.9375"
"1574201124840","417","0.59277344","-0.8808594","-0.022460938","-8.625","4.125","-6.25"
"1574201124840","418","0.52441406","-0.8144531","-0.01953125","-4.28125","4.625","-1.65625"
"1574201124840","419","0.5126953","-0.8105469","-0.015625","-4.03125","7.625","-3.0"
"1574201125234","420","0.6142578","-0.83203125","0.005859375","-1.96875","7.84375","-6.59375"
"1574201125235","421","0.56152344","-0.7939453","0.017578125","0.96875","3.65625","-3.4375"
"1574201125235","422","0.5517578","-0.83203125","0.018554688","-3.90625","8.21875","0.65625"
"1574201125236","423","0.5419922","-0.81933594","0.0234375","15.84375","1.03125","9.125"
"1574201125236","424","0.46972656","-0.78027344","-0.0234375","5.0625","9.6875","14.15625"
"1574201125236","425","0.5751953","-0.9082031","0.026367188","-9.65625","10.96875","11.28125"
"1574201125237","426","0.5595703","-0.85253906","-0.015625","-5.25","-2.53125","16.90625"
"1574201125237","427","0.5214844","-0.86328125","-0.0087890625","-12.28125","-1.59375","15.1875"
"1574201125237","428","0.55078125","-0.8544922","-0.025390625","-4.34375","-11.78125","12.1875"
"1574201125237","429","0.49902344","-0.8457031","-0.013671875","-4.15625","-8.125","8.46875"
"1574201125633","430","0.4716797","-0.9013672","0.005859375","-8.375","2.1875","6.28125"
"1574201125634","431","0.5107422","-0.8798828","0.0146484375","-4.46875","7.84375","-4.34375"
"1574201125634","432","0.546875","-0.8417969","0.021484375","-0.25","5.40625","-2.03125"
"1574201125635","433","0.47753906","-0.81640625","0.043945312","-11.4375","1.8125","-10.625"
"1574201125636","434","0.55371094","-0.7939453","0.017578125","-4.65625","23.4375","-12.46875"
"1574201125636","435","0.5175781","-0.8701172","-0.060546875","3.71875","9.6875","-5.03125"
"1574201125636","436","0.48339844","-0.87597656","-0.0068359375","3.78125","7.5","-2.15625"
"1574201125637","437","0.45117188","-0.8222656","0.0087890625","-5.625","10.1875","13.15625"
"1574201125637","438","0.44335938","-0.8964844","-0.026367188","-6.5","16.21875","16.28125"
"1574201125637","439","0.5136719","-0.9482422","-0.0625","-6.0","17.625","7.125"
"1574201126029","440","0.48339844","-0.8544922","-9.765625E-4","-11.5625","12.4375","4.6875"
"1574201126030","441","0.4765625","-0.8847656","-0.0048828125","-12.03125","12.0","9.25"
"1574201126030","442","0.47265625","-0.8466797","-0.026367188","-16.25","12.3125","7.625"
"1574201126030","443","0.42578125","-0.89160156","-0.03125","-23.28125","12.4375","11.9375"
"1574201126031","444","0.48828125","-0.87402344","-0.0087890625","-24.375","20.0625","4.25"
"1574201126032","445","0.5019531","-0.9091797","-0.057617188","-10.4375","5.0625","7.125"
"1574201126033","446","0.4375","-0.9003906","-0.043945312","-15.03125","2.25","6.6875"
"1574201126033","447","0.41015625","-0.890625","-0.07324219","-11.625","-2.9375","1.03125"
"1574201126033","448","0.40039062","-0.89160156","-0.08496094","-13.5","0.09375","3.78125"
"1574201126033","449","0.3828125","-0.9326172","-0.07714844","-16.1875","7.96875","4.75"
"1574201126428","450","0.41015625","-0.9140625","-0.07714844","-14.0","8.84375","5.40625"
"1574201126428","451","0.359375","-0.89160156","-0.0859375","-12.28125","10.125","6.46875"
"1574201126429","452","0.4033203","-0.9189453","-0.10839844","-10.9375","11.875","4.9375"
"1574201126429","453","0.43554688","-0.88183594","-0.11621094","-6.5","10.1875","2.84375"
"1574201126429","454","0.39453125","-0.90234375","-0.11816406","-6.96875","5.40625","3.71875"
"1574201126429","455","0.42382812","-0.9033203","-0.11035156","-5.6875","7.84375","2.125"
"1574201126430","456","0.4296875","-0.87597656","-0.08691406","-3.6875","12.0","3.90625"
"1574201126431","457","0.45214844","-0.8964844","-0.10253906","-3.3125","9.3125","2.25"
"1574201126431","458","0.41601562","-0.90527344","-0.08984375","-11.4375","12.0","6.46875"
"1574201126432","459","0.42773438","-0.9169922","-0.107421875","-11.3125","11.34375","4.6875"
"1574201126823","460","0.42382812","-0.94433594","-0.099609375","-5.75","16.59375","13.28125"
"1574201126823","461","0.3486328","-0.9814453","-0.08886719","-16.375","23.0625","28.1875"
"1574201126824","462","0.3623047","-1.0039062","-0.12402344","-17.59375","30.4375","27.625"
"1574201126824","463","0.3701172","-0.94140625","-0.12792969","-16.96875","24.71875","24.71875"
"1574201126824","464","0.38476562","-0.8798828","-0.10449219","-16.75","21.09375","17.0625"
"1574201126824","465","0.38867188","-0.91503906","-0.11328125","-8.25","15.5","18.1875"
"1574201126825","466","0.2548828","-0.9824219","-0.15039062","-18.3125","13.53125","19.625"
"1574201126825","467","0.3046875","-0.9394531","-0.14550781","-22.90625","16.21875","13.28125"
"1574201126825","468","0.3095703","-0.9169922","-0.17089844","-16.5625","11.75","17.875"
"1574201126827","469","0.24804688","-0.92871094","-0.18945312","-10.28125","14.15625","14.28125"
"1574201127221","470","0.23046875","-0.9423828","-0.1640625","-7.65625","17.5625","11.71875"
"1574201127221","471","0.21484375","-0.97265625","-0.17089844","-13.875","13.09375","14.15625"
"1574201127222","472","0.27441406","-0.9609375","-0.17285156","-11.375","12.4375","10.71875"
"1574201127222","473","0.28222656","-0.9638672","-0.14550781","-7.34375","13.0","12.25"
"1574201127222","474","0.2109375","-0.99609375","-0.18164062","-13.0625","7.96875","11.9375"
"1574201127222","475","0.24707031","-0.9589844","-0.18457031","-8.625","8.28125","6.09375"
"1574201127223","476","0.24609375","-0.9277344","-0.17773438","-2.46875","5.40625","10.375"
"1574201127223","477","0.2109375","-0.96777344","-0.18457031","1.8125","3.34375","11.40625"
"1574201127223","478","0.19335938","-0.9111328","-0.17285156","2.3125","0.40625","7.6875"
"1574201127223","479","0.17675781","-0.99121094","-0.203125","-1.40625","-0.5625","8.34375"
"1574201127813","480","0.15722656","-0.9560547","-0.18945312","-2.9375","-0.1875","0.0"
"1574201127814","481","0.19335938","-0.9609375","-0.19824219","0.71875","-0.3125","0.21875"
"1574201127815","482","0.19140625","-0.9511719","-0.171875","-0.5625","-0.875","-1.46875"
"1574201127815","483","0.17871094","-0.89160156","-0.16210938","2.375","6.8125","-2.21875"
"1574201127815","484","0.18261719","-1.0273438","-0.2265625","-3.25","0.09375","-2.40625"
"1574201127816","485","0.20117188","-0.9609375","-0.16992188","-0.25","10.3125","-16.75"
"1574201127816","486","0.2578125","-1.0097656","-0.17773438","1.03125","6.5625","-16.6875"
"1574201127816","487","0.22167969","-0.9609375","-0.16699219","-5.9375","3.28125","-22.84375"
"1574201127817","488","0.2890625","-0.9404297","-0.17675781","-5.25","9.4375","-18.3125"
"1574201127817","489","0.2939453","-0.9707031","-0.15820312","-1.0","4.625","-11.4375"
"1574201128017","490","0.2421875","-0.9794922","-0.18066406","-3.8125","0.21875","-10.625"
"1574201128017","491","0.31835938","-0.96484375","-0.1875","1.375","1.4375","-10.8125"
"1574201128018","492","0.28222656","-0.9296875","-0.16601562","5.0625","-3.1875","-9.40625"
"1574201128019","493","0.2685547","-0.9169922","-0.17578125","4.375","-6.25","-7.21875"
"1574201128019","494","0.2763672","-0.9453125","-0.17871094","-4.03125","-3.375","-6.4375"
"1574201128020","495","0.31054688","-0.9511719","-0.18457031","-3.8125","-5.625","-7.03125"
"1574201128020","496","0.29589844","-0.96972656","-0.20214844","-6.375","-8.3125","-2.09375"
"1574201128020","497","0.28808594","-0.9482422","-0.19726562","-4.46875","-5.625","-1.40625"
"1574201128020","498","0.28027344","-0.94921875","-0.20703125","-2.28125","-5.6875","1.3125"
"1574201128021","499","0.25683594","-0.9765625","-0.20703125","-6.375","-7.34375","4.375"
"1574201128413","500","0.29882812","-0.9560547","-0.21289062","-4.65625","-5.15625","1.75"
"1574201128413","501","0.2734375","-0.9453125","-0.21777344","-3.1875","-5.5625","1.6875"
"1574201128413","502","0.26953125","-0.94433594","-0.2109375","-1.59375","-3.0","1.4375"
"1574201128414","503","0.2607422","-0.9550781","-0.23144531","-2.625","-1.125","3.09375"
"1574201128414","504","0.28125","-0.93847656","-0.23046875","0.59375","-3.1875","1.375"
"1574201128415","505","0.24414062","-0.9355469","-0.21875","1.5625","-2.34375","0.53125"
"1574201128415","506","0.27246094","-0.9296875","-0.21484375","2.71875","-0.9375","-2.03125"
"1574201128415","507","0.27148438","-0.95703125","-0.20800781","4.5625","0.09375","-4.09375"
"1574201128416","508","0.28320312","-0.9863281","-0.19726562","2.5625","4.125","-3.375"
"1574201128416","509","0.23242188","-0.99316406","-0.20703125","-6.5","7.3125","1.3125"
"1574201129010","510","0.25976562","-0.95410156","-0.25878906","-1.25","6.15625","1.4375"
"1574201129011","511","0.25195312","-0.92089844","-0.23632812","3.34375","6.8125","-0.8125"
"1574201129011","512","0.2705078","-0.90722656","-0.21875","11.40625","2.375","-4.21875"
"1574201129011","513","0.24902344","-0.9345703","-0.21484375","9.4375","-0.9375","-8.125"
"1574201129012","514","0.24316406","-0.95996094","-0.21484375","2.5625","1.3125","-9.53125"
"1574201129012","515","0.27441406","-0.9482422","-0.20410156","0.96875","5.40625","-12.03125"
"1574201129012","516","0.3623047","-0.90625","-0.16113281","9.375","4.9375","-17.90625"
"1574201129013","517","0.28515625","-0.9658203","-0.18066406","8.65625","-2.875","-13.375"
"1574201129014","518","0.26953125","-0.94628906","-0.21484375","1.28125","-3.625","-15.03125"
"1574201129014","519","0.31445312","-0.8652344","-0.203125","14.75","-3.75","-18.875"
"1574201129403","520","0.40527344","-0.8876953","-0.13769531","30.25","-14.0","-25.71875"
"1574201129404","521","0.49414062","-0.9267578","-0.047851562","44.34375","-24.96875","-33.40625"
"1574201129404","522","0.5126953","-0.9941406","-0.049804688","46.375","-22.78125","-29.5625"
"1574201129404","523","0.4169922","-0.8535156","-0.07324219","42.21875","-31.375","-26.875"
"1574201129405","524","0.39453125","-0.8408203","-0.07714844","38.5625","-30.53125","-26.625"
"1574201129405","525","0.4482422","-0.9013672","-0.041015625","37.46875","-24.3125","-26.625"
"1574201129405","526","0.45898438","-0.9316406","-0.043945312","42.65625","-14.0","-23.6875"
"1574201129405","527","0.45996094","-0.8808594","-0.049804688","49.3125","-10.4375","-24.625"
"1574201129405","528","0.48339844","-0.8701172","0.037109375","46.3125","-17.71875","-24.90625"
"1574201129407","529","0.53808594","-0.8808594","0.059570312","36.90625","-26.6875","-26.125"
"1574201129606","530","0.50878906","-0.8623047","0.024414062","32.875","-12.09375","-21.625"
"1574201129606","531","0.49023438","-0.8339844","0.06738281","21.84375","-11.84375","-19.53125"
"1574201129606","532","0.5390625","-0.8261719","0.060546875","22.1875","-12.90625","-15.46875"
"1574201129606","533","0.5292969","-0.8222656","0.059570312","20.1875","-7.78125","-13.625"
"1574201129607","534","0.5527344","-0.8330078","0.0859375","19.15625","-7.34375","-16.6875"
"1574201129607","535","0.5361328","-0.79785156","0.1015625","9.3125","-2.875","-8.5"
"1574201129607","536","0.5673828","-0.81640625","0.12207031","8.96875","-6.3125","-7.65625"
"1574201129607","537","0.5751953","-0.8222656","0.115234375","7.4375","-1.46875","-1.65625"
"1574201129608","538","0.53808594","-0.80371094","0.11425781","6.09375","-2.15625","-2.21875"
"1574201129608","539","0.5527344","-0.7988281","0.12890625","3.34375","-2.03125","-0.5625"
"1574201130005","540","0.59375","-0.8144531","0.12109375","10.3125","-5.5625","0.90625"
"1574201130006","541","0.5488281","-0.8310547","0.12695312","2.71875","-12.46875","6.5625"
"1574201130006","542","0.54296875","-0.81347656","0.09472656","0.65625","-13.03125","1.8125"
"1574201130007","543","0.5732422","-0.7910156","0.09667969","-0.625","-11.5625","0.0"
"1574201130007","544","0.56347656","-0.8027344","0.10253906","7.4375","-11.5","-1.40625"
"1574201130007","545","0.5673828","-0.8330078","0.10253906","9.875","-10.40625","-2.21875"
"1574201130007","546","0.55859375","-0.8339844","0.09082031","6.875","-9.71875","-4.40625"
"1574201130008","547","0.5605469","-0.8251953","0.08203125","7.3125","-6.96875","-9.90625"
"1574201130008","548","0.5517578","-0.8232422","0.0859375","2.125","-3.0625","-10.5625"
"1574201130010","549","0.55078125","-0.8017578","0.08203125","-1.59375","3.15625","-12.21875"
"1574201130400","550","0.546875","-0.7636719","0.08691406","-4.90625","6.28125","-12.28125"
"1574201130401","551","0.5830078","-0.7626953","0.10546875","-1.96875","8.78125","-14.53125"
"1574201130401","552","0.6015625","-0.765625","0.11425781","2.0625","7.6875","-12.28125"
"1574201130402","553","0.6064453","-0.7734375","0.11425781","-0.625","6.75","-8.5625"
"1574201130402","554","0.625","-0.78125","0.09863281","-0.375","7.96875","-8.6875"
"1574201130403","555","0.62402344","-0.7763672","0.1015625","-2.34375","5.53125","-5.9375"
"1574201130403","556","0.63964844","-0.7685547","0.109375","-1.40625","6.15625","-6.96875"
"1574201130403","557","0.6201172","-0.7529297","0.091796875","-0.4375","3.65625","-6.25"
"1574201130403","558","0.64160156","-0.7529297","0.09863281","-1.59375","1.5","-10.40625"
"1574201130404","559","0.6435547","-0.75683594","0.09667969","0.21875","0.15625","-10.5"
"1574201130800","560","0.61816406","-0.7470703","0.10546875","-2.46875","-1.34375","-12.46875"
"1574201130800","561","0.6328125","-0.7402344","0.08886719","-3.1875","2.4375","-9.34375"
"1574201130800","562","0.61328125","-0.7207031","0.10058594","-4.71875","-0.3125","-6.5"
"1574201130801","563","0.6669922","-0.734375","0.107421875","-3.5625","-1.71875","-7.46875"
"1574201130801","564","0.6591797","-0.74902344","0.103515625","-0.125","-1.25","-5.875"
"1574201130802","565","0.6386719","-0.7548828","0.109375","-5.03125","-1.53125","-6.5"
"1574201130802","566","0.67089844","-0.73828125","0.09472656","-4.28125","0.28125","-6.78125"
"1574201130803","567","0.6347656","-0.7216797","0.0859375","-4.34375","1.9375","-4.34375"
"1574201130803","568","0.6503906","-0.7265625","0.09863281","-4.96875","4.375","-4.96875"
"1574201130803","569","0.67285156","-0.74121094","0.07910156","-4.59375","8.15625","-7.46875"
"1574201131591","570","0.63964844","-0.72753906","0.119140625","-2.9375","7.96875","-3.90625"
"1574201131592","571","0.66308594","-0.7001953","0.11328125","10.1875","-0.625","-2.46875"
"1574201131592","572","0.72265625","-0.7207031","0.080078125","4.9375","10.25","7.90625"
"1574201131592","573","0.6152344","-0.70703125","0.099609375","-2.9375","-2.28125","9.6875"
"1574201131593","574","0.6435547","-0.7558594","0.10449219","-9.15625","11.09375","12.0625"
"1574201131593","575","0.6533203","-0.79296875","0.080078125","-7.71875","8.65625","8.46875"
"1574201131593","576","0.6376953","-0.7324219","0.091796875","-5.21875","6.15625","8.15625"
"1574201131595","577","0.6533203","-0.75097656","0.07324219","-3.875","4.6875","7.90625"
"1574201131595","578","0.59765625","-0.7392578","0.07519531","-8.4375","3.28125","9.375"
"1574201131595","579","0.62109375","-0.76953125","0.076171875","-14.78125","5.0","8.59375"
"1574201132191","580","0.6357422","-0.81152344","0.09082031","-15.53125","5.1875","11.59375"
"1574201132191","581","0.5605469","-0.7705078","0.043945312","-16.125","5.0","15.84375"
"1574201132191","582","0.5996094","-0.7675781","0.041992188","-20.53125","5.28125","14.15625"
"1574201132192","583","0.6386719","-0.7626953","0.0625","-16.8125","-1.40625","15.5"
"1574201132192","584","0.55566406","-0.8095703","0.053710938","-12.84375","-2.34375","18.53125"
"1574201132192","585","0.5673828","-0.8496094","0.05078125","-16.375","2.125","13.59375"
"1574201132192","586","0.58691406","-0.8310547","0.024414062","-12.46875","4.3125","11.8125"
"1574201132193","587","0.55371094","-0.80859375","0.049804688","-12.59375","3.46875","10.25"
"1574201132193","588","0.5576172","-0.83203125","0.026367188","-9.15625","4.75","9.5625"
"1574201132194","589","0.5263672","-0.8105469","0.029296875","-14.84375","9.09375","11.59375"
"1574201132387","590","0.55371094","-0.82910156","0.041015625","-6.53125","17.9375","12.75"
"1574201132388","591","0.5361328","-0.82128906","0.0107421875","-2.59375","7.96875","15.0625"
"1574201132388","592","0.51953125","-0.85839844","0.005859375","-5.625","5.71875","9.6875"
"1574201132389","593","0.5136719","-0.8779297","0.037109375","3.03125","7.5","-0.125"
"1574201132389","594","0.5488281","-0.8417969","0.030273438","6.6875","4.6875","-3.125"
"1574201132389","595","0.5","-0.84765625","0.055664062","7.5625","4.3125","-1.125"
"1574201132389","596","0.4951172","-0.84472656","0.056640625","0.34375","12.75","-3.625"
"1574201132389","597","0.50878906","-0.81152344","0.061523438","-4.78125","16.9375","-0.5625"
"1574201132390","598","0.5107422","-0.8154297","0.044921875","-1.0625","13.34375","1.6875"
"1574201132390","599","0.5048828","-0.83691406","0.047851562","-2.6875","11.65625","6.03125"
"1574201132586","600","0.50878906","-0.8876953","0.055664062","-3.875","10.65625","8.46875"
"1574201132587","601","0.48632812","-0.8769531","0.064453125","-6.1875","14.5625","7.5625"
"1574201132588","602","0.5","-0.86816406","0.038085938","-11.125","16.59375","5.0625"
"1574201132588","603","0.51464844","-0.84375","0.06542969","-14.25","14.3125","0.96875"
"1574201132588","604","0.5341797","-0.8496094","0.061523438","-13.9375","10.0","1.03125"
"1574201132589","605","0.5136719","-0.8613281","0.056640625","-16.75","6.5","2.3125"
"1574201132589","606","0.4921875","-0.8730469","0.05078125","-22.15625","7.3125","3.46875"
"1574201132589","607","0.49804688","-0.8779297","0.022460938","-23.03125","7.5625","5.53125"
"1574201132589","608","0.4658203","-0.8652344","0.018554688","-22.40625","6.875","6.5625"
"1574201132590","609","0.51171875","-0.8613281","0.0087890625","-17.15625","-1.0","7.8125"
"1574201132786","610","0.40234375","-0.8544922","-9.765625E-4","-19.71875","2.59375","8.15625"
"1574201132786","611","0.4580078","-0.9482422","-0.0390625","-23.6875","-3.375","2.375"
"1574201132786","612","0.47558594","-0.8984375","-0.0087890625","-17.59375","12.5625","10.59375"
"1574201132787","613","0.33691406","-0.9111328","-0.043945312","-13.5625","7.1875","17.375"
"1574201132787","614","0.36328125","-0.9091797","-0.06640625","-20.21875","18.46875","17.1875"
"1574201132787","615","0.45117188","-0.94628906","-0.109375","-21.6875","20.125","18.84375"
"1574201132788","616","0.46679688","-0.9248047","-0.09472656","-22.40625","18.96875","12.5"
"1574201132788","617","0.3828125","-0.89746094","-0.095703125","-25.65625","8.84375","9.03125"
"1574201132788","618","0.37597656","-0.87597656","-0.125","-21.75","7.0625","5.46875"
"1574201132788","619","0.4033203","-0.87890625","-0.13378906","-16.375","8.96875","2.5625"
"1574201133186","620","0.3984375","-0.9267578","-0.13476562","-15.21875","7.3125","4.8125"
"1574201133186","621","0.37304688","-0.8984375","-0.14648438","-14.34375","10.1875","7.25"
"1574201133187","622","0.39160156","-0.86621094","-0.10644531","-6.25","13.65625","8.46875"
"1574201133187","623","0.3330078","-0.81347656","-0.13378906","6.15625","7.25","0.90625"
"1574201133187","624","0.35351562","-0.8486328","-0.10644531","7.8125","7.90625","-4.59375"
"1574201133188","625","0.3623047","-0.9433594","-0.10644531","-0.5625","0.96875","-8.4375"
"1574201133189","626","0.39648438","-1.0292969","-0.11328125","-5.4375","6.5","-17.46875"
"1574201133189","627","0.4267578","-0.94433594","-0.09082031","-7.78125","8.65625","-8.5"
"1574201133189","628","0.43554688","-1.0117188","-0.11230469","-10.875","6.03125","5.34375"
"1574201133190","629","0.4013672","-0.9199219","-0.13378906","-16.1875","10.125","6.6875"
"1574201133582","630","0.3857422","-0.9267578","-0.16796875","-5.4375","2.5","12.375"
"1574201133582","631","0.3173828","-1.0039062","-0.16503906","-24.1875","-1.40625","17.75"
"1574201133583","632","0.4189453","-1.0058594","-0.15039062","-44.8125","14.5625","23.78125"
"1574201133583","633","0.4326172","-0.953125","-0.19238281","-41.65625","8.65625","30.8125"
"1574201133583","634","0.2919922","-0.890625","-0.24707031","-39.0625","3.28125","35.15625"
"1574201133583","635","0.25976562","-0.9013672","-0.26757812","-42.75","5.28125","34.21875"
"1574201133584","636","0.3642578","-0.87890625","-0.28125","-30.65625","9.5","31.46875"
"1574201133585","637","0.25097656","-0.9511719","-0.25585938","-36.5","1.28125","38.0625"
"1574201133585","638","0.19042969","-0.96777344","-0.29101562","-50.0625","-7.40625","32.53125"
"1574201133586","639","0.24707031","-0.9042969","-0.328125","-48.96875","-11.78125","32.6875"
"1574201133979","640","0.21777344","-0.91308594","-0.41210938","-22.84375","-7.15625","28.84375"
"1574201133980","641","0.13085938","-0.8652344","-0.3798828","-17.59375","-11.78125","24.21875"
"1574201133980","642","0.19628906","-0.8847656","-0.37695312","-9.65625","-7.34375","14.375"
"1574201133980","643","0.109375","-0.93847656","-0.40722656","-8.9375","-6.96875","16.53125"
"1574201133980","644","0.1015625","-0.9589844","-0.3935547","-19.375","-4.90625","9.9375"
"1574201133981","645","0.11816406","-0.8847656","-0.40722656","-19.59375","-4.53125","6.28125"
"1574201133981","646","0.11328125","-0.9121094","-0.44628906","-13.5625","-4.59375","9.5"
"1574201133981","647","0.08300781","-0.93847656","-0.46679688","-12.71875","-3.25","8.15625"
"1574201133981","648","0.10449219","-0.87597656","-0.47460938","-12.09375","0.15625","7.90625"
"1574201133983","649","0.09765625","-0.875","-0.453125","-2.46875","-2.03125","6.875"
"1574201134376","650","0.1015625","-0.89453125","-0.46679688","4.1875","-1.125","2.25"
"1574201134376","651","0.07714844","-0.8808594","-0.453125","2.3125","0.71875","-1.90625"
"1574201134377","652","0.1015625","-0.8388672","-0.4091797","11.59375","1.3125","-8.9375"
"1574201134377","653","0.119140625","-0.875","-0.39746094","22.5","-0.5","-12.28125"
"1574201134377","654","0.140625","-0.8486328","-0.3515625","26.28125","-1.59375","-15.875"
"1574201134378","655","-0.0087890625","-0.9980469","-0.49023438","14.9375","-8.375","-15.9375"
"1574201134378","656","0.15625","-0.9970703","-0.43652344","8.15625","8.84375","-36.03125"
"1574201134378","657","0.2685547","-0.9667969","-0.33203125","26.96875","2.5","-29.0"
"1574201134379","658","0.15136719","-0.97558594","-0.3642578","24.15625","-3.625","-21.4375"
"1574201134379","659","0.19042969","-0.9589844","-0.36914062","19.875","4.0625","-22.125"
"1574201134773","660","0.13964844","-0.94140625","-0.3486328","31.40625","11.71875","-12.15625"
"1574201134775","661","0.15527344","-0.95410156","-0.30078125","33.375","6.46875","-7.46875"
"1574201134775","662","0.13476562","-0.93652344","-0.27929688","23.25","5.0625","-9.84375"
"1574201134777","663","0.16113281","-0.9345703","-0.26367188","3.21875","11.28125","-5.75"
"1574201134777","664","0.22070312","-1.0009766","-0.27246094","-6.375","11.46875","-1.71875"
"1574201134784","665","0.24902344","-1.0136719","-0.2685547","-6.4375","13.09375","0.96875"
"1574201134787","666","0.25390625","-0.96972656","-0.27539062","-4.84375","7.625","4.6875"
"1574201134787","667","0.22558594","-0.90722656","-0.29101562","7.90625","5.0625","1.3125"
"1574201134788","668","0.18359375","-0.9238281","-0.29101562","10.125","-0.3125","-2.46875"
"1574201134788","669","0.19140625","-0.89453125","-0.25097656","8.15625","0.28125","-10.03125"
"1574201135567","670","0.21679688","-0.9140625","-0.23535156","14.8125","-3.5","-13.9375"
"1574201135567","671","0.22070312","-0.9921875","-0.2529297","8.40625","-5.8125","-17.09375"
"1574201135568","672","0.24609375","-0.953125","-0.24121094","10.78125","-1.125","-21.9375"
"1574201135568","673","0.23730469","-0.984375","-0.21289062","10.40625","-2.75","-18.5"
"1574201135568","674","0.24511719","-0.96484375","-0.23535156","9.625","-0.1875","-17.09375"
"1574201135569","675","0.25878906","-0.8886719","-0.21582031","17.875","2.65625","-22.34375"
"1574201135569","676","0.2861328","-0.9296875","-0.20996094","21.21875","-1.3125","-25.09375"
"1574201135570","677","0.3095703","-0.96191406","-0.1953125","20.1875","-4.40625","-25.46875"
"1574201135570","678","0.32421875","-1.0019531","-0.20703125","12.875","-5.03125","-23.6875"
"1574201135570","679","0.34570312","-0.93359375","-0.19628906","12.4375","-5.09375","-22.78125"
"1574201135765","680","0.3544922","-0.8886719","-0.20214844","21.15625","-8.5625","-26.75"
"1574201135765","681","0.3642578","-0.9326172","-0.16796875","22.625","-10.8125","-27.96875"
"1574201135766","682","0.40039062","-0.8847656","-0.12695312","20.5625","-3.90625","-26.25"
"1574201135766","683","0.40234375","-0.9140625","-0.12597656","25.0","-3.875","-23.21875"
"1574201135766","684","0.41308594","-0.890625","-0.08300781","28.3125","-9.53125","-25.09375"
"1574201135767","685","0.4453125","-0.8925781","-0.09277344","27.15625","-20.28125","-17.28125"
"1574201135767","686","0.44335938","-0.86621094","-0.056640625","32.53125","-16.6875","-16.6875"
"1574201135767","687","0.49414062","-0.8574219","-0.068359375","36.3125","-28.09375","-12.84375"
"1574201135767","688","0.38476562","-0.96875","-0.056640625","35.375","-30.71875","-11.0625"
"1574201135768","689","0.40820312","-0.9013672","-0.046875","16.84375","-9.84375","-12.71875"
"1574201135966","690","0.515625","-0.8691406","-0.05078125","14.09375","-2.6875","-5.15625"
"1574201135966","691","0.5527344","-0.8388672","-0.045898438","25.125","-14.53125","-9.21875"
"1574201135967","692","0.49316406","-0.86328125","-0.016601562","30.5625","-21.0","-11.96875"
"1574201135967","693","0.47558594","-0.9111328","-9.765625E-4","28.96875","-23.15625","-18.4375"
"1574201135967","694","0.4892578","-0.8964844","0.0087890625","26.78125","-12.84375","-22.21875"
"1574201135967","695","0.50683594","-0.8251953","0.0234375","26.78125","-15.34375","-19.65625"
"1574201135968","696","0.5185547","-0.79589844","0.0146484375","24.09375","-17.21875","-21.5"
"1574201135969","697","0.5185547","-0.8574219","0.044921875","18.90625","-10.8125","-20.09375"
"1574201135969","698","0.5","-0.8378906","0.06347656","14.21875","-9.0","-22.0625"
"1574201135969","699","0.55859375","-0.8095703","0.052734375","16.34375","-1.59375","-18.875"
"1574201136364","700","0.56640625","-0.7753906","0.045898438","16.46875","-4.53125","-14.125"
"1574201136364","701","0.6298828","-0.7939453","0.080078125","16.34375","-4.03125","-16.5625"
"1574201136365","702","0.6035156","-0.80078125","0.10644531","15.90625","-4.09375","-10.625"
"1574201136365","703","0.5810547","-0.78222656","0.08886719","12.875","-4.34375","-14.125"
"1574201136365","704","0.63378906","-0.79296875","0.05859375","12.3125","-5.03125","-13.25"
"1574201136365","705","0.59375","-0.7890625","0.060546875","8.53125","-3.75","-14.65625"
"1574201136366","706","0.56933594","-0.77734375","0.038085938","1.6875","-5.4375","-15.21875"
"1574201136366","707","0.5722656","-0.7675781","0.09375","-8.5625","-2.09375","-2.6875"
"1574201136366","708","0.58203125","-0.7265625","0.06347656","-3.8125","2.3125","4.875"
"1574201136367","709","0.61328125","-0.79003906","0.05859375","-9.125","-2.6875","7.25"
"1574201136762","710","0.7705078","-0.80859375","0.083984375","1.75","-12.78125","-3.0"
"1574201136763","711","0.6376953","-0.77734375","0.07421875","4.875","-12.90625","5.78125"
"1574201136763","712","0.5439453","-0.80566406","0.037109375","-0.8125","-9.96875","4.125"
"1574201136763","713","0.53515625","-0.7548828","0.033203125","-12.34375","-4.59375","5.21875"
"1574201136763","714","0.6464844","-0.78515625","0.06347656","-8.5625","0.03125","0.90625"
"1574201136764","715","0.6269531","-0.7988281","0.046875","-2.03125","-1.78125","1.5"
"1574201136764","716","0.5761719","-0.80078125","0.034179688","-5.03125","-0.0625","-0.5"
"1574201136764","717","0.6171875","-0.7890625","0.029296875","-3.875","-1.0","-5.3125"
"1574201136764","718","0.6425781","-0.76953125","0.02734375","1.3125","-2.34375","-3.75"
"1574201136765","719","0.6035156","-0.7841797","0.06347656","-1.25","8.40625","-0.375"
"1574201137753","720","0.5751953","-0.76953125","0.025390625","-3.6875","5.84375","-5.6875"
"1574201137755","721","0.60839844","-0.7792969","0.01171875","3.59375","1.5","-8.3125"
"1574201137756","722","0.6640625","-0.76464844","0.053710938","-5.375","-4.96875","-9.0"
"1574201137756","723","0.6015625","-0.7685547","0.061523438","-4.21875","0.65625","2.125"
"1574201137757","724","0.5703125","-0.77441406","0.01953125","-11.5625","2.25","9.9375"
"1574201137757","725","0.56347656","-0.80371094","0.0029296875","-10.40625","10.40625","11.40625"
"1574201137757","726","0.5830078","-0.83203125","0.016601562","-15.46875","11.75","9.25"
"1574201137757","727","0.6279297","-0.7998047","0.005859375","-9.125","11.53125","7.6875"
"1574201137758","728","0.58203125","-0.78027344","0.0126953125","-9.84375","7.5","12.1875"
"1574201137758","729","0.5800781","-0.79003906","0.01171875","-10.875","7.5625","11.71875"
"1574201137949","730","0.5751953","-0.79589844","0.0087890625","-11.78125","10.3125","8.15625"
"1574201137950","731","0.57910156","-0.80566406","0.0126953125","-6.65625","7.5","4.4375"
"1574201137950","732","0.5966797","-0.8105469","0.03125","-1.34375","2.5","2.5"
"1574201137951","733","0.60253906","-0.796875","0.013671875","7.84375","-2.21875","-0.1875"
"1574201137951","734","0.56933594","-0.8027344","0.018554688","7.0625","-0.5","1.8125"
"1574201137952","735","0.55078125","-0.7763672","0.016601562","9.1875","-4.03125","3.71875"
"1574201137952","736","0.5498047","-0.828125","0.0029296875","4.1875","0.90625","8.59375"
"1574201137952","737","0.5488281","-0.8417969","9.765625E-4","0.65625","6.03125","10.71875"
"1574201137952","738","0.5498047","-0.8417969","-0.005859375","4.5625","5.34375","11.15625"
"1574201137953","739","0.56347656","-0.8496094","-0.00390625","6.875","-1.46875","9.375"
"1574201138152","740","0.51953125","-0.8222656","0.0234375","7.3125","-1.78125","9.03125"
"1574201138153","741","0.5234375","-0.8417969","0.018554688","8.71875","1.3125","6.03125"
"1574201138153","742","0.5205078","-0.85839844","0.033203125","7.90625","7.8125","1.8125"
"1574201138153","743","0.5263672","-0.8232422","0.053710938","4.125","8.59375","2.84375"
"1574201138153","744","0.515625","-0.86035156","0.053710938","-3.5","10.40625","3.53125"
"1574201138155","745","0.51953125","-0.828125","0.060546875","-3.75","10.78125","2.78125"
"1574201138155","746","0.55371094","-0.84765625","0.09863281","-2.875","12.0","15.0625"
"1574201138155","747","0.44140625","-0.82910156","0.06933594","-8.5625","28.5","23.0"
"1574201138156","748","0.46191406","-0.8574219","0.051757812","-9.90625","23.1875","21.09375"
"1574201138156","749","0.50097656","-0.8847656","0.05859375","-6.3125","27.03125","19.53125"
"1574201138550","750","0.41601562","-0.8847656","0.043945312","-12.34375","30.75","13.71875"
"1574201138551","751","0.41308594","-0.92285156","0.028320312","-23.15625","35.25","11.53125"
"1574201138551","752","0.42578125","-0.95410156","0.015625","-32.65625","45.53125","12.1875"
"1574201138551","753","0.49902344","-0.8466797","0.055664062","-34.8125","42.65625","7.25"
"1574201138552","754","0.50097656","-0.91015625","0.08886719","-26.875","32.09375","12.625"
"1574201138552","755","0.3671875","-0.91308594","0.0390625","-40.71875","33.4375","13.40625"
"1574201138552","756","0.33398438","-0.94433594","-9.765625E-4","-57.21875","51.375","15.5"
"1574201138554","757","0.3720703","-0.9716797","0.021484375","-65.5","61.375","15.96875"
"1574201138554","758","0.35546875","-0.93847656","-0.0126953125","-65.5","60.96875","20.4375"
"1574201138554","759","0.28125","-0.9433594","-0.0625","-60.375","39.15625","27.34375"
"1574201138948","760","0.40039062","-0.96484375","-0.103515625","-47.5625","33.5625","24.75"
"1574201138948","761","0.3857422","-0.9326172","-0.13085938","-30.84375","22.375","15.3125"
"1574201138949","762","0.32128906","-0.8857422","-0.13378906","-32.0","8.15625","12.25"
"1574201138949","763","0.27246094","-0.9453125","-0.14550781","-30.84375","9.875","11.8125"
"1574201138949","764","0.27734375","-0.9277344","-0.15625","-28.59375","15.5625","11.40625"
"1574201138950","765","0.30566406","-0.9296875","-0.14746094","-26.75","18.46875","11.59375"
"1574201138950","766","0.32421875","-0.9482422","-0.140625","-14.65625","20.625","9.5"
"1574201138950","767","0.24121094","-1.0146484","-0.2109375","-19.84375","11.21875","14.21875"
"1574201138950","768","0.23535156","-0.95410156","-0.21875","-24.0","19.875","14.75"
"1574201138952","769","0.3232422","-0.8955078","-0.19140625","-7.875","18.84375","11.9375"
"1574201139544","770","0.2607422","-0.9169922","-0.19921875","3.59375","9.8125","18.28125"
"1574201139545","771","0.17773438","-0.92285156","-0.21484375","0.28125","12.1875","8.46875"
"1574201139545","772","0.24707031","-0.99316406","-0.21386719","-5.21875","18.21875","6.875"
"1574201139545","773","0.22363281","-0.99902344","-0.20507812","-6.53125","13.09375","8.71875"
"1574201139546","774","0.22558594","-0.9707031","-0.24121094","-6.84375","11.34375","7.8125"
"1574201139546","775","0.21386719","-0.9794922","-0.2578125","-6.3125","6.40625","7.125"
"1574201139546","776","0.22851562","-0.9472656","-0.22949219","-9.65625","7.96875","6.9375"
"1574201139547","777","0.29003906","-0.9013672","-0.19140625","1.75","-1.0625","8.03125"
"1574201139547","778","0.19824219","-0.93652344","-0.21289062","0.34375","-11.625","16.65625"
"1574201139547","779","0.10644531","-0.9423828","-0.2529297","-7.34375","-10.625","8.71875"
"1574201139743","780","0.20410156","-0.9501953","-0.22460938","-5.8125","-8.1875","1.3125"
"1574201139745","781","0.15039062","-1.0117188","-0.23828125","-2.03125","-9.15625","3.65625"
"1574201139746","782","0.15527344","-0.9355469","-0.23046875","0.71875","-6.0625","-4.59375"
"1574201139746","783","0.18554688","-0.9345703","-0.23242188","-1.53125","-4.40625","-0.3125"
"1574201139746","784","0.12792969","-0.9736328","-0.265625","-2.28125","-8.0625","-3.1875"
"1574201139747","785","0.16699219","-0.9345703","-0.24902344","-2.53125","-6.125","-12.21875"
"1574201139747","786","0.18945312","-0.9716797","-0.26660156","1.3125","-11.0","-12.84375"
"1574201139747","787","0.15625","-0.95410156","-0.2421875","-3.375","-7.46875","-16.5625"
"1574201139748","788","0.20214844","-0.9638672","-0.2548828","-4.96875","-4.21875","-17.40625"
"1574201139748","789","0.19921875","-0.97558594","-0.24609375","-12.59375","-1.46875","-13.875"
"1574201140141","790","0.22460938","-0.9589844","-0.28027344","-8.3125","-1.25","-18.5"
"1574201140142","791","0.28320312","-0.953125","-0.24804688","-6.4375","2.125","-20.71875"
"1574201140142","792","0.26757812","-0.92871094","-0.25585938","-3.1875","-3.875","-20.09375"
"1574201140143","793","0.29882812","-0.9238281","-0.24609375","3.9375","-2.53125","-22.53125"
"1574201140144","794","0.28222656","-0.99121094","-0.2578125","3.9375","-8.9375","-18.25"
"1574201140144","795","0.24023438","-0.9580078","-0.25683594","2.5","-7.09375","-19.0625"
"1574201140144","796","0.28515625","-0.9355469","-0.25097656","6.625","-2.59375","-13.5625"
"1574201140144","797","0.2705078","-0.9111328","-0.24902344","6.40625","-3.5625","-12.46875"
"1574201140145","798","0.28515625","-0.9550781","-0.22851562","4.125","0.21875","-9.0"
"1574201140145","799","0.29101562","-0.93847656","-0.24316406","2.84375","6.46875","-6.0625"
"1574201140738","800","0.2998047","-0.8769531","-0.20703125","13.03125","9.8125","-3.1875"
"1574201140738","801","0.32421875","-0.9580078","-0.23144531","16.53125","9.25","0.53125"
"1574201140739","802","0.2939453","-0.9140625","-0.18164062","13.40625","11.71875","-4.40625"
"1574201140739","803","0.37402344","-0.9082031","-0.18847656","21.90625","9.6875","-0.9375"
"1574201140739","804","0.34765625","-0.9716797","-0.16796875","20.84375","11.15625","-2.34375"
"1574201140741","805","0.32714844","-0.9277344","-0.15722656","18.78125","11.53125","-3.90625"
"1574201140741","806","0.37304688","-0.96191406","-0.15625","17.375","13.28125","-6.375"
"1574201140741","807","0.37890625","-0.9658203","-0.14257812","18.40625","8.71875","-3.90625"
"1574201140741","808","0.31152344","-0.92285156","-0.15625","20.5","4.5625","-1.96875"
"1574201140742","809","0.2607422","-0.95703125","-0.13476562","18.1875","0.03125","-3.375"
"1574201140935","810","0.30859375","-0.9423828","-0.13671875","10.84375","0.15625","-6.375"
"1574201140935","811","0.37695312","-0.9794922","-0.08886719","11.53125","8.90625","-6.53125"
"1574201140936","812","0.36914062","-0.9433594","-0.109375","11.9375","3.90625","-10.15625"
"1574201140936","813","0.3544922","-0.9638672","-0.10839844","3.46875","2.96875","-5.75"
"1574201140936","814","0.34277344","-0.9609375","-0.099609375","1.375","4.9375","-7.15625"
"1574201140936","815","0.30371094","-0.92871094","-0.11621094","-5.9375","2.59375","-5.5"
"1574201140937","816","0.2783203","-0.9326172","-0.13183594","-10.34375","1.6875","-9.71875"
"1574201140938","817","0.3095703","-0.8886719","-0.10253906","-12.46875","7.1875","-17.65625"
"1574201140938","818","0.36621094","-0.8720703","-0.1171875","-8.3125","7.625","-24.1875"
"1574201140938","819","0.5019531","-0.9189453","-0.14550781","-3.25","0.03125","-32.5"
