"# PR data"
"# Start time: 20191119T215627"
"# Subject: diana"
"# Activity type: Knee extension"
"# Correctness: Incorrect"
"# Notes: "
""
"timestamp","seq","accel_x","accel_y","accel_z","gyro_x","gyro_y","gyro_z"
"1574200587415","0","0.5576172","-0.8261719","-0.037109375","-0.9375","2.84375","-1.65625"
"1574200587417","1","0.5527344","-0.81933594","-0.037109375","-0.5625","4.3125","-1.1875"
"1574200587417","2","0.5517578","-0.8251953","-0.028320312","-1.53125","3.40625","-0.5625"
"1574200587417","3","0.55566406","-0.81933594","-0.05078125","0.0","3.90625","-0.625"
"1574200587418","4","0.5546875","-0.8251953","-0.034179688","-0.9375","4.25","-0.25"
"1574200587418","5","0.5546875","-0.8222656","-0.03125","-1.65625","2.125","-1.0625"
"1574200587418","6","0.55371094","-0.828125","-0.030273438","-0.6875","2.375","-1.0"
"1574200587419","7","0.56152344","-0.82421875","-0.03125","0.0","3.03125","-0.625"
"1574200587419","8","0.54785156","-0.8232422","-0.033203125","0.0","2.375","-0.5"
"1574200587419","9","0.5527344","-0.8222656","-0.026367188","-0.4375","2.5","-0.4375"
"1574200587812","10","0.5625","-0.83203125","-0.034179688","-0.8125","3.28125","-0.125"
"1574200587813","11","0.54785156","-0.81933594","-0.026367188","0.34375","3.21875","-0.9375"
"1574200587813","12","0.5517578","-0.8066406","-0.032226562","-1.0625","2.0625","-0.5625"
"1574200587814","13","0.5517578","-0.8359375","-0.033203125","1.03125","4.0","0.78125"
"1574200587815","14","0.55371094","-0.81933594","-0.029296875","-1.0","0.40625","-1.125"
"1574200587815","15","0.5625","-0.8310547","-0.025390625","-1.46875","1.375","-0.4375"
"1574200587815","16","0.5517578","-0.8232422","-0.029296875","-2.34375","1.15625","-1.1875"
"1574200587816","17","0.5566406","-0.83496094","-0.021484375","-2.625","0.15625","-0.9375"
"1574200587816","18","0.54785156","-0.8173828","-0.024414062","-1.25","0.15625","-1.78125"
"1574200587816","19","0.5546875","-0.82128906","-0.04296875","-1.0625","-0.625","-2.53125"
"1574200588211","20","0.5566406","-0.82128906","-0.0390625","0.03125","-1.65625","-3.0625"
"1574200588212","21","0.5683594","-0.8203125","-0.0390625","0.46875","-2.75","-4.21875"
"1574200588212","22","0.5576172","-0.8183594","-0.036132812","2.125","-3.0","-6.5"
"1574200588212","23","0.5605469","-0.82421875","-0.047851562","4.5","-5.5","-6.71875"
"1574200588212","24","0.57128906","-0.83203125","-0.030273438","0.84375","-8.8125","-6.5"
"1574200588214","25","0.5732422","-0.83203125","-0.048828125","3.65625","-9.40625","-7.71875"
"1574200588214","26","0.5908203","-0.8066406","-0.044921875","2.0","-14.125","-9.71875"
"1574200588214","27","0.6347656","-0.8144531","-0.043945312","-1.1875","-21.0625","-10.21875"
"1574200588215","28","0.5390625","-0.890625","-0.087890625","-15.34375","-30.03125","-12.15625"
"1574200588215","29","0.546875","-0.7919922","-0.06542969","-24.5","-25.65625","-9.84375"
"1574200588805","30","0.57714844","-0.77441406","-0.068359375","-16.25","-14.0625","-8.8125"
"1574200588805","31","0.5859375","-0.7871094","-0.11230469","-12.40625","-12.09375","-8.9375"
"1574200588805","32","0.61816406","-0.7861328","-0.13574219","-12.15625","-11.6875","-8.375"
"1574200588806","33","0.6064453","-0.75390625","-0.18164062","-13.875","-19.84375","-8.25"
"1574200588806","34","0.5800781","-0.76171875","-0.19921875","-16.5625","-15.875","-5.6875"
"1574200588806","35","0.5966797","-0.78222656","-0.15917969","-15.34375","-13.375","-5.5"
"1574200588807","36","0.60839844","-0.75390625","-0.1875","-8.5625","-5.15625","-6.25"
"1574200588808","37","0.62597656","-0.72265625","-0.20898438","-5.8125","-3.96875","-7.15625"
"1574200588809","38","0.63183594","-0.7373047","-0.21972656","-6.5","-1.84375","-6.125"
"1574200588809","39","0.6328125","-0.79003906","-0.22070312","-5.4375","-0.4375","-4.34375"
"1574200589203","40","0.6230469","-0.76953125","-0.22753906","-5.25","-4.59375","-2.09375"
"1574200589203","41","0.5996094","-0.75","-0.20507812","-2.75","-3.8125","0.78125"
"1574200589204","42","0.5839844","-0.74121094","-0.20019531","-0.375","-1.96875","3.71875"
"1574200589204","43","0.59765625","-0.75878906","-0.24121094","8.71875","3.34375","3.21875"
"1574200589204","44","0.625","-0.76660156","-0.19335938","-3.125","-2.09375","4.25"
"1574200589204","45","0.6220703","-0.7861328","-0.23925781","-1.0","-1.53125","-2.53125"
"1574200589205","46","0.6064453","-0.78515625","-0.22753906","-5.15625","-4.09375","2.78125"
"1574200589206","47","0.5917969","-0.7607422","-0.21972656","-0.6875","-1.0","3.59375"
"1574200589206","48","0.5722656","-0.7685547","-0.25585938","-4.15625","-1.0","1.8125"
"1574200589206","49","0.5800781","-0.7519531","-0.23828125","-6.3125","-1.3125","-1.53125"
"1574200589403","50","0.6123047","-0.7675781","-0.23242188","-5.625","1.75","-2.21875"
"1574200589404","51","0.59277344","-0.78515625","-0.23828125","-3.0625","1.09375","-3.5"
"1574200589404","52","0.5966797","-0.7734375","-0.23144531","0.34375","0.53125","0.03125"
"1574200589404","53","0.5878906","-0.77246094","-0.25097656","0.03125","0.21875","1.03125"
"1574200589405","54","0.6035156","-0.75878906","-0.25390625","-2.34375","-1.3125","0.15625"
"1574200589406","55","0.6074219","-0.7558594","-0.24804688","-2.59375","-1.96875","-2.03125"
"1574200589407","56","0.5996094","-0.78027344","-0.23535156","0.65625","2.0","-1.96875"
"1574200589408","57","0.5800781","-0.7626953","-0.24609375","-1.96875","1.625","-2.8125"
"1574200589408","58","0.6074219","-0.7841797","-0.24609375","1.875","5.21875","-4.96875"
"1574200589408","59","0.6152344","-0.73046875","-0.2548828","-4.21875","-2.75","0.46875"
"1574200589801","60","0.59472656","-0.78027344","-0.21875","0.78125","1.375","-2.40625"
"1574200589802","61","0.5810547","-0.7890625","-0.24804688","0.21875","4.5625","-0.8125"
"1574200589802","62","0.63183594","-0.76171875","-0.2529297","-0.4375","3.40625","-0.8125"
"1574200589803","63","0.60546875","-0.7685547","-0.2548828","-0.75","-0.1875","2.65625"
"1574200589803","64","0.5810547","-0.7480469","-0.23632812","-2.9375","2.0625","1.3125"
"1574200589803","65","0.57714844","-0.7734375","-0.21777344","5.0","6.875","9.375"
"1574200589803","66","0.6455078","-0.79003906","-0.23828125","11.59375","2.65625","-1.125"
"1574200589804","67","0.5683594","-0.7421875","-0.23242188","9.03125","2.5","8.28125"
"1574200589804","68","0.5751953","-0.79785156","-0.22070312","12.375","6.03125","5.0"
"1574200589805","69","0.6123047","-0.78515625","-0.21679688","3.59375","0.34375","5.34375"
"1574200590198","70","0.5761719","-0.8046875","-0.21972656","4.4375","0.65625","1.375"
"1574200590198","71","0.5800781","-0.78027344","-0.19726562","4.8125","-0.6875","5.0625"
"1574200590198","72","0.5488281","-0.8027344","-0.21386719","0.46875","1.03125","-0.3125"
"1574200590199","73","0.6015625","-0.77246094","-0.24023438","1.8125","3.34375","1.6875"
"1574200590199","74","0.52441406","-0.8457031","-0.18359375","6.15625","5.53125","2.125"
"1574200590199","75","0.6015625","-0.77441406","-0.20800781","2.0625","5.78125","3.46875"
"1574200590200","76","0.5498047","-0.8222656","-0.18457031","0.53125","4.1875","-0.9375"
"1574200590200","77","0.5996094","-0.7998047","-0.21777344","-4.34375","3.28125","-1.78125"
"1574200590200","78","0.56347656","-0.81933594","-0.19433594","-2.75","2.96875","-0.75"
"1574200590200","79","0.6044922","-0.79003906","-0.22167969","-10.15625","-1.1875","-3.5625"
"1574200590794","80","0.5595703","-0.7685547","-0.21484375","-5.15625","0.90625","-1.46875"
"1574200590795","81","0.58203125","-0.8066406","-0.22753906","-4.40625","4.0","-1.84375"
"1574200590795","82","0.58203125","-0.75878906","-0.20507812","-2.6875","3.28125","0.65625"
"1574200590796","83","0.5576172","-0.8339844","-0.19628906","1.4375","5.78125","0.09375"
"1574200590796","84","0.59277344","-0.76464844","-0.20605469","0.15625","3.21875","-1.34375"
"1574200590797","85","0.53125","-0.79003906","-0.1875","2.0","6.875","4.8125"
"1574200590797","86","0.5917969","-0.8330078","-0.19628906","6.21875","2.78125","-6.90625"
"1574200590797","87","0.51660156","-0.7285156","-0.22851562","-8.75","5.34375","7.8125"
"1574200590798","88","0.63378906","-0.91015625","-0.18261719","5.21875","4.5625","-6.375"
"1574200590798","89","0.5703125","-0.74316406","-0.203125","-3.90625","-0.625","2.0625"
"1574200590992","90","0.55859375","-0.8144531","-0.20996094","-5.25","5.34375","-3.0625"
"1574200590993","91","0.6269531","-0.78222656","-0.19042969","-1.53125","-2.34375","-3.96875"
"1574200590993","92","0.5292969","-0.8017578","-0.1953125","-2.6875","4.625","0.0"
"1574200590993","93","0.5996094","-0.78808594","-0.18359375","1.4375","-3.375","-6.4375"
"1574200590993","94","0.53027344","-0.77441406","-0.21679688","-0.8125","5.40625","3.71875"
"1574200590994","95","0.60058594","-0.8701172","-0.18359375","-1.90625","0.96875","-6.1875"
"1574200590994","96","0.5654297","-0.75097656","-0.19921875","-3.8125","1.625","0.21875"
"1574200590995","97","0.54785156","-0.81347656","-0.21289062","-5.25","4.5","-1.53125"
"1574200590995","98","0.61328125","-0.7832031","-0.20898438","-0.625","0.65625","-0.25"
"1574200590996","99","0.5683594","-0.78515625","-0.24707031","-7.9375","1.375","-0.625"
"1574200591390","100","0.625","-0.7578125","-0.20800781","-6.0625","3.15625","-4.03125"
"1574200591391","101","0.5683594","-0.83984375","-0.18164062","3.53125","2.71875","0.03125"
"1574200591391","102","0.5888672","-0.77734375","-0.20800781","5.40625","4.25","-0.1875"
"1574200591391","103","0.5390625","-0.7558594","-0.19042969","4.75","2.71875","3.03125"
"1574200591392","104","0.5878906","-0.8144531","-0.21582031","4.0","0.65625","1.3125"
"1574200591392","105","0.58691406","-0.82714844","-0.203125","-1.53125","2.5","-1.59375"
"1574200591392","106","0.58691406","-0.7890625","-0.20703125","0.40625","2.1875","-1.3125"
"1574200591392","107","0.5527344","-0.7832031","-0.19921875","-1.46875","2.25","0.34375"
"1574200591393","108","0.5810547","-0.8076172","-0.20800781","1.3125","3.21875","-0.3125"
"1574200591395","109","0.5566406","-0.80566406","-0.18457031","-0.1875","4.0625","1.03125"
"1574200591789","110","0.58691406","-0.7949219","-0.17578125","3.71875","3.21875","0.15625"
"1574200591790","111","0.55078125","-0.79785156","-0.19824219","1.03125","3.21875","0.0"
"1574200591790","112","0.5654297","-0.81933594","-0.17382812","1.3125","5.78125","-0.6875"
"1574200591790","113","0.5605469","-0.8154297","-0.18261719","1.375","6.46875","-0.5625"
"1574200591791","114","0.5800781","-0.7841797","-0.22460938","-4.09375","4.625","-4.65625"
"1574200591791","115","0.60058594","-0.7675781","-0.21289062","-7.59375","4.375","-6.1875"
"1574200591791","116","0.58496094","-0.7998047","-0.18945312","-7.71875","4.5","-5.09375"
"1574200591791","117","0.5839844","-0.796875","-0.20410156","-4.03125","7.4375","-1.96875"
"1574200591792","118","0.5908203","-0.76464844","-0.18457031","-2.21875","3.65625","-3.6875"
"1574200591792","119","0.57128906","-0.76464844","-0.18359375","-0.375","7.0625","-2.28125"
"1574200592185","120","0.5683594","-0.8095703","-0.20214844","-0.5","8.53125","-2.6875"
"1574200592186","121","0.6308594","-0.7705078","-0.17480469","-4.03125","5.53125","-2.15625"
"1574200592186","122","0.55859375","-0.8154297","-0.17773438","1.8125","5.90625","0.0"
"1574200592187","123","0.6035156","-0.7675781","-0.18359375","0.90625","2.65625","1.3125"
"1574200592187","124","0.5673828","-0.80371094","-0.15917969","6.09375","5.21875","2.125"
"1574200592187","125","0.58691406","-0.78222656","-0.1796875","2.65625","1.3125","1.4375"
"1574200592187","126","0.5703125","-0.7939453","-0.16894531","2.0","6.21875","3.34375"
"1574200592188","127","0.58984375","-0.83203125","-0.16992188","4.0","4.6875","0.21875"
"1574200592188","128","0.57714844","-0.78515625","-0.16796875","-4.03125","3.28125","-0.75"
"1574200592188","129","0.57714844","-0.81152344","-0.16894531","-2.09375","7.84375","-0.4375"
"1574200592585","130","0.61035156","-0.83203125","-0.16601562","-3.96875","10.1875","2.0625"
"1574200592585","131","0.5136719","-0.80371094","-0.1796875","-10.21875","14.28125","3.53125"
"1574200592585","132","0.609375","-0.8046875","-0.20605469","-10.75","16.28125","-0.25"
"1574200592587","133","0.6347656","-0.796875","-0.16601562","-15.34375","3.9375","-2.28125"
"1574200592587","134","0.54003906","-0.77734375","-0.13867188","-9.59375","5.0","-3.125"
"1574200592588","135","0.578125","-0.80371094","-0.12792969","-1.78125","13.34375","-0.125"
"1574200592588","136","0.59375","-0.72265625","-0.18164062","-2.28125","6.875","-1.90625"
"1574200592588","137","0.5654297","-0.8457031","-0.13964844","-3.1875","10.0","1.375"
"1574200592588","138","0.6035156","-0.8203125","-0.20214844","0.65625","7.6875","2.5"
"1574200592589","139","0.6035156","-0.74609375","-0.203125","-7.15625","-0.5625","0.21875"
"1574200593181","140","0.5654297","-0.87402344","-0.15527344","-1.25","0.40625","3.34375"
"1574200593181","141","0.59765625","-0.76171875","-0.17773438","2.125","-2.34375","3.65625"
"1574200593182","142","0.50390625","-0.77246094","-0.123046875","0.90625","2.25","1.5"
"1574200593182","143","0.60839844","-0.84277344","-0.12597656","8.46875","4.0","3.78125"
"1574200593182","144","0.5859375","-0.80078125","-0.13671875","5.90625","4.5625","7.25"
"1574200593184","145","0.5566406","-0.79785156","-0.15429688","0.34375","1.625","-1.96875"
"1574200593184","146","0.5527344","-0.8095703","-0.16113281","-10.4375","1.5","-8.8125"
"1574200593184","147","0.54785156","-0.8183594","-0.16992188","-8.8125","6.03125","-8.9375"
"1574200593184","148","0.59765625","-0.7861328","-0.21484375","-6.0625","0.21875","-2.28125"
"1574200593185","149","0.57910156","-0.80078125","-0.20800781","-9.28125","-3.375","-1.125"
"1574200593377","150","0.5839844","-0.80078125","-0.19921875","-13.0625","-4.65625","-4.84375"
"1574200593378","151","0.55078125","-0.7705078","-0.2109375","-5.21875","1.5625","-4.78125"
"1574200593378","152","0.5732422","-0.80371094","-0.17773438","-2.9375","5.96875","-5.875"
"1574200593378","153","0.56640625","-0.73046875","-0.19824219","3.78125","4.5625","-5.875"
"1574200593378","154","0.6191406","-0.8359375","-0.15917969","1.15625","5.53125","-2.75"
"1574200593379","155","0.6308594","-0.75878906","-0.16210938","0.46875","2.0","2.1875"
"1574200593379","156","0.60253906","-0.8203125","-0.16308594","1.3125","3.90625","4.4375"
"1574200593380","157","0.58496094","-0.7265625","-0.18261719","-2.59375","0.59375","3.90625"
"1574200593381","158","0.57910156","-0.8095703","-0.19042969","0.09375","3.90625","2.0"
"1574200593381","159","0.5888672","-0.8027344","-0.20605469","3.34375","2.78125","-0.9375"
"1574200593776","160","0.5888672","-0.8564453","-0.14746094","2.96875","4.4375","-2.75"
"1574200593776","161","0.5419922","-0.7597656","-0.21679688","2.65625","2.25","-2.28125"
"1574200593777","162","0.55371094","-0.8623047","-0.13574219","0.28125","1.09375","-0.4375"
"1574200593777","163","0.59277344","-0.7714844","-0.18066406","-1.71875","-1.125","6.5625"
"1574200593777","164","0.5839844","-0.7890625","-0.14257812","-4.40625","-1.0","4.6875"
"1574200593777","165","0.5683594","-0.79003906","-0.15527344","6.15625","5.21875","4.5625"
"1574200593778","166","0.56640625","-0.7890625","-0.17578125","6.34375","7.25","0.21875"
"1574200593778","167","0.5439453","-0.80859375","-0.17089844","8.34375","11.15625","-1.1875"
"1574200593778","168","0.5126953","-0.80859375","-0.14941406","9.125","14.625","-2.03125"
"1574200593779","169","0.56347656","-0.8408203","-0.19140625","7.8125","20.3125","-5.875"
"1574200594174","170","0.7138672","-0.8847656","-0.13085938","-15.21875","2.375","3.65625"
"1574200594174","171","0.58496094","-0.76953125","-0.10253906","-11.96875","-0.4375","11.15625"
"1574200594175","172","0.5283203","-0.75097656","-0.15136719","-7.8125","3.03125","1.4375"
"1574200594175","173","0.5253906","-0.76464844","-0.13378906","3.53125","8.84375","-1.65625"
"1574200594175","174","0.56347656","-0.8251953","-0.15625","12.25","14.28125","-2.03125"
"1574200594175","175","0.6074219","-0.83203125","-0.14257812","3.71875","6.34375","2.84375"
"1574200594176","176","0.60058594","-0.85058594","-0.12011719","5.53125","3.34375","1.8125"
"1574200594176","177","0.5410156","-0.7783203","-0.13867188","-4.40625","-4.09375","2.0625"
"1574200594176","178","0.5576172","-0.8154297","-0.10644531","2.65625","2.375","-0.9375"
"1574200594177","179","0.5546875","-0.7988281","-0.15722656","-3.0625","-0.3125","-3.6875"
"1574200594571","180","0.5566406","-0.8408203","-0.1328125","0.03125","2.96875","-4.09375"
"1574200594573","181","0.5986328","-0.8408203","-0.1171875","-4.90625","-2.21875","1.375"
"1574200594574","182","0.6064453","-0.79296875","-0.15625","-11.5","-7.65625","-0.375"
"1574200594574","183","0.5722656","-0.79589844","-0.115234375","-9.46875","-7.15625","-2.21875"
"1574200594575","184","0.5410156","-0.76660156","-0.16015625","-5.6875","-3.4375","-4.84375"
"1574200594575","185","0.57714844","-0.8232422","-0.16796875","-6.84375","-0.75","-7.71875"
"1574200594575","186","0.5361328","-0.8017578","-0.17285156","-2.15625","-0.625","-4.59375"
"1574200594576","187","0.58203125","-0.8222656","-0.19433594","2.125","1.375","-1.34375"
"1574200594576","188","0.5439453","-0.79589844","-0.18847656","-3.3125","2.0","1.15625"
"1574200594576","189","0.57421875","-0.80566406","-0.15722656","-4.84375","0.96875","1.5"
"1574200594969","190","0.5576172","-0.7792969","-0.1875","-0.625","1.625","-0.75"
"1574200594969","191","0.58691406","-0.86035156","-0.13085938","-3.25","2.0","-0.75"
"1574200594969","192","0.5722656","-0.74609375","-0.20117188","-0.0625","-0.625","0.53125"
"1574200594971","193","0.56640625","-0.85839844","-0.13378906","-5.15625","3.28125","-1.0"
"1574200594971","194","0.55371094","-0.7529297","-0.18261719","2.71875","2.65625","0.46875"
"1574200594972","195","0.55566406","-0.8388672","-0.14453125","0.28125","6.5625","2.375"
"1574200594972","196","0.5800781","-0.8183594","-0.17382812","2.84375","3.90625","-0.8125"
"1574200594972","197","0.5449219","-0.77734375","-0.15527344","-5.25","3.71875","2.25"
"1574200594973","198","0.5566406","-0.84375","-0.14355469","0.28125","6.09375","0.28125"
"1574200594973","199","0.5732422","-0.7675781","-0.18261719","-2.34375","7.3125","0.53125"
"1574200595565","200","0.5673828","-0.8808594","-0.087890625","0.15625","8.21875","-0.125"
"1574200595566","201","0.55566406","-0.69921875","-0.20996094","-0.5625","4.0","0.09375"
"1574200595566","202","0.5517578","-0.8486328","-0.13476562","-0.8125","6.40625","0.15625"
"1574200595566","203","0.5917969","-0.82421875","-0.1640625","-2.03125","3.40625","-0.3125"
"1574200595566","204","0.5732422","-0.8173828","-0.14355469","0.53125","4.5625","0.96875"
"1574200595568","205","0.5175781","-0.8417969","-0.13671875","-1.53125","3.15625","1.8125"
"1574200595568","206","0.6044922","-0.7529297","-0.15234375","-3.6875","2.90625","-1.0"
"1574200595569","207","0.5097656","-0.8984375","-0.1484375","-5.21875","5.0625","4.5625"
"1574200595569","208","0.61328125","-0.7529297","-0.17871094","-9.59375","-2.8125","-5.625"
"1574200595569","209","0.5058594","-0.8417969","-0.1328125","-8.625","2.71875","2.125"
"1574200595762","210","0.5996094","-0.7939453","-0.1953125","-2.625","-0.3125","-4.65625"
"1574200595763","211","0.5234375","-0.76171875","-0.15820312","-1.34375","4.625","2.90625"
"1574200595763","212","0.5878906","-0.8691406","-0.17578125","0.28125","3.21875","0.46875"
"1574200595763","213","0.5625","-0.7529297","-0.17480469","-1.84375","1.3125","0.90625"
"1574200595763","214","0.52246094","-0.8828125","-0.14160156","2.0625","2.65625","2.4375"
"1574200595764","215","0.5810547","-0.7558594","-0.18652344","-0.5625","2.65625","-1.59375"
"1574200595764","216","0.50390625","-0.7832031","-0.13867188","5.0","4.0","1.875"
"1574200595765","217","0.5517578","-0.8798828","-0.15039062","5.46875","6.03125","2.25"
"1574200595766","218","0.5761719","-0.75683594","-0.20996094","3.78125","8.59375","2.5625"
"1574200595766","219","0.60546875","-0.8828125","-0.16113281","-3.625","-3.25","1.75"
"1574200596163","220","0.6425781","-0.84375","-0.16894531","-5.25","-9.15625","6.875"
"1574200596164","221","0.5361328","-0.8066406","-0.18652344","-13.4375","-10.9375","13.71875"
"1574200596164","222","0.5205078","-0.8105469","-0.15625","0.84375","-13.3125","9.5"
"1574200596164","223","0.50683594","-0.7919922","-0.12597656","1.625","-11.90625","7.625"
"1574200596164","224","0.4736328","-0.8691406","-0.1171875","3.53125","-6.125","3.34375"
"1574200596165","225","0.5576172","-0.8417969","-0.14941406","-0.5","-9.46875","-0.9375"
"1574200596165","226","0.5185547","-0.9082031","-0.14160156","-3.4375","-12.34375","-1.125"
"1574200596165","227","0.5136719","-0.8457031","-0.19238281","-4.78125","-13.875","-2.59375"
"1574200596165","228","0.60253906","-0.8154297","-0.17578125","-7.9375","-26.875","-8.1875"
"1574200596166","229","0.42578125","-0.9345703","-0.21972656","-11.0625","-30.84375","0.0"
"1574200596559","230","0.453125","-0.7988281","-0.30566406","-24.0625","-28.9375","-7.59375"
"1574200596559","231","0.49023438","-0.7939453","-0.29492188","-25.15625","-14.1875","-11.1875"
"1574200596560","232","0.5175781","-0.8691406","-0.29882812","-17.84375","-10.40625","-9.71875"
"1574200596560","233","0.5361328","-0.82128906","-0.29003906","-13.3125","-15.21875","-6.59375"
"1574200596560","234","0.4404297","-0.76171875","-0.33007812","-12.46875","-15.875","-4.40625"
"1574200596560","235","0.5097656","-0.7949219","-0.3173828","-7.8125","-10.4375","-0.125"
"1574200596561","236","0.5029297","-0.7890625","-0.34277344","-5.25","-11.0625","-1.0625"
"1574200596561","237","0.48828125","-0.7792969","-0.36035156","-14.71875","-10.03125","-8.625"
"1574200596561","238","0.4970703","-0.8105469","-0.36523438","-19.1875","-5.6875","-12.59375"
"1574200596561","239","0.53027344","-0.8222656","-0.39257812","-16.9375","-1.46875","-9.71875"
"1574200597155","240","0.5449219","-0.7783203","-0.36132812","-10.5","-3.1875","-5.5"
"1574200597156","241","0.5019531","-0.7675781","-0.38085938","-6.0625","-8.625","-4.21875"
"1574200597156","242","0.5029297","-0.74609375","-0.3671875","-6.5","0.59375","-0.4375"
"1574200597156","243","0.5644531","-0.765625","-0.40722656","-3.6875","-1.0625","-3.4375"
"1574200597157","244","0.49121094","-0.7910156","-0.40234375","-1.0","0.71875","-0.125"
"1574200597157","245","0.54296875","-0.7783203","-0.40039062","-1.0625","0.0","-0.75"
"1574200597157","246","0.4951172","-0.7402344","-0.39453125","-0.1875","2.59375","3.53125"
"1574200597157","247","0.5390625","-0.75097656","-0.3828125","-0.5625","-0.5625","6.5625"
"1574200597158","248","0.5449219","-0.7998047","-0.390625","2.90625","4.0","6.5625"
"1574200597158","249","0.50878906","-0.7714844","-0.3955078","-4.28125","3.9375","0.53125"
"1574200597354","250","0.5175781","-0.81152344","-0.39257812","-6.0","1.28125","-2.21875"
"1574200597354","251","0.50683594","-0.76953125","-0.39160156","-5.6875","1.28125","-2.75"
"1574200597354","252","0.50878906","-0.8203125","-0.38085938","-4.84375","-2.09375","-1.0625"
"1574200597355","253","0.484375","-0.7705078","-0.37695312","-2.625","-3.1875","-0.4375"
"1574200597356","254","0.49902344","-0.77246094","-0.38085938","0.0","0.03125","1.03125"
"1574200597356","255","0.4970703","-0.78515625","-0.40625","-0.125","-0.875","2.0"
"1574200597356","256","0.49414062","-0.7871094","-0.41503906","-3.90625","0.28125","0.65625"
"1574200597357","257","0.5058594","-0.8105469","-0.43359375","-3.4375","0.34375","-1.3125"
"1574200597357","258","0.48828125","-0.7392578","-0.42285156","-4.59375","1.3125","-1.65625"
"1574200597358","259","0.49804688","-0.76953125","-0.41992188","-7.28125","0.09375","-2.28125"
"1574200597751","260","0.5175781","-0.7734375","-0.41601562","-3.0","1.625","-2.15625"
"1574200597751","261","0.4951172","-0.7734375","-0.40820312","-1.59375","2.78125","-0.1875"
"1574200597751","262","0.51464844","-0.7626953","-0.42773438","3.34375","3.78125","0.78125"
"1574200597752","263","0.5029297","-0.77734375","-0.42089844","1.75","5.0","2.71875"
"1574200597752","264","0.51660156","-0.8017578","-0.3984375","4.0625","4.375","2.5"
"1574200597753","265","0.4951172","-0.7734375","-0.4326172","2.90625","2.25","3.46875"
"1574200597753","266","0.49316406","-0.7998047","-0.4013672","-2.28125","5.0625","2.78125"
"1574200597754","267","0.49804688","-0.7714844","-0.375","7.625","5.34375","0.46875"
"1574200597754","268","0.4794922","-0.7734375","-0.3955078","6.03125","7.375","4.6875"
"1574200597754","269","0.48632812","-0.79785156","-0.38476562","4.125","6.5625","2.0"
"1574200598346","270","0.5019531","-0.81640625","-0.375","1.3125","2.375","1.6875"
"1574200598346","271","0.46972656","-0.81933594","-0.39257812","5.90625","6.5625","2.78125"
"1574200598347","272","0.4873047","-0.7832031","-0.3876953","5.40625","8.21875","2.375"
"1574200598347","273","0.49121094","-0.79785156","-0.3642578","-2.09375","5.59375","0.71875"
"1574200598348","274","0.5029297","-0.8183594","-0.3642578","3.46875","6.875","-1.125"
"1574200598348","275","0.4658203","-0.8066406","-0.36328125","3.21875","4.5625","-0.8125"
"1574200598348","276","0.5029297","-0.7871094","-0.36914062","0.84375","6.15625","-2.28125"
"1574200598349","277","0.50097656","-0.81640625","-0.37109375","-1.71875","5.46875","-4.40625"
"1574200598350","278","0.5","-0.8261719","-0.39257812","-7.71875","3.28125","-4.90625"
"1574200598350","279","0.52246094","-0.8095703","-0.4033203","-9.40625","3.15625","-6.84375"
"1574200598545","280","0.49609375","-0.7636719","-0.3798828","-7.8125","3.40625","-2.15625"
"1574200598545","281","0.546875","-0.76464844","-0.39453125","-5.375","4.625","-3.25"
"1574200598545","282","0.5058594","-0.7558594","-0.3671875","0.15625","1.75","-0.625"
"1574200598546","283","0.5029297","-0.82421875","-0.359375","1.375","4.5625","-0.125"
"1574200598546","284","0.52441406","-0.7626953","-0.37890625","0.65625","2.1875","0.09375"
"1574200598546","285","0.50390625","-0.8125","-0.34960938","0.78125","4.875","1.8125"
"1574200598547","286","0.47753906","-0.7949219","-0.3720703","5.90625","1.6875","1.8125"
"1574200598547","287","0.5058594","-0.80078125","-0.34179688","-1.78125","7.1875","1.6875"
"1574200598547","288","0.50683594","-0.8251953","-0.3671875","5.90625","3.59375","1.8125"
"1574200598549","289","0.48828125","-0.8027344","-0.36035156","0.71875","4.0625","2.65625"
"1574200599143","290","0.4970703","-0.8154297","-0.34375","2.4375","2.125","0.78125"
"1574200599143","291","0.48632812","-0.7949219","-0.35742188","-2.09375","1.3125","-0.125"
"1574200599144","292","0.49316406","-0.83203125","-0.34960938","-2.28125","1.375","-3.6875"
"1574200599144","293","0.4951172","-0.7910156","-0.3701172","-1.78125","1.3125","-2.34375"
"1574200599144","294","0.4970703","-0.82128906","-0.3544922","-0.9375","4.625","-1.96875"
"1574200599144","295","0.50390625","-0.7626953","-0.3720703","0.09375","-0.1875","-1.46875"
"1574200599145","296","0.5048828","-0.81640625","-0.34375","-2.40625","1.28125","-1.0"
"1574200599145","297","0.52246094","-0.7919922","-0.3828125","1.8125","-1.84375","-2.875"
"1574200599145","298","0.47460938","-0.7910156","-0.3466797","-3.375","3.84375","2.0"
"1574200599146","299","0.52246094","-0.8154297","-0.36914062","4.3125","-0.9375","-2.6875"
"1574200599342","300","0.4580078","-0.79003906","-0.32910156","0.21875","5.65625","0.84375"
"1574200599344","301","0.5361328","-0.8183594","-0.35058594","6.8125","-0.1875","-2.09375"
"1574200599344","302","0.4892578","-0.7402344","-0.38671875","-1.40625","4.625","0.78125"
"1574200599344","303","0.5048828","-0.8769531","-0.37304688","-5.4375","-2.75","-7.65625"
"1574200599344","304","0.515625","-0.7792969","-0.36816406","-4.96875","3.15625","-3.125"
"1574200599345","305","0.49804688","-0.8339844","-0.3388672","-2.15625","5.28125","-6.1875"
"1574200599345","306","0.50878906","-0.7626953","-0.3466797","2.3125","4.6875","-2.875"
"1574200599345","307","0.4794922","-0.76953125","-0.33496094","0.40625","4.25","-3.5625"
"1574200599345","308","0.53027344","-0.8125","-0.36132812","0.15625","-0.125","-1.46875"
"1574200599345","309","0.49902344","-0.83984375","-0.3544922","-0.9375","2.84375","-0.9375"
"1574200599738","310","0.5214844","-0.8046875","-0.37890625","0.65625","1.625","-1.78125"
"1574200599739","311","0.484375","-0.79296875","-0.34179688","-2.09375","7.84375","-1.0"
"1574200599739","312","0.54589844","-0.8027344","-0.3515625","2.65625","5.21875","1.3125"
"1574200599740","313","0.46484375","-0.74902344","-0.34375","-1.0625","1.625","1.15625"
"1574200599741","314","0.5371094","-0.8144531","-0.31640625","2.71875","2.78125","1.625"
"1574200599741","315","0.4970703","-0.8154297","-0.33691406","4.25","2.4375","3.34375"
"1574200599742","316","0.5205078","-0.80859375","-0.35058594","1.8125","4.4375","-0.5"
"1574200599742","317","0.5126953","-0.82714844","-0.33398438","1.4375","1.4375","-1.78125"
"1574200599742","318","0.4970703","-0.7939453","-0.35351562","-1.0","1.5","-1.25"
"1574200599742","319","0.5136719","-0.78808594","-0.32714844","-0.1875","0.84375","-1.46875"
"1574200600137","320","0.5","-0.80078125","-0.34960938","-0.25","1.3125","-0.9375"
"1574200600137","321","0.51953125","-0.8183594","-0.34570312","-1.125","3.65625","-2.09375"
"1574200600138","322","0.50097656","-0.8144531","-0.34375","-3.0","4.625","0.09375"
"1574200600138","323","0.4814453","-0.82714844","-0.3173828","-4.78125","7.625","0.09375"
"1574200600138","324","0.48339844","-0.7939453","-0.31835938","-3.375","9.3125","0.0"
"1574200600140","325","0.49804688","-0.8066406","-0.3330078","-3.75","10.96875","-2.34375"
"1574200600140","326","0.51660156","-0.8613281","-0.32421875","-2.28125","16.34375","-0.9375"
"1574200600140","327","0.54296875","-0.78515625","-0.3466797","-3.375","19.15625","-3.4375"
"1574200600141","328","0.5205078","-0.79785156","-0.34179688","-0.25","18.46875","0.65625"
"1574200600141","329","0.5263672","-0.7939453","-0.3203125","-1.3125","10.96875","2.125"
"1574200600534","330","0.51660156","-0.80371094","-0.34570312","-3.5","9.09375","2.3125"
"1574200600534","331","0.5419922","-0.83203125","-0.3388672","-12.96875","6.09375","0.03125"
"1574200600535","332","0.5205078","-0.7763672","-0.31640625","-9.34375","5.0","0.40625"
"1574200600535","333","0.50390625","-0.8144531","-0.32714844","-7.78125","8.40625","1.4375"
"1574200600535","334","0.5214844","-0.7480469","-0.31347656","-7.09375","7.625","-0.25"
"1574200600535","335","0.53515625","-0.8173828","-0.32128906","0.40625","8.46875","-0.375"
"1574200600536","336","0.5390625","-0.7919922","-0.32617188","0.65625","7.125","-0.9375"
"1574200600537","337","0.51171875","-0.7783203","-0.33203125","-4.40625","3.71875","-0.3125"
"1574200600538","338","0.55566406","-0.8232422","-0.3154297","-1.34375","3.15625","-1.59375"
"1574200600538","339","0.5205078","-0.80859375","-0.3251953","-0.25","3.71875","-0.625"
"1574200601130","340","0.5234375","-0.7910156","-0.31445312","-4.21875","2.96875","-2.875"
"1574200601131","341","0.5527344","-0.7871094","-0.3232422","-3.3125","2.125","-1.59375"
"1574200601131","342","0.5048828","-0.7890625","-0.32128906","-1.78125","0.09375","-1.25"
"1574200601131","343","0.53125","-0.81152344","-0.32128906","-7.40625","-0.0625","-1.84375"
"1574200601131","344","0.53515625","-0.7998047","-0.3232422","1.3125","2.96875","-0.875"
"1574200601132","345","0.5126953","-0.8017578","-0.32226562","-2.875","0.78125","-1.46875"
"1574200601132","346","0.5097656","-0.7734375","-0.3232422","-0.5","3.84375","-1.0625"
"1574200601132","347","0.51953125","-0.82421875","-0.328125","-1.3125","6.40625","-1.3125"
"1574200601132","348","0.5283203","-0.7783203","-0.31445312","-1.0","6.28125","-0.8125"
"1574200601134","349","0.53222656","-0.8027344","-0.31347656","-0.375","7.1875","-1.0625"
"1574200601328","350","0.5390625","-0.79589844","-0.32421875","-0.1875","3.65625","-1.34375"
"1574200601328","351","0.5263672","-0.79296875","-0.31054688","-1.1875","3.84375","-1.46875"
"1574200601328","352","0.53808594","-0.7861328","-0.32128906","-2.09375","2.0","-1.90625"
"1574200601329","353","0.5205078","-0.80566406","-0.31054688","-1.40625","2.59375","-1.78125"
"1574200601329","354","0.5576172","-0.7890625","-0.328125","-3.0","0.90625","-1.96875"
"1574200601329","355","0.52734375","-0.78515625","-0.32910156","-1.84375","0.71875","-2.53125"
"1574200601329","356","0.54003906","-0.83691406","-0.31152344","-1.0625","0.03125","-2.75"
"1574200601330","357","0.5488281","-0.7421875","-0.36621094","-2.625","-1.59375","-3.0625"
"1574200601330","358","0.5263672","-0.8095703","-0.33007812","-1.84375","0.0","-1.90625"
"1574200601330","359","0.5449219","-0.7841797","-0.32128906","0.34375","-2.21875","-2.46875"
"1574200601726","360","0.5107422","-0.80859375","-0.3076172","1.21875","2.96875","0.21875"
"1574200601727","361","0.5214844","-0.78515625","-0.3125","3.21875","4.0","0.96875"
"1574200601727","362","0.5097656","-0.7597656","-0.3232422","3.34375","4.5625","0.90625"
"1574200601728","363","0.53125","-0.8222656","-0.32910156","3.21875","7.0","0.65625"
"1574200601728","364","0.5419922","-0.80859375","-0.3154297","3.21875","6.6875","-0.3125"
"1574200601728","365","0.53125","-0.7910156","-0.3154297","0.84375","6.5625","-1.0"
"1574200601729","366","0.5410156","-0.79589844","-0.31445312","1.15625","6.03125","0.15625"
"1574200601729","367","0.52441406","-0.8105469","-0.30078125","-0.4375","5.40625","1.21875"
"1574200601729","368","0.53515625","-0.7890625","-0.31445312","1.4375","5.90625","1.15625"
"1574200601730","369","0.5292969","-0.8017578","-0.2998047","0.65625","5.90625","0.53125"
"1574200602124","370","0.5341797","-0.79296875","-0.2890625","0.65625","5.65625","-0.375"
"1574200602124","371","0.5449219","-0.7988281","-0.30078125","5.125","9.5","2.25"
"1574200602125","372","0.5371094","-0.8232422","-0.27148438","5.21875","6.03125","1.6875"
"1574200602126","373","0.5292969","-0.78222656","-0.28710938","8.03125","6.875","2.0"
"1574200602126","374","0.5214844","-0.82910156","-0.27148438","6.6875","7.5625","3.90625"
"1574200602127","375","0.5410156","-0.8310547","-0.2548828","10.375","7.90625","5.34375"
"1574200602127","376","0.5097656","-0.80371094","-0.2607422","8.71875","6.21875","5.46875"
"1574200602127","377","0.5234375","-0.8232422","-0.24902344","10.375","7.90625","4.6875"
"1574200602128","378","0.52734375","-0.8027344","-0.23632812","13.40625","6.8125","6.03125"
"1574200602128","379","0.52734375","-0.8359375","-0.23730469","12.875","2.90625","5.53125"
"1574200602916","380","0.5283203","-0.84765625","-0.23632812","12.0625","1.8125","5.78125"
"1574200602916","381","0.51171875","-0.8388672","-0.20214844","11.65625","-4.59375","4.6875"
"1574200602917","382","0.49121094","-0.86035156","-0.22558594","7.1875","-4.65625","2.4375"
"1574200602917","383","0.52734375","-0.8535156","-0.21679688","5.53125","-1.40625","1.75"
"1574200602917","384","0.4892578","-0.82910156","-0.22949219","-1.3125","-3.96875","-1.59375"
"1574200602918","385","0.51171875","-0.84765625","-0.23144531","0.28125","-4.15625","-0.875"
"1574200602918","386","0.48339844","-0.8486328","-0.21875","-7.09375","-2.875","-2.34375"
"1574200602918","387","0.5185547","-0.8457031","-0.24609375","-0.0625","-0.75","-2.21875"
"1574200602919","388","0.48535156","-0.8574219","-0.21582031","-1.1875","-1.40625","-1.0625"
"1574200602919","389","0.5048828","-0.81933594","-0.24023438","-1.25","-2.6875","0.28125"
"1574200603115","390","0.46679688","-0.8310547","-0.22949219","-1.78125","-0.3125","-0.875"
"1574200603115","391","0.48632812","-0.8222656","-0.25585938","1.5","0.34375","1.3125"
"1574200603115","392","0.5126953","-0.9199219","-0.19042969","1.8125","8.46875","-0.5"
"1574200603116","393","0.4892578","-0.7685547","-0.22949219","7.84375","-0.5","-0.5625"
"1574200603116","394","0.49316406","-0.8798828","-0.14746094","10.53125","-3.5","0.90625"
"1574200603116","395","0.4658203","-0.82421875","-0.203125","34.46875","-14.84375","-0.75"
"1574200603116","396","0.5332031","-0.84765625","-0.22753906","31.40625","-7.53125","6.5625"
"1574200603118","397","0.44433594","-0.86816406","-0.19238281","25.125","2.125","0.15625"
"1574200603118","398","0.5361328","-0.88183594","-0.15429688","19.8125","5.21875","1.15625"
"1574200603118","399","0.49902344","-0.875","-0.15625","7.84375","-0.5625","2.90625"
"1574200603315","400","0.4609375","-0.83496094","-0.13867188","4.75","-0.375","-0.125"
"1574200603315","401","0.4736328","-0.8730469","-0.13476562","6.15625","-0.3125","0.65625"
"1574200603315","402","0.48535156","-0.8769531","-0.15917969","9.25","1.09375","0.90625"
"1574200603316","403","0.48242188","-0.8935547","-0.11425781","3.59375","0.53125","0.84375"
"1574200603316","404","0.49023438","-0.8496094","-0.16699219","9.625","-2.28125","-1.71875"
"1574200603316","405","0.453125","-0.8798828","-0.107421875","0.40625","2.65625","-1.53125"
"1574200603316","406","0.49316406","-0.87402344","-0.14257812","-6.65625","8.96875","-1.59375"
"1574200603317","407","0.4658203","-0.8496094","-0.109375","-4.84375","4.8125","-8.0"
"1574200603317","408","0.5058594","-0.875","-0.1484375","-0.125","6.03125","-3.5"
"1574200603318","409","0.5","-0.83691406","-0.13574219","-2.75","11.65625","-0.5"
"1574200603714","410","0.49414062","-0.9033203","-0.11425781","-3.5625","2.0","-1.84375"
"1574200603714","411","0.515625","-0.8417969","-0.17675781","3.21875","7.625","3.40625"
"1574200603715","412","0.43359375","-0.8808594","-0.103515625","-9.21875","-0.75","1.625"
"1574200603715","413","0.5136719","-0.84472656","-0.17773438","-3.96875","6.8125","3.21875"
"1574200603715","414","0.4765625","-0.8623047","-0.09375","-7.21875","3.53125","0.03125"
"1574200603715","415","0.47851562","-0.8798828","-0.10839844","7.5","9.9375","0.46875"
"1574200603716","416","0.46679688","-0.8457031","-0.09863281","4.8125","10.84375","1.875"
"1574200603716","417","0.46679688","-0.8798828","-0.11621094","10.46875","14.375","2.125"
"1574200603716","418","0.47753906","-0.8691406","-0.11425781","7.625","14.28125","0.84375"
"1574200603717","419","0.49316406","-0.8720703","-0.09863281","3.09375","10.0625","-2.09375"
"1574200604111","420","0.5058594","-0.91308594","-0.09863281","4.1875","6.09375","-1.53125"
"1574200604113","421","0.4921875","-0.859375","-0.10644531","-4.96875","0.34375","-2.8125"
"1574200604113","422","0.4560547","-0.8857422","-0.091796875","-8.3125","0.21875","-3.25"
"1574200604114","423","0.4765625","-0.85546875","-0.13378906","-3.90625","-0.75","-5.375"
"1574200604114","424","0.47753906","-0.87109375","-0.11425781","-7.8125","-2.875","-6.84375"
"1574200604114","425","0.50683594","-0.875","-0.10546875","-1.59375","-1.125","-6.84375"
"1574200604115","426","0.49023438","-0.8564453","-0.09277344","-7.09375","0.09375","-4.34375"
"1574200604115","427","0.4951172","-0.82910156","-0.103515625","0.65625","4.5625","-1.46875"
"1574200604115","428","0.4873047","-0.84472656","-0.083984375","3.46875","4.8125","-1.125"
"1574200604116","429","0.46875","-0.8671875","-0.09765625","6.6875","9.25","-0.5"
"1574200604508","430","0.4658203","-0.8330078","-0.109375","10.0625","15.0625","-2.34375"
"1574200604508","431","0.49414062","-0.8935547","-0.095703125","11.40625","16.84375","-4.03125"
"1574200604509","432","0.49316406","-0.8652344","-0.08984375","6.5625","15.625","-3.75"
"1574200604509","433","0.53808594","-0.8798828","-0.055664062","2.78125","7.625","-0.375"
"1574200604509","434","0.5048828","-0.8730469","-0.044921875","0.46875","2.5","1.5"
"1574200604510","435","0.52734375","-0.875","-0.037109375","-1.71875","0.59375","3.65625"
"1574200604510","436","0.49023438","-0.8623047","-0.016601562","-5.3125","3.84375","3.09375"
"1574200604511","437","0.51660156","-0.90234375","0.016601562","-3.4375","3.40625","2.4375"
"1574200604511","438","0.48632812","-0.84765625","-0.029296875","-2.40625","-1.0","-1.125"
"1574200604511","439","0.4736328","-0.8828125","-0.0068359375","-4.15625","-1.46875","-0.4375"
"1574200604905","440","0.48535156","-0.85546875","-0.051757812","-0.4375","-3.3125","-0.9375"
"1574200604906","441","0.49316406","-0.8730469","-0.072265625","1.3125","-0.5625","-6.0625"
"1574200604906","442","0.48242188","-0.8935547","-0.08691406","-3.0625","0.59375","-13.03125"
"1574200604906","443","0.5019531","-0.8691406","-0.10449219","-5.4375","-1.40625","-16.5625"
"1574200604906","444","0.5019531","-0.8730469","-0.12207031","-15.09375","-3.875","-16.3125"
"1574200604907","445","0.5644531","-0.8144531","-0.11816406","-20.34375","-4.90625","-14.90625"
"1574200604907","446","0.57128906","-0.8671875","-0.07324219","-8.375","-7.71875","-1.84375"
"1574200604908","447","0.48828125","-0.82910156","-0.091796875","-1.96875","-8.6875","2.4375"
"1574200604908","448","0.5048828","-0.82421875","-0.076171875","7.1875","-5.8125","6.28125"
"1574200604908","449","0.48828125","-0.81347656","-0.11621094","7.96875","-4.96875","6.6875"
"1574200605303","450","0.4921875","-0.78808594","-0.107421875","8.53125","-2.46875","-0.875"
"1574200605303","451","0.48828125","-0.8691406","-0.115234375","1.375","-4.90625","-1.40625"
"1574200605304","452","0.53027344","-0.8652344","-0.15234375","1.75","0.84375","-4.28125"
"1574200605304","453","0.5341797","-0.86816406","-0.1328125","-9.96875","-0.875","-6.59375"
"1574200605304","454","0.5517578","-0.85058594","-0.15722656","-17.46875","-5.21875","-11.625"
"1574200605305","455","0.53808594","-0.8642578","-0.08203125","-15.75","-0.9375","-6.71875"
"1574200605305","456","0.47558594","-0.83203125","-0.07714844","1.4375","-2.46875","2.0"
"1574200605306","457","0.4873047","-0.8017578","-0.125","4.5625","0.53125","6.34375"
"1574200605306","458","0.53027344","-0.78515625","-0.16894531","-1.40625","-3.8125","1.4375"
"1574200605307","459","0.5498047","-0.8417969","-0.15332031","-7.15625","-4.15625","-3.875"
"1574200605700","460","0.56640625","-0.8798828","-0.13867188","-8.0625","-2.625","-8.5"
"1574200605701","461","0.5283203","-0.8701172","-0.15625","-9.0625","-0.3125","-8.5"
"1574200605701","462","0.50878906","-0.92578125","-0.09765625","-4.15625","1.28125","-7.46875"
"1574200605701","463","0.4736328","-0.7675781","-0.16503906","-7.46875","-2.625","-4.46875"
"1574200605702","464","0.49121094","-0.7558594","-0.16015625","-3.75","2.375","2.96875"
"1574200605702","465","0.5683594","-0.85253906","-0.12988281","4.4375","2.1875","5.21875"
"1574200605702","466","0.5673828","-0.8183594","-0.19628906","-1.0","0.59375","2.25"
"1574200605702","467","0.54589844","-0.83496094","-0.16601562","-6.375","-1.96875","-0.75"
"1574200605703","468","0.55566406","-0.8222656","-0.17773438","-4.09375","-3.3125","-3.0"
"1574200605704","469","0.51171875","-0.8359375","-0.13671875","-1.125","0.84375","-3.875"
"1574200606099","470","0.5019531","-0.8261719","-0.13769531","7.125","0.15625","-1.59375"
"1574200606100","471","0.49609375","-0.8183594","-0.140625","8.71875","5.21875","2.0"
"1574200606100","472","0.53515625","-0.84472656","-0.13769531","11.15625","6.46875","3.46875"
"1574200606100","473","0.5439453","-0.8496094","-0.14453125","4.875","2.375","3.46875"
"1574200606101","474","0.54589844","-0.8535156","-0.15136719","0.53125","1.5","0.03125"
"1574200606101","475","0.5390625","-0.85058594","-0.15527344","-7.78125","-2.15625","-0.625"
"1574200606101","476","0.5419922","-0.82910156","-0.171875","-12.28125","-7.875","-2.34375"
"1574200606101","477","0.53808594","-0.8300781","-0.16699219","-15.53125","-7.71875","-0.375"
"1574200606102","478","0.5527344","-0.8222656","-0.18847656","-9.84375","-6.25","0.28125"
"1574200606102","479","0.50097656","-0.8066406","-0.16503906","4.0","0.40625","4.0625"
"1574200606693","480","0.4736328","-0.8486328","-0.18066406","6.34375","5.34375","1.21875"
"1574200606694","481","0.53808594","-0.8330078","-0.17480469","6.6875","4.375","2.84375"
"1574200606694","482","0.50683594","-0.88183594","-0.15625","2.3125","-0.125","3.21875"
"1574200606694","483","0.515625","-0.84472656","-0.17578125","3.84375","-0.8125","2.90625"
"1574200606695","484","0.4921875","-0.8457031","-0.16601562","-1.59375","2.0","3.46875"
"1574200606695","485","0.5234375","-0.8378906","-0.15625","1.15625","-0.5625","-0.8125"
"1574200606695","486","0.50878906","-0.8330078","-0.16992188","1.6875","-0.4375","0.78125"
"1574200606695","487","0.5107422","-0.86328125","-0.15722656","4.3125","-1.65625","-0.3125"
"1574200606697","488","0.5234375","-0.8232422","-0.15820312","8.40625","-5.8125","3.59375"
"1574200606697","489","0.47558594","-0.95214844","-0.12207031","1.5625","-3.0625","3.59375"
"1574200606892","490","0.48046875","-0.8154297","-0.1328125","19.40625","-5.15625","1.4375"
"1574200606893","491","0.43359375","-0.8544922","-0.20703125","-6.25","6.40625","8.46875"
"1574200606893","492","0.53027344","-0.8046875","-0.18261719","-9.46875","-4.59375","-2.6875"
"1574200606894","493","0.48632812","-0.91308594","-0.12890625","-3.75","4.1875","-5.21875"
"1574200606894","494","0.5019531","-0.9169922","-0.12792969","-2.46875","14.3125","-5.375"
"1574200606894","495","0.49804688","-0.8076172","-0.1484375","0.65625","15.0","0.0"
"1574200606894","496","0.49414062","-0.8564453","-0.1484375","0.15625","2.5625","-0.9375"
"1574200606895","497","0.51660156","-0.82421875","-0.16210938","-5.5","4.3125","-6.1875"
"1574200606895","498","0.51953125","-0.87402344","-0.12890625","-5.09375","4.5","-8.25"
"1574200606895","499","0.5205078","-0.85546875","-0.18359375","-7.40625","1.75","-7.78125"
"1574200607292","500","0.5253906","-0.8544922","-0.14941406","-6.65625","3.15625","-3.75"
"1574200607292","501","0.5107422","-0.84277344","-0.19140625","-8.9375","2.71875","-4.28125"
"1574200607292","502","0.515625","-0.84472656","-0.14746094","-14.46875","1.5625","-7.40625"
"1574200607293","503","0.5263672","-0.77441406","-0.18066406","-14.3125","-6.1875","-2.21875"
"1574200607293","504","0.55566406","-0.84375","-0.19433594","-12.34375","0.34375","-2.59375"
"1574200607294","505","0.50390625","-0.828125","-0.16992188","-4.59375","-0.5","1.09375"
"1574200607294","506","0.5263672","-0.8720703","-0.17285156","-0.875","2.375","1.4375"
"1574200607295","507","0.50097656","-0.82128906","-0.16601562","1.15625","1.09375","1.3125"
"1574200607295","508","0.47851562","-0.82128906","-0.17871094","6.875","6.09375","2.0625"
"1574200607295","509","0.4609375","-0.82714844","-0.18457031","-2.625","-6.65625","-2.03125"
"1574200607690","510","0.55566406","-0.8486328","-0.20605469","-5.5","3.71875","-2.875"
"1574200607690","511","0.5332031","-0.8388672","-0.19824219","-3.75","0.90625","-3.0625"
"1574200607691","512","0.51171875","-0.8378906","-0.20800781","-5.21875","1.8125","-2.40625"
"1574200607691","513","0.5175781","-0.8457031","-0.21289062","-5.4375","2.84375","-2.75"
"1574200607691","514","0.5058594","-0.80566406","-0.20117188","-5.15625","3.84375","-1.25"
"1574200607691","515","0.52246094","-0.82714844","-0.21484375","-3.875","2.0625","-0.4375"
"1574200607692","516","0.51171875","-0.8261719","-0.20996094","-4.65625","5.84375","2.0"
"1574200607693","517","0.5292969","-0.859375","-0.21875","-1.34375","4.5","-0.125"
"1574200607694","518","0.53125","-0.80859375","-0.22363281","-5.25","4.0625","-3.625"
"1574200607694","519","0.5205078","-0.8261719","-0.2109375","-5.5625","5.71875","-3.3125"
"1574200608086","520","0.52246094","-0.82910156","-0.19921875","-6.0625","4.5","-1.125"
"1574200608087","521","0.52734375","-0.8300781","-0.20898438","-1.59375","5.84375","1.09375"
"1574200608087","522","0.49316406","-0.81640625","-0.19042969","-1.96875","4.5","0.71875"
"1574200608088","523","0.5","-0.8652344","-0.19042969","1.625","9.375","-1.125"
"1574200608088","524","0.5253906","-0.8310547","-0.22753906","2.0","9.03125","-2.46875"
"1574200608088","525","0.5205078","-0.86816406","-0.17382812","1.3125","9.5625","-1.0"
"1574200608088","526","0.5078125","-0.8154297","-0.21386719","1.09375","4.9375","0.0"
"1574200608089","527","0.5341797","-0.8173828","-0.17285156","5.53125","9.8125","1.4375"
"1574200608089","528","0.51171875","-0.8408203","-0.19628906","4.9375","7.125","0.03125"
"1574200608090","529","0.5126953","-0.81933594","-0.16015625","5.78125","10.375","0.09375"
"1574200608485","530","0.5234375","-0.86328125","-0.17285156","6.34375","9.6875","-4.03125"
"1574200608486","531","0.5361328","-0.85058594","-0.16601562","2.3125","6.6875","0.15625"
"1574200608486","532","0.546875","-0.8457031","-0.13183594","3.09375","1.3125","4.9375"
"1574200608486","533","0.5292969","-0.79296875","-0.15917969","3.21875","0.78125","3.78125"
"1574200608486","534","0.5488281","-0.8378906","-0.12597656","8.15625","3.78125","0.71875"
"1574200608487","535","0.5019531","-0.84472656","-0.13671875","4.1875","3.59375","-1.25"
"1574200608487","536","0.53125","-0.8466797","-0.13378906","6.21875","8.15625","-0.5"
"1574200608487","537","0.50683594","-0.84277344","-0.14257812","6.09375","2.65625","-1.125"
"1574200608487","538","0.48828125","-0.859375","-0.140625","-2.6875","3.28125","0.0"
"1574200608488","539","0.5253906","-0.86621094","-0.13769531","-0.375","7.4375","-1.3125"
"1574200609275","540","0.5058594","-0.85058594","-0.11816406","-3.5","7.3125","0.40625"
"1574200609276","541","0.46191406","-0.89160156","-0.119140625","-1.0625","10.40625","-1.1875"
"1574200609277","542","0.38183594","-0.9160156","-0.11425781","-11.125","21.40625","-3.0"
"1574200609277","543","0.5488281","-0.8535156","-0.11425781","-23.6875","30.625","-3.90625"
"1574200609277","544","0.5917969","-0.7861328","-0.15136719","-13.5625","20.3125","-3.75"
"1574200609278","545","0.52246094","-0.8388672","-0.12402344","-2.75","19.40625","-2.875"
"1574200609279","546","0.5214844","-0.859375","-0.119140625","0.15625","24.59375","2.96875"
"1574200609279","547","0.56152344","-0.7753906","-0.140625","-1.59375","21.40625","0.15625"
"1574200609279","548","0.53515625","-0.83984375","-0.14746094","-0.1875","20.0","3.03125"
"1574200609279","549","0.55859375","-0.8828125","-0.140625","-2.875","16.59375","3.34375"
"1574200609473","550","0.5410156","-0.8613281","-0.12402344","-11.84375","7.3125","3.34375"
"1574200609473","551","0.5136719","-0.8359375","-0.09277344","-10.03125","2.375","4.1875"
"1574200609473","552","0.515625","-0.8222656","-0.08105469","-2.6875","6.625","3.09375"
"1574200609475","553","0.5185547","-0.80078125","-0.09472656","0.71875","6.6875","-0.4375"
"1574200609475","554","0.5029297","-0.8496094","-0.095703125","9.125","11.71875","1.5625"
"1574200609475","555","0.49804688","-0.8701172","-0.080078125","4.6875","9.375","1.15625"
"1574200609475","556","0.5292969","-0.84375","-0.107421875","3.34375","7.125","-1.0625"
"1574200609476","557","0.5263672","-0.86328125","-0.08300781","-2.03125","3.15625","-2.625"
"1574200609476","558","0.51660156","-0.8574219","-0.08691406","-3.375","2.71875","-2.6875"
"1574200609476","559","0.5292969","-0.85839844","-0.0859375","-2.28125","2.375","-2.28125"
"1574200609874","560","0.51953125","-0.828125","-0.087890625","-1.78125","3.59375","-1.1875"
"1574200609874","561","0.50878906","-0.8457031","-0.06347656","-1.40625","6.75","0.09375"
"1574200609874","562","0.49902344","-0.8535156","-0.07714844","2.125","9.9375","0.78125"
"1574200609875","563","0.5253906","-0.8330078","-0.09863281","2.1875","7.375","-2.46875"
"1574200609875","564","0.5205078","-0.85546875","-0.06738281","-1.84375","6.5","-3.375"
"1574200609876","565","0.53222656","-0.8457031","-0.0703125","-0.5","5.84375","-2.59375"
"1574200609876","566","0.52441406","-0.859375","-0.061523438","-2.21875","4.125","-2.09375"
"1574200609876","567","0.5332031","-0.86328125","-0.038085938","1.6875","4.0","-0.25"
"1574200609877","568","0.52441406","-0.85058594","-0.0703125","4.125","4.9375","3.65625"
"1574200609877","569","0.5126953","-0.85253906","-0.037109375","1.875","3.90625","2.78125"
"1574200610072","570","0.5185547","-0.82421875","-0.06640625","2.1875","1.375","1.3125"
"1574200610073","571","0.5029297","-0.87890625","-0.045898438","1.09375","5.40625","-0.25"
"1574200610073","572","0.51953125","-0.8496094","-0.05859375","2.71875","3.21875","-1.96875"
"1574200610073","573","0.53125","-0.8544922","-0.051757812","-0.8125","0.28125","-2.9375"
"1574200610073","574","0.5019531","-0.859375","-0.047851562","2.5625","1.625","0.15625"
"1574200610074","575","0.5253906","-0.83203125","-0.057617188","1.09375","0.46875","0.84375"
"1574200610074","576","0.5205078","-0.859375","-0.05078125","0.40625","1.09375","-1.53125"
"1574200610075","577","0.51464844","-0.8300781","-0.061523438","3.34375","1.6875","-0.25"
"1574200610075","578","0.5283203","-0.87402344","-0.049804688","2.78125","2.78125","1.03125"
"1574200610076","579","0.5","-0.85546875","-0.018554688","2.65625","3.65625","2.1875"
"1574200610472","580","0.5283203","-0.85253906","-0.0625","2.25","1.03125","1.875"
"1574200610472","581","0.5136719","-0.8730469","-0.048828125","0.71875","0.21875","-2.46875"
"1574200610472","582","0.5048828","-0.85839844","-0.083984375","-1.84375","1.03125","0.46875"
"1574200610473","583","0.5253906","-0.8623047","-0.0546875","-4.84375","-0.9375","0.28125"
"1574200610473","584","0.48535156","-0.82714844","-0.08105469","-4.65625","-2.59375","0.34375"
"1574200610473","585","0.5078125","-0.8535156","-0.056640625","-0.9375","2.375","1.75"
"1574200610473","586","0.47558594","-0.8496094","-0.0625","-1.96875","0.59375","1.4375"
"1574200610474","587","0.5097656","-0.8310547","-0.061523438","-2.34375","5.28125","2.0"
"1574200610474","588","0.53515625","-0.8652344","-0.051757812","-1.90625","0.46875","-2.75"
"1574200610475","589","0.5058594","-0.8720703","-0.09863281","-8.3125","-2.875","-4.21875"
"1574200610869","590","0.53808594","-0.85253906","-0.08984375","-12.84375","-1.90625","-6.84375"
"1574200610869","591","0.53027344","-0.84277344","-0.091796875","-15.03125","-7.9375","-5.8125"
"1574200610870","592","0.5097656","-0.85546875","-0.091796875","-9.90625","-5.15625","-4.40625"
"1574200610870","593","0.53222656","-0.84375","-0.083984375","-2.46875","-7.46875","0.71875"
"1574200610870","594","0.484375","-0.86328125","-0.078125","-1.3125","-9.28125","0.0"
"1574200610871","595","0.51171875","-0.82714844","-0.1171875","5.46875","-6.90625","0.53125"
"1574200610871","596","0.47851562","-0.87890625","-0.0703125","-0.3125","1.28125","0.71875"
"1574200610871","597","0.5126953","-0.8300781","-0.11328125","7.625","0.90625","1.5"
"1574200610871","598","0.49609375","-0.8828125","-0.061523438","-2.40625","3.9375","0.0"
"1574200610872","599","0.5019531","-0.8222656","-0.08105469","4.875","4.6875","0.65625"
"1574200611265","600","0.50390625","-0.88183594","-0.07128906","2.1875","4.1875","-0.375"
"1574200611266","601","0.5058594","-0.8388672","-0.111328125","1.09375","-2.09375","-1.46875"
"1574200611266","602","0.5332031","-0.86621094","-0.083984375","-5.75","0.84375","-3.1875"
"1574200611267","603","0.51464844","-0.8466797","-0.09082031","0.65625","1.375","-1.59375"
"1574200611267","604","0.5029297","-0.8515625","-0.09082031","-2.21875","-0.25","-2.15625"
"1574200611267","605","0.5048828","-0.8408203","-0.11035156","3.28125","-1.0625","-0.1875"
"1574200611267","606","0.5214844","-0.85839844","-0.08105469","-1.65625","2.1875","-0.125"
"1574200611267","607","0.4970703","-0.83691406","-0.09863281","2.65625","3.78125","0.09375"
"1574200611268","608","0.5019531","-0.84375","-0.08496094","0.90625","4.5625","-0.625"
"1574200611268","609","0.52246094","-0.8154297","-0.060546875","1.625","4.3125","-0.5625"
"1574200611664","610","0.46289062","-0.89941406","-0.05078125","9.125","14.15625","3.65625"
"1574200611664","611","0.54589844","-0.81152344","-0.08496094","6.15625","1.03125","-0.5"
"1574200611665","612","0.51464844","-0.8935547","-0.06640625","3.03125","5.78125","2.125"
"1574200611666","613","0.50097656","-0.8544922","-0.060546875","0.09375","2.0","-1.40625"
"1574200611667","614","0.53808594","-0.8359375","-0.09375","-2.09375","-0.1875","-1.78125"
"1574200611667","615","0.49609375","-0.8925781","-0.038085938","-4.15625","3.15625","-1.84375"
"1574200611668","616","0.5058594","-0.82714844","-0.10839844","1.28125","-1.34375","0.40625"
"1574200611668","617","0.52246094","-0.90625","-0.06933594","-10.625","0.96875","0.09375"
"1574200611668","618","0.49414062","-0.8173828","-0.111328125","-5.875","-5.625","-0.4375"
"1574200611669","619","0.5029297","-0.9111328","-0.07324219","-13.125","-3.4375","-1.1875"
"1574200612458","620","0.5048828","-0.7871094","-0.14257812","-3.0","-9.59375","-3.625"
"1574200612459","621","0.50097656","-0.8984375","-0.064453125","-10.5","0.15625","-0.375"
"1574200612459","622","0.49121094","-0.81347656","-0.10058594","8.28125","-4.53125","-1.25"
"1574200612459","623","0.48535156","-0.8652344","-0.10058594","2.4375","-2.40625","2.5625"
"1574200612459","624","0.5078125","-0.8496094","-0.10644531","6.9375","-5.5","-1.125"
"1574200612461","625","0.50390625","-0.8798828","-0.09863281","2.71875","-3.5","-0.9375"
"1574200612461","626","0.4873047","-0.8779297","-0.07421875","0.78125","-2.46875","-4.34375"
"1574200612462","627","0.47265625","-0.82910156","-0.09082031","1.28125","-1.1875","-4.84375"
"1574200612462","628","0.49414062","-0.89453125","-0.026367188","3.03125","4.25","-6.0625"
"1574200612462","629","0.50683594","-0.8330078","-0.08203125","6.9375","4.0","-6.90625"
"1574200612655","630","0.5078125","-0.8486328","-0.06347656","1.09375","1.375","-13.03125"
"1574200612655","631","0.55078125","-0.8535156","-0.064453125","4.5625","2.71875","-10.34375"
"1574200612655","632","0.52734375","-0.8808594","-0.07421875","11.59375","11.28125","-8.25"
"1574200612656","633","0.58203125","-0.85058594","-0.053710938","8.84375","4.0","-10.625"
"1574200612656","634","0.59472656","-0.8125","-0.045898438","1.9375","-12.09375","-6.0"
"1574200612656","635","0.515625","-0.8310547","-0.05078125","-4.53125","-12.96875","2.0625"
"1574200612657","636","0.54589844","-0.83203125","-0.09667969","-5.75","-8.5625","-3.4375"
"1574200612658","637","0.59375","-0.796875","-0.12109375","-9.59375","-6.125","-7.78125"
"1574200612659","638","0.55859375","-0.86035156","-0.060546875","-3.6875","-8.25","-3.75"
"1574200612659","639","0.484375","-0.84765625","-0.08300781","-4.90625","-2.625","-2.46875"
"1574200612855","640","0.546875","-0.8310547","-0.10839844","-2.625","-6.3125","-0.5"
"1574200612856","641","0.6191406","-0.8203125","-0.10839844","9.09375","-15.15625","-0.5625"
"1574200612856","642","0.49609375","-0.86621094","-0.09667969","-8.125","-14.53125","3.46875"
"1574200612856","643","0.48535156","-0.8300781","-0.12792969","-16.96875","-20.21875","0.21875"
"1574200612856","644","0.54296875","-0.8496094","-0.15820312","-11.375","-9.84375","-6.0"
"1574200612857","645","0.5175781","-0.80859375","-0.18652344","-16.4375","-9.53125","-9.84375"
"1574200612857","646","0.5517578","-0.8144531","-0.16699219","-14.84375","3.65625","-8.9375"
"1574200612857","647","0.5830078","-0.7949219","-0.19628906","-19.0","0.21875","-14.78125"
"1574200612857","648","0.57421875","-0.80859375","-0.20117188","-23.15625","-1.65625","-16.0"
"1574200612858","649","0.54003906","-0.7939453","-0.15527344","-7.15625","1.5625","-6.84375"
"1574200613451","650","0.5761719","-0.74902344","-0.171875","-0.875","-3.5","3.21875"
"1574200613451","651","0.5654297","-0.7548828","-0.18652344","6.09375","-3.625","13.40625"
"1574200613452","652","0.5625","-0.8359375","-0.203125","4.25","-0.8125","12.1875"
"1574200613452","653","0.5654297","-0.84375","-0.20117188","2.375","-1.78125","7.25"
"1574200613452","654","0.5263672","-0.79785156","-0.20214844","-1.78125","-8.875","2.25"
"1574200613452","655","0.5058594","-0.8125","-0.20800781","-6.90625","-3.75","0.53125"
"1574200613453","656","0.53125","-0.8457031","-0.17480469","1.75","3.46875","1.4375"
"1574200613453","657","0.51660156","-0.8232422","-0.20605469","1.875","0.46875","4.125"
"1574200613453","658","0.5625","-0.8203125","-0.19628906","5.0625","-0.8125","1.375"
"1574200613453","659","0.53222656","-0.8183594","-0.203125","6.40625","-0.8125","3.59375"
"1574200613651","660","0.5341797","-0.82421875","-0.18164062","7.5","-2.6875","6.09375"
"1574200613652","661","0.50390625","-0.80859375","-0.18847656","7.4375","-5.75","4.8125"
"1574200613652","662","0.5126953","-0.7998047","-0.20507812","6.875","-4.84375","4.3125"
"1574200613653","663","0.5419922","-0.8388672","-0.18359375","2.3125","-2.59375","3.03125"
"1574200613653","664","0.54296875","-0.8828125","-0.1796875","8.34375","0.09375","2.5625"
"1574200613653","665","0.5175781","-0.8173828","-0.18164062","4.9375","-5.03125","-2.40625"
"1574200613653","666","0.4716797","-0.859375","-0.17382812","7.90625","2.1875","-1.0"
"1574200613654","667","0.5136719","-0.8144531","-0.18164062","10.78125","-1.0625","-0.25"
"1574200613654","668","0.43847656","-0.875","-0.20019531","7.8125","9.5","5.46875"
"1574200613654","669","0.5234375","-0.86621094","-0.16796875","7.5","9.125","3.46875"
"1574200614050","670","0.5058594","-0.81933594","-0.13183594","11.8125","13.71875","8.71875"
"1574200614050","671","0.4873047","-0.8408203","-0.103515625","13.40625","11.03125","5.78125"
"1574200614050","672","0.47753906","-0.8388672","-0.11328125","16.15625","4.5625","9.5"
"1574200614052","673","0.5566406","-0.9013672","-0.14648438","3.03125","0.46875","-0.3125"
"1574200614052","674","0.5107422","-0.86328125","-0.11621094","-3.0625","-0.625","-1.3125"
"1574200614053","675","0.5058594","-0.8876953","-0.14746094","-8.1875","-3.375","-4.09375"
"1574200614053","676","0.50683594","-0.8730469","-0.13769531","-4.84375","-1.0625","-3.3125"
"1574200614053","677","0.49902344","-0.8388672","-0.19628906","-3.8125","-1.3125","-1.71875"
"1574200614053","678","0.48242188","-0.89941406","-0.10449219","-5.03125","4.9375","-1.125"
"1574200614054","679","0.49804688","-0.81152344","-0.15820312","-5.25","1.4375","-3.375"
"1574200614445","680","0.50878906","-0.8798828","-0.09863281","-3.25","3.9375","-5.4375"
"1574200614445","681","0.4892578","-0.86621094","-0.13085938","-4.65625","3.15625","-2.875"
"1574200614445","682","0.5107422","-0.8515625","-0.10839844","-4.46875","0.46875","-3.3125"
"1574200614446","683","0.484375","-0.85546875","-0.15332031","-1.3125","-1.40625","-2.21875"
"1574200614446","684","0.5136719","-0.86035156","-0.15332031","-1.3125","3.34375","-1.84375"
"1574200614446","685","0.4921875","-0.83496094","-0.19238281","-1.96875","3.9375","-1.1875"
"1574200614447","686","0.49804688","-0.85839844","-0.1484375","-4.21875","9.4375","-1.59375"
"1574200614447","687","0.5029297","-0.88378906","-0.15332031","-7.59375","7.0625","-7.21875"
"1574200614448","688","0.50683594","-0.83203125","-0.14648438","-11.78125","6.9375","-8.625"
"1574200614448","689","0.51171875","-0.8095703","-0.17675781","-12.78125","4.625","-11.625"
"1574200614843","690","0.54589844","-0.82910156","-0.115234375","-8.3125","10.53125","-6.84375"
"1574200614843","691","0.54296875","-0.85546875","-0.19824219","-5.4375","4.9375","-6.4375"
"1574200614844","692","0.61035156","-0.7685547","-0.10546875","-1.78125","3.46875","-7.03125"
"1574200614844","693","0.5048828","-0.8183594","-0.15332031","6.8125","-7.9375","-9.28125"
"1574200614844","694","0.4873047","-0.8232422","-0.14453125","3.90625","5.78125","-11.1875"
"1574200614845","695","0.56933594","-0.87890625","-0.14941406","4.1875","4.8125","-7.53125"
"1574200614845","696","0.56933594","-0.8095703","-0.15722656","-3.5","7.96875","-2.6875"
"1574200614846","697","0.5292969","-0.8330078","-0.17578125","1.09375","5.21875","-2.75"
"1574200614846","698","0.5361328","-0.7861328","-0.1640625","-4.21875","10.40625","-3.96875"
"1574200614847","699","0.56152344","-0.8466797","-0.11816406","4.6875","11.59375","-0.6875"
"1574200615438","700","0.56152344","-0.796875","-0.15136719","2.1875","9.5625","0.21875"
"1574200615438","701","0.54785156","-0.82421875","-0.087890625","7.6875","9.03125","4.0625"
"1574200615439","702","0.5625","-0.81933594","-0.15429688","6.8125","5.40625","2.3125"
"1574200615439","703","0.5488281","-0.83984375","-0.119140625","0.0","8.34375","3.46875"
"1574200615439","704","0.56933594","-0.86035156","-0.08203125","8.71875","6.6875","3.59375"
"1574200615439","705","0.5205078","-0.8222656","-0.13769531","4.6875","9.6875","6.09375"
"1574200615440","706","0.51171875","-0.85546875","-0.061523438","5.21875","7.375","4.3125"
"1574200615440","707","0.54296875","-0.80566406","-0.11035156","6.9375","6.46875","2.71875"
"1574200615440","708","0.5449219","-0.85058594","-0.080078125","1.3125","8.84375","-1.34375"
"1574200615441","709","0.5371094","-0.85546875","-0.05859375","0.40625","9.8125","-1.34375"
"1574200615835","710","0.54589844","-0.8173828","-0.1015625","-1.0625","7.5","-0.9375"
"1574200615835","711","0.5703125","-0.8564453","-0.09375","-1.59375","9.1875","-0.8125"
"1574200615835","712","0.5410156","-0.8125","-0.10449219","-10.21875","0.40625","-2.46875"
"1574200615836","713","0.52246094","-0.84472656","-0.08105469","-12.96875","6.9375","-1.96875"
"1574200615836","714","0.55859375","-0.86035156","-0.052734375","-9.46875","7.96875","-2.28125"
"1574200615836","715","0.5","-0.81640625","-0.06640625","-6.71875","11.34375","0.78125"
"1574200615836","716","0.5","-0.8310547","-0.080078125","-6.375","12.3125","2.0"
"1574200615837","717","0.5361328","-0.84375","-0.08300781","-7.21875","12.6875","1.5625"
"1574200615837","718","0.52441406","-0.8623047","-0.07910156","-11.71875","14.28125","0.84375"
"1574200615837","719","0.5595703","-0.85058594","-0.11816406","-11.25","12.125","0.53125"
"1574200616036","720","0.52246094","-0.90234375","-0.08300781","-16.6875","9.1875","-0.25"
"1574200616038","721","0.47851562","-0.8564453","-0.099609375","-20.21875","8.84375","-5.5625"
"1574200616038","722","0.56933594","-0.77441406","-0.12011719","-14.96875","12.125","-5.625"
"1574200616039","723","0.59277344","-0.82421875","-0.119140625","-12.53125","10.53125","1.3125"
"1574200616039","724","0.52246094","-0.83496094","-0.10058594","-11.5625","5.34375","2.0"
"1574200616039","725","0.49316406","-0.8027344","-0.11230469","-4.71875","6.28125","3.90625"
"1574200616040","726","0.5673828","-0.83496094","-0.119140625","-1.65625","8.78125","2.65625"
"1574200616040","727","0.54003906","-0.8486328","-0.12890625","-3.3125","7.1875","-0.3125"
"1574200616040","728","0.5214844","-0.8574219","-0.12597656","-5.8125","5.71875","-3.625"
"1574200616041","729","0.53808594","-0.8183594","-0.15039062","-4.28125","1.6875","-6.84375"
"1574200616432","730","0.5419922","-0.85058594","-0.13378906","-5.625","-1.71875","-4.46875"
"1574200616433","731","0.5136719","-0.84375","-0.12792969","-4.78125","0.0","0.53125"
"1574200616433","732","0.5371094","-0.79003906","-0.12011719","-2.53125","1.8125","-1.65625"
"1574200616434","733","0.51171875","-0.8066406","-0.140625","-2.9375","3.15625","-1.90625"
"1574200616434","734","0.5341797","-0.85839844","-0.1328125","2.125","8.84375","2.84375"
"1574200616435","735","0.5595703","-0.80371094","-0.12890625","0.28125","5.0","1.8125"
"1574200616435","736","0.52246094","-0.8642578","-0.09082031","2.5","11.71875","3.03125"
"1574200616435","737","0.54296875","-0.7919922","-0.13476562","7.90625","6.28125","3.90625"
"1574200616436","738","0.5332031","-0.85058594","-0.091796875","6.21875","8.71875","3.90625"
"1574200616436","739","0.5175781","-0.8339844","-0.091796875","9.8125","11.15625","3.40625"
"1574200617423","740","0.56152344","-0.8359375","-0.10546875","11.8125","6.09375","4.0"
"1574200617424","741","0.5527344","-0.8544922","-0.076171875","6.6875","4.0","2.375"
"1574200617424","742","0.5214844","-0.8300781","-0.0703125","11.53125","-1.0","1.5625"
"1574200617424","743","0.5332031","-0.86328125","-0.07128906","16.59375","-1.65625","1.875"
"1574200617425","744","0.52246094","-0.84375","-0.072265625","15.625","-4.28125","2.65625"
"1574200617426","745","0.52734375","-0.85058594","-0.078125","11.53125","-3.25","3.09375"
"1574200617426","746","0.5019531","-0.8261719","-0.051757812","13.34375","-3.375","2.25"
"1574200617427","747","0.5078125","-0.859375","-0.04296875","5.96875","-3.5625","1.3125"
"1574200617427","748","0.51953125","-0.87109375","-0.021484375","8.40625","-8.4375","2.0"
"1574200617427","749","0.5048828","-0.8486328","-0.046875","-0.75","-11.71875","0.15625"
"1574200617427","750","0.5332031","-0.84375","-0.08300781","-0.8125","-11.0625","0.90625"
"1574200617428","751","0.47070312","-0.8378906","-0.028320312","-3.6875","-6.125","-1.59375"
"1574200617428","752","0.5361328","-0.83691406","-0.080078125","-4.90625","-7.53125","-3.125"
"1574200617428","753","0.515625","-0.85058594","-0.13378906","-3.375","-10.625","-6.25"
"1574200617428","754","0.50683594","-0.8671875","-0.08984375","-4.40625","-2.9375","-4.34375"
"1574200617429","755","0.5234375","-0.82910156","-0.1328125","-4.40625","-2.53125","-4.84375"
"1574200617429","756","0.5019531","-0.85839844","-0.059570312","-4.40625","-4.46875","-6.71875"
"1574200617429","757","0.4970703","-0.85058594","-0.07714844","-2.15625","-0.0625","-1.71875"
"1574200617429","758","0.5419922","-0.87597656","-0.08300781","-3.1875","1.3125","1.3125"
"1574200617430","759","0.4814453","-0.8300781","-0.08105469","-7.875","-1.65625","-0.8125"
"1574200618022","760","0.5048828","-0.8378906","-0.08886719","-7.15625","1.15625","-3.75"
"1574200618022","761","0.54589844","-0.81640625","-0.11328125","-4.46875","1.3125","-5.21875"
"1574200618022","762","0.5292969","-0.8935547","-0.07324219","2.96875","6.5625","-4.15625"
"1574200618023","763","0.55371094","-0.80859375","-0.15039062","-1.25","3.46875","-2.40625"
"1574200618023","764","0.5214844","-0.8564453","-0.06933594","-2.09375","1.09375","-2.6875"
"1574200618023","765","0.54785156","-0.8076172","-0.14648438","0.65625","1.5","-1.25"
"1574200618023","766","0.4951172","-0.8808594","-0.056640625","-4.65625","0.34375","1.6875"
"1574200618024","767","0.5390625","-0.8251953","-0.15039062","0.84375","0.78125","0.65625"
"1574200618024","768","0.5234375","-0.8300781","-0.07128906","-4.40625","1.75","1.21875"
"1574200618025","769","0.53222656","-0.8417969","-0.10058594","0.09375","-1.3125","-1.34375"
"1574200618222","770","0.48339844","-0.80078125","-0.103515625","-3.90625","3.34375","1.4375"
"1574200618222","771","0.55566406","-0.90527344","-0.060546875","3.34375","4.25","-1.1875"
"1574200618223","772","0.51464844","-0.80078125","-0.119140625","2.25","8.03125","1.3125"
"1574200618223","773","0.52734375","-0.8886719","-0.05859375","1.4375","2.84375","-1.46875"
"1574200618223","774","0.5234375","-0.79003906","-0.11816406","3.78125","5.78125","1.4375"
"1574200618223","775","0.5341797","-0.8857422","-0.059570312","1.21875","3.53125","-0.1875"
"1574200618224","776","0.5390625","-0.8261719","-0.11816406","4.4375","6.46875","2.1875"
"1574200618224","777","0.5332031","-0.87597656","-0.052734375","-6.59375","-0.625","-2.46875"
"1574200618224","778","0.51660156","-0.84375","-0.091796875","-6.84375","-2.59375","-2.8125"
"1574200618225","779","0.5205078","-0.8623047","-0.056640625","-8.0625","-3.0625","-2.15625"
"1574200618621","780","0.5136719","-0.83691406","-0.07519531","-5.875","-1.46875","-1.34375"
"1574200618622","781","0.50097656","-0.81640625","-0.09082031","-1.84375","1.625","-1.25"
"1574200618622","782","0.5234375","-0.8652344","-0.11035156","1.21875","3.71875","-1.0625"
"1574200618623","783","0.5419922","-0.8095703","-0.12695312","-3.3125","1.625","-1.46875"
"1574200618623","784","0.515625","-0.89453125","-0.099609375","-2.625","1.8125","-0.75"
"1574200618623","785","0.54296875","-0.8027344","-0.12890625","-4.53125","0.59375","-2.40625"
"1574200618623","786","0.4814453","-0.86328125","-0.07421875","-2.34375","2.65625","-0.125"
"1574200618624","787","0.5292969","-0.82714844","-0.12890625","-0.4375","4.875","-1.1875"
"1574200618624","788","0.5234375","-0.8339844","-0.076171875","-0.0625","5.0625","0.03125"
"1574200618624","789","0.54785156","-0.87109375","-0.10644531","3.40625","4.6875","0.40625"
"1574200619410","790","0.54785156","-0.8066406","-0.10839844","1.6875","2.125","-1.96875"
"1574200619411","791","0.47460938","-0.9111328","-0.06640625","6.46875","6.46875","1.15625"
"1574200619411","792","0.5283203","-0.8125","-0.11621094","4.25","8.59375","0.71875"
"1574200619413","793","0.5292969","-0.8623047","-0.09082031","1.3125","8.03125","1.09375"
"1574200619413","794","0.5361328","-0.86816406","-0.091796875","-1.53125","6.03125","-1.3125"
"1574200619413","795","0.52246094","-0.8300781","-0.10644531","-10.5625","5.71875","-4.96875"
"1574200619413","796","0.5566406","-0.85253906","-0.080078125","-12.03125","2.65625","-9.0625"
"1574200619414","797","0.546875","-0.86035156","-0.07421875","-12.59375","0.28125","-8.5"
"1574200619414","798","0.5390625","-0.81640625","-0.09277344","-10.625","-7.21875","-7.65625"
"1574200619414","799","0.5185547","-0.81933594","-0.1171875","-6.375","-8.625","-9.15625"
"1574200619611","800","0.55859375","-0.86328125","-0.1328125","-8.125","-2.09375","-11.125"
"1574200619611","801","0.65234375","-0.84472656","-0.109375","-9.59375","-5.09375","-11.125"
"1574200619612","802","0.5625","-0.828125","-0.1171875","-15.28125","-12.90625","-7.65625"
"1574200619612","803","0.52734375","-0.85839844","-0.09863281","-1.53125","-5.03125","3.34375"
"1574200619612","804","0.47753906","-0.77734375","-0.18164062","-4.09375","-16.375","7.25"
"1574200619613","805","0.5410156","-0.81152344","-0.13183594","-5.875","-16.5","5.34375"
"1574200619614","806","0.50683594","-0.80078125","-0.1328125","-5.75","-12.15625","0.65625"
"1574200619614","807","0.53222656","-0.82128906","-0.19042969","-6.53125","-2.46875","-6.78125"
"1574200619614","808","0.5566406","-0.8466797","-0.21484375","-10.21875","-2.03125","-5.09375"
"1574200619614","809","0.56152344","-0.8515625","-0.20410156","-15.59375","-4.59375","-6.0"
"1574200619812","810","0.57128906","-0.82128906","-0.20898438","-19.125","-1.125","-6.71875"
"1574200619813","811","0.5341797","-0.7548828","-0.22070312","-12.90625","1.28125","-6.71875"
"1574200619813","812","0.5136719","-0.7705078","-0.23535156","-9.28125","0.46875","-3.375"
"1574200619814","813","0.5654297","-0.8027344","-0.21484375","-6.375","0.84375","-0.5625"
"1574200619814","814","0.56152344","-0.8095703","-0.22167969","0.03125","-3.25","2.1875"
"1574200619814","815","0.5390625","-0.7998047","-0.22167969","2.0","-4.84375","3.21875"
"1574200619815","816","0.5517578","-0.83984375","-0.20898438","4.5625","0.53125","4.125"
"1574200619815","817","0.5185547","-0.7763672","-0.22460938","4.9375","-2.34375","2.1875"
"1574200619816","818","0.53125","-0.7792969","-0.20117188","4.0625","-0.8125","2.65625"
"1574200619816","819","0.52246094","-0.85839844","-0.20410156","8.46875","5.21875","6.5625"
"1574200620210","820","0.5498047","-0.82910156","-0.21386719","1.5","-3.3125","2.4375"
"1574200620210","821","0.49316406","-0.8466797","-0.21582031","1.15625","0.28125","3.71875"
"1574200620211","822","0.5185547","-0.8076172","-0.20703125","2.3125","-0.6875","5.21875"
"1574200620211","823","0.5048828","-0.83691406","-0.1953125","3.53125","2.3125","4.6875"
"1574200620211","824","0.5263672","-0.8310547","-0.21386719","8.15625","-0.5","1.21875"
"1574200620212","825","0.5058594","-0.84375","-0.18359375","5.0625","1.21875","2.65625"
"1574200620212","826","0.51953125","-0.8378906","-0.20996094","8.34375","1.625","0.78125"
"1574200620212","827","0.5253906","-0.86328125","-0.21679688","-0.125","-0.1875","2.5"
"1574200620212","828","0.5136719","-0.7910156","-0.19824219","1.28125","-1.125","0.65625"
"1574200620214","829","0.50097656","-0.83203125","-0.20800781","4.0","4.0","4.1875"
"1574200620607","830","0.5205078","-0.9111328","-0.19726562","0.65625","1.75","-0.75"
"1574200620608","831","0.52734375","-0.8310547","-0.171875","2.96875","2.65625","0.03125"
"1574200620608","832","0.52734375","-0.8330078","-0.18066406","11.59375","8.03125","4.875"
"1574200620609","833","0.484375","-0.82421875","-0.16308594","8.46875","2.65625","4.5625"
"1574200620609","834","0.5214844","-0.8515625","-0.19238281","2.1875","1.4375","3.46875"
"1574200620609","835","0.5605469","-0.85839844","-0.19238281","-5.875","2.3125","-3.96875"
"1574200620609","836","0.5214844","-0.85546875","-0.18261719","-5.21875","-0.9375","-4.96875"
"1574200620610","837","0.49609375","-0.82910156","-0.18359375","-7.46875","-1.71875","-3.6875"
"1574200620610","838","0.4873047","-0.84375","-0.15820312","-0.5625","-1.34375","-0.125"
"1574200620610","839","0.5048828","-0.83203125","-0.16894531","-0.4375","-3.1875","-1.0625"
"1574200621005","840","0.48339844","-0.8496094","-0.21875","-5.625","-3.375","-0.875"
"1574200621006","841","0.5175781","-0.86035156","-0.22070312","-13.9375","-0.625","-4.09375"
"1574200621007","842","0.5175781","-0.83203125","-0.21484375","-11.625","-0.4375","-4.53125"
"1574200621007","843","0.5019531","-0.84375","-0.22363281","-9.28125","2.96875","-3.4375"
"1574200621007","844","0.50683594","-0.80566406","-0.2265625","-3.625","5.71875","-1.65625"
"1574200621008","845","0.5185547","-0.79296875","-0.2109375","-5.03125","3.9375","-0.4375"
"1574200621008","846","0.5058594","-0.8496094","-0.21484375","3.03125","9.03125","4.0"
"1574200621008","847","0.5283203","-0.8251953","-0.21875","1.3125","6.9375","2.125"
"1574200621008","848","0.50878906","-0.85546875","-0.19628906","0.65625","6.8125","-0.1875"
"1574200621009","849","0.5185547","-0.8300781","-0.20507812","0.21875","4.9375","-0.875"
"1574200621601","850","0.50097656","-0.8515625","-0.18164062","-0.5625","5.28125","1.09375"
"1574200621602","851","0.5048828","-0.8251953","-0.20507812","0.28125","2.3125","-0.8125"
"1574200621602","852","0.4921875","-0.8564453","-0.17675781","-0.5625","5.53125","2.4375"
"1574200621603","853","0.4814453","-0.8222656","-0.18945312","3.21875","6.03125","0.28125"
"1574200621604","854","0.49414062","-0.83496094","-0.18554688","3.59375","11.15625","-1.0625"
"1574200621604","855","0.5332031","-0.87402344","-0.18847656","4.8125","10.25","-2.59375"
"1574200621604","856","0.5234375","-0.83691406","-0.203125","-0.75","5.28125","-1.96875"
"1574200621605","857","0.52246094","-0.85546875","-0.16992188","-1.40625","3.84375","-0.625"
"1574200621605","858","0.5097656","-0.8222656","-0.19628906","1.15625","2.0625","-0.875"
"1574200621605","859","0.50390625","-0.8359375","-0.17480469","-0.625","3.46875","1.625"
"1574200621802","860","0.5078125","-0.8535156","-0.16308594","3.90625","5.40625","-0.125"
"1574200621803","861","0.5234375","-0.8251953","-0.18164062","3.21875","5.59375","-1.96875"
"1574200621804","862","0.50097656","-0.8779297","-0.15234375","1.5625","8.34375","-2.8125"
"1574200621804","863","0.49804688","-0.82128906","-0.15722656","2.25","7.0","-2.46875"
"1574200621804","864","0.49023438","-0.87597656","-0.1484375","4.0625","11.71875","-0.5"
"1574200621806","865","0.50683594","-0.8486328","-0.15429688","2.1875","9.375","-1.59375"
"1574200621806","866","0.52441406","-0.85546875","-0.12792969","2.78125","8.59375","1.625"
"1574200621807","867","0.50390625","-0.84472656","-0.16113281","1.75","4.3125","0.03125"
"1574200621807","868","0.5175781","-0.8378906","-0.15722656","-1.65625","5.84375","-1.65625"
"1574200621807","869","0.51464844","-0.8300781","-0.1640625","-2.03125","5.84375","-3.0"
"1574200622394","870","0.5234375","-0.82421875","-0.13085938","-0.125","13.0","-5.9375"
"1574200622395","871","0.5449219","-0.84277344","-0.125","-0.75","14.5625","-1.34375"
"1574200622395","872","0.5058594","-0.87597656","-0.13476562","-3.875","13.65625","-1.3125"
"1574200622395","873","0.53027344","-0.86816406","-0.12109375","-2.46875","12.4375","0.40625"
"1574200622396","874","0.4716797","-0.8564453","-0.12207031","-3.0","17.375","2.78125"
"1574200622396","875","0.5126953","-0.8769531","-0.08203125","2.3125","16.65625","-1.125"
"1574200622396","876","0.5800781","-0.8027344","-0.17382812","6.5625","8.21875","0.28125"
"1574200622398","877","0.47558594","-0.90234375","-0.059570312","-3.375","14.28125","-3.0625"
"1574200622398","878","0.49414062","-0.85839844","-0.111328125","2.90625","11.28125","-1.65625"
"1574200622398","879","0.5332031","-0.8173828","-0.10546875","-11.0","5.0625","-2.53125"
"1574200622594","880","0.4892578","-0.8691406","-0.064453125","-2.28125","1.8125","2.25"
"1574200622595","881","0.4736328","-0.8486328","-0.087890625","1.8125","5.46875","8.84375"
"1574200622595","882","0.5439453","-0.8232422","-0.091796875","4.75","6.28125","7.5"
"1574200622595","883","0.52246094","-0.83691406","-0.11035156","7.25","1.4375","4.0"
"1574200622596","884","0.5058594","-0.890625","-0.109375","1.03125","3.90625","1.4375"
"1574200622596","885","0.5253906","-0.85839844","-0.13476562","-5.21875","1.5625","-2.59375"
"1574200622596","886","0.53125","-0.8574219","-0.09375","-8.8125","2.0625","-2.53125"
"1574200622597","887","0.51953125","-0.8496094","-0.12207031","-2.8125","4.1875","-3.0"
"1574200622597","888","0.4921875","-0.8417969","-0.078125","-6.375","3.59375","-2.6875"
"1574200622598","889","0.5097656","-0.83691406","-0.1015625","-0.375","6.625","-1.0"
"1574200622992","890","0.52734375","-0.82714844","-0.09375","1.21875","7.125","0.0"
"1574200622993","891","0.49023438","-0.8955078","-0.0546875","6.5625","8.84375","2.78125"
"1574200622993","892","0.51171875","-0.8515625","-0.09375","8.59375","7.375","3.90625"
"1574200622993","893","0.5","-0.84375","-0.059570312","4.5625","6.875","1.8125"
"1574200622994","894","0.49902344","-0.8671875","-0.06640625","5.21875","7.625","1.09375"
"1574200622994","895","0.5126953","-0.8642578","-0.0625","1.8125","3.21875","0.46875"
"1574200622994","896","0.5048828","-0.8623047","-0.06542969","0.09375","2.375","-0.25"
"1574200622994","897","0.515625","-0.88378906","-0.046875","4.125","3.34375","1.3125"
"1574200622994","898","0.5078125","-0.85058594","-0.05078125","1.75","0.90625","2.25"
"1574200622995","899","0.4794922","-0.85839844","-0.05078125","2.96875","5.34375","0.0"
"1574200623586","900","0.5097656","-0.86816406","-0.0546875","0.96875","5.21875","1.15625"
"1574200623588","901","0.49414062","-0.8623047","-0.03515625","2.0625","2.125","1.03125"
"1574200623588","902","0.4658203","-0.875","-0.041992188","3.21875","5.40625","2.0"
"1574200623588","903","0.48339844","-0.83691406","-0.06738281","4.5625","7.375","1.21875"
"1574200623589","904","0.4814453","-0.82910156","-0.06640625","7.375","7.5625","1.875"
"1574200623589","905","0.4921875","-0.87402344","-0.045898438","6.8125","8.03125","2.4375"
"1574200623589","906","0.5214844","-0.8857422","-0.05078125","3.15625","-0.1875","0.28125"
"1574200623590","907","0.50390625","-0.8955078","-0.08105469","-12.71875","-9.21875","-0.3125"
"1574200623590","908","0.44628906","-0.85253906","-0.07910156","-21.5625","-5.375","0.15625"
"1574200623591","909","0.4658203","-0.8017578","-0.06933594","-10.875","0.03125","-1.65625"
"1574200623787","910","0.53027344","-0.8857422","-0.060546875","-1.71875","2.71875","-2.21875"
"1574200623787","911","0.41992188","-0.8964844","-0.055664062","-4.78125","4.0","-2.875"
"1574200623788","912","0.51464844","-0.8388672","-0.10644531","-4.21875","1.28125","-4.15625"
"1574200623789","913","0.46679688","-0.91015625","-0.040039062","-0.75","6.5","2.5625"
"1574200623793","914","0.49804688","-0.85058594","-0.099609375","-1.59375","5.40625","1.75"
"1574200623793","915","0.48046875","-0.8769531","-0.033203125","-4.34375","3.59375","0.0"
"1574200623794","916","0.484375","-0.8564453","-0.053710938","-0.5","6.75","-1.0"
"1574200623794","917","0.515625","-0.83984375","-0.08105469","-1.40625","5.28125","-2.875"
"1574200623794","918","0.4794922","-0.89453125","-0.015625","0.15625","4.75","-3.0625"
"1574200623794","919","0.5078125","-0.84765625","-0.10449219","-0.0625","2.96875","-1.34375"
"1574200624185","920","0.5419922","-0.84375","-0.07421875","0.65625","0.0","-0.625"
"1574200624186","921","0.4765625","-0.8720703","-0.0234375","4.1875","2.65625","-0.5625"
"1574200624186","922","0.5078125","-0.8574219","-0.0859375","2.1875","5.125","-0.375"
"1574200624187","923","0.49804688","-0.875","-0.045898438","0.03125","0.15625","-1.125"
"1574200624187","924","0.46972656","-0.8378906","-0.05078125","0.90625","1.3125","0.46875"
"1574200624187","925","0.5019531","-0.921875","-0.0078125","1.3125","2.65625","0.71875"
"1574200624188","926","0.46289062","-0.80859375","-0.08300781","3.40625","1.03125","-0.375"
"1574200624188","927","0.50097656","-0.8886719","-0.030273438","1.625","0.46875","0.28125"
"1574200624188","928","0.49414062","-0.8564453","-0.07324219","1.625","0.46875","-0.1875"
"1574200624189","929","0.47070312","-0.86621094","-0.06542969","-0.0625","1.3125","1.375"
"1574200624582","930","0.50878906","-0.87109375","-0.07519531","-1.90625","-1.0","-0.5"
"1574200624583","931","0.46484375","-0.828125","-0.048828125","2.78125","2.5625","0.96875"
"1574200624583","932","0.45410156","-0.9433594","-0.036132812","4.5625","3.09375","3.21875"
"1574200624583","933","0.48828125","-0.7910156","-0.06542969","6.03125","5.0625","-0.5"
"1574200624584","934","0.4326172","-0.9316406","0.021484375","13.40625","11.03125","4.3125"
"1574200624584","935","0.4638672","-0.87597656","-0.026367188","15.625","8.59375","-0.125"
"1574200624584","936","0.4814453","-0.8613281","-0.0078125","11.59375","12.375","-0.1875"
"1574200624586","937","0.42089844","-0.9296875","0.041992188","11.71875","10.84375","3.03125"
"1574200624586","938","0.47851562","-0.8779297","0.0146484375","9.03125","11.28125","0.34375"
"1574200624586","939","0.515625","-0.90234375","0.0087890625","-3.0625","7.5625","-1.65625"
