"# PR data"
"# Start time: 20191119T215440"
"# Subject: diana"
"# Activity type: Sit to stand"
"# Correctness: Incorrect"
"# Notes: "
""
"timestamp","seq","accel_x","accel_y","accel_z","gyro_x","gyro_y","gyro_z"
"1574200480485","0","0.41308594","-0.9248047","-0.22265625","2.84375","8.71875","9.9375"
"1574200480486","1","0.3984375","-0.89160156","-0.20117188","14.8125","9.9375","16.53125"
"1574200480487","2","0.39941406","-0.85839844","-0.17675781","16.21875","16.34375","18.84375"
"1574200480487","3","0.43554688","-0.8955078","-0.17871094","11.28125","15.5","15.5"
"1574200480487","4","0.4560547","-0.9091797","-0.21679688","8.46875","9.5","9.9375"
"1574200480487","5","0.43652344","-0.9003906","-0.19824219","6.03125","6.6875","1.8125"
"1574200480488","6","0.43066406","-0.90527344","-0.19238281","0.34375","2.4375","-1.1875"
"1574200480488","7","0.41992188","-0.9003906","-0.21582031","0.90625","2.4375","-1.1875"
"1574200480488","8","0.4248047","-0.9140625","-0.17382812","-1.1875","-0.875","-1.65625"
"1574200480489","9","0.40429688","-0.8798828","-0.18847656","-4.15625","-1.0","-4.59375"
"1574200480686","10","0.4140625","-0.890625","-0.20019531","-6.5","-1.125","-5.625"
"1574200480687","11","0.42578125","-0.8955078","-0.20703125","-5.03125","0.65625","-4.78125"
"1574200480687","12","0.44140625","-0.89160156","-0.2109375","-9.15625","-0.375","-6.125"
"1574200480688","13","0.44335938","-0.8671875","-0.22558594","-8.6875","-0.4375","-6.375"
"1574200480688","14","0.44433594","-0.8691406","-0.22167969","-5.6875","1.5625","-3.96875"
"1574200480688","15","0.4404297","-0.84765625","-0.23730469","-3.3125","2.5","-4.28125"
"1574200480689","16","0.4501953","-0.8701172","-0.23925781","-3.1875","4.0","-3.0625"
"1574200480689","17","0.45214844","-0.85253906","-0.25","-2.09375","2.1875","-3.125"
"1574200480689","18","0.4482422","-0.859375","-0.25195312","-1.59375","3.03125","-1.40625"
"1574200480689","19","0.4794922","-0.86816406","-0.26660156","-1.1875","2.25","-2.03125"
"1574200481084","20","0.45996094","-0.85546875","-0.25195312","-2.15625","2.125","-1.96875"
"1574200481084","21","0.45703125","-0.85839844","-0.25","-3.0625","0.03125","-2.625"
"1574200481085","22","0.42089844","-0.8105469","-0.23339844","-2.09375","-1.125","2.0"
"1574200481085","23","0.43164062","-0.8652344","-0.23828125","13.28125","5.40625","9.375"
"1574200481085","24","0.43652344","-0.87402344","-0.21582031","18.53125","4.875","12.75"
"1574200481087","25","0.42578125","-0.83203125","-0.24316406","29.34375","8.28125","20.4375"
"1574200481087","26","0.5292969","-0.8339844","-0.27539062","23.25","13.03125","21.78125"
"1574200481088","27","0.49902344","-0.984375","-0.24023438","22.09375","12.9375","21.78125"
"1574200481088","28","0.46484375","-1.0087891","-0.18652344","1.375","-7.875","-4.21875"
"1574200481088","29","0.3154297","-0.8066406","-0.19042969","8.46875","3.71875","-6.71875"
"1574200481481","30","0.3125","-0.82714844","-0.09863281","12.875","9.03125","-2.34375"
"1574200481481","31","0.31347656","-0.92089844","-0.07519531","4.4375","12.625","-1.53125"
"1574200481482","32","0.4140625","-1.0283203","-0.09863281","5.65625","13.15625","2.5"
"1574200481482","33","0.42871094","-1.0068359","-0.083984375","2.90625","4.8125","5.40625"
"1574200481482","34","0.36914062","-0.953125","-0.05078125","-1.71875","2.59375","2.0625"
"1574200481482","35","0.39160156","-0.91503906","-0.059570312","-3.90625","-2.46875","-0.4375"
"1574200481483","36","0.35351562","-0.9091797","-0.11816406","-12.15625","-3.90625","-7.03125"
"1574200481484","37","0.36523438","-0.92578125","-0.11328125","-25.34375","-2.53125","-14.1875"
"1574200481484","38","0.4033203","-0.9140625","-0.10644531","-23.34375","-9.34375","-16.5625"
"1574200481484","39","0.45410156","-0.9140625","-0.16503906","-20.875","-5.9375","-14.125"
"1574200481880","40","0.43945312","-0.90722656","-0.20019531","-23.4375","-2.625","-14.0625"
"1574200481880","41","0.43554688","-0.8457031","-0.20996094","-16.1875","-4.65625","-12.21875"
"1574200481880","42","0.45214844","-0.85546875","-0.23046875","-13.03125","-5.375","-9.34375"
"1574200481881","43","0.45996094","-0.85253906","-0.25683594","-13.5625","-1.71875","-9.15625"
"1574200481881","44","0.45703125","-0.83984375","-0.24902344","-10.03125","-0.625","-7.40625"
"1574200481881","45","0.46289062","-0.84277344","-0.26171875","-5.9375","-0.25","-5.375"
"1574200481881","46","0.46679688","-0.84765625","-0.25976562","-3.3125","1.03125","-2.15625"
"1574200481882","47","0.47558594","-0.84472656","-0.27246094","0.09375","1.5","-1.53125"
"1574200481882","48","0.47558594","-0.8388672","-0.2685547","2.1875","2.5","-0.8125"
"1574200481884","49","0.45214844","-0.83496094","-0.27148438","4.6875","2.25","0.40625"
"1574200482476","50","0.44628906","-0.8515625","-0.26660156","7.125","4.3125","4.5625"
"1574200482476","51","0.45214844","-0.86328125","-0.25390625","5.90625","4.9375","5.125"
"1574200482477","52","0.45214844","-0.86328125","-0.25","9.5","6.5625","6.03125"
"1574200482477","53","0.4404297","-0.8652344","-0.23535156","11.8125","7.375","10.375"
"1574200482477","54","0.42773438","-0.88183594","-0.21484375","11.8125","8.71875","10.1875"
"1574200482477","55","0.4267578","-0.859375","-0.21777344","11.28125","8.21875","10.59375"
"1574200482478","56","0.4189453","-0.8935547","-0.18945312","13.59375","10.84375","12.875"
"1574200482478","57","0.4140625","-0.890625","-0.17675781","12.75","8.28125","10.25"
"1574200482478","58","0.421875","-0.88183594","-0.1640625","14.75","6.5625","12.5"
"1574200482478","59","0.3935547","-0.890625","-0.13867188","13.0","6.9375","11.15625"
"1574200482675","60","0.35839844","-0.8652344","-0.12792969","27.75","11.28125","15.3125"
"1574200482677","61","0.36621094","-0.90234375","-0.12402344","37.15625","14.3125","20.0"
"1574200482677","62","0.3779297","-0.9140625","-0.09082031","43.1875","15.96875","25.0625"
"1574200482678","63","0.36621094","-0.8964844","-0.060546875","48.8125","13.28125","28.5"
"1574200482678","64","0.30273438","-0.8984375","-0.020507812","58.34375","15.1875","32.9375"
"1574200482678","65","0.25683594","-0.8564453","0.040039062","77.8125","23.78125","43.5625"
"1574200482678","66","0.22167969","-0.87890625","0.080078125","91.84375","31.53125","53.75"
"1574200482679","67","0.17675781","-0.9277344","0.20800781","98.96875","35.5625","54.625"
"1574200482679","68","0.22558594","-1.0644531","0.21289062","93.5","24.28125","53.6875"
"1574200482679","69","0.11230469","-1.0419922","0.25195312","45.28125","18.65625","27.03125"
"1574200483073","70","0.09375","-0.8515625","0.328125","65.40625","24.34375","40.4375"
"1574200483074","71","0.099609375","-0.8701172","0.36035156","69.25","21.46875","53.21875"
"1574200483074","72","0.060546875","-0.8408203","0.46679688","87.6875","29.84375","63.15625"
"1574200483075","73","0.0078125","-0.9169922","0.52246094","76.09375","24.21875","53.34375"
"1574200483076","74","-0.01171875","-0.8691406","0.5605469","54.125","24.34375","41.0"
"1574200483076","75","-0.022460938","-0.81640625","0.609375","41.25","19.21875","28.90625"
"1574200483076","76","-0.08203125","-0.8046875","0.6533203","37.46875","16.65625","22.375"
"1574200483077","77","-0.14355469","-0.79785156","0.6279297","28.4375","11.28125","14.09375"
"1574200483077","78","-0.140625","-0.7597656","0.6328125","18.125","8.03125","10.375"
"1574200483077","79","-0.14160156","-0.74902344","0.6513672","10.59375","6.5625","3.65625"
"1574200483468","80","-0.12011719","-0.7373047","0.5996094","6.5625","4.75","0.15625"
"1574200483469","81","-0.16308594","-0.7841797","0.6386719","-2.8125","2.0","0.53125"
"1574200483469","82","-0.15820312","-0.77246094","0.64160156","-9.21875","-0.25","1.625"
"1574200483469","83","-0.16308594","-0.76464844","0.6425781","-9.59375","-0.1875","4.6875"
"1574200483469","84","-0.13671875","-0.7871094","0.6386719","-9.96875","-1.40625","1.4375"
"1574200483471","85","-0.119140625","-0.75683594","0.5966797","-15.875","-1.84375","-1.53125"
"1574200483471","86","-0.12109375","-0.7607422","0.59277344","-20.15625","-1.0","-3.5"
"1574200483471","87","-0.109375","-0.7578125","0.56933594","-10.40625","2.5","0.90625"
"1574200483471","88","-0.0859375","-0.7919922","0.56933594","-3.0625","3.28125","4.5625"
"1574200483472","89","-0.083984375","-0.77246094","0.58203125","13.46875","-2.28125","15.65625"
"1574200483867","90","-0.103515625","-0.8300781","0.6035156","24.03125","0.21875","23.0"
"1574200483868","91","-0.15917969","-0.8730469","0.609375","29.53125","12.0625","18.40625"
"1574200483868","92","-0.21875","-0.87109375","0.70703125","9.6875","16.21875","11.59375"
"1574200483868","93","-0.21289062","-0.8876953","0.6777344","5.125","19.21875","10.46875"
"1574200483868","94","-0.1796875","-0.8378906","0.67089844","-14.84375","8.65625","9.25"
"1574200483869","95","-0.22070312","-0.77246094","0.6455078","-17.40625","5.71875","17.875"
"1574200483869","96","-0.17578125","-0.81152344","0.60253906","-20.53125","-0.5","17.5625"
"1574200483870","97","-0.13671875","-0.76464844","0.58496094","-24.0625","-6.53125","17.75"
"1574200483871","98","-0.17480469","-0.8076172","0.6044922","-23.03125","-6.5","11.15625"
"1574200483871","99","-0.21386719","-0.8847656","0.6201172","-35.78125","-9.59375","6.03125"
"1574200484859","100","-0.21582031","-0.8652344","0.5908203","-39.875","-13.8125","3.09375"
"1574200484859","101","-0.22460938","-0.91503906","0.5732422","-50.0625","-16.125","-2.15625"
"1574200484860","102","-0.22558594","-0.91796875","0.5488281","-50.6875","-16.0","-9.78125"
"1574200484860","103","-0.18359375","-0.90527344","0.48242188","-52.375","-17.28125","-14.53125"
"1574200484860","104","-0.15429688","-0.86035156","0.46484375","-48.40625","-15.34375","-20.28125"
"1574200484861","105","-0.16113281","-0.85253906","0.40722656","-53.3125","-11.71875","-29.125"
"1574200484861","106","-0.19628906","-0.8857422","0.37695312","-59.28125","-4.96875","-29.8125"
"1574200484861","107","-0.15625","-0.94433594","0.3251953","-66.3125","-0.8125","-33.78125"
"1574200484861","108","-0.07910156","-0.8769531","0.32714844","-68.75","-0.5625","-31.5625"
"1574200484863","109","-0.08203125","-0.9394531","0.234375","-76.375","-1.90625","-38.03125"
"1574200485057","110","-0.043945312","-0.9423828","0.18261719","-79.4375","2.0","-36.5625"
"1574200485057","111","0.0107421875","-0.9111328","0.13085938","-82.90625","0.59375","-39.4375"
"1574200485057","112","0.0390625","-0.9785156","0.06640625","-85.78125","-3.0625","-45.4375"
"1574200485058","113","0.08886719","-0.9160156","0.0146484375","-72.28125","-5.625","-51.03125"
"1574200485058","114","0.06933594","-0.93652344","-0.0126953125","-55.9375","-2.875","-53.96875"
"1574200485058","115","0.08496094","-0.9746094","-0.057617188","-56.90625","0.0","-55.625"
"1574200485058","116","0.18652344","-0.96191406","-0.13085938","-62.09375","6.5","-53.84375"
"1574200485059","117","0.203125","-0.9501953","-0.16015625","-54.21875","11.65625","-58.375"
"1574200485059","118","0.23535156","-0.92578125","-0.19726562","-43.96875","9.3125","-61.59375"
"1574200485059","119","0.20800781","-0.7167969","-0.12402344","-40.46875","14.6875","-57.5625"
"1574200485256","120","0.20214844","-0.70214844","-0.18066406","-37.0","12.5625","-53.71875"
"1574200485258","121","0.25390625","-0.73535156","-0.1484375","-32.0","12.0","-53.65625"
"1574200485258","122","0.31640625","-0.9033203","-0.12988281","-29.3125","12.5625","-38.65625"
"1574200485259","123","0.31640625","-1.1054688","-0.27441406","-19.90625","20.4375","-32.1875"
"1574200485259","124","0.40722656","-0.80859375","-0.22460938","-10.34375","6.625","-26.4375"
"1574200485259","125","0.390625","-0.7949219","-0.21777344","-20.34375","8.09375","-19.53125"
"1574200485260","126","0.4765625","-0.9121094","-0.31835938","-19.125","15.0","-19.3125"
"1574200485260","127","0.46679688","-0.8486328","-0.28515625","-10.03125","6.8125","-20.03125"
"1574200485260","128","0.41992188","-0.83691406","-0.24804688","-6.125","11.75","-14.0625"
"1574200485260","129","0.4658203","-0.83203125","-0.29296875","-4.34375","10.65625","-11.3125"
"1574200485457","130","0.48632812","-0.8232422","-0.29492188","1.15625","10.71875","-7.28125"
"1574200485458","131","0.47070312","-0.83203125","-0.2783203","-0.625","13.0","-6.4375"
"1574200485458","132","0.53027344","-0.8232422","-0.3125","1.8125","11.9375","-4.65625"
"1574200485459","133","0.5283203","-0.8222656","-0.31640625","3.34375","5.78125","-3.6875"
"1574200485459","134","0.51171875","-0.80859375","-0.26953125","6.28125","-1.1875","-0.75"
"1574200485460","135","0.4892578","-0.8027344","-0.24511719","0.59375","-5.5","0.21875"
"1574200485460","136","0.4111328","-0.8535156","-0.23828125","2.0625","-4.03125","1.4375"
"1574200485460","137","0.4169922","-0.7480469","-0.20214844","16.40625","9.9375","4.6875"
"1574200485460","138","0.37109375","-0.69921875","-0.19824219","21.78125","4.5625","12.375"
"1574200485461","139","0.34765625","-0.63964844","-0.17773438","31.46875","4.0625","25.875"
"1574200485853","140","0.3623047","-0.7246094","-0.15234375","32.875","9.9375","29.78125"
"1574200485854","141","0.28320312","-0.7578125","-0.12792969","52.53125","18.71875","33.4375"
"1574200485854","142","0.41601562","-0.8125","-0.16210938","45.53125","12.75","34.03125"
"1574200485854","143","0.24023438","-0.7236328","-0.059570312","57.1875","10.1875","41.71875"
"1574200485854","144","0.3876953","-0.72265625","-0.05859375","56.875","7.25","26.0"
"1574200485856","145","0.23242188","-0.91308594","-0.01953125","47.09375","4.0625","36.3125"
"1574200485856","146","0.359375","-0.8886719","-0.036132812","55.09375","-0.6875","29.84375"
"1574200485856","147","0.25","-1.0693359","0.06542969","20.125","3.90625","37.40625"
"1574200485857","148","0.3876953","-0.91015625","-0.040039062","56.5","5.34375","32.09375"
"1574200485857","149","0.22070312","-1.0712891","0.16796875","15.125","-1.59375","23.59375"
"1574200486451","150","0.35351562","-1.1289062","0.022460938","28.125","1.3125","26.84375"
"1574200486451","151","0.20898438","-1.0488281","0.19628906","15.71875","2.71875","23.3125"
"1574200486452","152","0.2685547","-1.0996094","0.12207031","2.1875","-0.5","11.03125"
"1574200486452","153","0.234375","-1.1601562","0.17285156","-1.90625","0.15625","10.84375"
"1574200486452","154","0.203125","-1.2080078","0.16308594","-14.40625","0.34375","3.03125"
"1574200486453","155","0.36523438","-1.2119141","0.1171875","-18.09375","-6.4375","-13.875"
"1574200486453","156","0.23535156","-1.1318359","0.13769531","-24.3125","-6.90625","-21.0625"
"1574200486454","157","0.35058594","-1.0234375","0.0029296875","-23.75","-8.6875","-35.125"
"1574200486454","158","0.3173828","-0.94140625","-0.001953125","-26.875","-15.53125","-36.46875"
"1574200486455","159","0.3388672","-1.0175781","-0.00390625","-31.875","-12.46875","-29.9375"
"1574200486649","160","0.4033203","-0.99316406","-0.041015625","-29.9375","-16.5625","-24.0"
"1574200486649","161","0.3466797","-0.9404297","-0.043945312","-26.9375","-15.59375","-18.25"
"1574200486649","162","0.33984375","-0.9326172","-0.064453125","-19.84375","-11.375","-15.6875"
"1574200486649","163","0.34472656","-0.86621094","-0.1015625","-9.40625","-0.5625","-12.28125"
"1574200486650","164","0.3935547","-0.90234375","-0.083984375","-5.875","0.59375","-7.65625"
"1574200486650","165","0.3857422","-0.94628906","-0.08984375","-6.125","5.0","-7.21875"
"1574200486650","166","0.36816406","-0.9355469","-0.1015625","1.375","5.90625","-10.15625"
"1574200486651","167","0.359375","-0.89941406","-0.095703125","2.4375","5.90625","-7.46875"
"1574200486651","168","0.33007812","-0.890625","-0.10546875","-0.25","7.75","-4.34375"
"1574200486652","169","0.33789062","-0.9091797","-0.080078125","4.4375","8.59375","3.71875"
"1574200487047","170","0.3251953","-0.9140625","-0.06640625","5.65625","7.125","13.15625"
"1574200487048","171","0.3232422","-0.88183594","-0.02734375","15.0625","6.5625","18.1875"
"1574200487048","172","0.34570312","-0.87402344","-0.072265625","25.25","5.90625","27.5625"
"1574200487048","173","0.3876953","-0.9316406","-0.0546875","26.96875","8.59375","28.65625"
"1574200487049","174","0.33691406","-0.9951172","-0.01953125","22.125","17.75","23.96875"
"1574200487049","175","0.28027344","-0.9345703","0.038085938","31.84375","22.3125","26.09375"
"1574200487049","176","0.2763672","-0.85058594","0.057617188","38.25","10.25","35.5"
"1574200487049","177","0.20507812","-0.8886719","0.091796875","44.25","20.5","45.9375"
"1574200487050","178","0.22460938","-0.97265625","0.13183594","55.28125","22.8125","39.15625"
"1574200487050","179","0.20605469","-0.9453125","0.17382812","54.96875","26.46875","37.28125"
"1574200487445","180","0.19921875","-1.0048828","0.20117188","47.21875","20.1875","26.96875"
"1574200487446","181","0.15136719","-0.9550781","0.24414062","48.5","23.53125","24.28125"
"1574200487446","182","0.12792969","-0.9003906","0.28710938","50.34375","15.84375","28.0"
"1574200487447","183","0.07714844","-0.9736328","0.3173828","50.28125","21.59375","33.5"
"1574200487447","184","0.08691406","-0.9111328","0.31933594","43.1875","12.625","31.53125"
"1574200487447","185","0.00390625","-0.9580078","0.42285156","44.78125","7.5625","31.96875"
"1574200487447","186","-0.0234375","-0.93652344","0.4248047","33.25","6.8125","28.25"
"1574200487448","187","0.040039062","-0.8642578","0.40429688","33.6875","5.40625","24.75"
"1574200487448","188","-0.048828125","-0.8984375","0.5205078","26.78125","4.375","19.34375"
"1574200487448","189","-0.059570312","-0.8691406","0.46972656","20.6875","6.46875","13.53125"
"1574200487841","190","-0.040039062","-0.86816406","0.49804688","15.96875","7.375","11.40625"
"1574200487842","191","-0.064453125","-0.84765625","0.49414062","16.40625","7.5","8.46875"
"1574200487843","192","-0.07128906","-0.8671875","0.51171875","12.875","2.375","10.71875"
"1574200487843","193","-0.11328125","-0.84277344","0.48242188","0.03125","0.53125","9.5"
"1574200487843","194","-0.08203125","-0.85253906","0.50097656","-1.1875","0.0","4.875"
"1574200487844","195","-0.09863281","-0.86621094","0.52246094","-2.21875","-2.15625","-0.25"
"1574200487844","196","-0.11621094","-0.86621094","0.51953125","-7.9375","-2.59375","0.03125"
"1574200487844","197","-0.083984375","-0.83984375","0.49414062","-10.40625","-1.25","-2.28125"
"1574200487844","198","-0.068359375","-0.8623047","0.5078125","-12.53125","-2.40625","-3.4375"
"1574200487845","199","-0.06640625","-0.8613281","0.4716797","-7.09375","0.34375","-0.25"
"1574200488241","200","-0.07714844","-0.8671875","0.4951172","-10.15625","0.59375","0.03125"
"1574200488241","201","-0.06347656","-0.8652344","0.45507812","-13.3125","-0.4375","-0.3125"
"1574200488241","202","-0.06640625","-0.87890625","0.4765625","-10.8125","0.40625","-1.0"
"1574200488242","203","-0.07714844","-0.8701172","0.4453125","-8.625","0.65625","-0.625"
"1574200488242","204","-0.06738281","-0.86328125","0.4296875","-1.84375","4.6875","2.0"
"1574200488243","205","-0.07910156","-0.8613281","0.4326172","7.8125","5.21875","5.59375"
"1574200488244","206","-0.07519531","-0.9375","0.46777344","7.25","6.875","7.25"
"1574200488244","207","-0.08496094","-0.91796875","0.45898438","2.25","6.6875","6.875"
"1574200488244","208","-0.07421875","-0.9169922","0.49023438","-4.78125","5.28125","6.21875"
"1574200488245","209","-0.11425781","-0.91015625","0.46777344","-11.125","5.40625","-0.3125"
"1574200488637","210","-0.13574219","-0.9091797","0.49121094","-3.375","9.875","0.90625"
"1574200488638","211","-0.10546875","-0.9091797","0.5058594","-2.46875","6.8125","0.78125"
"1574200488638","212","-0.09472656","-0.95214844","0.45703125","2.5","10.84375","2.90625"
"1574200488638","213","-0.06347656","-0.96875","0.50683594","-10.28125","6.8125","2.78125"
"1574200488639","214","-0.08300781","-0.9296875","0.47265625","-16.0","5.0","-0.75"
"1574200488639","215","-0.08105469","-0.9169922","0.43554688","-21.0","5.84375","-3.375"
"1574200488639","216","-0.055664062","-0.9091797","0.42382812","-22.90625","0.21875","-6.84375"
"1574200488640","217","-0.09082031","-0.90625","0.44628906","-19.96875","-1.65625","-9.40625"
"1574200488641","218","-0.080078125","-0.97265625","0.4013672","-17.96875","-2.625","-14.65625"
"1574200488641","219","-0.076171875","-1.0195312","0.39648438","-23.875","-2.8125","-17.71875"
"1574200489035","220","-0.07421875","-0.9453125","0.3671875","-22.15625","-1.53125","-17.90625"
"1574200489035","221","-0.061523438","-1.0019531","0.3515625","-24.3125","-1.78125","-18.5625"
"1574200489036","222","-0.030273438","-0.95214844","0.34472656","-26.75","-3.625","-22.78125"
"1574200489036","223","-0.018554688","-0.9501953","0.33007812","-28.09375","-4.46875","-25.71875"
"1574200489036","224","-0.0068359375","-1.0","0.2919922","-34.5625","-5.875","-30.53125"
"1574200489037","225","-0.001953125","-0.97265625","0.26171875","-37.4375","-1.0","-34.3125"
"1574200489037","226","0.07421875","-0.95703125","0.27246094","-38.65625","-2.875","-35.71875"
"1574200489037","227","0.076171875","-0.9716797","0.21386719","-40.53125","-6.65625","-41.21875"
"1574200489037","228","0.11816406","-0.9316406","0.19238281","-39.375","-7.53125","-40.0"
"1574200489039","229","0.14257812","-0.9423828","0.16015625","-42.4375","-10.15625","-42.25"
"1574200489432","230","0.15039062","-0.9482422","0.13671875","-43.15625","-6.78125","-42.4375"
"1574200489432","231","0.21386719","-0.9638672","0.06738281","-40.96875","-7.875","-44.625"
"1574200489432","232","0.25585938","-0.9199219","0.083984375","-42.5","-10.34375","-49.03125"
"1574200489433","233","0.23046875","-0.890625","0.03125","-43.03125","-12.59375","-50.375"
"1574200489433","234","0.29492188","-0.86035156","-9.765625E-4","-40.25","-10.4375","-46.46875"
"1574200489433","235","0.31054688","-0.8564453","0.041992188","-45.0625","-10.5","-46.34375"
"1574200489433","236","0.2626953","-0.8701172","-0.08496094","-38.90625","-13.75","-44.09375"
"1574200489434","237","0.3359375","-0.8105469","-0.08984375","-40.59375","-7.65625","-32.90625"
"1574200489434","238","0.3232422","-0.83496094","-0.08984375","-48.65625","-7.53125","-33.15625"
"1574200489434","239","0.34960938","-0.7988281","-0.09863281","-42.25","-1.34375","-34.6875"
"1574200489830","240","0.35351562","-0.796875","-0.10644531","-49.875","-1.25","-40.46875"
"1574200489830","241","0.43066406","-0.87109375","-0.12988281","-40.125","-4.46875","-43.21875"
"1574200489831","242","0.4111328","-0.9003906","-0.15625","-44.75","2.71875","-35.53125"
"1574200489831","243","0.44628906","-0.8564453","-0.20214844","-37.75","-7.59375","-31.75"
"1574200489831","244","0.49121094","-0.77441406","-0.1796875","-28.875","-8.0","-25.21875"
"1574200489831","245","0.4609375","-0.8388672","-0.24414062","-28.03125","2.0625","-18.09375"
"1574200489832","246","0.5","-0.79003906","-0.24414062","-16.5625","-2.21875","-17.09375"
"1574200489832","247","0.50683594","-0.82910156","-0.2685547","-14.125","2.5","-9.40625"
"1574200489832","248","0.515625","-0.8017578","-0.26757812","-4.59375","6.40625","-4.15625"
"1574200489832","249","0.5292969","-0.7988281","-0.2705078","-3.1875","2.0625","-5.15625"
"1574200490423","250","0.51171875","-0.8144531","-0.26464844","0.78125","4.25","-2.03125"
"1574200490423","251","0.546875","-0.79589844","-0.28027344","4.3125","4.5625","-2.6875"
"1574200490424","252","0.5410156","-0.77246094","-0.29296875","11.28125","4.4375","-0.125"
"1574200490425","253","0.52734375","-0.8066406","-0.2861328","3.90625","3.71875","0.09375"
"1574200490425","254","0.59375","-0.8173828","-0.30566406","-0.3125","0.59375","-5.75"
"1574200490425","255","0.55566406","-0.76464844","-0.25390625","7.6875","0.0","-2.21875"
"1574200490426","256","0.5019531","-0.7998047","-0.2607422","5.46875","0.15625","1.03125"
"1574200490426","257","0.51171875","-0.75878906","-0.22851562","12.375","6.5625","4.8125"
"1574200490426","258","0.515625","-0.7246094","-0.24707031","19.8125","6.03125","10.84375"
"1574200490426","259","0.4560547","-0.75683594","-0.19824219","19.15625","13.28125","12.9375"
"1574200490821","260","0.41601562","-0.6826172","-0.16503906","32.625","21.65625","23.53125"
"1574200490822","261","0.52441406","-0.68847656","-0.21582031","38.5","28.625","25.5625"
"1574200490822","262","0.3515625","-0.70214844","-0.14746094","50.71875","30.5","45.03125"
"1574200490822","263","0.43554688","-0.8125","-0.048828125","34.78125","15.0","21.53125"
"1574200490823","264","0.42773438","-0.75683594","-0.15039062","53.6875","17.5","34.84375"
"1574200490824","265","0.4267578","-0.92871094","0.0234375","30.875","14.625","21.84375"
"1574200490824","266","0.4921875","-0.9560547","-0.1328125","36.125","11.71875","15.3125"
"1574200490825","267","0.40234375","-0.71484375","0.033203125","50.46875","4.5625","22.8125"
"1574200490825","268","0.27734375","-0.88183594","0.051757812","20.375","12.1875","21.03125"
"1574200490825","269","0.4638672","-0.8564453","0.0107421875","39.09375","16.34375","24.28125"
"1574200491022","270","0.25","-0.96484375","0.09277344","18.28125","15.3125","26.90625"
"1574200491023","271","0.38378906","-0.8642578","0.080078125","39.90625","24.9375","35.03125"
"1574200491023","272","0.3232422","-0.90625","0.18359375","28.0625","12.1875","34.84375"
"1574200491023","273","0.24804688","-1.0429688","0.140625","28.4375","12.375","32.28125"
"1574200491023","274","0.29882812","-1.0175781","0.1953125","19.5625","9.03125","27.4375"
"1574200491023","275","0.24511719","-1.1328125","0.23046875","3.90625","0.65625","15.96875"
"1574200491024","276","0.3466797","-1.0029297","0.15429688","-1.46875","1.625","7.8125"
"1574200491025","277","0.24511719","-1.1064453","0.21777344","-30.65625","-20.78125","-11.96875"
"1574200491025","278","0.25976562","-1.1445312","0.171875","-25.90625","-27.46875","-20.53125"
"1574200491025","279","0.35351562","-1.1113281","0.15527344","-37.3125","-21.4375","-27.25"
"1574200491418","280","0.34375","-1.0771484","0.05859375","-40.59375","-25.46875","-38.34375"
"1574200491419","281","0.3642578","-0.96972656","0.056640625","-39.25","-20.59375","-40.90625"
"1574200491419","282","0.37304688","-0.9609375","0.005859375","-45.25","-16.0625","-38.03125"
"1574200491419","283","0.5185547","-1.0244141","-0.09277344","-40.71875","-14.59375","-40.65625"
"1574200491419","284","0.4638672","-0.95996094","-0.07324219","-38.03125","-7.09375","-28.9375"
"1574200491420","285","0.4716797","-0.9003906","-0.09082031","-31.8125","-6.25","-23.5625"
"1574200491420","286","0.47851562","-0.8125","-0.15234375","-16.9375","-10.6875","-21.3125"
"1574200491420","287","0.44140625","-0.7480469","-0.16796875","-15.21875","-10.75","-15.625"
"1574200491420","288","0.43359375","-0.8359375","-0.12402344","-7.21875","2.84375","1.4375"
"1574200491422","289","0.4560547","-0.8408203","-0.14257812","11.03125","12.875","3.90625"
"1574200491818","290","0.5078125","-0.8574219","-0.17675781","17.1875","12.25","9.25"
"1574200491818","291","0.4345703","-0.87402344","-0.09277344","11.59375","11.71875","13.96875"
"1574200491818","292","0.46289062","-0.8339844","-0.13183594","31.28125","21.46875","15.0625"
"1574200491819","293","0.48828125","-0.8251953","-0.10839844","38.3125","18.84375","17.6875"
"1574200491819","294","0.36914062","-0.8701172","-0.034179688","31.78125","23.0","26.59375"
"1574200491819","295","0.34472656","-0.91015625","-0.043945312","50.21875","35.09375","29.46875"
"1574200491819","296","0.37890625","-0.88964844","0.015625","53.8125","36.90625","38.5625"
"1574200491820","297","0.38671875","-0.9277344","0.0546875","55.46875","31.78125","43.75"
"1574200491820","298","0.44335938","-0.94433594","0.12109375","56.9375","24.09375","40.09375"
"1574200491820","299","0.24414062","-0.9628906","0.22753906","41.84375","32.875","32.40625"
"1574200492808","300","0.2626953","-0.88671875","0.22460938","53.875","29.71875","33.8125"
"1574200492810","301","0.23242188","-0.8730469","0.28808594","65.40625","27.875","41.71875"
"1574200492811","302","0.20410156","-0.8964844","0.3544922","67.0","30.375","49.125"
"1574200492811","303","0.13671875","-0.8925781","0.4111328","67.5625","27.75","40.6875"
"1574200492812","304","0.09667969","-0.8955078","0.42285156","59.375","25.0","35.1875"
"1574200492812","305","0.07324219","-0.88964844","0.4921875","49.46875","25.125","29.78125"
"1574200492812","306","0.029296875","-0.8251953","0.50683594","55.59375","25.875","24.75"
"1574200492813","307","0.013671875","-0.87890625","0.5576172","52.28125","27.875","25.25"
"1574200492813","308","0.013671875","-0.8232422","0.5546875","36.1875","20.6875","18.84375"
"1574200492813","309","-0.015625","-0.8183594","0.5917969","31.25","17.0","15.3125"
"1574200493005","310","-0.049804688","-0.7734375","0.5761719","26.15625","16.15625","11.28125"
"1574200493006","311","-0.05859375","-0.8066406","0.60058594","23.125","15.5","9.125"
"1574200493006","312","-0.059570312","-0.7636719","0.6015625","9.03125","7.25","4.6875"
"1574200493007","313","-0.056640625","-0.7685547","0.6220703","8.03125","2.90625","4.25"
"1574200493007","314","-0.06640625","-0.78027344","0.62597656","4.125","0.34375","2.375"
"1574200493008","315","-0.06738281","-0.734375","0.6503906","6.5625","1.625","2.96875"
"1574200493008","316","-0.029296875","-0.765625","0.6386719","13.15625","7.8125","3.40625"
"1574200493008","317","-0.0107421875","-0.7578125","0.65234375","3.21875","5.125","0.65625"
"1574200493009","318","-0.028320312","-0.765625","0.6386719","-1.65625","3.65625","-4.03125"
"1574200493009","319","-0.046875","-0.7519531","0.640625","-8.4375","2.125","-4.78125"
"1574200493205","320","-0.0625","-0.76171875","0.6230469","-15.9375","-2.53125","-11.84375"
"1574200493206","321","-0.051757812","-0.7441406","0.6044922","-9.53125","-0.9375","-7.875"
"1574200493206","322","-0.033203125","-0.7783203","0.5917969","-10.9375","-0.875","-8.0"
"1574200493206","323","-0.03125","-0.7792969","0.5986328","-16.0","-0.5625","-7.03125"
"1574200493207","324","-0.02734375","-0.78515625","0.59277344","-19.53125","-1.34375","-4.78125"
"1574200493207","325","-0.005859375","-0.8251953","0.57910156","-19.65625","-4.53125","-4.28125"
"1574200493207","326","-0.020507812","-0.7890625","0.5732422","-14.59375","-2.53125","1.875"
"1574200493208","327","0.021484375","-0.7919922","0.56347656","-7.28125","-0.1875","2.25"
"1574200493208","328","0.015625","-0.7919922","0.5361328","-6.65625","-4.53125","3.78125"
"1574200493209","329","-0.0234375","-0.8173828","0.5908203","-10.09375","-1.40625","6.09375"
"1574200493406","330","-0.0048828125","-0.7949219","0.5761719","-13.25","-2.21875","-5.25"
"1574200493406","331","0.032226562","-0.86328125","0.5341797","-9.53125","-2.03125","-5.625"
"1574200493407","332","-0.021484375","-0.8378906","0.5546875","-22.96875","-1.84375","-1.96875"
"1574200493407","333","0.07519531","-0.7939453","0.4658203","-7.8125","-5.6875","-2.09375"
"1574200493407","334","0.01953125","-0.8300781","0.6513672","-15.21875","-0.25","21.21875"
"1574200493407","335","-0.032226562","-0.71777344","0.5185547","-6.78125","-9.28125","7.5625"
"1574200493408","336","0.033203125","-0.81347656","0.5234375","-8.4375","-4.21875","13.53125"
"1574200493409","337","-0.015625","-0.8125","0.55078125","-15.21875","-6.125","16.15625"
"1574200493410","338","-0.032226562","-0.87109375","0.41601562","-21.6875","-25.53125","2.71875"
"1574200493410","339","0.020507812","-1.0029297","0.4814453","-3.5","9.625","25.5"
"1574200493805","340","-0.056640625","-0.9970703","0.50390625","-7.40625","-8.75","12.375"
"1574200493805","341","-0.13476562","-1.0625","0.58496094","12.9375","9.5","22.3125"
"1574200493806","342","-0.13964844","-1.0302734","0.5566406","4.75","8.46875","11.15625"
"1574200493806","343","-0.08886719","-0.9814453","0.57910156","-5.21875","-1.125","6.6875"
"1574200493806","344","-0.1328125","-0.9736328","0.5332031","0.0","5.65625","-5.625"
"1574200493807","345","-0.034179688","-0.99316406","0.54296875","18.40625","10.1875","-19.375"
"1574200493807","346","0.0859375","-1.0361328","0.57910156","-9.0625","2.71875","-36.6875"
"1574200493807","347","0.0703125","-0.91015625","0.4951172","-32.375","-10.5","-40.40625"
"1574200493807","348","0.020507812","-0.91308594","0.50683594","-46.65625","-23.15625","-38.96875"
"1574200493809","349","0.061523438","-0.9580078","0.4580078","-51.71875","-24.5","-44.21875"
"1574200494202","350","0.08984375","-0.99316406","0.4267578","-60.1875","-26.125","-40.46875"
"1574200494203","351","0.11035156","-0.9746094","0.37402344","-56.0","-21.125","-39.8125"
"1574200494203","352","0.11230469","-0.9423828","0.33203125","-60.1875","-15.875","-48.40625"
"1574200494203","353","0.17382812","-0.92089844","0.28710938","-60.5625","-10.09375","-49.34375"
"1574200494204","354","0.1875","-0.9042969","0.23925781","-54.46875","-9.59375","-42.1875"
"1574200494204","355","0.21484375","-0.8330078","0.20800781","-57.625","-9.90625","-36.46875"
"1574200494204","356","0.19140625","-0.8378906","0.16894531","-61.34375","-9.15625","-50.6875"
"1574200494205","357","0.23828125","-0.79589844","0.09472656","-63.0","-10.6875","-47.8125"
"1574200494205","358","0.23632812","-0.7529297","0.08105469","-61.78125","-10.09375","-44.875"
"1574200494205","359","0.25878906","-0.7128906","0.078125","-65.03125","-12.78125","-42.25"
"1574200494797","360","0.27539062","-0.7890625","-0.0048828125","-64.65625","-15.53125","-38.53125"
"1574200494798","361","0.34765625","-0.8222656","-0.08496094","-62.46875","-12.96875","-35.59375"
"1574200494799","362","0.3544922","-0.7373047","-0.09375","-60.125","-8.75","-32.0625"
"1574200494799","363","0.42285156","-0.68847656","-0.0703125","-48.90625","-16.375","-33.65625"
"1574200494799","364","0.31933594","-0.8046875","0.017578125","-49.46875","-9.125","-21.9375"
"1574200494800","365","0.36328125","-1.1611328","-0.23730469","-39.6875","-1.25","-19.71875"
"1574200494800","366","0.50390625","-0.7705078","-0.20898438","-18.4375","-5.21875","-17.53125"
"1574200494800","367","0.46972656","-0.6611328","-0.19433594","-25.53125","-9.65625","-17.21875"
"1574200494801","368","0.5283203","-1.0263672","-0.24121094","-45.0","-7.21875","-25.71875"
"1574200494801","369","0.4736328","-0.796875","-0.25585938","-12.65625","-18.09375","-13.4375"
"1574200494996","370","0.4033203","-0.8046875","-0.16210938","-13.6875","-1.1875","-1.78125"
"1574200494996","371","0.5078125","-0.84765625","-0.2890625","-14.65625","1.75","-5.21875"
"1574200494997","372","0.5361328","-0.78808594","-0.26171875","-7.8125","4.1875","-2.59375"
"1574200494998","373","0.48535156","-0.8378906","-0.25878906","2.65625","4.6875","-2.40625"
"1574200494998","374","0.515625","-0.8017578","-0.2421875","15.3125","2.96875","-0.875"
"1574200494998","375","0.5419922","-0.7734375","-0.24707031","19.9375","-3.25","-3.4375"
"1574200494999","376","0.54296875","-0.8388672","-0.26171875","23.1875","-7.78125","-3.125"
"1574200494999","377","0.5517578","-0.8496094","-0.29785156","18.59375","-15.21875","-8.375"
"1574200494999","378","0.5078125","-0.82128906","-0.28515625","16.15625","-15.40625","-11.125"
"1574200494999","379","0.4716797","-0.84375","-0.30078125","6.03125","-8.625","-4.21875"
"1574200495394","380","0.4404297","-0.82128906","-0.27734375","10.3125","-2.28125","0.09375"
"1574200495395","381","0.43847656","-0.83203125","-0.24414062","10.59375","10.46875","3.65625"
"1574200495395","382","0.42871094","-0.85546875","-0.2705078","7.125","13.71875","1.3125"
"1574200495395","383","0.43945312","-0.83203125","-0.23730469","2.0","22.4375","1.875"
"1574200495395","384","0.42871094","-0.7910156","-0.13378906","21.03125","14.21875","3.46875"
"1574200495396","385","0.4140625","-0.7685547","-0.17773438","20.0","23.96875","7.0"
"1574200495396","386","0.47265625","-0.7519531","-0.140625","30.4375","29.71875","7.90625"
"1574200495396","387","0.453125","-0.7158203","-0.09863281","40.21875","24.75","22.6875"
"1574200495397","388","0.51171875","-0.8095703","-0.08984375","31.40625","23.46875","19.09375"
"1574200495397","389","0.6298828","-0.9140625","-0.13769531","30.75","5.0","24.34375"
"1574200495793","390","0.41308594","-0.7451172","-0.04296875","40.09375","-8.3125","9.5"
"1574200495793","391","0.4482422","-0.8017578","-0.083984375","30.5625","-18.75","14.5"
"1574200495794","392","0.33984375","-0.7607422","-0.04296875","32.40625","-0.125","27.875"
"1574200495794","393","0.39648438","-0.81640625","0.015625","30.375","0.96875","23.65625"
"1574200495794","394","0.34960938","-0.78808594","-0.033203125","36.90625","0.46875","25.75"
"1574200495794","395","0.31445312","-0.7861328","0.068359375","41.625","7.125","30.6875"
"1574200495795","396","0.3359375","-0.9199219","0.026367188","28.65625","14.5","29.90625"
"1574200495796","397","0.31445312","-0.9082031","0.09472656","39.28125","11.71875","33.6875"
"1574200495797","398","0.3515625","-1.0283203","0.09082031","18.78125","14.625","29.65625"
"1574200495797","399","0.3935547","-0.9296875","0.12109375","31.34375","11.71875","30.5"
"1574200496190","400","0.2529297","-1.0498047","0.20703125","12.1875","18.71875","28.5625"
"1574200496191","401","0.34179688","-1.0380859","0.095703125","24.9375","-0.5625","10.1875"
"1574200496191","402","0.29492188","-1.0244141","0.2705078","9.6875","19.46875","11.8125"
"1574200496191","403","0.23046875","-1.0332031","0.18945312","6.5625","2.0","0.0"
"1574200496191","404","0.2841797","-0.99609375","0.26464844","-4.34375","5.28125","2.125"
"1574200496191","405","0.23144531","-1.1083984","0.23535156","-15.8125","7.3125","-4.34375"
"1574200496192","406","0.36328125","-1.0878906","0.21972656","-6.65625","-6.25","-18.15625"
"1574200496192","407","0.36035156","-1.0585938","0.22753906","-26.5","-10.34375","-22.125"
"1574200496192","408","0.31835938","-1.0048828","0.09472656","-27.0","-21.6875","-33.40625"
"1574200496194","409","0.390625","-0.95703125","0.15234375","-36.40625","-18.8125","-23.4375"
"1574200496786","410","0.35742188","-0.9267578","0.07714844","-30.96875","-21.9375","-24.78125"
"1574200496787","411","0.4013672","-0.9560547","0.06640625","-32.90625","-20.40625","-21.875"
"1574200496787","412","0.3857422","-0.9628906","0.016601562","-25.21875","-25.96875","-27.65625"
"1574200496787","413","0.41210938","-0.93066406","-0.0107421875","-22.96875","-18.9375","-20.875"
"1574200496788","414","0.40039062","-0.93847656","-0.041015625","-15.46875","-13.4375","-17.53125"
"1574200496788","415","0.42285156","-0.890625","-0.06933594","-14.78125","-7.40625","-14.125"
"1574200496788","416","0.41210938","-0.8652344","-0.078125","-12.46875","-3.96875","-8.3125"
"1574200496788","417","0.4091797","-0.88378906","-0.08300781","-7.8125","-1.90625","-6.125"
"1574200496789","418","0.41503906","-0.9326172","-0.06542969","-3.5625","2.0625","-7.40625"
"1574200496789","419","0.37402344","-0.9160156","-0.08496094","4.6875","5.90625","-11.6875"
"1574200496983","420","0.41503906","-0.88671875","-0.09667969","2.4375","11.03125","-9.15625"
"1574200496985","421","0.39648438","-0.9375","-0.043945312","0.15625","15.625","-8.125"
"1574200496985","422","0.36914062","-0.87402344","-0.029296875","5.53125","11.59375","0.65625"
"1574200496985","423","0.40429688","-0.83691406","-0.03125","7.625","5.125","11.9375"
"1574200496986","424","0.4375","-0.8730469","-0.0048828125","12.5","7.125","20.6875"
"1574200496986","425","0.40527344","-0.8183594","-0.013671875","23.59375","9.125","30.0"
"1574200496986","426","0.41015625","-0.85058594","0.0107421875","36.71875","14.375","34.78125"
"1574200496987","427","0.3720703","-0.8925781","0.021484375","53.8125","22.3125","41.5"
"1574200496987","428","0.48242188","-0.8544922","0.0087890625","62.78125","13.71875","43.625"
"1574200496987","429","0.33691406","-0.96191406","0.18066406","53.15625","32.53125","35.875"
"1574200497381","430","0.3125","-0.8691406","0.13085938","67.90625","28.25","40.5"
"1574200497382","431","0.31152344","-0.9736328","0.20507812","66.875","33.96875","32.53125"
"1574200497382","432","0.22460938","-0.91503906","0.3095703","64.8125","30.75","38.9375"
"1574200497383","433","0.19140625","-0.8486328","0.38867188","74.9375","28.71875","45.75"
"1574200497384","434","0.12402344","-0.92871094","0.4091797","77.1875","32.21875","47.40625"
"1574200497384","435","0.0859375","-0.8496094","0.49121094","73.21875","29.28125","52.53125"
"1574200497384","436","0.038085938","-0.83203125","0.52734375","82.03125","39.0","52.0625"
"1574200497385","437","0.016601562","-0.8535156","0.56640625","73.65625","36.96875","43.875"
"1574200497385","438","9.765625E-4","-0.8105469","0.58984375","55.53125","28.375","33.5625"
"1574200497385","439","-0.04296875","-0.78125","0.63378906","50.40625","24.8125","31.46875"
"1574200497780","440","-0.09863281","-0.7636719","0.65625","39.0625","12.0625","30.875"
"1574200497781","441","-0.10644531","-0.68359375","0.61816406","32.40625","7.125","40.5625"
"1574200497781","442","-0.1796875","-0.68066406","0.68847656","48.625","10.1875","38.375"
"1574200497781","443","-0.16113281","-0.6748047","0.6455078","46.8125","9.5625","28.0"
"1574200497781","444","-0.20410156","-0.6669922","0.7675781","50.71875","16.84375","27.8125"
"1574200497783","445","-0.21289062","-0.6298828","0.7548828","27.75","17.875","13.28125"
"1574200497783","446","-0.20703125","-0.60546875","0.7314453","27.875","17.1875","11.59375"
"1574200497784","447","-0.23144531","-0.5996094","0.80566406","21.71875","16.15625","8.03125"
"1574200497784","448","-0.22460938","-0.5996094","0.76660156","6.03125","10.71875","4.0"
"1574200497784","449","-0.24902344","-0.5761719","0.77246094","-1.40625","7.96875","0.53125"
"1574200498178","450","-0.23828125","-0.5888672","0.765625","-10.40625","2.78125","-2.53125"
"1574200498179","451","-0.23730469","-0.5957031","0.75","-14.84375","0.09375","-2.28125"
"1574200498179","452","-0.21386719","-0.5839844","0.75390625","-14.0625","-2.15625","0.46875"
"1574200498179","453","-0.22753906","-0.6064453","0.7519531","-14.40625","-0.9375","-2.21875"
"1574200498179","454","-0.24121094","-0.6074219","0.74609375","-14.40625","-0.5","-4.40625"
"1574200498180","455","-0.22558594","-0.6347656","0.7558594","-10.625","0.90625","-9.125"
"1574200498180","456","-0.21386719","-0.6591797","0.7167969","-17.34375","1.28125","-10.40625"
"1574200498181","457","-0.22949219","-0.6425781","0.7392578","-22.21875","-0.625","-12.59375"
"1574200498182","458","-0.17382812","-0.6982422","0.7089844","-31.875","-2.9375","-14.34375"
"1574200498182","459","-0.20214844","-0.6816406","0.6796875","-44.28125","-6.3125","-18.25"
"1574200498574","460","-0.18457031","-0.7167969","0.6748047","-48.59375","-9.78125","-19.59375"
"1574200498575","461","-0.12792969","-0.7207031","0.6308594","-55.0625","-10.09375","-21.625"
"1574200498575","462","-0.095703125","-0.74121094","0.61816406","-51.78125","-9.15625","-19.3125"
"1574200498575","463","-0.095703125","-0.7597656","0.60058594","-49.75","-8.1875","-12.90625"
"1574200498576","464","-0.07324219","-0.8105469","0.5751953","-51.46875","-7.03125","-11.4375"
"1574200498576","465","-0.06933594","-0.85839844","0.5957031","-48.21875","-2.9375","-10.4375"
"1574200498576","466","-0.056640625","-0.8701172","0.54003906","-44.21875","-1.84375","-11.125"
"1574200498577","467","-0.032226562","-0.89746094","0.5058594","-29.3125","1.75","-7.34375"
"1574200498577","468","-0.07714844","-0.9814453","0.5625","-19.71875","0.96875","-4.96875"
"1574200498579","469","-0.059570312","-1.0019531","0.51171875","-18.4375","2.59375","-8.25"
"1574200498971","470","-0.040039062","-1.0224609","0.53222656","-18.375","2.125","-13.5"
"1574200498972","471","-0.07421875","-1.0068359","0.5058594","-17.15625","1.375","-20.21875"
"1574200498972","472","-0.009765625","-1.0498047","0.484375","-18.8125","-7.09375","-25.96875"
"1574200498972","473","0.01953125","-0.9345703","0.46972656","-18.15625","-7.15625","-29.4375"
"1574200498972","474","0.0390625","-0.9560547","0.41992188","-25.65625","-12.96875","-33.53125"
"1574200498973","475","0.068359375","-1.0322266","0.4296875","-24.6875","-20.46875","-38.96875"
"1574200498973","476","0.09472656","-1.0585938","0.3955078","-35.65625","-19.78125","-37.5625"
"1574200498973","477","0.12597656","-1.0068359","0.37304688","-37.4375","-20.28125","-49.21875"
"1574200498973","478","0.16601562","-0.9667969","0.33398438","-48.65625","-15.09375","-46.65625"
"1574200498973","479","0.17578125","-0.98535156","0.28808594","-59.34375","-18.15625","-50.625"
"1574200499570","480","0.1953125","-0.9091797","0.18457031","-62.5625","-12.96875","-50.125"
"1574200499571","481","0.23632812","-0.82421875","0.15234375","-72.65625","-7.9375","-50.90625"
"1574200499572","482","0.26367188","-0.8300781","0.12011719","-78.4375","-3.4375","-52.1875"
"1574200499572","483","0.26660156","-0.78515625","0.07714844","-70.375","-7.59375","-56.65625"
"1574200499572","484","0.3388672","-0.7714844","0.0107421875","-58.5","-4.59375","-52.1875"
"1574200499572","485","0.33789062","-0.72753906","-0.0048828125","-59.9375","-14.53125","-44.375"
"1574200499573","486","0.2763672","-0.73339844","-0.057617188","-64.28125","-13.3125","-44.8125"
"1574200499573","487","0.375","-0.7011719","-0.05859375","-76.0","-13.1875","-49.28125"
"1574200499573","488","0.18261719","-0.4638672","0.029296875","-27.125","-7.28125","-41.34375"
"1574200499574","489","0.20605469","-0.93359375","0.11230469","-68.8125","7.96875","-3.4375"
"1574200499766","490","0.50878906","-1.3037109","-0.41210938","-41.59375","8.09375","-17.53125"
"1574200499767","491","0.62109375","-0.6113281","-0.08691406","3.46875","-2.28125","-9.84375"
"1574200499767","492","0.3046875","-0.70214844","-0.10058594","-37.25","-10.21875","-14.34375"
"1574200499768","493","0.5048828","-1.0478516","-0.40527344","-28.15625","2.25","-22.125"
"1574200499768","494","0.46191406","-0.8066406","-0.16699219","-0.4375","-8.375","-9.125"
"1574200499769","495","0.4013672","-0.9560547","-0.19140625","-19.78125","1.09375","-4.90625"
"1574200499769","496","0.5214844","-0.88964844","-0.2705078","-8.625","8.53125","-7.875"
"1574200499769","497","0.4140625","-0.8388672","-0.234375","1.03125","5.59375","4.875"
"1574200499770","498","0.41503906","-0.88671875","-0.18652344","-3.3125","19.46875","11.59375"
"1574200499770","499","0.50097656","-0.8095703","-0.171875","7.25","10.90625","15.3125"
"1574200500164","500","0.4580078","-0.8203125","-0.18847656","-4.28125","7.84375","13.40625"
"1574200500164","501","0.42773438","-0.9042969","-0.18945312","-5.8125","11.34375","9.6875"
"1574200500164","502","0.4951172","-0.8330078","-0.21191406","-4.09375","7.0625","10.1875"
"1574200500164","503","0.51953125","-0.88964844","-0.2421875","-9.71875","2.3125","3.34375"
"1574200500165","504","0.5263672","-0.93066406","-0.23632812","-11.3125","2.59375","-3.0625"
"1574200500166","505","0.5029297","-0.81640625","-0.25390625","-8.8125","0.96875","-3.3125"
"1574200500166","506","0.47265625","-0.8076172","-0.24902344","-0.3125","-4.71875","-8.5625"
"1574200500167","507","0.43847656","-0.8203125","-0.25585938","8.09375","-1.84375","-0.1875"
"1574200500167","508","0.41796875","-0.8330078","-0.23730469","10.375","3.21875","0.78125"
"1574200500167","509","0.4609375","-0.8515625","-0.2626953","19.09375","9.6875","7.90625"
"1574200500957","510","0.421875","-0.7919922","-0.26171875","29.21875","7.8125","15.84375"
"1574200500957","511","0.4560547","-0.8261719","-0.2265625","31.25","9.03125","10.1875"
"1574200500958","512","0.44433594","-0.8417969","-0.20898438","32.8125","11.40625","8.84375"
"1574200500958","513","0.484375","-0.8984375","-0.14355469","32.75","-3.4375","10.1875"
"1574200500958","514","0.4248047","-0.9091797","-0.15332031","34.96875","7.5","10.0625"
"1574200500959","515","0.3720703","-0.8388672","-0.13183594","35.75","14.21875","13.28125"
"1574200500959","516","0.33398438","-0.765625","-0.024414062","39.21875","17.4375","19.15625"
"1574200500960","517","0.26757812","-0.80371094","9.765625E-4","21.40625","19.21875","16.90625"
"1574200500961","518","0.29296875","-0.72753906","-0.0146484375","39.0","14.8125","30.5625"
"1574200500961","519","0.2783203","-0.81640625","0.068359375","21.15625","17.5625","22.1875"
"1574200501355","520","0.28027344","-0.7373047","0.015625","45.75","8.59375","22.25"
"1574200501355","521","0.25195312","-0.7451172","0.13867188","41.0","12.0625","22.5"
"1574200501356","522","0.2939453","-0.88671875","0.10546875","25.1875","9.9375","20.375"
"1574200501356","523","0.2919922","-0.7626953","0.107421875","52.15625","0.09375","33.6875"
"1574200501356","524","0.20605469","-0.91308594","0.21484375","46.875","2.5","29.90625"
"1574200501357","525","0.2783203","-0.875","0.14550781","57.90625","-1.0625","35.03125"
"1574200501357","526","0.2763672","-0.9248047","0.19824219","48.375","9.25","34.78125"
"1574200501357","527","0.22363281","-0.9082031","0.20019531","25.5","25.875","42.59375"
"1574200501357","528","0.20996094","-0.92578125","0.30371094","20.3125","13.96875","41.625"
"1574200501358","529","0.095703125","-1.1806641","0.35253906","-5.5625","-1.3125","19.21875"
"1574200501359","530","0.21484375","-1.0927734","0.35058594","-1.90625","-11.71875","19.09375"
"1574200501359","531","0.09082031","-1.0927734","0.3857422","-15.9375","-2.46875","10.1875"
"1574200501360","532","0.15625","-1.2431641","0.3388672","-37.84375","-13.375","-6.125"
"1574200501360","533","0.15429688","-1.2011719","0.3173828","-24.5625","-11.78125","-11.375"
"1574200501360","534","0.19726562","-1.1474609","0.23828125","-39.5625","0.34375","-26.125"
"1574200501361","535","0.2685547","-1.0117188","0.14453125","-17.59375","0.71875","-35.28125"
"1574200501361","536","0.26953125","-0.9892578","0.123046875","-11.0","-6.1875","-22.0"
"1574200501361","537","0.33203125","-1.1884766","0.115234375","-31.25","-5.5","-23.03125"
"1574200501362","538","0.31835938","-0.9316406","0.06933594","-3.5625","-10.09375","-30.15625"
"1574200501362","539","0.23242188","-1.0566406","0.13085938","-23.34375","-6.71875","-7.28125"
"1574200501755","540","0.29589844","-0.95996094","0.08203125","-14.84375","-3.875","-23.5"
"1574200501757","541","0.29101562","-0.87109375","0.0625","-19.90625","-11.1875","-16.0625"
"1574200501757","542","0.2919922","-0.97265625","0.08886719","-23.03125","-11.5625","-18.8125"
"1574200501757","543","0.29101562","-0.8847656","0.0703125","-21.9375","-12.53125","-22.59375"
"1574200501758","544","0.28222656","-0.9375","0.064453125","-21.0","-4.03125","-19.1875"
"1574200501758","545","0.36132812","-0.9716797","0.038085938","-11.6875","-1.40625","-17.71875"
"1574200501758","546","0.32128906","-0.9169922","0.016601562","-13.875","-2.75","-16.6875"
"1574200501758","547","0.34960938","-0.93066406","9.765625E-4","-13.3125","1.5","-13.0625"
"1574200501759","548","0.3623047","-0.89746094","-0.017578125","-3.96875","0.59375","-11.1875"
"1574200501759","549","0.34375","-0.89941406","-0.018554688","-1.1875","6.40625","-6.90625"
"1574200502154","550","0.3828125","-0.9003906","-0.024414062","4.9375","7.375","-6.65625"
"1574200502154","551","0.33398438","-0.8847656","-0.01953125","11.40625","10.46875","2.84375"
"1574200502155","552","0.3544922","-0.8222656","-0.047851562","23.125","12.9375","4.0625"
"1574200502156","553","0.3876953","-0.9248047","0.018554688","29.46875","13.40625","9.6875"
"1574200502156","554","0.38183594","-0.9394531","0.01953125","38.625","14.75","11.28125"
"1574200502157","555","0.37890625","-0.96484375","0.07714844","32.46875","15.0625","8.84375"
"1574200502157","556","0.32421875","-0.8925781","0.0703125","35.9375","15.84375","8.21875"
"1574200502157","557","0.34960938","-0.87402344","0.14453125","37.75","20.90625","15.96875"
"1574200502158","558","0.30273438","-0.89160156","0.20019531","40.21875","22.5","20.75"
"1574200502158","559","0.2529297","-0.86328125","0.23144531","48.625","28.0625","28.0625"
"1574200502548","560","0.25","-0.8564453","0.25195312","61.09375","35.25","39.15625"
"1574200502549","561","0.16992188","-0.91503906","0.34277344","65.78125","38.4375","34.59375"
"1574200502549","562","0.19433594","-0.86621094","0.3720703","74.5625","39.0","33.6875"
"1574200502549","563","0.1953125","-0.89160156","0.42285156","71.6875","35.5625","36.4375"
"1574200502550","564","0.115234375","-0.8300781","0.4814453","70.96875","33.4375","33.4375"
"1574200502551","565","0.109375","-0.79589844","0.4951172","79.6875","35.875","37.53125"
"1574200502551","566","0.07714844","-0.85058594","0.62109375","77.5","35.6875","43.0"
"1574200502552","567","-0.00390625","-0.7265625","0.625","71.6875","31.125","35.6875"
"1574200502552","568","-0.0029296875","-0.72753906","0.6357422","74.625","32.53125","32.15625"
"1574200502552","569","-0.07421875","-0.67578125","0.70703125","63.09375","27.34375","26.40625"
"1574200502947","570","-0.09277344","-0.65234375","0.74609375","61.8125","31.46875","30.5"
"1574200502947","571","-0.11035156","-0.62109375","0.74902344","51.4375","26.28125","26.53125"
"1574200502948","572","-0.15332031","-0.6513672","0.8203125","41.25","23.25","23.53125"
"1574200502948","573","-0.15527344","-0.57714844","0.78808594","24.03125","17.0","14.28125"
"1574200502948","574","-0.16015625","-0.54003906","0.8203125","23.0625","18.84375","13.96875"
"1574200502948","575","-0.17480469","-0.5390625","0.8359375","24.59375","17.1875","17.6875"
"1574200502949","576","-0.19238281","-0.53027344","0.8105469","11.9375","12.0625","9.9375"
"1574200502950","577","-0.21289062","-0.52441406","0.8378906","3.90625","7.25","6.03125"
"1574200502950","578","-0.18945312","-0.49902344","0.8203125","3.40625","9.375","4.8125"
"1574200502951","579","-0.1953125","-0.49804688","0.8046875","4.6875","8.84375","5.0"
"1574200503740","580","-0.20703125","-0.515625","0.8251953","5.21875","9.8125","10.375"
"1574200503740","581","-0.1953125","-0.5048828","0.8046875","-0.625","7.3125","8.03125"
"1574200503741","582","-0.21484375","-0.5361328","0.8105469","-2.34375","6.28125","8.15625"
"1574200503741","583","-0.203125","-0.49609375","0.79785156","3.03125","8.03125","11.9375"
"1574200503741","584","-0.20019531","-0.5410156","0.82128906","12.5","9.25","12.9375"
"1574200503741","585","-0.21191406","-0.54296875","0.828125","8.28125","8.59375","15.5"
"1574200503742","586","-0.2421875","-0.5410156","0.8857422","20.125","12.25","21.59375"
"1574200503742","587","-0.25585938","-0.56933594","0.88671875","9.25","7.8125","15.84375"
"1574200503742","588","-0.29101562","-0.5410156","0.91308594","3.46875","6.34375","17.0625"
"1574200503744","589","-0.3251953","-0.5390625","0.94433594","-16.25","-0.5625","11.15625"
"1574200503936","590","-0.27929688","-0.57910156","0.9375","-23.6875","-3.75","4.0625"
"1574200503937","591","-0.30566406","-0.5839844","0.92285156","-48.125","-11.3125","-6.59375"
"1574200503937","592","-0.2548828","-0.6123047","0.9013672","-56.28125","-15.46875","-17.09375"
"1574200503937","593","-0.27734375","-0.6425781","0.88378906","-63.0","-18.6875","-20.09375"
"1574200503937","594","-0.23144531","-0.68847656","0.7998047","-78.9375","-23.875","-21.75"
"1574200503938","595","-0.20605469","-0.7001953","0.75683594","-78.4375","-26.3125","-25.78125"
"1574200503938","596","-0.14648438","-0.7402344","0.7060547","-82.65625","-25.21875","-35.15625"
"1574200503938","597","-0.11621094","-0.8388672","0.65234375","-84.71875","-27.25","-39.125"
"1574200503938","598","-0.080078125","-0.82128906","0.5800781","-86.125","-26.5","-46.21875"
"1574200503939","599","-0.048828125","-0.87597656","0.5449219","-87.84375","-22.53125","-43.40625"
"1574200504139","600","-0.02734375","-0.8886719","0.48046875","-90.15625","-22.0625","-55.0"
"1574200504141","601","0.026367188","-0.8808594","0.4013672","-104.8125","-16.5","-61.84375"
"1574200504141","602","0.08886719","-0.88378906","0.3076172","-95.78125","-20.09375","-65.1875"
"1574200504142","603","0.13769531","-0.8222656","0.23339844","-87.71875","-22.96875","-67.09375"
"1574200504142","604","0.099609375","-0.85253906","0.25195312","-86.0","-19.71875","-57.4375"
"1574200504142","605","0.13867188","-0.83691406","0.19335938","-78.03125","-13.3125","-57.75"
"1574200504143","606","0.24609375","-0.7753906","0.13574219","-75.625","-6.125","-58.1875"
"1574200504143","607","0.21875","-0.83496094","0.11816406","-73.5625","-5.25","-49.6875"
"1574200504143","608","0.140625","-0.78808594","-9.765625E-4","-77.84375","-8.625","-41.46875"
"1574200504143","609","0.19824219","-0.74609375","0.0048828125","-69.84375","-5.15625","-43.53125"
"1574200504733","610","0.22363281","-0.77734375","0.08105469","-49.09375","-1.59375","-34.875"
"1574200504734","611","0.17675781","-0.96875","0.025390625","-44.21875","-4.28125","-35.125"
"1574200504734","612","0.25976562","-1.0390625","-0.09863281","-54.8125","12.5625","-30.96875"
"1574200504736","613","0.4423828","-0.7753906","-0.078125","-30.34375","1.375","-12.90625"
"1574200504736","614","0.41308594","-0.7636719","-0.05859375","-34.75","8.96875","-26.625"
"1574200504737","615","0.42089844","-0.9423828","-0.19335938","-18.3125","3.53125","-22.46875"
"1574200504737","616","0.4111328","-0.890625","-0.15332031","-11.1875","1.75","-17.78125"
"1574200504737","617","0.4296875","-0.8535156","-0.13378906","-3.75","2.65625","-10.4375"
"1574200504738","618","0.44140625","-0.8701172","-0.22460938","-4.21875","1.28125","-6.5"
"1574200504738","619","0.4638672","-0.8808594","-0.1875","-2.625","-2.34375","-6.84375"
"1574200504933","620","0.44335938","-0.890625","-0.19042969","5.1875","-1.46875","-0.6875"
"1574200504934","621","0.44726562","-0.8671875","-0.18554688","5.40625","-2.9375","0.53125"
"1574200504934","622","0.453125","-0.859375","-0.17089844","5.34375","2.90625","0.34375"
"1574200504934","623","0.4326172","-0.88183594","-0.16308594","7.90625","0.09375","2.0"
"1574200504935","624","0.46777344","-0.859375","-0.15820312","10.375","0.46875","3.03125"
"1574200504936","625","0.42871094","-0.8574219","-0.14453125","14.09375","-2.9375","3.65625"
"1574200504936","626","0.4375","-0.8847656","-0.14355469","16.59375","-2.15625","2.5625"
"1574200504936","627","0.4296875","-0.8730469","-0.10058594","19.03125","1.09375","4.875"
"1574200504937","628","0.41503906","-0.8730469","-0.10644531","25.4375","-1.59375","8.28125"
"1574200504937","629","0.4501953","-0.8486328","-0.072265625","34.28125","1.09375","10.84375"
"1574200505333","630","0.40234375","-0.8466797","-0.068359375","39.59375","-2.34375","17.375"
"1574200505333","631","0.37109375","-0.93066406","-0.047851562","40.5625","-0.1875","19.40625"
"1574200505334","632","0.37597656","-0.7988281","0.00390625","53.875","10.0625","26.59375"
"1574200505334","633","0.3076172","-0.7216797","-9.765625E-4","51.0625","3.71875","29.65625"
"1574200505334","634","0.2265625","-0.7216797","0.059570312","52.46875","8.59375","30.5"
"1574200505334","635","0.1875","-0.6767578","0.07421875","62.0625","20.25","29.78125"
"1574200505335","636","0.41015625","-0.8691406","0.09667969","36.25","17.1875","27.5"
"1574200505336","637","0.2841797","-0.9033203","0.12597656","61.9375","15.65625","34.09375"
"1574200505337","638","0.2265625","-0.7949219","0.17675781","43.3125","14.875","26.46875"
"1574200505337","639","0.22558594","-0.9472656","0.17675781","44.0625","12.75","30.4375"
"1574200505731","640","0.140625","-0.76953125","0.25683594","54.375","18.34375","55.09375"
"1574200505732","641","0.18945312","-0.84472656","0.26757812","37.34375","18.0","36.125"
"1574200505732","642","0.12695312","-0.8183594","0.30859375","48.3125","8.84375","42.15625"
"1574200505732","643","0.11816406","-0.9199219","0.45996094","38.125","10.46875","41.625"
"1574200505732","644","0.083984375","-1.0722656","0.2841797","34.28125","-2.40625","27.09375"
"1574200505733","645","0.1328125","-0.92285156","0.57421875","44.53125","10.0625","39.96875"
"1574200505733","646","-0.053710938","-1.0361328","0.4423828","3.71875","4.5625","15.96875"
"1574200505733","647","0.2578125","-1.0966797","0.4423828","11.875","-8.9375","5.0625"
"1574200505733","648","-0.0703125","-1.0439453","0.5498047","-5.15625","2.0625","9.375"
"1574200505735","649","0.119140625","-1.0625","0.5126953","-23.5625","-10.875","-12.71875"
"1574200506127","650","0.12890625","-1.1572266","0.5058594","-24.6875","-11.5625","-10.8125"
"1574200506128","651","0.140625","-1.1933594","0.46875","-44.9375","-16.625","-29.375"
"1574200506128","652","0.20019531","-1.0839844","0.3623047","-46.21875","-16.96875","-39.1875"
"1574200506128","653","0.18945312","-0.9453125","0.28710938","-46.03125","-23.5","-41.21875"
"1574200506129","654","0.26757812","-0.9970703","0.2578125","-56.34375","-25.78125","-44.5625"
"1574200506129","655","0.2763672","-0.99316406","0.18457031","-49.09375","-24.3125","-47.6875"
"1574200506129","656","0.22949219","-0.9160156","0.19921875","-43.46875","-22.84375","-40.40625"
"1574200506129","657","0.27148438","-0.88183594","0.14355469","-38.90625","-22.90625","-38.90625"
"1574200506130","658","0.30859375","-0.86328125","0.09472656","-35.125","-18.25","-27.0"
"1574200506130","659","0.29785156","-0.8544922","0.09472656","-29.5","-14.0","-19.53125"
"1574200506922","660","0.34765625","-0.87890625","0.041015625","-23.8125","-10.6875","-15.59375"
"1574200506924","661","0.34277344","-0.9316406","0.041015625","-17.21875","-4.65625","-11.6875"
"1574200506924","662","0.3173828","-0.9326172","0.041992188","-12.53125","-4.09375","-14.25"
"1574200506924","663","0.29492188","-0.9091797","0.01953125","-3.1875","6.28125","-18.03125"
"1574200506925","664","0.3359375","-0.8935547","0.0048828125","8.71875","18.65625","-13.6875"
"1574200506925","665","0.3251953","-0.83984375","0.04296875","16.34375","30.0","0.71875"
"1574200506925","666","0.33789062","-0.859375","0.053710938","22.25","28.4375","14.375"
"1574200506925","667","0.36523438","-0.8613281","0.07519531","30.3125","22.875","15.65625"
"1574200506926","668","0.4189453","-0.88378906","0.078125","34.09375","28.78125","25.375"
"1574200506926","669","0.4267578","-0.95996094","0.14648438","55.78125","34.09375","21.21875"
"1574200507120","670","0.28515625","-0.85546875","0.2548828","56.8125","42.84375","28.78125"
"1574200507121","671","0.32128906","-0.7734375","0.24414062","79.28125","38.5625","38.4375"
"1574200507121","672","0.328125","-0.91796875","0.3466797","81.46875","50.46875","32.15625"
"1574200507123","673","0.17382812","-0.8671875","0.4345703","83.46875","56.6875","34.84375"
"1574200507123","674","0.19921875","-0.8017578","0.44140625","91.65625","46.5","43.75"
"1574200507123","675","0.12695312","-0.94140625","0.5878906","80.6875","46.8125","46.0625"
"1574200507123","676","0.07421875","-0.79296875","0.59472656","69.0625","32.53125","44.125"
"1574200507124","677","0.020507812","-0.78222656","0.61816406","64.9375","31.125","45.75"
"1574200507124","678","-0.025390625","-0.72753906","0.6376953","53.8125","27.4375","35.75"
"1574200507124","679","-0.07324219","-0.66503906","0.6923828","57.34375","31.1875","35.375"
"1574200507518","680","-0.07519531","-0.6777344","0.73535156","52.15625","26.03125","31.0"
"1574200507518","681","-0.103515625","-0.61328125","0.6796875","53.375","26.90625","28.125"
"1574200507519","682","-0.11816406","-0.65722656","0.80859375","50.53125","22.625","24.75"
"1574200507519","683","-0.16210938","-0.55371094","0.8261719","40.28125","10.1875","27.03125"
"1574200507519","684","-0.1953125","-0.5996094","0.8408203","41.1875","13.28125","25.6875"
"1574200507520","685","-0.19824219","-0.5576172","0.8222656","26.96875","12.625","18.78125"
"1574200507520","686","-0.18554688","-0.53027344","0.8251953","25.9375","10.71875","14.28125"
"1574200507521","687","-0.19335938","-0.5078125","0.828125","17.6875","8.84375","7.90625"
"1574200507521","688","-0.21386719","-0.4970703","0.82910156","13.71875","8.84375","4.4375"
"1574200507521","689","-0.2265625","-0.48828125","0.8203125","3.34375","6.21875","0.21875"
"1574200507916","690","-0.265625","-0.5","0.8300781","1.375","5.65625","-6.96875"
"1574200507916","691","-0.24707031","-0.5175781","0.8310547","-9.40625","-1.25","-13.03125"
"1574200507917","692","-0.20410156","-0.546875","0.80859375","-22.53125","-2.625","-14.46875"
"1574200507917","693","-0.1640625","-0.5527344","0.81933594","-28.875","-7.8125","-10.28125"
"1574200507917","694","-0.16601562","-0.56640625","0.796875","-28.28125","-7.03125","-3.0625"
"1574200507918","695","-0.1484375","-0.57128906","0.79003906","-32.375","-7.28125","-0.5625"
"1574200507918","696","-0.17578125","-0.6074219","0.81933594","-28.53125","-7.59375","0.71875"
"1574200507918","697","-0.18652344","-0.58984375","0.8027344","-28.34375","-7.03125","2.0"
"1574200507919","698","-0.15332031","-0.6875","0.75","-25.78125","2.375","-7.71875"
"1574200507919","699","-0.09277344","-0.6796875","0.76171875","-27.40625","3.28125","-1.78125"
"1574200508314","700","-0.11035156","-0.66308594","0.7939453","-18.3125","2.5","3.09375"
"1574200508315","701","-0.18457031","-0.70410156","0.8359375","-19.65625","-0.0625","-0.3125"
"1574200508315","702","-0.18066406","-0.7089844","0.85253906","-14.25","3.15625","5.65625"
"1574200508315","703","-0.13183594","-0.69628906","0.7734375","-21.0","5.96875","-2.75"
"1574200508315","704","-0.1328125","-0.73828125","0.7763672","-16.0","0.65625","-3.5"
"1574200508316","705","-0.12890625","-0.69628906","0.7050781","-17.53125","3.03125","-6.5"
"1574200508316","706","-0.111328125","-0.71777344","0.67089844","-31.5","-0.3125","-15.53125"
"1574200508316","707","-0.10644531","-0.734375","0.65234375","-36.8125","-8.875","-18.21875"
"1574200508317","708","-0.13476562","-0.75390625","0.64160156","-44.21875","-11.25","-20.09375"
"1574200508318","709","-0.12207031","-0.75097656","0.62109375","-44.5625","-12.03125","-20.9375"
"1574200508711","710","-0.107421875","-0.7998047","0.6191406","-41.15625","-6.96875","-21.75"
"1574200508712","711","-0.06347656","-0.7949219","0.58496094","-39.25","-8.3125","-27.96875"
"1574200508712","712","-0.018554688","-0.8076172","0.5517578","-43.34375","-3.625","-31.5"
"1574200508712","713","-0.072265625","-0.81640625","0.50683594","-49.5","-7.9375","-33.9375"
"1574200508713","714","-0.087890625","-0.8623047","0.46679688","-58.5625","-0.1875","-33.09375"
"1574200508713","715","-0.07421875","-0.875","0.44921875","-62.875","15.625","-35.53125"
"1574200508713","716","-0.018554688","-0.8574219","0.4453125","-73.8125","33.4375","-28.46875"
"1574200508713","717","0.0234375","-0.9199219","0.3935547","-72.46875","24.09375","-34.6875"
"1574200508714","718","0.018554688","-0.9550781","0.34277344","-74.96875","29.53125","-22.90625"
"1574200508714","719","0.11621094","-0.890625","0.28710938","-67.21875","22.4375","-20.71875"
"1574200509108","720","0.032226562","-0.93847656","0.25097656","-63.90625","17.25","-12.84375"
"1574200509110","721","0.07519531","-0.8955078","0.19921875","-60.0","10.78125","-13.9375"
"1574200509110","722","0.12695312","-0.8847656","0.171875","-55.125","5.96875","-9.0625"
"1574200509111","723","0.09472656","-0.9638672","0.15136719","-45.84375","-5.9375","-13.5"
"1574200509111","724","0.041015625","-1.0019531","0.099609375","-50.25","-6.375","-10.40625"
"1574200509111","725","0.12207031","-0.9716797","0.046875","-48.34375","0.46875","-13.25"
"1574200509112","726","0.1015625","-0.9580078","0.026367188","-46.59375","-3.5625","-12.90625"
"1574200509112","727","0.11425781","-0.90527344","0.0087890625","-40.53125","-4.03125","-18.4375"
"1574200509112","728","0.12597656","-0.921875","-0.030273438","-36.21875","-4.46875","-18.8125"
"1574200509113","729","0.078125","-1.0107422","-0.1015625","-38.46875","-3.3125","-18.5"
"1574200509506","730","0.18261719","-0.94628906","-0.09375","-36.21875","4.0","-23.15625"
"1574200509506","731","0.20019531","-0.9404297","-0.111328125","-26.3125","-3.5","-23.28125"
"1574200509507","732","0.15039062","-0.9707031","-0.14160156","-19.4375","-7.875","-20.53125"
"1574200509507","733","0.15625","-0.9121094","-0.12890625","-18.375","-0.4375","-20.84375"
"1574200509507","734","0.21289062","-0.90625","-0.11621094","-19.90625","-0.0625","-24.6875"
"1574200509508","735","0.22265625","-0.9482422","-0.15820312","-9.53125","-6.25","-24.1875"
"1574200509508","736","0.26171875","-0.9453125","-0.14160156","-6.96875","-7.09375","-28.34375"
"1574200509508","737","0.27246094","-0.90722656","-0.15527344","-2.28125","-8.6875","-29.4375"
"1574200509508","738","0.26464844","-0.9316406","-0.1171875","3.28125","-9.125","-29.9375"
"1574200509509","739","0.2919922","-0.90234375","-0.11816406","3.28125","-14.84375","-31.875"
"1574200509903","740","0.32128906","-0.93359375","-0.12109375","5.71875","-13.5625","-31.5625"
"1574200509903","741","0.3544922","-0.92285156","-0.12792969","3.65625","-12.09375","-34.0"
"1574200509904","742","0.38671875","-0.9189453","-0.11328125","3.15625","-14.3125","-32.5"
"1574200509904","743","0.36914062","-0.9140625","-0.13671875","1.4375","-10.5625","-28.40625"
"1574200509904","744","0.39160156","-0.9189453","-0.15234375","-0.375","-12.28125","-29.0"
"1574200509904","745","0.43164062","-0.88671875","-0.15625","-2.28125","-11.1875","-32.0625"
"1574200509905","746","0.42089844","-0.8691406","-0.19335938","-6.375","-8.4375","-25.40625"
"1574200509905","747","0.40820312","-0.8730469","-0.17773438","-6.375","-13.0625","-22.71875"
"1574200509905","748","0.4375","-0.8828125","-0.18945312","-7.875","-9.96875","-23.5625"
"1574200509905","749","0.47558594","-0.8779297","-0.16699219","-5.3125","-15.21875","-21.875"
"1574200510300","750","0.4423828","-0.87109375","-0.17578125","0.0","-18.21875","-18.9375"
"1574200510301","751","0.42578125","-0.91015625","-0.21679688","-5.4375","-16.875","-20.84375"
"1574200510301","752","0.46875","-0.8701172","-0.21777344","-7.875","-11.3125","-20.84375"
"1574200510301","753","0.48632812","-0.8798828","-0.22265625","-4.96875","-15.875","-17.65625"
"1574200510301","754","0.453125","-0.8564453","-0.2109375","-5.625","-12.78125","-13.6875"
"1574200510302","755","0.5048828","-0.859375","-0.23144531","-4.34375","-9.34375","-14.59375"
"1574200510302","756","0.50683594","-0.84277344","-0.21289062","-0.6875","-6.25","-6.1875"
"1574200510303","757","0.49121094","-0.8408203","-0.22558594","-1.25","-2.6875","-5.5"
"1574200510304","758","0.5253906","-0.8154297","-0.21875","5.1875","-5.625","-3.625"
"1574200510304","759","0.5107422","-0.8183594","-0.23046875","6.40625","-3.5625","-2.6875"
"1574200510700","760","0.49804688","-0.79785156","-0.24707031","9.09375","-5.5","-6.96875"
"1574200510700","761","0.51464844","-0.83203125","-0.23828125","7.5625","-7.21875","-11.25"
"1574200510701","762","0.53808594","-0.8154297","-0.24023438","12.1875","-8.5625","-17.59375"
"1574200510701","763","0.49902344","-0.7753906","-0.23046875","15.0","-10.6875","-16.5625"
"1574200510701","764","0.5517578","-0.828125","-0.21875","4.8125","-9.125","-21.5"
"1574200510701","765","0.5751953","-0.82910156","-0.2626953","10.78125","-10.9375","-21.125"
"1574200510702","766","0.4921875","-0.7939453","-0.20019531","11.65625","-3.75","-11.78125"
"1574200510702","767","0.5058594","-0.80566406","-0.22753906","9.1875","-0.1875","-8.875"
"1574200510702","768","0.5058594","-0.8261719","-0.20898438","16.84375","11.71875","0.53125"
"1574200510704","769","0.47558594","-0.765625","-0.16894531","16.40625","17.4375","10.71875"
"1574200511095","770","0.5341797","-0.7919922","-0.15234375","16.15625","14.21875","10.59375"
"1574200511096","771","0.47265625","-0.7607422","-0.15332031","26.15625","18.0625","14.9375"
"1574200511096","772","0.47460938","-0.80859375","-0.09765625","23.84375","20.375","21.96875"
"1574200511097","773","0.5097656","-0.7832031","-0.103515625","38.6875","24.40625","26.90625"
"1574200511097","774","0.36621094","-0.78515625","-0.061523438","35.375","24.40625","32.28125"
"1574200511097","775","0.44726562","-0.75878906","-0.02734375","34.03125","25.625","29.40625"
"1574200511097","776","0.46289062","-0.7871094","-0.018554688","45.40625","22.375","28.125"
"1574200511098","777","0.4326172","-0.86035156","0.0048828125","27.875","11.71875","22.25"
"1574200511098","778","0.5175781","-0.80078125","0.018554688","29.09375","11.53125","6.03125"
"1574200511098","779","0.47851562","-0.81152344","-0.02734375","39.90625","-1.96875","16.15625"
"1574200511492","780","0.31640625","-0.8876953","0.09082031","15.71875","5.65625","23.375"
"1574200511493","781","0.42773438","-0.86035156","0.046875","35.4375","8.03125","24.875"
"1574200511494","782","0.39941406","-0.98535156","0.12207031","18.96875","12.625","27.5625"
"1574200511494","783","0.39453125","-0.85839844","0.09863281","32.46875","9.375","17.875"
"1574200511494","784","0.41796875","-1.0146484","0.1640625","9.5","2.96875","17.625"
"1574200511495","785","0.38964844","-0.94140625","0.09277344","24.9375","6.09375","14.28125"
"1574200511495","786","0.2998047","-0.9042969","0.18554688","13.0","1.09375","20.8125"
"1574200511495","787","0.34179688","-1.0351562","0.18359375","-7.9375","1.8125","16.65625"
"1574200511495","788","0.40820312","-0.9765625","0.12207031","12.875","-0.8125","11.28125"
"1574200511496","789","0.26757812","-0.92578125","0.21972656","-8.75","-7.09375","16.40625"
"1574200511890","790","0.27539062","-0.96191406","0.13085938","-4.96875","-4.46875","6.03125"
"1574200511891","791","0.24414062","-0.9638672","0.17871094","0.0","0.40625","13.0"
"1574200511891","792","0.24511719","-1.0351562","0.21582031","-20.84375","2.59375","4.125"
"1574200511892","793","0.359375","-1.0078125","0.14160156","-7.71875","2.0625","-14.0"
"1574200511893","794","0.390625","-1.03125","0.14746094","-31.375","-1.1875","-22.90625"
"1574200511893","795","0.3828125","-0.99316406","0.09667969","-32.5","-8.3125","-39.4375"
"1574200511893","796","0.3671875","-0.95214844","0.034179688","-43.90625","-11.96875","-36.46875"
"1574200511894","797","0.4111328","-0.97265625","0.0078125","-45.375","-6.0625","-42.8125"
"1574200511894","798","0.52246094","-1.015625","-0.03125","-50.4375","-13.5","-42.96875"
"1574200511894","799","0.48828125","-0.97265625","-0.045898438","-45.90625","-10.75","-36.75"
"1574200512289","800","0.55371094","-0.87890625","-0.111328125","-44.8125","-24.25","-31.375"
"1574200512289","801","0.46777344","-0.92871094","-0.09863281","-42.125","-23.4375","-20.34375"
"1574200512289","802","0.47070312","-0.8417969","-0.1328125","-31.6875","-14.96875","-14.65625"
"1574200512290","803","0.50683594","-0.80566406","-0.13378906","-17.34375","-11.71875","-7.8125"
"1574200512290","804","0.49804688","-0.85253906","-0.15625","-19.71875","-9.59375","0.40625"
"1574200512292","805","0.5654297","-0.8671875","-0.19433594","-13.8125","-9.65625","0.65625"
"1574200512292","806","0.5517578","-0.83691406","-0.18554688","-4.40625","-9.71875","2.65625"
"1574200512292","807","0.47753906","-0.7939453","-0.24609375","-2.625","-7.46875","2.78125"
"1574200512293","808","0.4609375","-0.7939453","-0.20117188","-2.46875","7.1875","4.125"
"1574200512293","809","0.39160156","-0.8378906","-0.18847656","7.125","27.28125","4.875"
"1574200512885","810","0.44628906","-0.86621094","-0.107421875","7.5","16.40625","0.03125"
"1574200512886","811","0.55859375","-0.8486328","-0.18945312","15.1875","3.21875","-3.75"
"1574200512886","812","0.5644531","-0.85253906","-0.19140625","7.5","1.21875","-4.03125"
"1574200512888","813","0.5673828","-0.8925781","-0.14941406","9.09375","-3.96875","0.46875"
"1574200512889","814","0.5107422","-0.8701172","-0.13769531","8.40625","-5.3125","4.0"
"1574200512889","815","0.47070312","-0.8701172","-0.15917969","6.625","-4.09375","8.71875"
"1574200512889","816","0.42578125","-0.8515625","-0.13378906","4.625","-7.53125","7.125"
"1574200512891","817","0.40625","-0.85058594","-0.11621094","2.3125","-1.125","8.03125"
"1574200512891","818","0.38964844","-0.8808594","-0.10546875","-0.125","3.84375","1.375"
"1574200512892","819","0.40722656","-0.8857422","-0.109375","-4.46875","5.1875","-2.40625"
"1574200513084","820","0.43554688","-0.88378906","-0.13671875","-8.4375","-0.1875","-1.34375"
"1574200513084","821","0.44335938","-0.8886719","-0.1171875","-0.125","0.84375","2.0625"
"1574200513084","822","0.40429688","-0.8935547","-0.119140625","0.84375","5.78125","5.40625"
"1574200513085","823","0.38964844","-0.87597656","-0.11621094","7.625","7.5625","9.5"
"1574200513085","824","0.45996094","-0.8496094","-0.16601562","10.3125","-1.0625","13.15625"
"1574200513085","825","0.5107422","-0.9238281","-0.14648438","15.96875","8.46875","14.625"
"1574200513085","826","0.4482422","-0.9160156","-0.103515625","11.71875","21.09375","9.03125"
"1574200513086","827","0.42773438","-0.84765625","-0.08105469","18.34375","20.125","4.25"
"1574200513086","828","0.3720703","-0.82714844","-0.14550781","17.875","22.03125","6.6875"
"1574200513086","829","0.35351562","-0.9248047","-0.041015625","1.625","29.34375","7.8125"
"1574200513480","830","0.37402344","-0.96484375","0.037109375","-13.625","10.3125","-7.28125"
"1574200513481","831","0.39160156","-0.9628906","9.765625E-4","-4.59375","4.3125","-6.59375"
"1574200513481","832","0.45898438","-1.0078125","-0.072265625","13.0","7.0","1.3125"
"1574200513481","833","0.46484375","-0.9482422","-0.0703125","9.8125","6.8125","-0.6875"
"1574200513481","834","0.42578125","-0.88964844","-0.06347656","-1.3125","1.5","-2.40625"
"1574200513482","835","0.41210938","-0.87890625","-0.040039062","-11.5","-3.875","-4.78125"
"1574200513482","836","0.37304688","-0.82714844","-0.06933594","-9.28125","-2.875","-1.34375"
"1574200513482","837","0.39257812","-0.8544922","-0.024414062","15.0625","10.71875","4.4375"
"1574200513482","838","0.39453125","-0.8496094","-0.020507812","27.75","15.3125","9.9375"
"1574200513483","839","0.42871094","-0.9033203","-0.021484375","42.59375","22.3125","17.0"
"1574200513878","840","0.4189453","-0.88671875","-0.0048828125","45.03125","18.53125","21.78125"
"1574200513880","841","0.4169922","-0.87109375","0.00390625","48.1875","20.3125","24.9375"
"1574200513881","842","0.37597656","-0.8964844","0.057617188","48.9375","19.6875","23.46875"
"1574200513881","843","0.35351562","-0.9189453","0.09082031","54.125","29.90625","24.8125"
"1574200513882","844","0.30859375","-0.9238281","0.13671875","56.375","39.46875","21.40625"
"1574200513882","845","0.296875","-0.9296875","0.20605469","60.59375","45.875","26.46875"
"1574200513882","846","0.2685547","-0.8847656","0.26660156","63.78125","45.09375","32.75"
"1574200513883","847","0.23144531","-0.85839844","0.3330078","71.21875","47.96875","39.78125"
"1574200513883","848","0.15917969","-0.8613281","0.37597656","83.0","47.90625","43.0"
"1574200513883","849","0.12988281","-0.8808594","0.4638672","78.125","47.53125","43.625"
"1574200514276","850","0.076171875","-0.83984375","0.53125","83.0625","43.625","39.0625"
"1574200514277","851","0.059570312","-0.8144531","0.5644531","81.78125","42.46875","37.34375"
"1574200514277","852","0.0029296875","-0.76464844","0.625","73.40625","38.1875","34.53125"
"1574200514278","853","-0.021484375","-0.7392578","0.6767578","80.625","38.9375","36.65625"
"1574200514279","854","-0.08691406","-0.71875","0.7314453","62.53125","33.0","33.125"
"1574200514279","855","-0.07128906","-0.66308594","0.69433594","64.0","31.1875","32.5625"
"1574200514280","856","-0.1328125","-0.65527344","0.7998047","48.8125","27.625","29.15625"
"1574200514280","857","-0.1328125","-0.5703125","0.7314453","46.125","22.375","27.6875"
"1574200514280","858","-0.13378906","-0.5605469","0.79785156","41.90625","20.6875","25.875"
"1574200514280","859","-0.14453125","-0.54785156","0.7861328","34.59375","11.03125","18.1875"
"1574200515267","860","-0.19238281","-0.52441406","0.82421875","28.0625","10.84375","15.5"
"1574200515268","861","-0.18164062","-0.5","0.83691406","19.53125","7.5","9.03125"
"1574200515268","862","-0.19726562","-0.50097656","0.8359375","23.0625","7.125","9.6875"
"1574200515269","863","-0.21972656","-0.4638672","0.8417969","18.40625","6.5625","6.8125"
"1574200515269","864","-0.20214844","-0.49023438","0.84765625","13.03125","5.0","6.15625"
"1574200515271","865","-0.21484375","-0.46972656","0.86816406","10.46875","4.6875","4.6875"
"1574200515271","866","-0.20507812","-0.47070312","0.8466797","4.125","3.71875","2.5625"
"1574200515272","867","-0.22265625","-0.46191406","0.83984375","0.0","2.71875","1.21875"
"1574200515272","868","-0.22070312","-0.43554688","0.8535156","-0.1875","-2.03125","4.75"
"1574200515272","869","-0.19824219","-0.48828125","0.79785156","-1.71875","0.59375","7.0"
"1574200515465","870","-0.19824219","-0.4375","0.8251953","2.0","1.03125","12.0625"
"1574200515465","871","-0.19238281","-0.47070312","0.8203125","8.28125","3.03125","14.21875"
"1574200515466","872","-0.2109375","-0.44726562","0.82714844","16.15625","9.375","16.9375"
"1574200515466","873","-0.21875","-0.45117188","0.8984375","21.78125","12.5","21.15625"
"1574200515466","874","-0.2626953","-0.45898438","0.8798828","27.8125","13.96875","26.53125"
"1574200515467","875","-0.30664062","-0.3935547","0.99902344","48.375","18.53125","34.53125"
"1574200515467","876","-0.27929688","-0.4033203","0.93847656","39.78125","16.84375","26.90625"
"1574200515469","877","-0.3330078","-0.3701172","0.9951172","26.65625","15.0","24.8125"
"1574200515469","878","-0.30566406","-0.34570312","0.9501953","17.0","4.6875","15.71875"
"1574200515469","879","-0.3125","-0.36914062","0.95703125","14.15625","7.5","13.71875"
"1574200515664","880","-0.2841797","-0.30078125","0.9091797","-7.28125","-2.40625","4.0"
"1574200515665","881","-0.2939453","-0.328125","0.92578125","-11.5","-3.6875","-0.6875"
"1574200515665","882","-0.34179688","-0.2685547","0.9238281","-13.25","-3.0625","0.28125"
"1574200515665","883","-0.27441406","-0.3076172","0.86816406","-13.875","-7.34375","-7.28125"
"1574200515666","884","-0.29003906","-0.31835938","0.85253906","-3.4375","-0.3125","-1.78125"
"1574200515666","885","-0.3076172","-0.3310547","0.88183594","-7.71875","0.78125","-7.65625"
"1574200515666","886","-0.31640625","-0.32714844","0.8964844","-8.5","6.21875","-6.0"
"1574200515667","887","-0.31445312","-0.3515625","0.9033203","-14.71875","6.09375","-8.3125"
"1574200515667","888","-0.30273438","-0.3388672","0.87402344","-19.375","4.625","-11.3125"
"1574200515668","889","-0.31054688","-0.3720703","0.86816406","-25.40625","3.15625","-14.25"
"1574200516062","890","-0.30664062","-0.37890625","0.8613281","-31.75","3.34375","-18.09375"
"1574200516062","891","-0.29785156","-0.44140625","0.8378906","-37.4375","-0.875","-20.21875"
"1574200516063","892","-0.24121094","-0.421875","0.8222656","-50.5","-7.53125","-24.125"
"1574200516063","893","-0.24707031","-0.48339844","0.8417969","-57.5625","-14.78125","-23.625"
"1574200516064","894","-0.25195312","-0.52441406","0.78515625","-65.8125","-19.53125","-29.25"
"1574200516064","895","-0.21191406","-0.53808594","0.7441406","-67.59375","-19.5","-30.59375"
"1574200516064","896","-0.20703125","-0.60058594","0.73046875","-78.03125","-25.71875","-44.09375"
"1574200516064","897","-0.16113281","-0.6503906","0.6689453","-88.40625","-26.3125","-49.15625"
"1574200516065","898","-0.11621094","-0.6074219","0.67285156","-97.78125","-26.3125","-67.28125"
"1574200516065","899","-0.06542969","-0.7060547","0.6279297","-81.5","-18.03125","-67.75"
"1574200516264","900","-0.07128906","-0.7685547","0.5878906","-79.53125","-15.53125","-51.78125"
"1574200516266","901","-0.009765625","-0.7597656","0.5390625","-86.1875","-10.40625","-51.53125"
"1574200516266","902","0.068359375","-0.8095703","0.44628906","-85.03125","-10.28125","-59.34375"
"1574200516267","903","0.10546875","-0.86035156","0.41601562","-86.5625","-12.59375","-57.15625"
"1574200516267","904","0.140625","-0.8691406","0.36621094","-90.78125","-13.0625","-61.40625"
"1574200516267","905","0.18945312","-0.9189453","0.2939453","-95.90625","-18.15625","-63.0625"
"1574200516268","906","0.20410156","-0.9238281","0.27929688","-96.8125","-17.96875","-57.4375"
"1574200516268","907","0.26953125","-0.92578125","0.16796875","-101.28125","-18.875","-52.625"
"1574200516268","908","0.31152344","-0.9248047","0.12402344","-98.96875","-19.90625","-49.625"
"1574200516268","909","0.32910156","-0.8808594","0.06738281","-98.46875","-16.8125","-43.09375"
"1574200516662","910","0.32226562","-0.82421875","0.0087890625","-91.9375","-14.40625","-37.90625"
"1574200516662","911","0.3359375","-0.8779297","-0.028320312","-88.15625","-13.75","-36.5"
"1574200516663","912","0.3515625","-0.88183594","-0.06738281","-53.65625","-9.71875","-32.0"
"1574200516664","913","0.3564453","-0.8935547","-0.10839844","-43.78125","-11.6875","-30.90625"
"1574200516664","914","0.3935547","-0.796875","-0.13085938","-42.1875","-11.5625","-33.40625"
"1574200516664","915","0.44335938","-0.83203125","-0.18066406","-38.65625","-11.96875","-29.6875"
"1574200516665","916","0.4404297","-0.86035156","-0.20898438","-30.53125","-3.8125","-30.15625"
"1574200516665","917","0.43652344","-0.86328125","-0.2265625","-16.1875","-11.25","-25.59375"
"1574200516665","918","0.43164062","-0.84375","-0.23730469","-8.375","-7.15625","-19.71875"
"1574200516665","919","0.4814453","-0.8125","-0.2529297","-6.5","-3.5","-16.25"
"1574200517256","920","0.4892578","-0.8300781","-0.26953125","-1.78125","-2.59375","-12.15625"
"1574200517257","921","0.49414062","-0.82128906","-0.27539062","0.15625","-2.21875","-9.34375"
"1574200517257","922","0.50878906","-0.8359375","-0.26171875","2.1875","0.15625","-6.3125"
"1574200517258","923","0.50390625","-0.8251953","-0.2685547","6.34375","0.09375","-2.8125"
"1574200517258","924","0.4970703","-0.8261719","-0.27148438","5.34375","0.53125","-1.65625"
"1574200517259","925","0.4970703","-0.8310547","-0.25683594","7.8125","3.65625","-0.625"
"1574200517260","926","0.50097656","-0.82714844","-0.2548828","9.125","3.78125","0.53125"
"1574200517260","927","0.49121094","-0.8359375","-0.24902344","15.4375","6.46875","3.21875"
"1574200517260","928","0.48828125","-0.8300781","-0.21582031","15.4375","6.21875","5.53125"
"1574200517260","929","0.46972656","-0.8203125","-0.20898438","20.1875","8.71875","9.125"
"1574200517455","930","0.4609375","-0.8486328","-0.17871094","22.4375","12.5","13.71875"
"1574200517455","931","0.46191406","-0.8339844","-0.14648438","31.53125","11.71875","17.0625"
"1574200517455","932","0.4580078","-0.8173828","-0.14746094","39.78125","9.6875","20.5625"
"1574200517456","933","0.42871094","-0.8339844","-0.119140625","46.1875","13.96875","19.8125"
"1574200517456","934","0.43652344","-0.8203125","-0.107421875","41.1875","14.09375","19.875"
"1574200517456","935","0.40625","-0.89941406","-0.0703125","35.5625","19.53125","18.1875"
"1574200517457","936","0.39941406","-0.84375","-0.028320312","45.34375","20.6875","19.21875"
"1574200517457","937","0.37597656","-0.7871094","0.009765625","46.375","16.09375","24.59375"
"1574200517457","938","0.34570312","-0.7890625","0.024414062","46.90625","15.625","26.15625"
"1574200517458","939","0.30664062","-0.76171875","0.051757812","47.84375","18.34375","30.625"
"1574200517854","940","0.32714844","-0.8886719","0.078125","35.25","22.9375","27.03125"
"1574200517854","941","0.2734375","-0.7783203","0.12402344","51.875","23.0625","36.59375"
"1574200517854","942","0.296875","-0.8642578","0.171875","42.53125","18.0","37.34375"
"1574200517855","943","0.24023438","-0.8486328","0.1875","52.65625","20.25","31.1875"
"1574200517855","944","0.28808594","-0.7675781","0.22460938","53.21875","8.03125","33.6875"
"1574200517855","945","0.14550781","-0.953125","0.26171875","33.1875","8.46875","29.84375"
"1574200517855","946","0.2265625","-0.859375","0.2626953","51.1875","9.8125","38.3125"
"1574200517856","947","0.17285156","-0.9628906","0.33203125","13.28125","12.375","31.28125"
"1574200517856","948","0.17382812","-0.9169922","0.29101562","35.3125","4.875","29.03125"
"1574200517857","949","0.14355469","-0.9589844","0.41015625","9.25","8.34375","33.96875"
"1574200518646","950","0.11621094","-1.0136719","0.35351562","17.0625","3.46875","16.28125"
"1574200518647","951","0.19335938","-0.8779297","0.4111328","19.40625","-3.1875","26.09375"
"1574200518647","952","0.043945312","-1.0185547","0.44726562","-5.03125","-5.3125","12.5"
"1574200518647","953","0.15429688","-1.0097656","0.38867188","6.9375","-12.84375","1.625"
"1574200518648","954","0.028320312","-1.0722656","0.48632812","-20.71875","-6.53125","3.78125"
"1574200518648","955","0.16308594","-1.1171875","0.43945312","-19.375","-17.78125","-13.03125"
"1574200518648","956","0.13671875","-1.1767578","0.4423828","-33.34375","-14.25","-12.90625"
"1574200518649","957","0.18359375","-1.1386719","0.36328125","-38.21875","-16.4375","-34.25"
"1574200518649","958","0.26660156","-0.99121094","0.25878906","-42.6875","-22.0625","-42.8125"
"1574200518649","959","0.24414062","-1.0058594","0.25976562","-59.09375","-24.90625","-44.5"
"1574200518844","960","0.2734375","-1.0048828","0.17773438","-58.5625","-25.03125","-53.125"
"1574200518846","961","0.28125","-0.9355469","0.16796875","-58.59375","-22.46875","-47.5"
"1574200518847","962","0.27929688","-0.9199219","0.1328125","-57.4375","-19.1875","-42.4375"
"1574200518847","963","0.34375","-0.9042969","0.07128906","-46.71875","-19.65625","-40.375"
"1574200518848","964","0.3388672","-0.89746094","0.06542969","-40.84375","-14.59375","-30.09375"
"1574200518848","965","0.375","-0.93359375","0.040039062","-37.6875","-14.125","-23.9375"
"1574200518848","966","0.39941406","-0.9375","0.009765625","-29.25","-8.8125","-18.4375"
"1574200518849","967","0.4248047","-0.89160156","-0.028320312","-24.96875","-8.3125","-18.625"
"1574200518849","968","0.43847656","-0.84765625","-0.052734375","-20.46875","-6.96875","-13.3125"
"1574200518849","969","0.4248047","-0.85253906","-0.07519531","-14.0","-1.34375","-9.28125"
"1574200519244","970","0.42773438","-0.86816406","-0.09765625","-10.4375","1.375","-8.5"
"1574200519245","971","0.44628906","-0.8564453","-0.111328125","-9.21875","-0.0625","-5.8125"
"1574200519245","972","0.47265625","-0.84765625","-0.1171875","-5.9375","0.34375","-3.4375"
"1574200519246","973","0.46484375","-0.86328125","-0.11328125","-5.4375","-0.5625","-3.375"
"1574200519247","974","0.4609375","-0.8720703","-0.125","-1.0625","-0.5625","-4.09375"
"1574200519247","975","0.48535156","-0.8691406","-0.123046875","0.40625","1.15625","-2.9375"
"1574200519247","976","0.46679688","-0.88964844","-0.09667969","0.90625","1.375","-2.53125"
"1574200519247","977","0.44726562","-0.87890625","-0.10546875","3.21875","0.65625","-4.15625"
"1574200519248","978","0.43945312","-0.8828125","-0.09082031","1.03125","2.0","-4.59375"
"1574200519248","979","0.4296875","-0.9169922","-0.060546875","-5.03125","-5.375","-5.3125"
"1574200519442","980","0.43847656","-0.85546875","-0.07324219","0.34375","-0.4375","-2.34375"
"1574200519443","981","0.47851562","-0.9169922","-0.08984375","-0.3125","2.78125","-2.875"
"1574200519443","982","0.50683594","-0.88671875","-0.103515625","2.125","4.1875","-0.8125"
"1574200519443","983","0.47753906","-0.78515625","-0.12207031","19.875","15.0","15.0625"
"1574200519443","984","0.42382812","-0.8574219","-0.111328125","28.375","17.5625","30.1875"
"1574200519445","985","0.3955078","-0.8720703","-0.049804688","50.59375","29.28125","38.0625"
"1574200519447","986","0.34375","-0.91503906","-0.005859375","50.8125","43.1875","45.46875"
"1574200519447","987","0.3046875","-0.9746094","0.10449219","49.65625","50.875","42.28125"
"1574200519447","988","0.16796875","-0.9042969","0.18261719","27.4375","49.0625","30.375"
"1574200519447","989","0.28125","-0.8857422","0.26660156","10.71875","24.46875","22.875"
"1574200519841","990","0.32128906","-0.96191406","0.18164062","25.25","4.75","35.09375"
"1574200519842","991","0.19628906","-1.0146484","0.17480469","28.84375","-4.09375","35.1875"
"1574200519842","992","0.2607422","-0.89746094","0.18359375","41.4375","6.5625","30.6875"
"1574200519842","993","0.21875","-0.9316406","0.19824219","30.8125","2.5625","32.75"
"1574200519842","994","0.125","-0.921875","0.24023438","32.34375","12.375","18.0625"
"1574200519843","995","0.16699219","-0.79296875","0.24316406","51.4375","23.96875","25.75"
"1574200519843","996","0.17089844","-0.91796875","0.2939453","46.0625","11.8125","32.9375"
"1574200519844","997","0.12792969","-0.9824219","0.35839844","57.34375","10.90625","23.25"
"1574200519845","998","0.12792969","-0.9082031","0.3984375","59.5625","19.15625","32.8125"
"1574200519845","999","0.123046875","-0.94921875","0.4609375","54.25","16.53125","24.34375"
"1574200520240","1000","0.08105469","-0.8378906","0.41503906","55.21875","13.84375","15.5"
"1574200520240","1001","0.078125","-0.83691406","0.4296875","59.96875","17.75","14.75"
"1574200520241","1002","0.06640625","-0.875","0.5126953","44.84375","10.0625","18.84375"
"1574200520241","1003","0.032226562","-0.78027344","0.57421875","49.78125","15.96875","28.71875"
"1574200520241","1004","-0.0234375","-0.8105469","0.6220703","61.75","19.625","31.1875"
"1574200520241","1005","-0.06542969","-0.8466797","0.69628906","46.3125","17.875","26.03125"
"1574200520242","1006","-0.04296875","-0.78027344","0.6933594","26.59375","13.0","18.0625"
"1574200520242","1007","-0.08300781","-0.66796875","0.70703125","0.71875","-1.71875","5.21875"
"1574200520242","1008","-0.05859375","-0.5371094","0.54296875","37.03125","10.84375","19.15625"
"1574200520244","1009","-0.083984375","-0.7080078","0.62402344","67.1875","22.3125","29.84375"
"1574200520637","1010","-0.15039062","-0.6777344","0.74902344","49.59375","18.84375","24.71875"
"1574200520638","1011","-0.16503906","-0.6875","0.76464844","54.25","20.4375","26.03125"
"1574200520638","1012","-0.18554688","-0.6503906","0.7578125","38.9375","17.625","18.21875"
"1574200520638","1013","-0.18847656","-0.62109375","0.7841797","26.46875","16.65625","14.09375"
"1574200520639","1014","-0.18359375","-0.58496094","0.7988281","20.375","15.0625","12.75"
"1574200520639","1015","-0.20117188","-0.57714844","0.7910156","15.1875","12.0625","7.5"
"1574200520639","1016","-0.17382812","-0.55371094","0.78027344","6.8125","5.40625","6.15625"
"1574200520639","1017","-0.22265625","-0.5605469","0.79589844","2.96875","4.0","5.78125"
"1574200520640","1018","-0.18945312","-0.5419922","0.79296875","-5.75","-2.09375","0.0"
"1574200520640","1019","-0.21875","-0.55078125","0.7841797","-4.34375","-0.0625","0.46875"
"1574200521034","1020","-0.1953125","-0.546875","0.79296875","-5.5","-2.09375","-1.40625"
"1574200521036","1021","-0.19726562","-0.5595703","0.78808594","-3.875","-1.1875","2.125"
"1574200521036","1022","-0.19433594","-0.57421875","0.7832031","0.78125","-1.65625","3.03125"
"1574200521037","1023","-0.16894531","-0.5839844","0.75683594","-8.875","-7.53125","2.65625"
"1574200521037","1024","-0.19921875","-0.5107422","0.78222656","2.71875","-6.1875","7.25"
"1574200521037","1025","-0.12792969","-0.54296875","0.78222656","22.375","-0.4375","18.71875"
"1574200521038","1026","-0.20117188","-0.5126953","0.81347656","24.15625","3.78125","20.6875"
"1574200521038","1027","-0.20507812","-0.52441406","0.81152344","35.75","6.5625","23.0625"
"1574200521038","1028","-0.24316406","-0.5332031","0.8232422","35.03125","8.84375","20.125"
"1574200521039","1029","-0.22949219","-0.49414062","0.8251953","21.59375","11.71875","9.03125"
"1574200521431","1030","-0.25097656","-0.47851562","0.8544922","25.75","14.625","12.5"
"1574200521432","1031","-0.24414062","-0.49316406","0.8652344","22.125","13.0","10.59375"
"1574200521433","1032","-0.26953125","-0.47070312","0.87402344","13.71875","12.25","11.71875"
"1574200521433","1033","-0.29492188","-0.43847656","0.8769531","7.6875","8.03125","7.6875"
"1574200521434","1034","-0.2734375","-0.4423828","0.8623047","1.8125","5.78125","4.9375"
"1574200521434","1035","-0.26464844","-0.43164062","0.8496094","-6.375","2.65625","0.21875"
"1574200521434","1036","-0.2763672","-0.3984375","0.84375","-9.71875","-0.9375","-4.46875"
"1574200521435","1037","-0.29589844","-0.44433594","0.8496094","-17.53125","0.09375","-9.0625"
"1574200521435","1038","-0.28222656","-0.41015625","0.8261719","-21.75","3.84375","-8.375"
"1574200521435","1039","-0.2890625","-0.42773438","0.8417969","-15.46875","13.34375","-6.125"
"1574200521829","1040","-0.25585938","-0.42285156","0.83203125","-6.71875","11.75","-5.6875"
"1574200521829","1041","-0.2939453","-0.44140625","0.8613281","3.53125","14.5","-2.625"
"1574200521829","1042","-0.28808594","-0.50097656","0.8828125","4.9375","12.9375","-2.34375"
"1574200521830","1043","-0.28125","-0.484375","0.84765625","-0.875","6.5","-3.625"
"1574200521830","1044","-0.2705078","-0.50683594","0.8652344","-9.65625","2.90625","-4.59375"
"1574200521831","1045","-0.28808594","-0.47460938","0.8388672","-16.1875","-3.125","-8.5"
"1574200521832","1046","-0.24804688","-0.5058594","0.8125","-9.78125","-1.3125","-6.4375"
"1574200521832","1047","-0.27539062","-0.5263672","0.84277344","-16.4375","-0.5625","-6.0"
"1574200521832","1048","-0.28515625","-0.5410156","0.8486328","-19.71875","0.0","-6.84375"
"1574200521833","1049","-0.26367188","-0.54785156","0.8330078","-26.625","-0.625","-6.90625"
"1574200522226","1050","-0.27246094","-0.57128906","0.82421875","-25.84375","-3.4375","-7.875"
"1574200522226","1051","-0.24316406","-0.5732422","0.8066406","-29.8125","-7.28125","-10.5625"
"1574200522227","1052","-0.2265625","-0.59375","0.7753906","-32.59375","-10.625","-15.28125"
"1574200522227","1053","-0.22363281","-0.6035156","0.7402344","-37.125","-14.1875","-19.0625"
"1574200522227","1054","-0.17285156","-0.62597656","0.7294922","-43.84375","-15.03125","-23.5"
"1574200522227","1055","-0.19726562","-0.6435547","0.6972656","-60.625","-17.28125","-34.3125"
"1574200522228","1056","-0.12988281","-0.6621094","0.65234375","-66.84375","-15.59375","-39.0625"
"1574200522229","1057","-0.16503906","-0.734375","0.6464844","-77.28125","-13.25","-39.875"
"1574200522230","1058","-0.12207031","-0.70703125","0.5810547","-87.25","-14.25","-50.5625"
"1574200522230","1059","-0.056640625","-0.76953125","0.52441406","-102.625","-18.875","-48.59375"
"1574200522819","1060","-0.043945312","-0.7998047","0.4873047","-104.03125","-26.625","-53.125"
"1574200522820","1061","0.045898438","-0.8222656","0.4326172","-98.53125","-17.65625","-58.1875"
"1574200522820","1062","0.055664062","-0.83691406","0.3701172","-92.0","-19.59375","-50.78125"
"1574200522820","1063","0.056640625","-0.87109375","0.33203125","-91.8125","-23.21875","-48.84375"
"1574200522821","1064","0.0625","-0.9296875","0.27929688","-100.90625","-16.75","-48.90625"
"1574200522821","1065","0.15722656","-0.94433594","0.19628906","-83.15625","-4.96875","-48.125"
"1574200522821","1066","0.19140625","-0.8925781","0.15722656","-84.90625","-4.78125","-46.34375"
"1574200522821","1067","0.22070312","-0.92089844","0.10058594","-81.75","-6.0","-47.5"
"1574200522822","1068","0.23632812","-0.9375","0.033203125","-80.9375","-3.6875","-47.625"
"1574200522823","1069","0.3017578","-0.9003906","-0.0068359375","-75.34375","-3.375","-53.53125"
"1574200523020","1070","0.3154297","-0.8574219","-0.033203125","-74.1875","9.1875","-48.65625"
"1574200523020","1071","0.30859375","-0.8515625","-0.078125","-54.59375","0.78125","-41.65625"
"1574200523021","1072","0.2783203","-0.9189453","-0.08984375","-41.46875","-5.5625","-33.28125"
"1574200523021","1073","0.33691406","-0.9375","-0.14160156","-35.65625","-2.53125","-31.15625"
"1574200523021","1074","0.3984375","-0.84765625","-0.14160156","-28.15625","-3.1875","-28.65625"
"1574200523022","1075","0.39160156","-0.88378906","-0.17871094","-23.8125","-1.46875","-25.09375"
"1574200523022","1076","0.42773438","-0.8935547","-0.1796875","-20.21875","2.78125","-22.34375"
"1574200523022","1077","0.38671875","-0.8925781","-0.18164062","-16.8125","1.6875","-16.3125"
"1574200523022","1078","0.40527344","-0.8339844","-0.18554688","-12.40625","5.34375","-12.96875"
"1574200523023","1079","0.43066406","-0.8671875","-0.22753906","-9.78125","4.25","-7.59375"
"1574200523419","1080","0.44628906","-0.87402344","-0.21386719","-6.84375","6.15625","-5.5625"
"1574200523420","1081","0.4423828","-0.8730469","-0.20019531","-1.34375","6.8125","-5.03125"
"1574200523421","1082","0.4560547","-0.86621094","-0.21386719","1.21875","6.46875","-2.09375"
"1574200523421","1083","0.45410156","-0.85253906","-0.21484375","5.53125","6.8125","0.40625"
"1574200523422","1084","0.43847656","-0.85253906","-0.21972656","8.90625","7.25","2.71875"
"1574200523422","1085","0.42285156","-0.85839844","-0.21386719","12.375","8.46875","3.71875"
"1574200523422","1086","0.4794922","-0.90625","-0.20703125","8.03125","11.8125","5.34375"
"1574200523423","1087","0.4580078","-0.87402344","-0.19042969","16.40625","5.90625","6.875"
"1574200523423","1088","0.40429688","-0.875","-0.18164062","21.96875","4.9375","10.71875"
"1574200523423","1089","0.40527344","-0.8769531","-0.13769531","29.53125","6.03125","14.15625"
"1574200523817","1090","0.3955078","-0.8125","-0.115234375","35.03125","9.8125","20.0"
"1574200523818","1091","0.3720703","-0.8535156","-0.08691406","49.125","4.875","30.75"
"1574200523818","1092","0.30566406","-0.7841797","-0.037109375","60.96875","3.09375","41.84375"
"1574200523819","1093","0.24609375","-0.8125","0.032226562","65.53125","2.0","43.5"
"1574200523820","1094","0.24316406","-0.7910156","0.0390625","81.40625","31.65625","57.28125"
"1574200523820","1095","0.22851562","-0.71875","0.07910156","82.03125","27.15625","57.84375"
"1574200523820","1096","0.1875","-0.75097656","0.111328125","62.96875","29.78125","52.78125"
"1574200523821","1097","0.1640625","-0.82128906","0.17578125","78.65625","26.40625","48.625"
"1574200523821","1098","0.11621094","-0.8886719","0.26464844","62.25","25.875","55.65625"
"1574200523821","1099","0.21972656","-0.84375","0.24121094","89.40625","15.0625","46.0625"
"1574200524215","1100","0.08300781","-0.921875","0.32226562","63.9375","18.53125","43.0625"
"1574200524215","1101","0.072265625","-0.8828125","0.40039062","59.75","16.53125","43.6875"
"1574200524215","1102","0.18359375","-0.8613281","0.32226562","76.53125","10.71875","37.21875"
"1574200524216","1103","-0.16992188","-1.0488281","0.56933594","16.9375","13.15625","43.3125"
"1574200524216","1104","0.15429688","-0.7519531","0.3046875","64.1875","6.46875","19.75"
"1574200524217","1105","-0.10839844","-0.953125","0.6513672","2.0","16.28125","35.3125"
"1574200524218","1106","-0.05078125","-0.9296875","0.5341797","40.09375","4.6875","10.0625"
"1574200524218","1107","-0.07128906","-0.92089844","0.6142578","24.40625","2.71875","24.75"
"1574200524218","1108","-0.061523438","-1.0527344","0.6328125","-2.8125","-0.5625","6.875"
"1574200524219","1109","-0.032226562","-0.88964844","0.6484375","14.4375","-8.625","-9.0"
"1574200524611","1110","-0.13671875","-1.0195312","0.69921875","-21.5625","-9.125","1.625"
"1574200524611","1111","0.029296875","-1.0664062","0.6191406","-11.4375","-19.375","-26.03125"
"1574200524612","1112","0.043945312","-0.9765625","0.5527344","-46.15625","-25.46875","-38.78125"
"1574200524612","1113","0.08886719","-0.9628906","0.49609375","-59.34375","-25.53125","-41.03125"
"1574200524612","1114","0.12695312","-0.984375","0.47070312","-69.71875","-26.5","-49.5"
"1574200524612","1115","0.125","-0.9609375","0.38964844","-75.28125","-30.65625","-52.8125"
"1574200524613","1116","0.14257812","-0.97753906","0.3798828","-70.5","-25.53125","-52.4375"
"1574200524614","1117","0.14941406","-0.9033203","0.29589844","-65.8125","-23.875","-47.5"
"1574200524614","1118","0.20019531","-0.8623047","0.24804688","-53.53125","-23.09375","-36.5"
"1574200524614","1119","0.22460938","-0.8466797","0.1796875","-39.125","-21.1875","-24.25"
"1574200525403","1120","0.2734375","-0.8857422","0.17089844","-23.4375","-16.375","-11.71875"
"1574200525404","1121","0.28125","-0.87109375","0.13476562","-11.25","-10.6875","-4.84375"
"1574200525404","1122","0.28027344","-0.89160156","0.12988281","0.34375","0.0","2.84375"
"1574200525405","1123","0.31445312","-0.91308594","0.12207031","13.96875","3.34375","2.0"
"1574200525405","1124","0.2841797","-0.90234375","0.15039062","17.3125","9.8125","4.875"
"1574200525405","1125","0.30566406","-0.9042969","0.15722656","32.21875","11.15625","9.6875"
"1574200525405","1126","0.265625","-0.8691406","0.17675781","49.375","14.625","20.1875"
"1574200525406","1127","0.22753906","-0.91503906","0.21777344","55.90625","20.0625","26.09375"
"1574200525406","1128","0.20410156","-0.89746094","0.2763672","66.09375","22.625","30.375"
"1574200525408","1129","0.1953125","-0.8876953","0.31152344","72.5625","20.90625","34.21875"
"1574200525600","1130","0.14160156","-0.88964844","0.36621094","74.4375","20.75","32.09375"
"1574200525601","1131","0.1328125","-0.8544922","0.42089844","70.0","19.34375","28.125"
"1574200525601","1132","0.10839844","-0.8613281","0.47753906","59.5625","18.65625","26.15625"
"1574200525601","1133","0.07519531","-0.8066406","0.5","63.40625","22.625","24.9375"
"1574200525602","1134","0.045898438","-0.8125","0.59277344","59.25","26.96875","34.78125"
"1574200525602","1135","0.017578125","-0.73828125","0.5986328","55.65625","24.875","33.0625"
"1574200525602","1136","-0.0234375","-0.70410156","0.6611328","60.09375","24.28125","33.6875"
"1574200525602","1137","-0.07714844","-0.6347656","0.6669922","74.875","31.28125","35.375"
"1574200525603","1138","-0.08105469","-0.6142578","0.7128906","81.65625","35.9375","35.375"
"1574200525603","1139","-0.16113281","-0.54785156","0.7871094","96.0625","40.5625","36.59375"
"1574200525998","1140","-0.16210938","-0.5234375","0.8515625","99.96875","41.0","39.34375"
"1574200525998","1141","-0.20605469","-0.46679688","0.8154297","92.15625","38.875","40.625"
"1574200525999","1142","-0.3046875","-0.41992188","0.9501953","85.4375","45.8125","39.0625"
"1574200525999","1143","-0.2705078","-0.359375","0.84277344","55.96875","34.96875","24.75"
"1574200525999","1144","-0.32617188","-0.2783203","0.9326172","60.28125","31.0625","24.09375"
"1574200525999","1145","-0.3154297","-0.26757812","0.9160156","48.15625","21.78125","15.71875"
"1574200526000","1146","-0.35351562","-0.22558594","0.90625","44.0","19.5625","15.0625"
"1574200526000","1147","-0.31835938","-0.19824219","0.90625","32.53125","12.5","10.1875"
"1574200526000","1148","-0.32910156","-0.22070312","0.9199219","22.4375","5.46875","7.0"
"1574200526000","1149","-0.3564453","-0.15234375","0.9082031","14.625","5.21875","3.59375"
"1574200526201","1150","-0.36035156","-0.16113281","0.9003906","10.59375","7.625","1.3125"
"1574200526201","1151","-0.3642578","-0.14941406","0.91308594","7.0","3.59375","-1.1875"
"1574200526201","1152","-0.36816406","-0.15234375","0.9042969","8.46875","4.9375","-2.40625"
"1574200526202","1153","-0.36132812","-0.171875","0.8886719","2.96875","5.90625","-3.125"
"1574200526203","1154","-0.3798828","-0.16015625","0.89746094","1.3125","4.5625","-3.96875"
"1574200526203","1155","-0.3671875","-0.17871094","0.8876953","-1.46875","2.96875","-4.53125"
"1574200526203","1156","-0.35839844","-0.17675781","0.8964844","-2.03125","1.375","-3.1875"
"1574200526203","1157","-0.34375","-0.19140625","0.890625","-2.6875","1.5625","0.0"
"1574200526204","1158","-0.3544922","-0.19335938","0.90625","-7.875","-0.1875","4.375"
"1574200526204","1159","-0.3388672","-0.17578125","0.9140625","-11.1875","-1.53125","5.21875"
"1574200526599","1160","-0.33789062","-0.20410156","0.8857422","-18.9375","0.65625","2.4375"
"1574200526599","1161","-0.27734375","-0.2890625","0.92285156","-35.65625","-2.8125","4.8125"
"1574200526599","1162","-0.2998047","-0.26660156","0.91308594","-61.28125","-2.46875","6.03125"
"1574200526600","1163","-0.34570312","-0.28320312","0.9453125","-67.71875","-6.71875","-1.34375"
"1574200526600","1164","-0.29003906","-0.3515625","0.93652344","-69.90625","-13.6875","-6.125"
"1574200526601","1165","-0.33789062","-0.3935547","0.9277344","-55.3125","-10.6875","-9.84375"
"1574200526602","1166","-0.38085938","-0.38183594","0.9296875","-54.09375","-11.375","-14.34375"
"1574200526602","1167","-0.3671875","-0.41210938","0.921875","-48.59375","-2.8125","-15.28125"
"1574200526602","1168","-0.31835938","-0.46777344","0.81933594","-48.90625","-4.84375","-21.9375"
"1574200526602","1169","-0.30371094","-0.5449219","0.85058594","-50.1875","-0.0625","-21.75"
"1574200526995","1170","-0.24414062","-0.54003906","0.80078125","-61.40625","-2.46875","-32.96875"
"1574200526995","1171","-0.23535156","-0.56933594","0.7626953","-61.78125","-5.4375","-32.59375"
"1574200526995","1172","-0.22558594","-0.6533203","0.77246094","-61.90625","-5.5625","-33.53125"
"1574200526996","1173","-0.24023438","-0.6347656","0.7607422","-51.40625","-6.125","-29.0"
"1574200526996","1174","-0.18945312","-0.6953125","0.69921875","-44.03125","-8.125","-26.25"
"1574200526996","1175","-0.13378906","-0.8222656","0.7285156","-46.46875","-7.78125","-29.6875"
"1574200526996","1176","-0.1328125","-0.7578125","0.6699219","-52.1875","-11.1875","-31.75"
"1574200526998","1177","-0.13964844","-0.7548828","0.6376953","-45.5625","-14.78125","-34.625"
"1574200526998","1178","-0.08105469","-0.828125","0.60253906","-44.875","-18.8125","-30.65625"
"1574200526998","1179","-0.095703125","-0.8232422","0.5986328","-50.4375","-19.125","-33.53125"
"1574200527394","1180","-0.044921875","-0.8261719","0.5576172","-52.25","-19.53125","-36.8125"
"1574200527394","1181","-0.021484375","-0.9042969","0.53222656","-53.96875","-20.71875","-36.6875"
"1574200527394","1182","0.021484375","-0.8564453","0.48339844","-53.96875","-21.1875","-41.875"
"1574200527395","1183","-0.0068359375","-0.8730469","0.45214844","-58.78125","-17.59375","-41.15625"
"1574200527395","1184","0.07519531","-0.8642578","0.3955078","-59.65625","-17.53125","-43.15625"
"1574200527395","1185","0.111328125","-0.8300781","0.34960938","-58.0625","-17.40625","-40.96875"
"1574200527396","1186","0.1171875","-0.875","0.32128906","-62.625","-16.5","-37.5"
"1574200527396","1187","0.15332031","-0.85058594","0.28808594","-58.5625","-15.9375","-38.21875"
"1574200527396","1188","0.1796875","-0.82910156","0.24804688","-54.59375","-14.96875","-37.1875"
"1574200527398","1189","0.14941406","-0.90625","0.22265625","-61.96875","-15.59375","-40.53125"
"1574200527791","1190","0.23730469","-0.8730469","0.171875","-50.0","-13.5625","-40.1875"
"1574200527792","1191","0.23535156","-0.8544922","0.15625","-52.5625","-12.40625","-35.65625"
"1574200527792","1192","0.25976562","-0.8574219","0.099609375","-46.59375","-8.875","-32.96875"
"1574200527792","1193","0.2783203","-0.8515625","0.10253906","-42.0625","-8.3125","-31.25"
"1574200527793","1194","0.28710938","-0.8417969","0.061523438","-40.78125","-6.5","-30.21875"
"1574200527793","1195","0.34765625","-0.86035156","0.02734375","-42.9375","-8.0625","-29.75"
"1574200527793","1196","0.35546875","-0.8847656","-0.0126953125","-38.34375","-12.28125","-27.84375"
"1574200527793","1197","0.39257812","-0.8496094","-0.020507812","-35.40625","-10.28125","-31.25"
"1574200527793","1198","0.41210938","-0.82128906","0.0107421875","-31.5","-12.46875","-27.84375"
"1574200527794","1199","0.3642578","-0.890625","-0.0703125","-24.84375","-13.5","-21.1875"
"1574200528189","1200","0.36328125","-0.93066406","-0.10449219","-19.4375","-12.46875","-22.65625"
"1574200528191","1201","0.4248047","-0.85253906","-0.11816406","-20.09375","-6.3125","-22.59375"
"1574200528191","1202","0.5292969","-0.8417969","-0.11425781","-17.46875","-5.75","-22.53125"
"1574200528191","1203","0.4794922","-0.88183594","-0.13476562","-16.75","-6.71875","-19.1875"
"1574200528191","1204","0.44628906","-0.86621094","-0.14746094","-12.90625","-5.875","-16.25"
"1574200528192","1205","0.5","-0.8300781","-0.17089844","-12.59375","-4.03125","-11.4375"
"1574200528192","1206","0.49902344","-0.8652344","-0.17578125","-13.5","-2.53125","-9.0"
"1574200528192","1207","0.51171875","-0.8486328","-0.171875","-10.03125","-6.90625","-10.8125"
"1574200528192","1208","0.47460938","-0.84472656","-0.16796875","-10.40625","-1.0625","-7.875"
"1574200528193","1209","0.50683594","-0.8564453","-0.17871094","-9.90625","0.46875","-6.1875"
"1574200528585","1210","0.5136719","-0.8466797","-0.1953125","-7.71875","-2.75","-3.90625"
"1574200528585","1211","0.49414062","-0.8613281","-0.16992188","-7.875","-5.15625","-5.625"
"1574200528586","1212","0.5107422","-0.84765625","-0.19042969","-4.90625","-6.0","-5.375"
"1574200528586","1213","0.5292969","-0.83496094","-0.21679688","-4.96875","-0.5625","-1.46875"
"1574200528586","1214","0.4482422","-0.8359375","-0.22070312","-1.96875","3.84375","0.53125"
"1574200528587","1215","0.49316406","-0.8457031","-0.1875","-0.8125","4.875","3.21875"
"1574200528587","1216","0.5283203","-0.8359375","-0.22363281","-0.1875","10.84375","2.5"
"1574200528587","1217","0.48535156","-0.83496094","-0.17675781","0.09375","6.8125","-0.1875"
"1574200528587","1218","0.5029297","-0.8417969","-0.20117188","-1.1875","1.28125","0.03125"
"1574200528588","1219","0.47753906","-0.8457031","-0.19042969","3.34375","3.65625","0.96875"
"1574200528983","1220","0.4951172","-0.8300781","-0.16699219","11.40625","5.21875","5.65625"
"1574200528984","1221","0.49023438","-0.8261719","-0.17285156","13.03125","5.21875","5.34375"
"1574200528984","1222","0.48339844","-0.8173828","-0.14453125","17.625","7.5","10.0625"
"1574200528984","1223","0.46289062","-0.83496094","-0.14941406","20.90625","6.46875","12.625"
"1574200528984","1224","0.43164062","-0.8310547","-0.12011719","27.875","9.03125","16.15625"
"1574200528986","1225","0.4326172","-0.7861328","-0.068359375","38.6875","17.0625","22.8125"
"1574200528986","1226","0.3857422","-0.74609375","-0.07421875","43.75","16.90625","26.96875"
"1574200528986","1227","0.34960938","-0.78027344","-0.0107421875","42.21875","22.3125","26.15625"
"1574200528986","1228","0.31640625","-0.71191406","0.03515625","55.28125","25.5","34.40625"
"1574200528987","1229","0.29003906","-0.79589844","0.06933594","38.0625","29.90625","31.40625"
"1574200529582","1230","0.28125","-0.86621094","0.026367188","48.25","32.8125","29.46875"
"1574200529583","1231","0.30664062","-0.71972656","0.14257812","49.46875","38.1875","38.8125"
"1574200529583","1232","0.37890625","-0.9003906","0.083984375","37.21875","26.0","20.625"
"1574200529583","1233","0.26464844","-0.8408203","0.1484375","51.3125","25.625","35.875"
"1574200529583","1234","0.31640625","-0.9267578","0.21972656","37.34375","26.0","24.875"
"1574200529584","1235","0.33398438","-0.9970703","0.16015625","50.9375","15.1875","30.125"
"1574200529584","1236","0.21289062","-0.9042969","0.30371094","47.15625","22.4375","34.78125"
"1574200529584","1237","0.32421875","-1.0390625","0.24707031","46.1875","13.15625","19.75"
"1574200529584","1238","0.125","-0.99316406","0.3955078","38.125","20.3125","31.34375"
"1574200529585","1239","0.22558594","-1.0771484","0.359375","26.84375","21.53125","14.8125"
"1574200529778","1240","0.25097656","-0.98046875","0.38964844","31.59375","12.625","21.03125"
"1574200529779","1241","0.07910156","-0.8984375","0.44140625","16.65625","15.65625","15.71875"
"1574200529779","1242","0.21679688","-1.0429688","0.3984375","1.625","8.21875","1.5625"
"1574200529779","1243","0.09472656","-0.9550781","0.4638672","8.71875","2.65625","10.375"
"1574200529779","1244","0.16113281","-0.9404297","0.42578125","-5.9375","0.90625","-3.125"
"1574200529780","1245","0.16894531","-0.94433594","0.4501953","-10.4375","-7.28125","-2.8125"
"1574200529780","1246","0.10449219","-0.91503906","0.44335938","-14.46875","-7.21875","-9.71875"
"1574200529780","1247","0.17871094","-0.9970703","0.43847656","-17.15625","-9.125","-12.28125"
"1574200529781","1248","0.12207031","-0.9199219","0.3955078","-24.3125","-11.71875","-16.375"
"1574200529782","1249","0.20507812","-0.93652344","0.3720703","-33.53125","-15.53125","-24.0625"
"1574200530176","1250","0.20019531","-0.92578125","0.3388672","-36.8125","-17.71875","-28.59375"
"1574200530176","1251","0.20117188","-0.9121094","0.31445312","-44.09375","-18.9375","-33.71875"
"1574200530177","1252","0.28125","-0.9189453","0.27148438","-43.28125","-23.15625","-35.28125"
"1574200530177","1253","0.23046875","-0.96777344","0.2548828","-45.0","-17.65625","-30.46875"
"1574200530177","1254","0.3408203","-0.90234375","0.28808594","-14.25","-14.40625","-23.6875"
"1574200530177","1255","0.37402344","-1.015625","0.14160156","-16.5","-18.21875","-18.15625"
"1574200530178","1256","0.40820312","-1.0175781","0.12792969","-25.90625","-12.65625","-18.8125"
"1574200530178","1257","0.3984375","-0.93066406","0.13769531","-25.40625","-19.5","-15.9375"
"1574200530178","1258","0.3642578","-0.8857422","0.12792969","-25.53125","-19.0625","-13.5625"
"1574200530178","1259","0.38085938","-0.9111328","0.07128906","-18.25","-12.03125","-15.8125"
"1574200530771","1260","0.3701172","-0.85839844","0.07519531","-15.03125","-8.6875","-17.09375"
"1574200530772","1261","0.35742188","-0.8857422","0.06640625","-19.125","-4.28125","-14.40625"
"1574200530773","1262","0.4033203","-0.8935547","0.051757812","-12.78125","-0.6875","-13.5625"
"1574200530773","1263","0.43652344","-0.90527344","0.034179688","-18.5","-5.875","-6.375"
"1574200530773","1264","0.3779297","-0.8857422","0.0390625","-13.3125","-5.875","-1.3125"
"1574200530774","1265","0.4296875","-0.8623047","0.034179688","-12.71875","-3.5625","7.125"
"1574200530774","1266","0.35742188","-0.8808594","0.01171875","3.53125","7.5","12.625"
"1574200530774","1267","0.4013672","-0.8486328","0.033203125","19.625","14.3125","18.40625"
"1574200530774","1268","0.3486328","-0.82421875","0.045898438","40.09375","24.71875","25.0625"
"1574200530775","1269","0.31835938","-0.8496094","0.1015625","52.15625","33.1875","31.34375"
"1574200530970","1270","0.32617188","-0.8623047","0.11621094","77.375","37.28125","38.6875"
"1574200530970","1271","0.3486328","-0.90722656","0.22558594","77.5","38.25","41.1875"
"1574200530970","1272","0.23730469","-0.89453125","0.2548828","84.9375","42.96875","39.34375"
"1574200530971","1273","0.23632812","-0.8798828","0.31054688","93.6875","36.25","37.34375"
"1574200530971","1274","0.18261719","-0.8779297","0.41308594","93.75","43.0625","42.71875"
"1574200530971","1275","0.14453125","-0.859375","0.47753906","97.40625","41.78125","43.375"
"1574200530971","1276","0.13476562","-0.8330078","0.5058594","96.1875","37.71875","39.15625"
"1574200530972","1277","0.07910156","-0.82910156","0.59277344","89.9375","35.8125","39.0625"
"1574200530972","1278","0.0390625","-0.7675781","0.63964844","82.375","36.84375","34.09375"
"1574200530972","1279","-0.009765625","-0.71875","0.67285156","74.75","39.84375","31.84375"
"1574200531566","1280","-0.046875","-0.6503906","0.71191406","75.96875","42.46875","35.25"
"1574200531567","1281","-0.08203125","-0.6015625","0.7373047","75.78125","39.71875","34.53125"
"1574200531567","1282","-0.13476562","-0.546875","0.7988281","75.78125","41.5","39.09375"
"1574200531567","1283","-0.17285156","-0.47753906","0.7988281","85.3125","41.3125","41.96875"
"1574200531568","1284","-0.2421875","-0.44140625","0.92285156","82.4375","40.625","47.21875"
"1574200531568","1285","-0.22265625","-0.38964844","0.8466797","69.75","33.6875","35.75"
"1574200531569","1286","-0.3095703","-0.32421875","0.9033203","70.59375","32.625","37.15625"
"1574200531569","1287","-0.31835938","-0.265625","0.94140625","60.28125","28.5625","26.40625"
"1574200531569","1288","-0.32128906","-0.24414062","0.88964844","54.5625","25.6875","23.125"
"1574200531569","1289","-0.33007812","-0.16992188","0.9248047","47.65625","18.21875","18.40625"
"1574200531766","1290","-0.3408203","-0.18359375","0.8964844","30.3125","13.15625","13.28125"
"1574200531767","1291","-0.38085938","-0.13476562","0.9326172","24.46875","16.28125","12.9375"
"1574200531767","1292","-0.35546875","-0.13476562","0.90625","16.53125","11.28125","8.21875"
"1574200531767","1293","-0.36914062","-0.13183594","0.9140625","14.8125","11.53125","7.25"
"1574200531767","1294","-0.3564453","-0.11328125","0.92871094","9.6875","5.90625","4.4375"
"1574200531767","1295","-0.35839844","-0.125","0.90625","5.34375","4.5625","3.09375"
"1574200531768","1296","-0.3515625","-0.13378906","0.9003906","0.78125","2.65625","2.4375"
"1574200531769","1297","-0.35253906","-0.12890625","0.91015625","-9.40625","-1.34375","-0.375"
"1574200531770","1298","-0.3876953","-0.09863281","0.9189453","-7.71875","0.0","0.34375"
"1574200531770","1299","-0.36914062","-0.12597656","0.8964844","-4.53125","1.3125","-0.75"
"1574200532163","1300","-0.3798828","-0.14941406","0.91503906","-6.0","6.40625","-1.46875"
"1574200532164","1301","-0.390625","-0.12792969","0.9482422","-4.78125","6.5","-2.625"
"1574200532164","1302","-0.3798828","-0.20605469","0.9472656","-5.15625","8.96875","-4.28125"
