"# PR data"
"# Start time: 20191114T111454"
"# Subject: jack"
"# Activity type: Knee extension"
"# Correctness: Incorrect"
"# Notes: "
""
"timestamp","seq","accel_x","accel_y","accel_z","gyro_x","gyro_y","gyro_z"
"1573730094770","0","0.21386719","-0.83984375","0.036132812","-19.1875","8.40625","-17.46875"
"1573730094771","1","0.39941406","-0.9033203","-0.087890625","-16.8125","1.75","-9.53125"
"1573730094774","2","0.32617188","-0.9248047","0.0234375","-17.96875","4.3125","-6.1875"
"1573730094775","3","0.26464844","-0.98046875","0.08984375","-19.5","15.125","-9.78125"
"1573730094775","4","0.2763672","-0.9609375","0.0078125","-35.40625","21.59375","-4.90625"
"1573730094775","5","0.31054688","-0.8408203","0.0068359375","-33.875","22.9375","-5.5"
"1573730094776","6","0.37109375","-0.8144531","-0.00390625","-1.84375","11.875","9.25"
"1573730094776","7","0.3544922","-0.97558594","-0.024414062","-9.46875","20.0625","10.375"
"1573730094776","8","0.4169922","-1.0371094","-0.09863281","-15.8125","1.5","7.5625"
"1573730094776","9","0.3203125","-1.0302734","-0.040039062","5.90625","19.625","3.53125"
"1573730095168","10","0.35351562","-1.0410156","-0.0087890625","6.46875","6.15625","4.5625"
"1573730095169","11","0.24511719","-0.9277344","0.0107421875","15.71875","16.78125","-1.46875"
"1573730095169","12","0.20703125","-0.8925781","0.07910156","18.125","17.0","2.65625"
"1573730095170","13","0.20800781","-0.8798828","0.0390625","25.1875","6.15625","7.5"
"1573730095170","14","0.37695312","-0.9667969","-0.025390625","43.25","-0.5","25.9375"
"1573730095171","15","0.4111328","-1.2089844","0.17578125","-13.5","-31.5625","0.40625"
"1573730095171","16","0.19726562","-1.4248047","0.18164062","-46.03125","-40.125","-33.65625"
"1573730095171","17","0.19140625","-0.95996094","0.040039062","5.96875","-12.34375","-13.875"
"1573730095172","18","0.3017578","-0.5986328","0.041992188","-15.625","-3.625","-7.34375"
"1573730095172","19","0.24609375","-0.81640625","0.10253906","-23.6875","18.59375","-14.53125"
"1573730095567","20","0.17871094","-0.7294922","0.1328125","-3.125","4.625","-2.03125"
"1573730095568","21","0.3154297","-0.98046875","0.125","-8.9375","-1.125","-4.03125"
"1573730095568","22","0.24609375","-0.9316406","0.037109375","11.59375","0.28125","-6.3125"
"1573730095568","23","0.3359375","-0.96972656","0.043945312","4.625","-2.03125","-2.21875"
"1573730095568","24","0.2548828","-0.9589844","0.044921875","8.46875","3.21875","-2.21875"
"1573730095570","25","0.29589844","-0.91308594","0.057617188","10.0","-1.34375","4.375"
"1573730095570","26","0.31347656","-0.9580078","0.078125","5.34375","-3.5625","6.6875"
"1573730095570","27","0.24902344","-0.94921875","0.053710938","9.09375","-7.875","10.25"
"1573730095571","28","0.27246094","-0.9472656","0.11230469","0.78125","-3.75","7.375"
"1573730095571","29","0.19042969","-0.92285156","0.017578125","10.0","-11.0625","9.5"
"1573730095963","30","0.5986328","-1.0869141","-0.044921875","1.6875","-14.0","7.8125"
"1573730095963","31","0.32910156","-1.1279297","0.09277344","-4.53125","5.46875","-19.1875"
"1573730095964","32","0.1484375","-0.9638672","0.10546875","-18.875","4.1875","-15.46875"
"1573730095964","33","0.2685547","-0.8671875","0.034179688","-12.28125","6.40625","-23.875"
"1573730095964","34","0.21582031","-0.96972656","0.068359375","-19.3125","19.625","-23.75"
"1573730095964","35","0.2685547","-0.921875","0.08203125","-14.34375","17.6875","-21.75"
"1573730095965","36","0.33496094","-0.9013672","0.060546875","-6.1875","-2.28125","-7.40625"
"1573730095967","37","0.41796875","-0.92285156","0.015625","-12.28125","-2.15625","-3.5625"
"1573730095967","38","0.3642578","-0.92871094","0.041992188","-16.9375","-3.5625","-0.75"
"1573730095967","39","0.34960938","-0.9121094","0.00390625","-5.3125","-4.96875","1.15625"
"1573730096360","40","0.3828125","-0.92285156","-0.0107421875","-6.84375","-0.3125","0.71875"
"1573730096361","41","0.3515625","-0.9042969","-0.009765625","-7.78125","7.5625","-2.8125"
"1573730096361","42","0.31933594","-0.90625","0.021484375","-14.25","10.0","-1.125"
"1573730096362","43","0.32226562","-0.8222656","-0.032226562","-3.25","6.8125","-0.9375"
"1573730096362","44","0.34179688","-0.921875","9.765625E-4","8.84375","5.65625","10.375"
"1573730096362","45","0.30859375","-0.9716797","0.030273438","16.28125","10.84375","4.4375"
"1573730096362","46","0.37109375","-0.9238281","-0.07324219","15.3125","1.03125","18.1875"
"1573730096363","47","0.5107422","-1.0263672","-0.16308594","32.875","-5.8125","28.3125"
"1573730096363","48","0.53125","-1.1689453","0.08984375","-9.96875","-15.53125","21.40625"
"1573730096364","49","0.40722656","-1.140625","0.016601562","-25.28125","-29.3125","13.40625"
"1573730096758","50","0.21875","-0.8564453","0.083984375","-19.1875","-20.65625","5.90625"
"1573730096758","51","0.12695312","-0.7285156","0.08203125","-7.21875","-19.0625","-3.5"
"1573730096758","52","0.0234375","-0.8154297","0.115234375","-7.9375","-15.09375","-2.46875"
"1573730096759","53","0.18945312","-0.9511719","0.055664062","-2.75","-19.375","-2.75"
"1573730096759","54","0.23828125","-1.0234375","-0.046875","1.625","-24.5","-0.75"
"1573730096759","55","0.36914062","-1.0410156","-0.076171875","6.875","-22.59375","4.0"
"1573730096760","56","0.23242188","-1.0351562","-0.08691406","-3.90625","-21.9375","-2.875"
"1573730096760","57","0.35253906","-0.92578125","-0.11425781","-1.40625","-23.5","-0.5"
"1573730096760","58","0.30566406","-0.91308594","-0.11425781","2.25","-25.59375","-2.40625"
"1573730096760","59","0.27441406","-0.9394531","-0.07421875","2.96875","-25.15625","3.90625"
"1573730097156","60","0.23632812","-0.98828125","-0.061523438","-0.4375","-20.65625","-2.53125"
"1573730097158","61","0.2998047","-0.98535156","-0.0546875","-1.25","-8.75","-1.65625"
"1573730097158","62","0.26660156","-0.97558594","-0.00390625","-1.125","-4.28125","-6.53125"
"1573730097158","63","0.26660156","-0.9394531","-0.0107421875","1.375","-0.8125","-6.53125"
"1573730097159","64","0.2626953","-0.8984375","-0.017578125","5.40625","2.5625","-6.53125"
"1573730097159","65","0.32421875","-0.91503906","0.021484375","2.65625","9.375","-9.125"
"1573730097159","66","0.3125","-0.9375","-0.016601562","6.5625","2.1875","-4.09375"
"1573730097160","67","0.33984375","-0.9824219","-0.017578125","4.5625","9.9375","-4.09375"
"1573730097160","68","0.3720703","-0.97558594","-0.01953125","-5.25","9.4375","-2.09375"
"1573730097160","69","0.31933594","-0.9667969","-0.029296875","0.46875","7.90625","-1.1875"
"1573730097553","70","0.32617188","-0.9433594","-0.016601562","-5.25","10.96875","-2.40625"
"1573730097554","71","0.3388672","-0.9433594","-0.03125","-4.84375","10.3125","-1.90625"
"1573730097554","72","0.29882812","-0.9277344","-0.0107421875","-2.625","8.15625","-1.53125"
"1573730097555","73","0.31347656","-0.9814453","-0.026367188","-4.90625","15.25","-1.78125"
"1573730097556","74","0.3359375","-0.9277344","-0.034179688","-10.34375","13.59375","-2.46875"
"1573730097556","75","0.28320312","-0.9589844","-0.0146484375","-11.1875","9.5","-0.5"
"1573730097556","76","0.32421875","-0.9511719","-0.038085938","-5.09375","12.4375","0.09375"
"1573730097557","77","0.30859375","-0.9345703","-0.037109375","-4.71875","11.09375","1.625"
"1573730097557","78","0.29492188","-0.94921875","-0.009765625","-6.96875","10.125","0.78125"
"1573730097557","79","0.296875","-0.95214844","-0.029296875","-2.28125","10.0","1.375"
"1573730097950","80","0.31835938","-0.9423828","-0.044921875","-6.125","8.09375","1.6875"
"1573730097950","81","0.28320312","-0.9814453","-0.041992188","-7.78125","8.09375","-1.34375"
"1573730097950","82","0.3095703","-0.9589844","-0.053710938","-9.21875","8.28125","-2.28125"
"1573730097950","83","0.3203125","-0.9736328","-0.08984375","-6.0625","6.15625","-2.53125"
"1573730097951","84","0.2998047","-0.9716797","-0.06347656","-4.15625","8.84375","-2.875"
"1573730097952","85","0.3330078","-0.9433594","-0.07910156","2.0","12.1875","-0.9375"
"1573730097952","86","0.28710938","-0.88964844","-0.03125","8.34375","23.3125","-4.03125"
"1573730097952","87","0.31347656","-0.9277344","-0.06738281","5.40625","19.40625","-3.5625"
"1573730097953","88","0.3330078","-0.9560547","-0.0390625","2.25","17.5","-4.09375"
"1573730097953","89","0.3359375","-0.94140625","-0.01171875","2.125","19.34375","-4.09375"
"1573730098348","90","0.3466797","-0.9140625","0.0126953125","2.65625","21.90625","-3.0625"
"1573730098348","91","0.31054688","-0.9248047","0.026367188","4.75","19.53125","0.15625"
"1573730098348","92","0.3359375","-0.9453125","0.033203125","5.65625","11.15625","5.34375"
"1573730098349","93","0.25683594","-0.9404297","0.041992188","14.3125","3.71875","10.1875"
"1573730098349","94","0.31347656","-0.9423828","0.0107421875","17.6875","2.78125","12.75"
"1573730098349","95","0.30664062","-0.95703125","0.0625","16.40625","5.78125","10.84375"
"1573730098349","96","0.29296875","-0.9707031","0.068359375","13.96875","0.21875","9.25"
"1573730098352","97","0.2919922","-0.97558594","0.091796875","5.53125","-0.9375","6.21875"
"1573730098352","98","0.25195312","-0.98046875","0.095703125","2.65625","-0.4375","3.34375"
"1573730098353","99","0.24316406","-0.98535156","0.08203125","-1.90625","-1.90625","2.78125"
"1573730098941","100","0.29589844","-1.0117188","0.099609375","-9.0625","-1.3125","-3.5625"
"1573730098942","101","0.2841797","-0.9814453","0.103515625","-7.34375","0.03125","-7.40625"
"1573730098942","102","0.2607422","-0.92871094","0.060546875","-9.59375","1.5","-11.5"
"1573730098942","103","0.2783203","-0.96972656","0.07519531","-14.46875","5.0625","-12.40625"
"1573730098942","104","0.2861328","-1.0019531","0.07324219","-23.5625","3.40625","-19.65625"
"1573730098943","105","0.28320312","-0.9316406","0.026367188","-21.0625","0.71875","-18.5"
"1573730098943","106","0.3564453","-0.9394531","0.040039062","-30.21875","7.3125","-20.15625"
"1573730098943","107","0.28808594","-0.90234375","-0.048828125","-18.9375","3.71875","-17.78125"
"1573730098943","108","0.3935547","-0.8847656","-0.038085938","-13.4375","-7.21875","-9.15625"
"1573730098945","109","0.359375","-0.9013672","-0.06640625","-8.0","-3.875","-4.84375"
"1573730099142","110","0.41015625","-0.93066406","-0.08300781","3.28125","-7.03125","0.46875"
"1573730099142","111","0.36035156","-0.92871094","-0.0546875","-1.34375","-6.96875","-2.03125"
"1573730099142","112","0.37304688","-0.9394531","-0.01953125","2.3125","-1.78125","0.03125"
"1573730099143","113","0.35253906","-0.89160156","0.0107421875","1.9375","-2.75","-0.625"
"1573730099143","114","0.36523438","-0.9345703","0.00390625","1.15625","-5.5","-0.5625"
"1573730099143","115","0.3486328","-0.9560547","0.0078125","0.15625","-3.5625","-0.6875"
"1573730099143","116","0.32226562","-0.92285156","0.005859375","2.0625","5.34375","-2.53125"
"1573730099144","117","0.31347656","-0.9511719","0.016601562","4.3125","13.84375","-3.90625"
"1573730099144","118","0.3359375","-0.9013672","-0.029296875","4.4375","9.125","-1.53125"
"1573730099144","119","0.40429688","-0.9277344","-0.037109375","-5.15625","12.4375","1.75"
"1573730099541","120","0.3359375","-0.9160156","-0.001953125","-7.21875","16.34375","-1.125"
"1573730099541","121","0.3720703","-0.9345703","-0.018554688","-0.5","7.84375","2.5"
"1573730099542","122","0.36914062","-0.9296875","-0.016601562","-0.25","10.53125","-0.1875"
"1573730099542","123","0.3701172","-0.94628906","-0.005859375","-2.34375","4.5","2.71875"
"1573730099542","124","0.34765625","-0.94921875","0.036132812","1.625","2.5625","0.53125"
"1573730099542","125","0.33007812","-0.9003906","0.034179688","2.71875","2.65625","1.5"
"1573730099543","126","0.31054688","-0.91503906","0.040039062","7.90625","0.09375","2.65625"
"1573730099543","127","0.3173828","-0.95214844","0.03125","5.53125","1.5625","3.34375"
"1573730099543","128","0.36035156","-0.9345703","0.017578125","3.40625","1.6875","2.25"
"1573730099543","129","0.3623047","-0.9628906","0.009765625","-1.65625","-1.25","2.1875"
"1573730099938","130","0.3515625","-0.94628906","0.0048828125","-0.25","-2.09375","-0.875"
"1573730099939","131","0.35742188","-0.95214844","-0.0078125","-3.1875","1.5625","-0.375"
"1573730099939","132","0.3701172","-0.92285156","-0.0146484375","-7.875","7.3125","-4.03125"
"1573730099940","133","0.38476562","-0.9345703","-0.030273438","-4.40625","-1.90625","0.34375"
"1573730099940","134","0.44140625","-0.87402344","-0.0146484375","5.1875","-0.1875","2.4375"
"1573730099941","135","0.3154297","-0.90625","0.068359375","7.25","4.0","4.6875"
"1573730099941","136","0.22851562","-0.9609375","0.06542969","10.25","6.15625","-1.96875"
"1573730099941","137","0.38085938","-0.9560547","0.028320312","8.03125","2.375","5.21875"
"1573730099941","138","0.29101562","-0.9140625","0.0234375","4.875","-0.125","3.90625"
"1573730099942","139","0.22558594","-0.9785156","0.045898438","0.90625","0.46875","3.40625"
"1573730100535","140","0.31054688","-0.9970703","0.07910156","-2.59375","2.84375","4.0625"
"1573730100536","141","0.31933594","-0.9003906","0.041015625","1.03125","8.71875","-0.8125"
"1573730100536","142","0.3564453","-0.92871094","0.091796875","-1.34375","0.21875","0.78125"
"1573730100536","143","0.3359375","-0.9160156","0.07421875","-0.4375","1.6875","-0.5"
"1573730100536","144","0.3251953","-0.9453125","0.060546875","-0.375","-1.71875","-1.125"
"1573730100538","145","0.28808594","-0.9580078","0.033203125","-2.46875","-2.8125","0.28125"
"1573730100538","146","0.3173828","-0.95214844","0.0146484375","-2.75","-5.03125","1.3125"
"1573730100538","147","0.3232422","-0.9472656","0.03125","-3.8125","1.4375","-1.71875"
"1573730100539","148","0.31640625","-0.921875","0.02734375","-3.8125","2.59375","-3.0"
"1573730100539","149","0.3388672","-0.9404297","0.028320312","-2.9375","1.8125","-2.21875"
"1573730100931","150","0.328125","-0.93359375","0.025390625","-2.46875","1.28125","-1.71875"
"1573730100931","151","0.32617188","-0.9550781","0.038085938","-1.34375","-1.0625","-0.375"
"1573730100931","152","0.31152344","-0.9423828","0.048828125","-2.28125","1.375","-0.5"
"1573730100932","153","0.31152344","-0.93847656","0.03515625","-3.6875","3.03125","-2.21875"
"1573730100932","154","0.3046875","-0.9501953","0.041992188","-3.4375","3.03125","-2.28125"
"1573730100932","155","0.34472656","-0.9326172","0.028320312","-3.5","4.125","-3.25"
"1573730100932","156","0.3359375","-0.9433594","0.04296875","-3.25","3.28125","-3.25"
"1573730100934","157","0.33007812","-0.9267578","0.03515625","-3.4375","0.65625","-1.25"
"1573730100934","158","0.32226562","-0.9511719","0.018554688","-2.28125","0.28125","-0.5625"
"1573730100934","159","0.3408203","-0.9326172","0.032226562","-2.9375","3.40625","-1.84375"
"1573730101329","160","0.32226562","-0.93652344","0.03125","-2.03125","3.34375","-1.78125"
"1573730101330","161","0.33496094","-0.9296875","0.026367188","-1.53125","2.25","-1.71875"
"1573730101330","162","0.33398438","-0.9326172","0.024414062","-3.1875","3.46875","-2.59375"
"1573730101330","163","0.3330078","-0.9501953","0.026367188","-2.09375","3.28125","-1.84375"
"1573730101330","164","0.31933594","-0.94628906","0.03515625","-0.0625","2.78125","-0.5"
"1573730101331","165","0.3408203","-0.9248047","0.016601562","-0.75","3.15625","0.34375"
"1573730101331","166","0.34472656","-0.93066406","0.036132812","0.03125","2.84375","0.03125"
"1573730101331","167","0.3466797","-0.94140625","0.055664062","-0.3125","1.5","-0.625"
"1573730101331","168","0.34179688","-0.9404297","0.0126953125","0.84375","2.3125","-1.0"
"1573730101332","169","0.3251953","-0.9316406","0.041015625","-1.125","0.46875","-0.5625"
"1573730101727","170","0.3359375","-0.9482422","0.033203125","-2.625","0.59375","-0.6875"
"1573730101728","171","0.32910156","-0.93847656","0.044921875","-2.28125","1.6875","-1.1875"
"1573730101728","172","0.32421875","-0.9375","0.044921875","-1.25","0.59375","0.15625"
"1573730101728","173","0.33789062","-0.9316406","0.028320312","-2.34375","1.28125","-0.5"
"1573730101728","174","0.33984375","-0.9423828","0.037109375","-2.34375","1.5625","-1.3125"
"1573730101729","175","0.32617188","-0.9511719","0.037109375","-5.375","-1.25","-2.28125"
"1573730101729","176","0.33691406","-0.9199219","0.0078125","-6.0625","-0.3125","-3.4375"
"1573730101729","177","0.33789062","-0.9277344","0.032226562","-4.78125","-0.4375","-0.6875"
"1573730101729","178","0.34277344","-0.9423828","0.0146484375","-2.625","0.09375","-1.40625"
"1573730101730","179","0.34472656","-0.92578125","0.01953125","-1.53125","1.5","-1.125"
"1573730102125","180","0.33398438","-0.93652344","0.026367188","-0.8125","2.4375","-0.875"
"1573730102125","181","0.32421875","-0.93847656","0.020507812","1.09375","3.21875","0.15625"
"1573730102126","182","0.33398438","-0.93359375","0.0107421875","-0.0625","2.4375","0.09375"
"1573730102126","183","0.3330078","-0.93847656","0.032226562","0.0","4.0","-0.875"
"1573730102126","184","0.3388672","-0.93652344","0.034179688","0.71875","2.96875","-0.5"
"1573730102126","185","0.34570312","-0.9345703","0.038085938","0.0","2.5","-0.1875"
"1573730102127","186","0.32714844","-0.9433594","0.044921875","0.28125","1.6875","-0.8125"
"1573730102127","187","0.33691406","-0.9355469","0.03515625","-0.375","1.28125","-0.4375"
"1573730102127","188","0.3251953","-0.92871094","0.046875","-2.21875","1.6875","-0.375"
"1573730102128","189","0.33203125","-0.9472656","0.03125","-4.21875","-0.0625","-3.125"
"1573730102523","190","0.35839844","-0.9277344","0.021484375","-3.8125","-0.75","-0.8125"
"1573730102524","191","0.3388672","-0.94140625","0.020507812","-2.21875","1.375","-1.71875"
"1573730102524","192","0.328125","-0.9316406","0.040039062","-2.15625","0.0","-1.40625"
"1573730102526","193","0.34375","-0.9375","0.0234375","-0.5625","-1.0625","0.15625"
"1573730102526","194","0.34570312","-0.9404297","0.025390625","-1.40625","0.28125","-0.375"
"1573730102526","195","0.33496094","-0.93847656","0.026367188","-0.625","1.5625","0.40625"
"1573730102527","196","0.3388672","-0.9394531","0.026367188","-1.3125","0.0","1.03125"
"1573730102527","197","0.34570312","-0.94628906","0.018554688","-3.75","1.4375","0.09375"
"1573730102527","198","0.32128906","-0.93652344","0.030273438","-0.875","1.9375","0.90625"
"1573730102527","199","0.33398438","-0.9345703","0.034179688","-0.4375","1.8125","1.3125"
"1573730102918","200","0.3388672","-0.9355469","0.01953125","0.15625","2.5625","2.375"
"1573730102918","201","0.3310547","-0.94921875","0.029296875","0.96875","3.59375","2.0625"
"1573730102919","202","0.328125","-0.9326172","0.032226562","0.09375","1.75","0.34375"
"1573730102919","203","0.3466797","-0.93359375","0.02734375","-0.125","1.4375","1.625"
"1573730102919","204","0.2998047","-0.9501953","0.048828125","-3.5625","0.71875","-1.25"
"1573730102920","205","0.30273438","-0.9316406","0.056640625","-7.65625","-3.125","-1.96875"
"1573730102921","206","0.2939453","-0.9121094","0.045898438","-9.96875","-2.8125","-4.46875"
"1573730102921","207","0.3408203","-0.9326172","0.016601562","-7.03125","-3.375","-2.75"
"1573730102921","208","0.33789062","-0.93847656","0.0087890625","-5.25","-2.75","-1.90625"
"1573730102921","209","0.36035156","-0.9277344","-0.016601562","-1.96875","-2.625","0.03125"
"1573730103316","210","0.3359375","-0.9511719","-0.0126953125","-0.1875","-0.1875","0.84375"
"1573730103317","211","0.3330078","-0.94921875","-0.0078125","1.75","-0.75","1.09375"
"1573730103317","212","0.32910156","-0.9453125","-0.00390625","2.3125","-0.25","1.3125"
"1573730103317","213","0.33789062","-0.93847656","0.015625","1.03125","-0.3125","0.96875"
"1573730103317","214","0.3251953","-0.9482422","-0.00390625","3.09375","1.625","-0.5"
"1573730103318","215","0.33691406","-0.94433594","0.021484375","1.4375","3.09375","-0.3125"
"1573730103318","216","0.35351562","-0.95214844","0.0234375","0.53125","2.0","-0.5625"
"1573730103319","217","0.31152344","-0.9296875","0.0390625","2.25","0.40625","-0.5"
"1573730103319","218","0.33007812","-0.92089844","0.032226562","2.3125","-0.375","0.96875"
"1573730103319","219","0.3173828","-0.9433594","0.032226562","0.40625","-1.59375","0.84375"
"1573730103716","220","0.34277344","-0.9472656","0.029296875","-0.0625","-1.46875","0.65625"
"1573730103716","221","0.3408203","-0.9472656","0.026367188","-1.0","-1.71875","0.0"
"1573730103716","222","0.3251953","-0.953125","0.0234375","0.09375","-0.25","0.46875"
"1573730103717","223","0.32128906","-0.9316406","0.021484375","-1.25","-1.3125","0.28125"
"1573730103717","224","0.31933594","-0.9404297","0.022460938","0.28125","-0.9375","1.3125"
"1573730103717","225","0.328125","-0.9296875","0.043945312","0.78125","-1.0","0.46875"
"1573730103717","226","0.30371094","-0.9472656","0.021484375","0.34375","-1.78125","1.375"
"1573730103718","227","0.3408203","-0.95410156","0.016601562","-0.75","-1.1875","-0.125"
"1573730103718","228","0.32421875","-0.9550781","0.03125","-1.1875","-1.46875","-0.25"
"1573730103719","229","0.31835938","-0.9472656","0.005859375","-0.375","-1.65625","-1.0"
"1573730104111","230","0.33691406","-0.9423828","0.01171875","-2.6875","-0.625","-1.84375"
"1573730104112","231","0.3173828","-0.9560547","0.029296875","-1.71875","0.03125","-1.46875"
"1573730104112","232","0.32421875","-0.9248047","0.01953125","-0.0625","0.96875","-1.125"
"1573730104112","233","0.32421875","-0.9501953","0.0234375","0.0","1.15625","0.21875"
"1573730104113","234","0.32226562","-0.93359375","0.034179688","0.84375","1.3125","0.0"
"1573730104113","235","0.32421875","-0.9316406","0.03125","1.3125","0.78125","0.28125"
"1573730104113","236","0.3359375","-0.9375","0.040039062","-1.40625","-0.5625","0.0"
"1573730104113","237","0.29296875","-0.96972656","0.04296875","-1.0","-1.46875","0.65625"
"1573730104114","238","0.32910156","-0.9482422","0.046875","-1.84375","1.6875","-1.40625"
"1573730104114","239","0.31054688","-0.92871094","0.030273438","0.84375","2.78125","-0.375"
"1573730104510","240","0.3125","-0.9746094","0.0390625","-1.0625","0.96875","-1.125"
"1573730104511","241","0.32617188","-0.92285156","0.0390625","-0.0625","1.9375","-3.8125"
"1573730104511","242","0.3232422","-0.9560547","0.033203125","-1.1875","-0.5","-1.59375"
"1573730104511","243","0.3388672","-0.92871094","0.018554688","-1.1875","1.375","-2.75"
"1573730104511","244","0.32226562","-0.92578125","0.02734375","-2.21875","1.5625","-2.28125"
"1573730104512","245","0.3544922","-0.9394531","0.03125","-1.0625","1.28125","-1.25"
"1573730104512","246","0.31347656","-0.9345703","0.01953125","2.96875","0.71875","0.0"
"1573730104512","247","0.3125","-0.92578125","0.041015625","4.0625","1.09375","1.75"
"1573730104512","248","0.3330078","-0.9296875","0.056640625","2.375","1.75","1.3125"
"1573730104513","249","0.30371094","-0.9453125","0.046875","0.28125","0.40625","2.0"
"1573730104909","250","0.32128906","-0.9482422","0.032226562","0.03125","2.96875","0.21875"
"1573730104909","251","0.36914062","-0.9472656","0.06347656","-3.8125","2.59375","-1.53125"
"1573730104909","252","0.30664062","-0.95996094","0.0234375","-1.34375","1.9375","-1.40625"
"1573730104910","253","0.3671875","-0.92285156","0.049804688","-4.15625","2.78125","-1.84375"
"1573730104911","254","0.2763672","-0.9355469","0.059570312","1.6875","1.03125","1.4375"
"1573730104911","255","0.375","-0.9003906","0.026367188","-0.1875","1.4375","1.3125"
"1573730104911","256","0.2939453","-0.9550781","0.047851562","2.3125","2.0","0.90625"
"1573730104912","257","0.3330078","-0.96777344","0.0390625","4.9375","3.59375","1.4375"
"1573730104912","258","0.3330078","-0.9082031","0.0546875","2.96875","4.8125","1.3125"
"1573730104912","259","0.25195312","-0.9404297","0.12890625","9.5625","1.875","4.1875"
"1573730105700","260","0.31445312","-0.921875","0.029296875","1.3125","-5.375","5.78125"
"1573730105700","261","0.3564453","-0.9511719","0.06542969","3.90625","4.6875","0.96875"
"1573730105700","262","0.24121094","-1.0322266","0.06933594","6.8125","-0.9375","-1.71875"
"1573730105701","263","0.3828125","-0.9013672","0.072265625","-0.4375","-0.375","-1.84375"
"1573730105701","264","0.26757812","-0.9638672","0.08496094","2.78125","2.84375","-4.90625"
"1573730105703","265","0.33398438","-0.89453125","0.072265625","3.03125","-3.0625","-1.125"
"1573730105703","266","0.3203125","-0.9511719","0.08984375","2.5","0.34375","-2.09375"
"1573730105704","267","0.28808594","-0.93847656","0.08691406","0.28125","-3.1875","-0.5625"
"1573730105704","268","0.3388672","-0.9550781","0.07324219","-1.40625","-2.28125","-1.25"
"1573730105704","269","0.29296875","-0.9248047","0.103515625","-1.25","2.96875","-2.46875"
"1573730105897","270","0.31054688","-0.9169922","0.08984375","-4.65625","-2.03125","0.03125"
"1573730105898","271","0.3310547","-0.9550781","0.0703125","-3.4375","-2.15625","-0.125"
"1573730105899","272","0.31445312","-0.91796875","0.083984375","-1.25","-0.9375","0.0"
"1573730105899","273","0.32617188","-0.95214844","0.059570312","-0.6875","-4.53125","2.5"
"1573730105899","274","0.3359375","-0.93847656","0.087890625","0.46875","-3.90625","0.65625"
"1573730105899","275","0.2763672","-0.91015625","0.07519531","5.53125","-7.8125","4.0"
"1573730105900","276","0.35839844","-0.93652344","0.10058594","-1.3125","-0.8125","0.28125"
"1573730105901","277","0.26464844","-0.9638672","0.07714844","0.09375","-1.34375","-0.5"
"1573730105901","278","0.31640625","-0.9511719","0.06542969","-4.09375","1.75","-1.65625"
"1573730105901","279","0.33007812","-0.9482422","0.055664062","-6.0","4.875","-3.5"
"1573730106098","280","0.3154297","-0.9482422","0.068359375","-4.84375","5.71875","-4.71875"
"1573730106098","281","0.33398438","-0.9326172","0.06738281","-2.875","4.25","-3.0"
"1573730106099","282","0.30859375","-0.9345703","0.0625","-5.6875","2.90625","-3.8125"
"1573730106099","283","0.32226562","-0.9296875","0.09082031","-7.46875","5.71875","-3.5"
"1573730106099","284","0.296875","-0.9453125","0.0390625","-7.15625","5.0625","-2.75"
"1573730106099","285","0.36523438","-0.9189453","0.06542969","-6.25","5.1875","-2.09375"
"1573730106100","286","0.3154297","-0.9423828","0.07910156","-5.8125","4.75","-3.5625"
"1573730106100","287","0.3310547","-0.9453125","0.056640625","-2.53125","3.15625","-0.125"
"1573730106100","288","0.33789062","-0.9453125","0.06738281","2.0","3.90625","-0.25"
"1573730106101","289","0.30078125","-0.9433594","0.049804688","5.21875","2.0","-0.5625"
"1573730106496","290","0.34960938","-0.9355469","0.07519531","2.84375","6.9375","0.09375"
"1573730106497","291","0.29492188","-0.9472656","0.06933594","3.90625","7.25","-1.84375"
"1573730106497","292","0.31933594","-0.9375","0.087890625","-0.3125","4.5","-0.125"
"1573730106497","293","0.31933594","-0.9423828","0.06933594","-2.9375","7.1875","-3.90625"
"1573730106498","294","0.34472656","-0.9423828","0.08105469","-0.125","7.625","-3.1875"
"1573730106498","295","0.3173828","-0.9326172","0.08300781","3.34375","4.375","-1.59375"
"1573730106498","296","0.33496094","-0.9316406","0.068359375","2.96875","4.0","-1.71875"
"1573730106498","297","0.32226562","-0.9394531","0.09472656","-0.9375","4.625","-2.28125"
"1573730106499","298","0.30566406","-0.91503906","0.055664062","-2.15625","-7.21875","-2.59375"
"1573730106499","299","0.34570312","-0.96777344","0.10839844","-3.25","7.3125","-4.90625"
"1573730106894","300","0.3251953","-0.92871094","0.06738281","-4.53125","0.09375","-3.75"
"1573730106894","301","0.38183594","-0.90234375","0.07910156","-7.03125","-0.0625","-5.9375"
"1573730106894","302","0.3017578","-0.9892578","0.08203125","-3.6875","8.96875","-4.53125"
"1573730106895","303","0.3359375","-0.90625","0.08300781","-1.90625","6.625","-3.5"
"1573730106895","304","0.34277344","-0.921875","0.0703125","-8.4375","9.3125","-0.375"
"1573730106895","305","0.32714844","-0.92578125","0.10058594","-2.6875","12.125","0.46875"
"1573730106896","306","0.3330078","-0.89453125","0.07910156","-4.71875","5.34375","0.90625"
"1573730106896","307","0.3388672","-0.9404297","0.07324219","-4.78125","7.0625","-0.25"
"1573730106896","308","0.35058594","-0.9580078","0.07128906","-12.46875","9.875","-2.34375"
"1573730106897","309","0.35742188","-0.9345703","0.053710938","-13.1875","11.09375","-3.5"
"1573730107293","310","0.3017578","-0.91796875","0.064453125","-13.25","12.3125","-2.9375"
"1573730107294","311","0.31347656","-0.9580078","0.06542969","-12.96875","16.59375","-1.1875"
"1573730107294","312","0.4013672","-0.9267578","0.064453125","-22.15625","16.59375","-2.6875"
"1573730107294","313","0.3095703","-0.9189453","0.037109375","-18.3125","17.0","-4.28125"
"1573730107295","314","0.3203125","-0.9277344","0.0546875","5.78125","8.15625","0.65625"
"1573730107295","315","0.3408203","-0.93847656","0.0546875","-4.40625","2.125","1.21875"
"1573730107295","316","0.33203125","-0.94140625","0.068359375","-3.5625","3.84375","1.875"
"1573730107295","317","0.31347656","-0.93652344","0.05078125","-1.90625","7.0625","1.4375"
"1573730107296","318","0.32714844","-0.9423828","0.055664062","-0.625","5.84375","2.65625"
"1573730107296","319","0.3017578","-0.9589844","0.032226562","-7.53125","10.96875","0.84375"
"1573730107688","320","0.37402344","-0.92089844","0.03515625","-4.15625","11.75","-1.3125"
"1573730107689","321","0.33398438","-0.9345703","0.051757812","-6.78125","11.875","-1.40625"
"1573730107689","322","0.33691406","-0.9277344","0.052734375","-6.5","10.84375","-2.8125"
"1573730107689","323","0.36132812","-0.9248047","0.051757812","-2.03125","5.96875","-0.4375"
"1573730107689","324","0.3408203","-0.93066406","0.051757812","-3.125","3.84375","-1.1875"
"1573730107691","325","0.31152344","-0.9267578","0.049804688","-2.9375","1.9375","-0.1875"
"1573730107691","326","0.34472656","-0.94140625","0.043945312","0.0","2.71875","-0.1875"
"1573730107692","327","0.30566406","-0.95410156","0.07910156","-5.8125","3.34375","-0.5625"
"1573730107692","328","0.34375","-0.9511719","0.048828125","-1.46875","2.84375","0.21875"
"1573730107692","329","0.3359375","-0.9121094","0.026367188","-4.15625","0.84375","0.0"
"1573730108086","330","0.3251953","-0.95410156","0.04296875","-5.09375","1.5625","-1.46875"
"1573730108087","331","0.3486328","-0.94628906","0.029296875","-3.75","2.1875","-1.90625"
"1573730108087","332","0.36914062","-0.90722656","0.040039062","-2.875","-1.53125","-1.65625"
"1573730108087","333","0.31445312","-0.94433594","0.0390625","-3.1875","-0.75","-0.5"
"1573730108087","334","0.31445312","-0.9472656","0.041992188","-3.5625","5.53125","-0.3125"
"1573730108088","335","0.29492188","-0.9160156","0.04296875","-0.8125","1.9375","1.5625"
"1573730108088","336","0.3046875","-0.93066406","0.044921875","-0.0625","2.90625","2.71875"
"1573730108089","337","0.33007812","-0.9501953","0.030273438","-4.59375","4.125","0.34375"
"1573730108090","338","0.3154297","-0.9707031","0.048828125","-1.96875","6.625","-0.6875"
"1573730108090","339","0.3125","-0.9560547","0.040039062","-3.0","3.03125","-0.4375"
"1573730108483","340","0.3671875","-0.9267578","0.026367188","-1.125","4.0625","-0.5625"
"1573730108484","341","0.3017578","-0.9238281","0.034179688","-2.75","4.75","-0.625"
"1573730108484","342","0.33007812","-0.94628906","0.02734375","-8.625","2.5","1.3125"
"1573730108484","343","0.3466797","-0.9589844","0.0146484375","-1.59375","6.75","-2.875"
"1573730108484","344","0.2861328","-0.96777344","0.05859375","-7.03125","10.65625","-3.90625"
"1573730108484","345","0.34375","-0.92578125","0.047851562","-2.8125","5.96875","-1.90625"
"1573730108485","346","0.32910156","-0.91308594","0.0390625","0.0","2.71875","-1.25"
"1573730108485","347","0.30078125","-0.92871094","0.064453125","0.53125","5.46875","-1.90625"
"1573730108485","348","0.31933594","-0.9453125","0.0087890625","0.0","2.65625","-0.5"
"1573730108487","349","0.38964844","-0.93652344","0.016601562","-4.53125","-0.875","-1.59375"
"1573730108881","350","0.31054688","-0.96972656","0.017578125","-3.5","5.1875","-5.09375"
"1573730108881","351","0.35253906","-0.9277344","0.016601562","-1.65625","1.75","-3.5625"
"1573730108881","352","0.3486328","-0.91796875","0.053710938","-6.71875","2.25","-3.25"
"1573730108881","353","0.2607422","-0.9482422","0.05859375","-2.21875","7.4375","-0.125"
"1573730108882","354","0.34570312","-0.9189453","0.016601562","-2.8125","4.6875","0.28125"
"1573730108882","355","0.375","-0.95214844","0.038085938","-4.78125","4.875","-1.71875"
"1573730108882","356","0.29589844","-0.9580078","0.051757812","-0.625","7.1875","-2.8125"
"1573730108882","357","0.36132812","-0.9238281","0.025390625","0.34375","2.1875","-0.9375"
"1573730108883","358","0.33496094","-0.9277344","0.028320312","-3.625","4.25","-0.6875"
"1573730108883","359","0.3330078","-0.94433594","0.02734375","-3.375","3.84375","-0.3125"
"1573730109280","360","0.3310547","-0.93847656","0.015625","-6.4375","0.90625","-0.125"
"1573730109282","361","0.32617188","-0.9472656","0.029296875","-4.90625","4.0","0.09375"
"1573730109282","362","0.3251953","-0.9316406","0.032226562","-3.625","1.375","-0.625"
"1573730109283","363","0.3203125","-0.93359375","0.034179688","-1.125","1.6875","-0.75"
"1573730109283","364","0.31835938","-0.94140625","0.030273438","1.3125","2.78125","0.09375"
"1573730109284","365","0.3232422","-0.93066406","0.025390625","-1.0625","1.3125","0.84375"
"1573730109284","366","0.3330078","-0.95214844","0.02734375","-2.75","2.65625","-0.625"
"1573730109284","367","0.33007812","-0.9472656","0.029296875","-1.1875","2.5","-0.625"
"1573730109285","368","0.34179688","-0.93359375","0.03125","-1.40625","1.28125","-1.125"
"1573730109285","369","0.3408203","-0.93066406","0.041015625","-0.5625","1.15625","-2.28125"
"1573730109677","370","0.30273438","-0.9511719","0.02734375","0.28125","0.84375","0.0"
"1573730109678","371","0.33691406","-0.9296875","0.03515625","0.09375","1.03125","0.34375"
"1573730109678","372","0.328125","-0.9375","0.025390625","-1.0","0.96875","-1.71875"
"1573730109679","373","0.37597656","-0.953125","0.040039062","-1.46875","0.90625","-0.8125"
"1573730109680","374","0.32714844","-0.9326172","0.032226562","-1.0","-1.65625","-2.28125"
"1573730109680","375","0.33203125","-0.93652344","0.020507812","2.0","1.3125","-0.8125"
"1573730109680","376","0.32617188","-0.9316406","0.025390625","0.15625","1.875","0.09375"
"1573730109681","377","0.31054688","-0.9238281","0.038085938","-1.125","3.46875","-1.125"
"1573730109681","378","0.31640625","-0.9433594","0.03515625","1.03125","3.21875","0.0"
"1573730109681","379","0.3310547","-0.9375","0.03125","-3.6875","0.96875","0.0"
"1573730110075","380","0.33789062","-0.9453125","0.045898438","-1.40625","3.53125","-0.625"
"1573730110075","381","0.31152344","-0.9345703","0.045898438","-2.46875","1.6875","-1.84375"
"1573730110076","382","0.35546875","-0.9423828","0.03125","1.09375","0.71875","-1.0625"
"1573730110076","383","0.33007812","-0.93652344","0.036132812","0.15625","2.1875","-1.59375"
"1573730110076","384","0.3251953","-0.9453125","0.036132812","-1.0625","4.1875","-1.84375"
"1573730110077","385","0.35351562","-0.9404297","0.024414062","-2.28125","3.34375","-1.78125"
"1573730110078","386","0.328125","-0.9404297","0.043945312","-1.46875","4.25","-1.25"
"1573730110078","387","0.34570312","-0.92871094","0.048828125","-0.4375","4.125","-1.40625"
"1573730110078","388","0.32226562","-0.92578125","0.051757812","-0.0625","1.75","-0.5"
"1573730110079","389","0.32714844","-0.93359375","0.041992188","-0.375","1.5","0.09375"
"1573730110470","390","0.3359375","-0.93359375","0.05078125","0.15625","0.09375","1.875"
"1573730110471","391","0.34277344","-0.9394531","0.06640625","0.71875","0.40625","0.96875"
"1573730110471","392","0.31347656","-0.9355469","0.038085938","6.03125","-1.59375","2.375"
"1573730110471","393","0.32421875","-0.9042969","0.057617188","-0.75","-12.78125","5.34375"
"1573730110472","394","0.33398438","-0.9794922","0.061523438","0.03125","-10.40625","4.0"
"1573730110472","395","0.34277344","-0.94140625","0.038085938","3.03125","-9.21875","0.46875"
"1573730110472","396","0.3095703","-0.93847656","0.038085938","-1.59375","-3.875","-0.875"
"1573730110473","397","0.32910156","-1.0029297","0.05078125","0.84375","3.53125","-0.8125"
"1573730110474","398","0.3203125","-0.82910156","0.0107421875","2.59375","-1.53125","0.46875"
"1573730110474","399","0.33789062","-0.9765625","0.052734375","-4.65625","1.6875","0.15625"
"1573730110869","400","0.32714844","-0.98046875","0.06347656","-0.5625","-4.21875","1.875"
"1573730110869","401","0.3544922","-0.8642578","0.041992188","-1.1875","-8.4375","3.21875"
"1573730110870","402","0.31933594","-1.0224609","0.061523438","-6.0625","0.71875","-2.09375"
"1573730110870","403","0.3076172","-0.9189453","0.056640625","-2.15625","-5.15625","-0.3125"
"1573730110870","404","0.31347656","-0.8935547","0.051757812","-3.25","-3.3125","2.25"
"1573730110870","405","0.29101562","-0.9746094","0.047851562","-2.875","3.71875","0.0"
"1573730110870","406","0.3125","-0.9472656","0.026367188","-5.875","-0.75","1.625"
"1573730110871","407","0.35351562","-0.9580078","0.045898438","-4.78125","6.9375","-0.875"
"1573730110871","408","0.28320312","-0.9560547","0.032226562","-5.15625","8.65625","-2.6875"
"1573730110872","409","0.3310547","-0.90625","0.022460938","-5.875","3.03125","-0.1875"
"1573730111267","410","0.31347656","-0.9580078","0.013671875","-6.53125","3.84375","-0.25"
"1573730111268","411","0.31640625","-0.92578125","9.765625E-4","-5.3125","4.0","-1.0"
"1573730111268","412","0.31933594","-0.95703125","0.015625","-3.1875","4.1875","1.4375"
"1573730111268","413","0.32421875","-0.9560547","0.01171875","-1.40625","4.875","-0.625"
"1573730111268","414","0.31445312","-0.93359375","0.016601562","-1.3125","6.75","-0.5625"
"1573730111269","415","0.3095703","-0.9482422","0.021484375","-1.25","5.34375","3.21875"
"1573730111269","416","0.34570312","-0.9404297","0.024414062","-1.84375","2.78125","3.03125"
"1573730111269","417","0.32226562","-0.9589844","0.0390625","-2.8125","3.84375","2.25"
"1573730111269","418","0.26367188","-0.94921875","0.01953125","-1.71875","10.0","-0.875"
"1573730111270","419","0.34375","-0.9296875","0.0029296875","-7.875","5.71875","-1.0625"
"1573730111663","420","0.28222656","-0.95703125","0.05859375","-2.75","8.96875","-0.25"
"1573730111664","421","0.2607422","-0.9589844","0.016601562","-2.46875","6.625","-2.28125"
"1573730111665","422","0.37890625","-0.9482422","-0.015625","-9.21875","1.28125","-1.96875"
"1573730111665","423","0.2763672","-0.9482422","0.056640625","-2.625","6.21875","-2.40625"
"1573730111666","424","0.296875","-0.94921875","0.026367188","-0.1875","-0.8125","-1.78125"
"1573730111666","425","0.35253906","-0.9423828","-0.0068359375","-7.875","-1.90625","-0.5"
"1573730111666","426","0.2783203","-0.9550781","0.036132812","-4.46875","5.28125","-5.21875"
"1573730111666","427","0.296875","-0.94628906","0.025390625","-1.1875","0.03125","-1.65625"
"1573730111667","428","0.36816406","-0.921875","-0.001953125","-3.5625","-5.03125","-1.125"
"1573730111667","429","0.2890625","-0.9609375","0.029296875","-0.625","4.9375","-3.90625"
"1573730112063","430","0.30371094","-0.953125","0.013671875","2.4375","-0.4375","-1.53125"
"1573730112064","431","0.359375","-0.9199219","-0.009765625","1.3125","-5.09375","1.3125"
"1573730112064","432","0.29785156","-0.94921875","0.02734375","-0.625","2.0625","-1.125"
"1573730112064","433","0.30273438","-0.9423828","0.015625","0.46875","-1.53125","0.0"
"1573730112065","434","0.33203125","-0.94628906","0.005859375","-2.59375","-1.53125","0.84375"
"1573730112065","435","0.31640625","-0.9550781","0.030273438","-1.25","3.15625","-0.4375"
"1573730112066","436","0.3095703","-0.94140625","0.01171875","0.15625","0.28125","0.65625"
"1573730112066","437","0.30371094","-0.9472656","-0.005859375","-1.125","1.03125","0.84375"
"1573730112066","438","0.3232422","-0.9345703","0.0146484375","0.34375","2.90625","0.21875"
"1573730112067","439","0.30078125","-0.93847656","0.041015625","-1.65625","1.5625","-0.1875"
"1573730112459","440","0.3095703","-0.9580078","0.021484375","0.96875","1.5","-0.6875"
"1573730112460","441","0.30566406","-0.9423828","0.017578125","-0.4375","0.90625","0.46875"
"1573730112460","442","0.3076172","-0.93359375","0.033203125","-0.4375","0.09375","0.46875"
"1573730112460","443","0.31445312","-0.9511719","0.022460938","-0.5","0.46875","-0.625"
"1573730112461","444","0.32714844","-0.9316406","9.765625E-4","1.5625","-2.46875","0.65625"
"1573730112462","445","0.3408203","-0.9277344","0.038085938","2.3125","-6.84375","0.78125"
"1573730112462","446","0.30859375","-0.9326172","0.036132812","1.03125","-8.9375","-1.0"
"1573730112462","447","0.30273438","-0.9550781","0.0078125","-3.4375","-4.46875","-5.09375"
"1573730112463","448","0.32128906","-0.97265625","9.765625E-4","-4.78125","-9.40625","-4.78125"
"1573730112463","449","0.27148438","-0.9873047","0.034179688","-5.75","2.375","-5.4375"
"1573730112856","450","0.29785156","-0.9511719","-0.0029296875","-2.09375","2.59375","-6.0625"
"1573730112857","451","0.34570312","-0.93847656","0.00390625","-9.96875","-1.0625","-0.9375"
"1573730112857","452","0.31933594","-0.9267578","0.0068359375","-2.21875","1.625","-3.375"
"1573730112857","453","0.37304688","-0.9199219","-0.018554688","-5.09375","-5.3125","-2.9375"
"1573730112857","454","0.37402344","-0.9472656","0.009765625","-12.84375","-2.21875","-3.6875"
"1573730112858","455","0.3564453","-0.94921875","-0.0087890625","1.5625","-3.0625","-8.1875"
"1573730112858","456","0.30566406","-0.96777344","0.0029296875","-4.71875","-7.40625","-4.34375"
"1573730112859","457","0.3125","-0.9472656","-9.765625E-4","-7.53125","-0.875","-4.34375"
"1573730112859","458","0.3466797","-0.93359375","-0.005859375","2.25","-0.75","0.15625"
"1573730112860","459","0.3154297","-0.89160156","0.0","5.0","-6.5","1.625"
"1573730113255","460","0.3623047","-0.92578125","0.005859375","1.3125","-3.875","-0.125"
"1573730113255","461","0.3154297","-0.95410156","9.765625E-4","4.375","-4.21875","-0.875"
"1573730113255","462","0.3408203","-0.9375","-0.025390625","3.71875","-5.15625","-1.1875"
"1573730113256","463","0.3359375","-0.9453125","-0.00390625","-0.5","-0.8125","-1.84375"
"1573730113256","464","0.3203125","-0.9589844","0.0087890625","-4.78125","0.40625","-2.40625"
"1573730113256","465","0.3076172","-0.9472656","-0.0048828125","-0.8125","1.8125","-1.0625"
"1573730113256","466","0.34960938","-0.9111328","-0.01953125","-0.75","0.84375","-0.375"
"1573730113257","467","0.36914062","-0.9316406","-0.0068359375","-3.6875","2.3125","-1.34375"
"1573730113257","468","0.33984375","-0.9316406","-0.0234375","-2.03125","2.125","-3.5"
"1573730113258","469","0.375","-0.9375","-0.03125","-3.625","-1.125","-2.9375"
"1573730113652","470","0.3232422","-0.96191406","-9.765625E-4","-4.90625","5.59375","-5.03125"
"1573730113652","471","0.35351562","-0.9121094","0.0068359375","-1.90625","3.03125","-2.28125"
"1573730113653","472","0.34277344","-0.921875","0.016601562","-1.90625","0.09375","1.3125"
"1573730113653","473","0.3671875","-0.95214844","-0.01953125","0.96875","2.25","-0.5625"
"1573730113653","474","0.35253906","-0.9355469","-0.0068359375","-1.1875","-0.3125","2.3125"
"1573730113654","475","0.35546875","-0.91308594","-0.021484375","-1.46875","-2.46875","0.34375"
"1573730113654","476","0.38183594","-0.9423828","-0.032226562","-0.0625","-3.875","-2.53125"
"1573730113654","477","0.3251953","-0.9355469","-0.0126953125","-2.03125","-1.0","-2.09375"
"1573730113654","478","0.34570312","-0.9394531","-0.0048828125","-2.625","-1.84375","-1.3125"
"1573730113655","479","0.33691406","-0.93847656","-0.0029296875","-0.3125","-2.9375","0.21875"
"1573730114049","480","0.3076172","-0.92871094","0.0","5.34375","-2.59375","1.8125"
"1573730114051","481","0.3544922","-0.93847656","-0.0048828125","3.53125","-4.03125","1.09375"
"1573730114052","482","0.3203125","-0.9355469","-0.00390625","2.71875","-4.40625","1.4375"
"1573730114052","483","0.31933594","-0.9482422","-0.017578125","5.34375","0.71875","1.625"
"1573730114052","484","0.38183594","-0.92871094","-0.025390625","-0.5","-0.0625","-1.78125"
"1573730114052","485","0.3359375","-0.95410156","0.0","-0.6875","3.40625","-2.53125"
"1573730114053","486","0.34179688","-0.9453125","-0.0126953125","-1.25","4.3125","-3.1875"
"1573730114053","487","0.4033203","-0.91796875","-0.01171875","-2.28125","-1.34375","-2.75"
"1573730114053","488","0.31933594","-0.93847656","0.030273438","3.9375","-0.875","0.84375"
"1573730114053","489","0.3154297","-0.9238281","-0.0078125","7.3125","-3.375","1.6875"
"1573730114446","490","0.40527344","-0.9121094","0.0","0.0","-3.4375","1.09375"
"1573730114446","491","0.33691406","-0.9355469","0.032226562","2.0625","-3.25","-1.125"
"1573730114446","492","0.34277344","-0.953125","0.0029296875","7.5625","-4.78125","-0.875"
"1573730114447","493","0.3515625","-0.9199219","0.017578125","2.78125","-4.15625","0.03125"
"1573730114448","494","0.31347656","-0.9296875","0.020507812","0.34375","-4.15625","2.65625"
"1573730114448","495","0.3515625","-0.9550781","9.765625E-4","0.09375","-4.03125","0.15625"
"1573730114448","496","0.33789062","-0.94433594","0.022460938","-0.875","-2.625","1.8125"
"1573730114448","497","0.35351562","-0.93359375","-0.0087890625","2.5","-4.65625","-1.3125"
"1573730114449","498","0.3154297","-0.9355469","0.026367188","-0.6875","-3.5","0.90625"
"1573730114449","499","0.3486328","-0.95996094","-0.016601562","0.34375","2.96875","-2.6875"
"1573730114844","500","0.3720703","-0.93066406","-0.020507812","-6.375","-1.40625","-1.96875"
"1573730114844","501","0.33496094","-0.9404297","0.01171875","-2.75","5.46875","-2.46875"
"1573730114844","502","0.37695312","-0.9296875","-0.043945312","-2.75","1.09375","-1.96875"
"1573730114845","503","0.38671875","-0.9042969","-0.022460938","-1.3125","4.5","-4.53125"
"1573730114845","504","0.35546875","-0.9033203","0.01953125","13.0","15.0625","-5.625"
"1573730114846","505","0.33984375","-0.9355469","0.052734375","4.375","15.84375","-4.96875"
"1573730114846","506","0.22460938","-0.9033203","0.025390625","14.21875","-5.09375","-0.9375"
"1573730114846","507","0.34960938","-0.9550781","0.043945312","6.15625","-1.78125","8.59375"
"1573730114847","508","0.31640625","-0.99902344","-0.025390625","-6.25","-3.5","4.5625"
"1573730114847","509","0.38183594","-0.98046875","0.009765625","-14.59375","0.84375","0.65625"
"1573730115242","510","0.35253906","-0.92285156","0.0390625","-10.5625","5.96875","-5.09375"
"1573730115242","511","0.40820312","-0.89746094","0.030273438","-15.15625","2.84375","-3.125"
"1573730115242","512","0.3076172","-0.94433594","0.028320312","-3.4375","-0.5625","0.09375"
"1573730115243","513","0.37890625","-0.9189453","-0.001953125","-9.59375","-0.6875","-1.0625"
"1573730115243","514","0.34765625","-0.9716797","0.041015625","-23.15625","6.09375","-2.28125"
"1573730115243","515","0.32910156","-0.9238281","-0.1015625","-7.28125","-3.5","-4.53125"
"1573730115243","516","0.3671875","-0.953125","0.03125","-14.71875","10.78125","0.09375"
"1573730115245","517","0.3203125","-0.95996094","-0.06640625","-4.59375","7.75","-4.34375"
"1573730115245","518","0.39941406","-0.89941406","-0.018554688","-15.9375","2.96875","0.0"
"1573730115246","519","0.29492188","-0.95703125","-0.048828125","-12.28125","4.625","-1.78125"
"1573730115638","520","0.39160156","-0.8925781","-0.0546875","-7.15625","-2.53125","-2.28125"
"1573730115639","521","0.31347656","-0.9248047","-0.015625","-8.5","1.09375","0.71875"
"1573730115639","522","0.328125","-0.984375","-0.08984375","-6.71875","2.65625","-4.21875"
"1573730115639","523","0.4326172","-0.89453125","-0.047851562","-8.0","1.03125","-2.75"
"1573730115640","524","0.27734375","-0.9951172","-0.015625","-3.3125","7.3125","0.15625"
"1573730115640","525","0.38378906","-0.91796875","-0.12792969","-5.25","-4.65625","-4.28125"
"1573730115640","526","0.36523438","-0.8984375","-0.0048828125","-7.09375","14.6875","2.0"
"1573730115640","527","0.31152344","-0.95996094","-0.08300781","-11.4375","8.96875","-4.90625"
"1573730115641","528","0.41992188","-0.9111328","-0.10058594","-15.875","2.78125","-2.8125"
"1573730115643","529","0.31445312","-0.94140625","-0.044921875","-3.5625","17.3125","-1.125"
"1573730116038","530","0.40429688","-0.921875","-0.068359375","-8.0625","1.9375","-3.4375"
"1573730116039","531","0.36523438","-0.8964844","-0.06738281","-5.4375","-0.4375","-0.6875"
"1573730116039","532","0.35351562","-0.9355469","-0.060546875","-5.09375","4.125","-4.21875"
"1573730116039","533","0.36328125","-0.9375","-0.08496094","-4.21875","1.28125","-0.6875"
"1573730116039","534","0.38085938","-0.92089844","-0.09277344","-1.1875","0.84375","-1.90625"
"1573730116040","535","0.34277344","-0.9345703","-0.06640625","-4.65625","3.46875","-2.03125"
"1573730116040","536","0.35253906","-0.9248047","-0.103515625","-4.84375","0.40625","-1.53125"
"1573730116040","537","0.3955078","-0.91503906","-0.09667969","-5.6875","1.9375","-2.8125"
"1573730116040","538","0.36132812","-0.9326172","-0.08886719","-0.375","1.3125","-1.125"
"1573730116041","539","0.36328125","-0.9267578","-0.103515625","-1.59375","1.9375","-2.28125"
"1573730116437","540","0.375","-0.91503906","-0.11816406","1.15625","0.71875","-1.84375"
"1573730116438","541","0.39160156","-0.9345703","-0.06542969","0.65625","6.5625","-2.09375"
"1573730116439","542","0.3408203","-0.9189453","-0.083984375","0.71875","2.90625","-0.375"
"1573730116439","543","0.3701172","-0.9238281","-0.0859375","-0.9375","2.4375","0.03125"
"1573730116439","544","0.3642578","-0.9355469","-0.0703125","-3.8125","8.21875","0.34375"
"1573730116440","545","0.35839844","-0.90234375","-0.08496094","0.90625","3.71875","1.15625"
"1573730116440","546","0.3798828","-0.93652344","-0.09375","-0.4375","3.34375","0.53125"
"1573730116440","547","0.37109375","-0.95703125","-0.07421875","-3.0625","12.125","-1.3125"
"1573730116440","548","0.33398438","-0.9375","-0.07324219","-2.875","13.09375","1.875"
"1573730116441","549","0.34375","-0.90625","-0.111328125","2.5","13.15625","3.21875"
"1573730116832","550","0.4296875","-0.9199219","-0.059570312","1.5","19.21875","0.03125"
"1573730116832","551","0.34960938","-0.9707031","-0.05078125","-6.375","12.5625","3.46875"
"1573730116833","552","0.36035156","-0.9345703","-0.064453125","6.21875","15.0625","-0.5"
"1573730116834","553","0.41308594","-0.8623047","-0.0546875","6.46875","4.0","1.75"
"1573730116834","554","0.3330078","-0.9042969","-0.028320312","2.0","2.5","4.0"
"1573730116835","555","0.35742188","-0.95996094","-0.056640625","-0.5","6.09375","0.78125"
"1573730116835","556","0.39648438","-0.9316406","-0.078125","0.34375","-1.125","1.21875"
"1573730116835","557","0.3359375","-0.9375","-0.041992188","3.46875","2.3125","1.03125"
"1573730116835","558","0.328125","-0.9277344","-0.041015625","0.78125","1.375","1.6875"
"1573730116836","559","0.37109375","-0.9160156","-0.06738281","-0.5","-1.25","1.5625"
"1573730117229","560","0.34179688","-0.93066406","-0.032226562","0.09375","1.6875","-0.5"
"1573730117230","561","0.34375","-0.96191406","-0.040039062","-1.59375","3.28125","-0.25"
"1573730117230","562","0.3466797","-0.9375","-0.055664062","1.75","1.6875","0.21875"
"1573730117231","563","0.3701172","-0.92089844","-0.06542969","-2.15625","1.09375","-0.75"
"1573730117231","564","0.34375","-0.9394531","-0.052734375","-0.6875","3.9375","-1.59375"
"1573730117232","565","0.33496094","-0.9394531","-0.038085938","-1.3125","5.53125","-0.9375"
"1573730117233","566","0.37695312","-0.9082031","-0.043945312","0.65625","-1.25","0.65625"
"1573730117233","567","0.35253906","-0.93066406","-0.04296875","-0.625","1.28125","0.53125"
"1573730117234","568","0.31445312","-0.93066406","-0.04296875","-2.40625","3.59375","-1.40625"
"1573730117234","569","0.38476562","-0.9189453","-0.037109375","2.84375","-3.1875","1.3125"
"1573730117627","570","0.30859375","-0.9404297","-0.0068359375","-1.34375","0.28125","0.71875"
"1573730117628","571","0.33789062","-0.96191406","-0.05859375","3.03125","4.4375","-0.375"
"1573730117628","572","0.39453125","-0.921875","-0.043945312","0.59375","-0.1875","0.40625"
"1573730117628","573","0.35058594","-0.93652344","-0.013671875","-1.90625","1.9375","-1.65625"
"1573730117628","574","0.3173828","-0.95410156","-0.0234375","-3.8125","6.9375","-0.5625"
"1573730117629","575","0.3623047","-0.9189453","-0.022460938","-1.0","2.25","1.3125"
"1573730117629","576","0.3515625","-0.953125","-0.030273438","-2.75","1.15625","1.3125"
"1573730117630","577","0.3388672","-0.9580078","-0.001953125","-3.0625","11.21875","-3.125"
"1573730117631","578","0.30664062","-0.92285156","-0.056640625","6.34375","5.40625","0.21875"
"1573730117631","579","0.40234375","-0.8876953","-0.06640625","5.90625","1.3125","0.71875"
"1573730118026","580","0.3310547","-0.9355469","-0.041992188","-6.4375","4.0","-1.125"
"1573730118026","581","0.37402344","-0.96777344","-0.041992188","-6.3125","4.375","-3.4375"
"1573730118027","582","0.36523438","-0.9248047","-0.0107421875","-7.09375","-1.0625","-1.34375"
"1573730118027","583","0.3173828","-0.94433594","-0.0087890625","0.09375","1.75","-1.0625"
"1573730118027","584","0.33203125","-0.9375","-0.005859375","1.21875","1.03125","1.3125"
"1573730118027","585","0.33007812","-0.93066406","-0.01171875","2.84375","0.0","1.3125"
"1573730118028","586","0.3154297","-0.9482422","-0.015625","4.5625","4.0625","0.96875"
"1573730118028","587","0.38476562","-0.9375","-0.028320312","0.71875","1.21875","0.09375"
"1573730118028","588","0.37304688","-0.9394531","-0.032226562","-2.6875","-3.3125","-1.1875"
"1573730118030","589","0.29785156","-0.9423828","-0.045898438","-2.03125","5.1875","-3.4375"
"1573730118420","590","0.3623047","-0.9355469","-0.036132812","-1.25","0.65625","-1.46875"
"1573730118421","591","0.24804688","-0.9785156","-0.03515625","-6.71875","7.0625","0.28125"
"1573730118421","592","0.40039062","-0.9111328","-0.02734375","0.90625","8.15625","3.90625"
"1573730118421","593","0.39746094","-0.89746094","0.016601562","-1.65625","-0.375","3.78125"
"1573730118422","594","0.34375","-0.9375","0.005859375","-0.375","-1.90625","2.375"
"1573730118422","595","0.3720703","-0.89453125","-0.0146484375","3.84375","-6.71875","2.3125"
"1573730118422","596","0.3154297","-0.95996094","-0.016601562","-0.6875","-0.0625","0.09375"
"1573730118422","597","0.32714844","-0.9746094","-0.013671875","-2.75","3.9375","0.84375"
"1573730118423","598","0.33496094","-0.9375","-0.0146484375","-3.6875","7.1875","-0.75"
"1573730118423","599","0.3310547","-0.94140625","-0.036132812","-6.5","10.40625","-3.5625"
"1573730118820","600","0.3642578","-0.96484375","-0.01953125","-8.8125","13.59375","-2.34375"
"1573730118822","601","0.31445312","-0.92089844","-0.02734375","-11.71875","14.28125","-3.5"
"1573730118822","602","0.3154297","-0.94433594","-0.043945312","-12.40625","11.53125","-2.6875"
"1573730118822","603","0.34765625","-0.96191406","-0.05859375","-10.9375","8.78125","-1.46875"
"1573730118823","604","0.35742188","-0.9042969","-0.01953125","-15.15625","16.28125","-3.6875"
"1573730118823","605","0.35058594","-0.94433594","-0.025390625","-18.03125","21.40625","-5.03125"
"1573730118823","606","0.35546875","-0.9345703","-0.040039062","-16.1875","17.9375","-5.25"
"1573730118824","607","0.33007812","-0.9345703","-0.048828125","-20.03125","18.1875","-4.90625"
"1573730118824","608","0.35351562","-0.94140625","-0.061523438","-15.15625","13.0","-2.625"
"1573730118825","609","0.34960938","-0.92578125","-0.068359375","-9.53125","9.09375","-1.90625"
"1573730119217","610","0.34375","-0.93847656","-0.05859375","-12.28125","8.65625","-3.3125"
"1573730119217","611","0.36328125","-0.92578125","-0.068359375","-6.84375","9.3125","-3.5"
"1573730119218","612","0.35546875","-0.93066406","-0.07128906","-7.09375","3.71875","-1.90625"
"1573730119219","613","0.35253906","-0.9472656","-0.09082031","-5.875","5.71875","-2.8125"
"1573730119220","614","0.35839844","-0.91503906","-0.11328125","-5.5","5.40625","-2.15625"
"1573730119220","615","0.36328125","-0.92578125","-0.080078125","-3.96875","6.40625","-0.9375"
"1573730119220","616","0.3486328","-0.9355469","-0.06933594","1.375","7.8125","-1.40625"
"1573730119220","617","0.36035156","-0.92285156","-0.061523438","0.0","9.8125","-1.53125"
"1573730119221","618","0.33789062","-0.9501953","-0.059570312","-2.09375","11.09375","-1.0"
"1573730119221","619","0.3544922","-0.8876953","-0.07128906","-4.46875","6.09375","-1.125"
"1573730119616","620","0.40039062","-0.9472656","-0.07421875","-7.71875","6.40625","-1.59375"
"1573730119617","621","0.37402344","-0.93066406","-0.06347656","-9.59375","3.46875","-1.90625"
"1573730119617","622","0.38964844","-0.91796875","-0.08300781","-6.5","0.46875","-2.15625"
"1573730119617","623","0.3701172","-0.9472656","-0.07714844","-0.75","2.4375","-1.90625"
"1573730119617","624","0.33691406","-0.9003906","-0.07421875","-0.375","1.03125","-1.59375"
"1573730119619","625","0.37304688","-0.9140625","-0.07519531","-0.0625","0.84375","0.21875"
"1573730119619","626","0.3779297","-0.96191406","-0.060546875","-5.03125","1.5","0.78125"
"1573730119620","627","0.36523438","-0.9238281","-0.07128906","-1.78125","-0.0625","-0.375"
"1573730119620","628","0.3857422","-0.90722656","-0.09667969","0.59375","-2.21875","0.96875"
"1573730119620","629","0.34179688","-0.9580078","-0.09277344","-4.78125","1.28125","-0.5625"
"1573730120011","630","0.3935547","-0.8642578","-0.07910156","0.84375","-4.09375","-0.375"
"1573730120011","631","0.3359375","-0.9277344","-0.07519531","-2.59375","-2.09375","0.78125"
"1573730120011","632","0.3642578","-0.95410156","-0.091796875","0.40625","-2.53125","-1.53125"
"1573730120012","633","0.37109375","-0.92578125","-0.06347656","-2.53125","-6.53125","0.15625"
"1573730120012","634","0.33203125","-0.92578125","-0.07910156","2.90625","-2.28125","-0.125"
"1573730120012","635","0.37109375","-0.9404297","-0.10644531","7.625","-3.375","-0.125"
"1573730120012","636","0.3359375","-0.94921875","-0.06542969","-0.0625","-2.59375","-0.25"
"1573730120014","637","0.36132812","-0.89941406","-0.08105469","3.28125","-1.78125","0.03125"
"1573730120014","638","0.359375","-0.91308594","-0.10546875","1.375","-2.9375","1.3125"
"1573730120014","639","0.37597656","-0.95996094","-0.08203125","-2.21875","-0.625","-2.09375"
"1573730120409","640","0.38964844","-0.9326172","-0.060546875","-6.0","-2.875","-2.40625"
"1573730120410","641","0.30273438","-0.9091797","-0.07714844","5.0625","-0.4375","0.28125"
"1573730120410","642","0.3828125","-0.90527344","-0.091796875","7.84375","-5.03125","0.96875"
"1573730120410","643","0.38671875","-0.9433594","-0.0703125","1.9375","-6.25","0.65625"
"1573730120410","644","0.33398438","-0.9609375","-0.0625","1.75","1.21875","-2.40625"
"1573730120411","645","0.3798828","-0.8964844","-0.07324219","3.40625","-5.6875","0.0"
"1573730120411","646","0.35742188","-0.9267578","-0.06933594","2.375","-4.46875","1.3125"
"1573730120411","647","0.34960938","-0.9433594","-0.045898438","2.78125","-2.15625","0.03125"
"1573730120411","648","0.3701172","-0.9189453","-0.078125","5.46875","-6.59375","0.84375"
"1573730120413","649","0.35351562","-0.9345703","-0.05078125","2.375","-5.5625","1.375"
"1573730120807","650","0.35839844","-0.9345703","-0.041992188","2.3125","-6.0625","0.09375"
"1573730120807","651","0.33691406","-0.9375","-0.06542969","5.28125","-9.0625","0.71875"
"1573730120808","652","0.39648438","-0.9375","-0.07910156","3.71875","-11.84375","1.375"
"1573730120808","653","0.3671875","-0.9482422","-0.047851562","1.8125","-7.03125","-1.1875"
"1573730120808","654","0.3017578","-0.93847656","-0.07324219","5.96875","-5.09375","-0.4375"
"1573730120809","655","0.40722656","-0.92089844","-0.095703125","5.40625","-8.75","1.21875"
"1573730120809","656","0.34960938","-0.9248047","-0.021484375","6.40625","-2.625","0.34375"
"1573730120809","657","0.27441406","-0.93359375","-0.044921875","3.71875","-0.125","0.78125"
"1573730120809","658","0.38476562","-0.9082031","-0.055664062","5.1875","-5.5625","4.25"
"1573730120810","659","0.30664062","-0.9511719","-0.041015625","2.65625","0.40625","3.21875"
"1573730121204","660","0.35839844","-0.95214844","-0.059570312","2.5625","0.28125","0.78125"
"1573730121206","661","0.37890625","-0.9238281","-0.028320312","2.375","-3.90625","2.125"
"1573730121206","662","0.3095703","-0.9453125","-0.037109375","4.5","-3.25","2.0"
"1573730121206","663","0.36035156","-0.9326172","-0.052734375","6.09375","-3.1875","1.21875"
"1573730121207","664","0.33691406","-0.9326172","-0.029296875","5.59375","-6.0625","2.5625"
"1573730121207","665","0.36132812","-0.9501953","-0.024414062","9.4375","-8.125","2.0"
"1573730121209","666","0.35839844","-0.953125","-0.01171875","9.75","-14.46875","2.25"
"1573730121214","667","0.3984375","-0.9472656","-0.030273438","11.53125","-11.625","-1.71875"
"1573730121214","668","0.3203125","-0.91503906","0.055664062","3.28125","-7.09375","-2.46875"
"1573730121215","669","0.28320312","-0.9550781","0.03125","7.96875","-13.125","0.28125"
"1573730121602","670","0.28125","-0.92871094","-0.032226562","12.125","-14.65625","1.03125"
"1573730121603","671","0.30371094","-0.9345703","-0.01953125","4.25","-4.78125","0.65625"
"1573730121603","672","0.35351562","-0.9628906","-0.037109375","3.40625","-5.5","-3.0"
"1573730121604","673","0.35839844","-0.9433594","-0.001953125","-0.875","-1.71875","-2.46875"
"1573730121604","674","0.38671875","-0.9716797","-0.026367188","-1.34375","4.5","-4.78125"
"1573730121604","675","0.3466797","-0.92089844","-0.02734375","2.84375","-0.5625","-2.6875"
"1573730121605","676","0.3408203","-0.90234375","0.022460938","-5.375","8.53125","-3.96875"
"1573730121605","677","0.3017578","-0.9814453","-0.00390625","-10.4375","10.65625","0.46875"
"1573730121605","678","0.31835938","-0.94921875","-0.013671875","-6.59375","4.0625","1.4375"
"1573730121605","679","0.33984375","-0.92578125","-0.016601562","-6.125","7.75","-0.6875"
"1573730121998","680","0.37304688","-0.953125","-0.032226562","-15.03125","12.1875","-3.96875"
"1573730121998","681","0.375","-0.9394531","-0.033203125","-14.84375","4.875","-5.15625"
"1573730121999","682","0.32714844","-0.91796875","-0.056640625","-14.46875","2.78125","-5.75"
"1573730121999","683","0.36914062","-0.9501953","-0.056640625","-25.53125","14.15625","-6.375"
"1573730121999","684","0.3623047","-0.9355469","-0.057617188","-35.59375","21.65625","-7.15625"
"1573730122000","685","0.328125","-0.9140625","-0.04296875","-33.15625","15.5625","-6.375"
"1573730122000","686","0.3388672","-0.9277344","-0.10546875","-26.9375","2.0","-3.0"
"1573730122001","687","0.37890625","-0.9355469","-0.091796875","-26.5625","12.3125","-1.46875"
"1573730122001","688","0.34472656","-0.9326172","-0.07324219","-21.75","10.96875","-0.6875"
"1573730122001","689","0.36914062","-0.9189453","-0.15039062","-16.75","-3.0625","-2.46875"
"1573730122396","690","0.37402344","-0.9404297","-0.15527344","-15.15625","2.3125","-3.0"
"1573730122396","691","0.328125","-0.921875","-0.13085938","-13.1875","8.21875","-2.59375"
"1573730122397","692","0.3671875","-0.9013672","-0.17871094","-5.375","-2.09375","-2.21875"
"1573730122397","693","0.40429688","-0.94921875","-0.13671875","-2.6875","5.59375","-1.1875"
"1573730122397","694","0.3798828","-0.94628906","-0.13769531","-3.625","6.40625","-1.40625"
"1573730122397","695","0.32226562","-0.90234375","-0.13183594","-11.78125","1.03125","1.625"
"1573730122398","696","0.37597656","-0.8623047","-0.16015625","-5.9375","-7.71875","-1.125"
"1573730122399","697","0.3564453","-0.9169922","-0.16308594","-7.40625","1.5","0.34375"
"1573730122399","698","0.39257812","-0.9453125","-0.19921875","-11.0625","-1.53125","-4.71875"
"1573730122399","699","0.37402344","-0.9609375","-0.17675781","-6.96875","4.0625","-1.40625"
"1573730122793","700","0.3544922","-0.89941406","-0.19433594","2.3125","1.09375","-2.15625"
"1573730122794","701","0.37890625","-0.89453125","-0.16308594","-1.3125","2.375","-0.25"
"1573730122794","702","0.3232422","-0.9482422","-0.09277344","22.6875","13.40625","5.21875"
"1573730122794","703","0.3935547","-0.8378906","-0.1953125","23.65625","-9.46875","-1.59375"
"1573730122795","704","0.3857422","-0.9765625","-0.12988281","4.75","2.125","3.34375"
"1573730122795","705","0.34765625","-0.9501953","-0.16894531","8.84375","-0.1875","-1.65625"
"1573730122795","706","0.37890625","-0.8828125","-0.14550781","-5.03125","-7.8125","-0.625"
"1573730122795","707","0.3642578","-0.9638672","-0.13085938","-2.28125","1.8125","-0.8125"
"1573730122796","708","0.34570312","-0.9169922","-0.14746094","-1.53125","-2.28125","-1.71875"
"1573730122796","709","0.36328125","-0.9042969","-0.12695312","-0.6875","-1.53125","0.0"
"1573730123194","710","0.33691406","-0.9433594","-0.12402344","5.21875","4.375","-1.3125"
"1573730123194","711","0.3330078","-0.92285156","-0.13574219","-1.53125","2.4375","-0.5"
"1573730123194","712","0.390625","-0.9296875","-0.13867188","2.5","4.4375","-1.59375"
"1573730123195","713","0.375","-0.9345703","-0.11425781","3.71875","6.6875","-2.21875"
"1573730123195","714","0.35839844","-0.92578125","-0.12695312","1.875","3.59375","-1.84375"
"1573730123195","715","0.38378906","-0.91308594","-0.123046875","-0.5625","2.1875","-1.3125"
"1573730123195","716","0.38378906","-0.9248047","-0.123046875","1.75","1.8125","-1.71875"
"1573730123196","717","0.3720703","-0.91503906","-0.12988281","0.28125","-1.40625","-1.65625"
"1573730123196","718","0.38378906","-0.92285156","-0.13574219","-3.625","0.28125","-0.875"
"1573730123196","719","0.39160156","-0.9199219","-0.11816406","-7.78125","1.6875","-2.40625"
"1573730123589","720","0.35546875","-0.9013672","-0.107421875","-1.78125","-3.6875","-0.4375"
"1573730123591","721","0.33984375","-0.9140625","-0.09082031","-1.71875","2.65625","1.5"
"1573730123591","722","0.36132812","-0.9316406","-0.13476562","-4.09375","-1.65625","-0.6875"
"1573730123592","723","0.34960938","-0.89941406","-0.13476562","-3.5625","-5.21875","1.375"
"1573730123592","724","0.3564453","-0.95996094","-0.10253906","-7.875","2.90625","-0.75"
"1573730123592","725","0.38378906","-0.95703125","-0.16796875","0.71875","-6.3125","-2.875"
"1573730123592","726","0.3486328","-0.859375","-0.1328125","-1.0625","-3.4375","1.3125"
"1573730123593","727","0.35742188","-0.98828125","-0.1171875","-8.5","2.59375","-5.3125"
"1573730123593","728","0.38476562","-0.8798828","-0.1875","2.25","-5.21875","-5.625"
"1573730123593","729","0.39746094","-0.9394531","-0.123046875","-1.0625","4.625","-3.125"
"1573730123986","730","0.33007812","-0.9394531","-0.15429688","2.375","0.15625","-3.375"
"1573730123986","731","0.4296875","-0.8730469","-0.1484375","4.875","-3.96875","-1.71875"
"1573730123986","732","0.3671875","-0.9326172","-0.10546875","3.90625","1.75","2.0"
"1573730123987","733","0.3671875","-0.89941406","-0.140625","5.59375","-3.90625","-3.25"
"1573730123988","734","0.40722656","-0.890625","-0.12402344","7.1875","-6.1875","0.78125"
"1573730123988","735","0.35351562","-0.953125","-0.103515625","2.4375","-3.1875","-0.8125"
"1573730123988","736","0.3486328","-0.8955078","-0.11816406","7.75","-6.25","-0.625"
"1573730123989","737","0.38964844","-0.9169922","-0.08300781","2.25","-5.8125","1.5625"
"1573730123989","738","0.31835938","-0.95996094","-0.12597656","11.53125","-6.84375","0.28125"
"1573730123989","739","0.4013672","-0.8984375","-0.078125","1.3125","-7.71875","3.34375"
"1573730124384","740","0.30859375","-0.9794922","-0.12890625","-2.15625","-4.59375","1.6875"
"1573730124384","741","0.43847656","-0.9121094","-0.20214844","9.625","-7.21875","-7.9375"
"1573730124384","742","0.40429688","-0.90722656","-0.0078125","-4.34375","7.1875","-0.4375"
"1573730124385","743","0.2763672","-1.0068359","-0.15136719","0.59375","-0.5","-5.25"
"1573730124385","744","0.4716797","-0.81640625","-0.12695312","11.21875","-7.53125","-5.03125"
"1573730124385","745","0.3095703","-0.9326172","-0.020507812","1.875","2.5625","4.4375"
"1573730124386","746","0.3486328","-0.96875","-0.16015625","13.0","-8.0625","-6.0"
"1573730124386","747","0.4609375","-0.8388672","-0.064453125","17.375","-8.5","2.96875"
"1573730124386","748","0.25683594","-1.0058594","-0.064453125","2.125","-1.25","3.34375"
"1573730124386","749","0.43359375","-0.93066406","-0.13867188","6.09375","-7.9375","-5.21875"
"1573730124782","750","0.37402344","-0.8720703","-0.0146484375","13.15625","3.03125","4.875"
"1573730124782","751","0.30859375","-0.9794922","-0.09863281","1.5625","2.0","2.125"
"1573730124782","752","0.4921875","-0.890625","-0.08984375","2.96875","-3.4375","-4.21875"
"1573730124782","753","0.31152344","-0.93847656","-0.028320312","7.25","0.65625","3.53125"
"1573730124783","754","0.35546875","-0.9433594","-0.06933594","1.03125","0.34375","-1.0625"
"1573730124783","755","0.41503906","-0.8925781","-0.0546875","6.75","-5.5","2.5"
"1573730124783","756","0.34179688","-0.9433594","-0.048828125","6.40625","-3.0","1.5"
"1573730124785","757","0.3671875","-0.9404297","-0.068359375","3.9375","-2.875","0.90625"
"1573730124785","758","0.390625","-0.9169922","-0.0126953125","2.375","-2.46875","1.75"
"1573730124785","759","0.31445312","-0.94433594","-0.056640625","10.3125","-3.125","2.78125"
"1573730125180","760","0.36816406","-0.90527344","-0.049804688","4.5","-6.84375","1.625"
"1573730125180","761","0.33984375","-0.95996094","-0.0107421875","0.03125","2.0","2.90625"
"1573730125180","762","0.3173828","-0.953125","-0.045898438","7.90625","0.34375","-0.875"
"1573730125181","763","0.36621094","-0.8730469","-0.043945312","2.1875","-3.90625","0.96875"
"1573730125181","764","0.3310547","-0.9873047","-0.028320312","2.96875","5.125","1.15625"
"1573730125181","765","0.3310547","-0.9560547","-0.038085938","1.8125","6.46875","-1.59375"
"1573730125181","766","0.3828125","-0.8857422","-0.038085938","4.1875","1.03125","0.21875"
"1573730125182","767","0.3466797","-0.9482422","-0.018554688","2.125","7.5","0.46875"
"1573730125182","768","0.33789062","-0.9511719","-0.024414062","0.0","8.46875","-0.1875"
"1573730125183","769","0.35742188","-0.9345703","-0.055664062","-4.28125","10.3125","0.15625"
"1573730125578","770","0.36914062","-0.9433594","-0.028320312","-6.71875","19.40625","-1.84375"
"1573730125579","771","0.36035156","-0.94628906","0.0","-5.3125","18.28125","-3.375"
"1573730125579","772","0.34179688","-0.92089844","9.765625E-4","-5.5625","11.75","0.0"
"1573730125579","773","0.35839844","-0.9316406","-0.0126953125","-8.25","12.4375","-0.6875"
"1573730125579","774","0.359375","-0.9628906","-0.021484375","-8.1875","13.90625","0.03125"
"1573730125579","775","0.36328125","-0.9501953","-0.025390625","-17.34375","16.46875","-0.875"
"1573730125580","776","0.3720703","-0.9345703","-0.0107421875","-19.84375","16.15625","-2.8125"
"1573730125580","777","0.3359375","-0.9580078","-0.048828125","-20.59375","18.125","-5.5"
"1573730125580","778","0.36328125","-0.89941406","-0.07128906","-32.78125","22.875","-7.59375"
"1573730125580","779","0.37890625","-0.90527344","-0.056640625","-39.4375","25.375","-5.9375"
"1573730125974","780","0.35839844","-0.9248047","-0.08300781","-37.78125","30.5625","-6.4375"
"1573730125974","781","0.36914062","-0.93066406","-0.09472656","-36.8125","19.6875","-5.6875"
"1573730125974","782","0.3935547","-0.9267578","-0.111328125","-30.15625","13.09375","-3.4375"
"1573730125975","783","0.35351562","-0.9326172","-0.1328125","-11.125","10.65625","-0.1875"
"1573730125975","784","0.34570312","-0.9042969","-0.11621094","-11.3125","10.0","-0.125"
"1573730125975","785","0.3798828","-0.91796875","-0.13671875","-10.75","6.09375","-0.5"
"1573730125976","786","0.37890625","-0.9326172","-0.13476562","-8.9375","5.1875","-0.125"
"1573730125976","787","0.34472656","-0.9326172","-0.13769531","-1.40625","8.84375","0.09375"
"1573730125976","788","0.36621094","-0.9082031","-0.12695312","-2.40625","7.5625","0.65625"
"1573730125976","789","0.3779297","-0.91308594","-0.13085938","-2.875","3.03125","0.78125"
"1573730126373","790","0.35351562","-0.9355469","-0.13378906","-2.28125","6.15625","0.0"
"1573730126373","791","0.39257812","-0.9199219","-0.16601562","-4.09375","3.59375","-1.1875"
"1573730126374","792","0.4033203","-0.93652344","-0.14453125","-1.40625","5.0625","-0.75"
"1573730126374","793","0.35058594","-0.9248047","-0.140625","-5.15625","5.96875","-1.1875"
"1573730126374","794","0.38476562","-0.9003906","-0.15039062","-2.6875","5.59375","-1.96875"
"1573730126375","795","0.37597656","-0.9082031","-0.13671875","-3.625","3.84375","0.40625"
"1573730126375","796","0.3388672","-0.92871094","-0.12011719","-4.09375","9.3125","-0.375"
"1573730126375","797","0.39257812","-0.89941406","-0.13574219","-2.15625","5.96875","-0.875"
"1573730126375","798","0.35058594","-0.9433594","-0.11230469","-1.0625","7.75","1.6875"
"1573730126376","799","0.36621094","-0.91503906","-0.13476562","4.6875","9.25","-0.3125"
"1573730126769","800","0.40234375","-0.91503906","-0.13769531","-2.28125","5.0625","-0.8125"
"1573730126769","801","0.375","-0.95410156","-0.14257812","-3.96875","10.1875","-1.40625"
"1573730126770","802","0.3486328","-0.90527344","-0.1328125","-5.4375","10.0","-1.59375"
"1573730126770","803","0.42578125","-0.8984375","-0.119140625","-3.8125","6.40625","-2.28125"
"1573730126770","804","0.36816406","-0.93066406","-0.10253906","-3.375","8.09375","-0.1875"
"1573730126772","805","0.34277344","-0.93652344","-0.11425781","-8.125","8.53125","-0.3125"
"1573730126772","806","0.4091797","-0.8857422","-0.13671875","3.34375","3.34375","0.65625"
"1573730126772","807","0.3798828","-0.9404297","-0.10449219","-2.34375","5.1875","0.46875"
"1573730126773","808","0.3701172","-0.93359375","-0.14453125","-5.9375","4.0625","-1.59375"
"1573730126773","809","0.43066406","-0.8886719","-0.13964844","-2.34375","-2.53125","-1.0625"
"1573730127167","810","0.34570312","-0.93847656","-0.111328125","-0.4375","0.40625","0.03125"
"1573730127168","811","0.3671875","-0.92578125","-0.15722656","-1.125","-2.9375","-1.3125"
"1573730127168","812","0.4111328","-0.9121094","-0.14746094","0.34375","-6.0","0.65625"
"1573730127168","813","0.3232422","-0.94433594","-0.12109375","3.59375","1.5","2.1875"
"1573730127169","814","0.3642578","-0.9033203","-0.16308594","2.1875","1.6875","-0.3125"
"1573730127169","815","0.40234375","-0.89746094","-0.11816406","0.40625","2.1875","0.90625"
"1573730127169","816","0.3310547","-0.9316406","-0.123046875","-0.875","7.75","-0.9375"
"1573730127171","817","0.38476562","-0.8984375","-0.12011719","-0.25","0.09375","-0.9375"
"1573730127171","818","0.37402344","-0.95214844","-0.11425781","-4.40625","0.21875","-0.25"
"1573730127173","819","0.35253906","-0.95703125","-0.11230469","-0.125","3.59375","-0.5625"
"1573730127563","820","0.3798828","-0.8886719","-0.125","0.59375","-1.53125","0.40625"
"1573730127564","821","0.38378906","-0.9296875","-0.12207031","3.15625","-1.125","0.03125"
"1573730127564","822","0.37597656","-0.9423828","-0.13085938","2.3125","0.65625","-0.9375"
"1573730127564","823","0.4033203","-0.91015625","-0.13964844","3.59375","-3.4375","-0.375"
"1573730127564","824","0.38085938","-0.90722656","-0.11230469","4.8125","-2.03125","0.0"
"1573730127564","825","0.36621094","-0.9267578","-0.109375","1.75","-0.5625","-0.6875"
"1573730127565","826","0.37597656","-0.9003906","-0.111328125","4.5","-2.9375","0.03125"
"1573730127565","827","0.35742188","-0.92871094","-0.09765625","1.09375","-3.25","0.65625"
"1573730127565","828","0.3623047","-0.9433594","-0.111328125","1.6875","-1.34375","0.78125"
"1573730127566","829","0.3544922","-0.9082031","-0.107421875","3.53125","-1.3125","0.90625"
"1573730128158","830","0.34765625","-0.9472656","-0.09765625","0.09375","1.3125","0.84375"
"1573730128158","831","0.36328125","-0.92871094","-0.10644531","5.21875","0.53125","0.0"
"1573730128159","832","0.36816406","-0.92578125","-0.10253906","1.09375","0.96875","0.34375"
"1573730128159","833","0.36914062","-0.9316406","-0.08496094","2.84375","0.40625","-0.625"
"1573730128159","834","0.39648438","-0.92578125","-0.10839844","5.28125","-3.125","0.53125"
"1573730128159","835","0.33789062","-0.9316406","-0.06640625","-2.28125","1.15625","0.21875"
"1573730128159","836","0.3623047","-0.921875","-0.109375","0.09375","2.84375","-0.5625"
"1573730128160","837","0.36621094","-0.9345703","-0.08496094","9.25","0.84375","0.03125"
"1573730128160","838","0.3330078","-0.9296875","-0.07714844","2.4375","2.0","0.15625"
"1573730128160","839","0.40234375","-0.9511719","-0.08691406","1.8125","0.65625","-0.5625"
"1573730128359","840","0.36816406","-0.9189453","-0.078125","0.09375","-2.21875","-1.3125"
"1573730128360","841","0.36621094","-0.9091797","-0.08203125","2.5","-5.25","-0.25"
"1573730128360","842","0.34960938","-0.97265625","-0.06640625","-2.09375","-1.3125","-1.65625"
"1573730128361","843","0.38671875","-0.9013672","-0.09375","2.71875","-5.15625","-1.53125"
"1573730128361","844","0.3671875","-0.9121094","-0.0859375","-0.3125","-5.5","-0.5"
"1573730128361","845","0.34960938","-1.0019531","-0.09277344","-0.5625","1.5625","-2.09375"
"1573730128361","846","0.40527344","-0.8691406","-0.07324219","5.84375","-5.5625","-2.6875"
"1573730128362","847","0.3408203","-0.8730469","-0.057617188","-0.5","-6.25","0.65625"
"1573730128363","848","0.33984375","-1.0253906","-0.09765625","2.90625","-1.84375","-1.78125"
"1573730128364","849","0.3701172","-0.8779297","-0.06933594","-0.4375","-4.34375","0.0"
"1573730128757","850","0.3125","-0.94433594","-0.08300781","-0.5","-2.40625","3.90625"
"1573730128758","851","0.32226562","-0.9394531","-0.08300781","2.3125","2.0","2.4375"
"1573730128758","852","0.41308594","-0.92871094","-0.07714844","3.9375","-0.5625","1.375"
"1573730128759","853","0.32910156","-0.94433594","-0.05078125","-1.3125","-1.53125","1.15625"
"1573730128760","854","0.37402344","-0.9091797","-0.09277344","3.15625","-3.96875","0.96875"
"1573730128760","855","0.3388672","-0.95996094","-0.09082031","4.0625","-1.0625","2.65625"
"1573730128761","856","0.32617188","-0.91503906","-0.055664062","5.0625","4.375","0.0"
"1573730128761","857","0.3671875","-0.92285156","-0.057617188","7.90625","0.90625","-0.3125"
"1573730128761","858","0.34472656","-0.9238281","-0.048828125","3.40625","-1.59375","1.8125"
"1573730128761","859","0.3720703","-0.9267578","-0.051757812","0.59375","-2.6875","1.375"
"1573730129155","860","0.36328125","-0.9453125","-0.03125","0.90625","-4.03125","0.71875"
"1573730129155","861","0.33496094","-0.9404297","-0.044921875","1.03125","-6.375","1.09375"
"1573730129155","862","0.41601562","-0.9482422","-0.06738281","3.28125","-9.34375","1.21875"
"1573730129156","863","0.31933594","-0.9433594","-0.037109375","5.40625","-2.28125","-0.625"
"1573730129156","864","0.33398438","-0.94433594","-0.087890625","0.84375","-0.875","0.0"
"1573730129157","865","0.375","-0.91796875","-0.0625","-1.25","3.15625","-0.9375"
"1573730129158","866","0.3330078","-0.9394531","-0.05859375","-6.84375","6.625","-2.28125"
"1573730129158","867","0.36621094","-0.93359375","-0.057617188","-3.25","2.59375","-2.6875"
"1573730129158","868","0.34960938","-0.9277344","-0.045898438","-4.84375","1.28125","-0.25"
"1573730129159","869","0.2841797","-0.96972656","-0.053710938","-6.0","7.1875","-0.4375"
"1573730129551","870","0.33398438","-0.89746094","-0.09375","-6.3125","5.1875","-1.90625"
"1573730129551","871","0.38476562","-0.9375","-0.049804688","-9.34375","8.21875","0.0"
"1573730129551","872","0.31054688","-0.95214844","-0.05859375","-12.65625","9.875","-5.25"
"1573730129551","873","0.40722656","-0.921875","-0.08105469","-12.09375","4.125","-3.625"
"1573730129552","874","0.31445312","-0.9316406","-0.0625","-10.4375","8.15625","-3.5"
"1573730129552","875","0.36035156","-0.9355469","-0.11035156","-19.1875","9.4375","-5.8125"
"1573730129552","876","0.4404297","-0.9248047","-0.09375","-35.46875","10.84375","-6.4375"
"1573730129553","877","0.3388672","-0.9560547","-0.11035156","-27.90625","15.125","-7.28125"
"1573730129554","878","0.40820312","-0.88378906","-0.1171875","-14.90625","3.53125","-5.875"
"1573730129554","879","0.328125","-0.9003906","-0.095703125","-12.03125","5.46875","0.65625"
"1573730129948","880","0.32226562","-0.9501953","-0.15234375","-2.09375","10.1875","-3.5"
"1573730129948","881","0.40429688","-0.9296875","-0.123046875","-8.125","5.0","0.28125"
"1573730129949","882","0.30566406","-0.9277344","-0.09375","-9.46875","6.5","0.65625"
"1573730129949","883","0.37304688","-0.9169922","-0.13769531","-3.5625","5.71875","-1.65625"
"1573730129949","884","0.35058594","-0.9326172","-0.11035156","-2.21875","11.09375","0.46875"
"1573730129949","885","0.35351562","-0.92089844","-0.16992188","-4.96875","4.625","-1.78125"
"1573730129950","886","0.43945312","-0.93066406","-0.14453125","-10.03125","2.5","-1.53125"
"1573730129950","887","0.40429688","-0.92871094","-0.0859375","0.09375","2.65625","-1.0"
"1573730129950","888","0.33984375","-0.8955078","-0.15820312","2.78125","-3.1875","-2.875"
"1573730129952","889","0.4013672","-0.89160156","-0.15039062","1.9375","-0.5625","-2.46875"
"1573730130348","890","0.35546875","-0.9394531","-0.109375","-5.03125","1.5","-0.125"
"1573730130348","891","0.32910156","-0.9355469","-0.13769531","-3.625","-3.8125","-2.34375"
"1573730130349","892","0.4091797","-0.90625","-0.14550781","2.25","-1.65625","-2.40625"
"1573730130349","893","0.3642578","-0.91308594","-0.109375","3.15625","-2.21875","-0.8125"
"1573730130349","894","0.34472656","-0.92285156","-0.13378906","-3.125","-1.53125","-1.34375"
"1573730130349","895","0.40039062","-0.90625","-0.15136719","3.9375","-2.15625","-1.53125"
"1573730130350","896","0.35742188","-0.92285156","-0.14648438","0.59375","-2.09375","1.03125"
"1573730130350","897","0.3857422","-0.9355469","-0.12695312","-1.34375","0.96875","-2.9375"
"1573730130350","898","0.3798828","-0.9199219","-0.12988281","2.25","-1.65625","0.21875"
"1573730130350","899","0.35351562","-0.90527344","-0.12695312","2.125","-0.5","-0.6875"
"1573730130744","900","0.3876953","-0.9189453","-0.13964844","-0.875","-0.4375","-0.25"
"1573730130746","901","0.40527344","-0.9189453","-0.13476562","-3.25","-1.0625","-1.40625"
"1573730130747","902","0.3671875","-0.93652344","-0.12597656","-3.0","-3.625","0.40625"
"1573730130747","903","0.34375","-0.90527344","-0.14355469","4.5","-4.09375","1.15625"
"1573730130747","904","0.40234375","-0.9169922","-0.15527344","3.28125","-5.4375","0.0"
"1573730130748","905","0.3515625","-0.9238281","-0.12988281","-3.1875","-1.0625","-1.125"
"1573730130748","906","0.34472656","-0.9160156","-0.14550781","2.96875","-3.5625","-2.625"
"1573730130748","907","0.36816406","-0.91015625","-0.12695312","-6.25","-0.4375","-1.40625"
"1573730130748","908","0.3466797","-0.9296875","-0.15917969","-4.90625","5.96875","-0.5"
"1573730130749","909","0.36132812","-0.9316406","-0.10546875","-0.125","-7.875","-0.1875"
"1573730131141","910","0.4111328","-0.9355469","-0.1328125","15.5","-13.1875","2.0"
"1573730131142","911","0.390625","-0.93847656","-0.12890625","14.4375","-7.53125","0.40625"
"1573730131142","912","0.36035156","-0.90527344","-0.14257812","11.09375","-5.75","-0.625"
"1573730131144","913","0.36914062","-0.90625","-0.13964844","10.3125","-5.3125","-0.9375"
"1573730131144","914","0.38671875","-0.9091797","-0.12597656","1.5","-3.125","-2.625"
"1573730131144","915","0.3720703","-0.94433594","-0.107421875","-0.875","1.28125","-3.875"
"1573730131145","916","0.34179688","-0.9199219","-0.103515625","4.75","0.03125","-3.875"
"1573730131145","917","0.39746094","-0.9140625","-0.13671875","10.125","-1.3125","-0.25"
"1573730131145","918","0.45117188","-0.9169922","-0.029296875","19.21875","22.03125","-2.625"
"1573730131146","919","0.3203125","-0.8925781","-0.05078125","32.53125","19.8125","-3.25"
"1573730131539","920","0.36035156","-0.9550781","-0.06542969","13.0","9.03125","4.375"
"1573730131540","921","0.39257812","-0.94433594","-0.07421875","12.375","8.15625","-3.625"
"1573730131540","922","0.3828125","-0.8886719","-0.05078125","4.9375","7.125","-1.25"
"1573730131540","923","0.34960938","-0.9560547","-0.016601562","2.375","3.71875","0.0"
"1573730131541","924","0.38085938","-0.89746094","-0.03125","8.15625","-2.15625","0.96875"
"1573730131542","925","0.375","-0.9140625","-0.0146484375","4.75","-2.46875","2.25"
"1573730131542","926","0.37402344","-0.92871094","0.0029296875","7.3125","-2.34375","2.0"
"1573730131542","927","0.35742188","-0.90625","-0.0068359375","8.96875","-4.84375","4.4375"
"1573730131542","928","0.3642578","-0.9404297","-0.022460938","7.4375","-5.6875","5.78125"
"1573730131543","929","0.38085938","-0.91796875","9.765625E-4","9.4375","-2.59375","5.78125"
"1573730131936","930","0.35742188","-0.9296875","0.001953125","5.96875","-4.46875","5.90625"
"1573730131937","931","0.35742188","-0.9638672","-0.009765625","6.40625","-4.65625","3.65625"
"1573730131937","932","0.35546875","-0.9472656","0.0146484375","2.25","4.375","1.15625"
"1573730131937","933","0.32714844","-0.94140625","0.0087890625","-2.09375","1.28125","2.5625"
"1573730131937","934","0.35839844","-0.9482422","0.033203125","2.1875","1.875","-1.53125"
"1573730131938","935","0.32128906","-0.9199219","0.01953125","1.875","3.34375","-2.03125"
"1573730131938","936","0.35546875","-0.91796875","0.036132812","-1.53125","2.25","0.03125"
"1573730131939","937","0.34375","-0.9667969","0.016601562","-3.1875","-0.3125","-3.90625"
"1573730131939","938","0.34375","-0.91503906","-0.001953125","-2.59375","-0.8125","-4.96875"
"1573730131940","939","0.34472656","-0.92578125","0.029296875","-6.4375","1.6875","-1.90625"
"1573730132335","940","0.359375","-0.96972656","-0.0146484375","-6.375","-0.75","-6.1875"
"1573730132335","941","0.3466797","-0.9140625","-0.0126953125","0.84375","2.5625","-5.625"
"1573730132335","942","0.39648438","-0.9277344","0.0107421875","-5.5625","4.5","-5.25"
"1573730132336","943","0.38867188","-0.9238281","0.001953125","-3.90625","-0.5","-6.59375"
"1573730132336","944","0.40527344","-0.9003906","-0.015625","3.15625","-0.625","-3.375"
"1573730132336","945","0.38671875","-0.921875","0.025390625","-2.03125","0.03125","-1.59375"
"1573730132336","946","0.35546875","-0.9169922","0.001953125","-1.90625","-4.65625","-0.125"
"1573730132337","947","0.38964844","-0.92871094","-9.765625E-4","-1.53125","0.78125","0.03125"
"1573730132337","948","0.35546875","-0.9423828","-0.005859375","-4.34375","5.40625","0.0"
"1573730132338","949","0.34960938","-0.9355469","-0.016601562","-11.0625","10.78125","-1.3125"
"1573730132732","950","0.37109375","-0.94628906","-0.0048828125","-15.8125","17.125","-4.21875"
"1573730132732","951","0.4091797","-0.91308594","-0.043945312","-16.375","12.3125","-5.8125"
"1573730132733","952","0.3828125","-0.9355469","0.0029296875","-16.0625","16.34375","-3.875"
"1573730132733","953","0.39648438","-0.9169922","-0.048828125","-13.75","12.4375","-2.6875"
"1573730132733","954","0.4033203","-0.9091797","-0.038085938","-6.1875","6.625","-0.8125"
"1573730132734","955","0.34960938","-0.90722656","-0.00390625","-8.8125","10.84375","0.53125"
"1573730132734","956","0.38183594","-0.9453125","-0.046875","-6.78125","4.0625","-1.0"
"1573730132734","957","0.36035156","-0.8847656","-0.01953125","-7.34375","2.3125","1.625"
"1573730132734","958","0.38085938","-0.9667969","-0.018554688","-11.1875","4.5","-1.71875"
"1573730132735","959","0.41210938","-0.8779297","-0.056640625","0.59375","-5.03125","-0.1875"
"1573730133129","960","0.32128906","-0.9736328","-0.0146484375","-21.0625","3.03125","3.53125"
"1573730133131","961","0.38183594","-0.94433594","-0.13671875","-9.90625","-8.5625","-9.96875"
"1573730133131","962","0.421875","-0.85253906","-0.038085938","-6.4375","2.375","7.125"
"1573730133132","963","0.31835938","-0.9892578","-0.0546875","-13.125","4.125","-3.125"
"1573730133132","964","0.4345703","-0.8964844","-0.07714844","-11.0625","-4.34375","-4.65625"
"1573730133132","965","0.32714844","-0.92285156","-0.08300781","-1.3125","0.71875","3.09375"
"1573730133133","966","0.37597656","-0.9355469","-0.095703125","-14.65625","-0.75","-2.59375"
"1573730133133","967","0.40039062","-0.90527344","-0.057617188","-3.5","2.3125","-1.25"
"1573730133133","968","0.35253906","-0.93847656","-0.0859375","-2.28125","3.03125","-1.65625"
"1573730133133","969","0.390625","-0.8955078","-0.07519531","-5.6875","0.28125","-1.46875"
"1573730133527","970","0.3466797","-0.9238281","-0.099609375","-4.21875","-1.53125","0.65625"
"1573730133527","971","0.38671875","-0.9199219","-0.11328125","-9.125","-0.75","-1.84375"
"1573730133528","972","0.38476562","-0.921875","-0.08984375","-4.34375","4.125","-2.625"
"1573730133528","973","0.3544922","-0.94628906","-0.10058594","-5.6875","6.9375","-1.0625"
"1573730133528","974","0.39160156","-0.9082031","-0.09863281","-5.25","2.1875","-0.6875"
"1573730133529","975","0.38964844","-0.8876953","-0.11621094","-2.40625","-1.65625","0.0"
"1573730133529","976","0.4013672","-0.93847656","-0.10253906","-2.6875","7.75","-1.125"
"1573730133529","977","0.37890625","-0.95214844","-0.12890625","-3.5625","2.59375","0.71875"
"1573730133529","978","0.3486328","-0.8779297","-0.10839844","-1.59375","1.28125","-1.3125"
"1573730133529","979","0.41015625","-0.91015625","-0.091796875","-1.53125","7.0625","-2.46875"
"1573730133923","980","0.34765625","-0.9589844","-0.10253906","-7.71875","7.75","-1.0625"
"1573730133924","981","0.40722656","-0.89453125","-0.103515625","-5.25","4.625","-4.03125"
"1573730133924","982","0.36328125","-0.92578125","-0.07324219","-2.53125","8.53125","0.71875"
"1573730133924","983","0.3330078","-0.93066406","-0.13378906","-2.28125","7.75","-0.6875"
"1573730133924","984","0.4267578","-0.91015625","-0.107421875","-5.625","5.71875","-0.375"
"1573730133925","985","0.3935547","-0.94628906","-0.09472656","-5.75","8.28125","4.0"
"1573730133925","986","0.4326172","-0.9169922","-0.11425781","7.5625","4.8125","-2.03125"
"1573730133925","987","0.41601562","-0.9140625","-0.08300781","1.875","0.84375","1.15625"
"1573730133926","988","0.30566406","-0.9511719","-0.099609375","-0.9375","8.15625","1.03125"
"1573730133926","989","0.44140625","-0.8388672","-0.125","1.8125","-0.6875","-2.53125"
"1573730134323","990","0.38964844","-0.9326172","-0.07128906","6.5625","2.125","0.84375"
"1573730134324","991","0.35839844","-0.9433594","-0.103515625","2.90625","2.125","-1.46875"
"1573730134324","992","0.41210938","-0.9003906","-0.080078125","-3.0","-0.875","1.6875"
"1573730134324","993","0.32226562","-0.93066406","-0.09277344","4.875","0.09375","2.65625"
"1573730134325","994","0.38183594","-0.9091797","-0.103515625","0.28125","0.34375","-0.4375"
"1573730134325","995","0.40234375","-0.9199219","-0.08105469","-0.0625","0.03125","0.09375"
"1573730134325","996","0.34277344","-0.9394531","-0.09765625","0.78125","3.53125","-2.34375"
"1573730134327","997","0.40039062","-0.9326172","-0.08886719","1.5","5.21875","-1.125"
"1573730134327","998","0.3876953","-0.8964844","-0.0546875","4.75","2.71875","1.3125"
"1573730134328","999","0.34765625","-0.91308594","-0.061523438","6.46875","0.28125","1.875"
"1573730134913","1000","0.3828125","-0.9326172","-0.07910156","1.375","-0.375","1.3125"
"1573730134913","1001","0.39257812","-0.9111328","-0.10546875","-1.125","-1.71875","-2.03125"
"1573730134914","1002","0.3798828","-0.9345703","-0.091796875","0.71875","-2.46875","0.53125"
"1573730134914","1003","0.37402344","-0.9511719","-0.0859375","-2.9375","3.03125","-2.875"
"1573730134914","1004","0.4033203","-0.9082031","-0.078125","3.90625","1.09375","-2.6875"
"1573730134915","1005","0.3251953","-0.9042969","-0.024414062","4.9375","3.09375","1.875"
"1573730134915","1006","0.33984375","-0.9082031","-0.046875","6.8125","0.34375","1.625"
"1573730134915","1007","0.4189453","-0.9277344","-0.0703125","3.28125","-2.8125","2.5625"
"1573730134915","1008","0.3564453","-0.94140625","-0.07421875","-3.0625","1.4375","-0.125"
"1573730134916","1009","0.43847656","-0.9296875","-0.06542969","0.34375","-1.0625","-3.0"
"1573730135116","1010","0.36035156","-0.921875","-0.040039062","-4.28125","-0.3125","-2.28125"
"1573730135117","1011","0.375","-0.90722656","-0.06933594","5.1875","-0.375","-3.0"
"1573730135117","1012","0.3623047","-0.9238281","-0.036132812","-1.46875","-0.9375","2.65625"
"1573730135118","1013","0.33203125","-0.9394531","-0.08105469","2.375","1.5","-0.375"
"1573730135118","1014","0.4404297","-0.9033203","-0.0625","-4.65625","-2.6875","1.625"
"1573730135118","1015","0.31640625","-0.9433594","-0.048828125","-2.34375","2.3125","-0.4375"
"1573730135118","1016","0.39257812","-0.9238281","-0.07714844","0.0","-0.3125","0.0"
"1573730135119","1017","0.37597656","-0.90625","-0.05078125","-3.1875","-2.40625","0.78125"
"1573730135119","1018","0.3408203","-0.9472656","-0.040039062","-0.5","2.0","-0.375"
"1573730135119","1019","0.40429688","-0.9169922","-0.0625","1.15625","-2.8125","1.6875"
"1573730135513","1020","0.35058594","-0.9189453","-0.06347656","1.15625","-0.4375","0.21875"
"1573730135514","1021","0.3466797","-0.9580078","-0.057617188","0.46875","4.3125","0.78125"
"1573730135515","1022","0.4033203","-0.89941406","-0.07519531","-3.8125","1.28125","-0.75"
"1573730135515","1023","0.36914062","-0.953125","-0.076171875","-3.1875","4.9375","-0.9375"
"1573730135515","1024","0.375","-0.9199219","-0.091796875","-9.0","12.1875","-2.59375"
"1573730135515","1025","0.40527344","-0.9433594","-0.08203125","-16.5625","10.53125","-0.75"
"1573730135516","1026","0.34179688","-0.9345703","-0.06347656","-11.96875","13.90625","-3.5"
"1573730135516","1027","0.36328125","-0.88378906","-0.07714844","-8.375","9.75","-1.0"
"1573730135516","1028","0.35253906","-0.9423828","-0.0625","-9.34375","12.4375","1.3125"
"1573730135517","1029","0.37304688","-0.9345703","-0.080078125","-11.84375","12.1875","-2.59375"
"1573730135912","1030","0.38378906","-0.90527344","-0.080078125","-11.3125","8.21875","-2.625"
"1573730135912","1031","0.34472656","-0.9609375","-0.08105469","-9.21875","12.0","-1.1875"
"1573730135913","1032","0.3828125","-0.8779297","-0.087890625","-5.3125","7.5","-2.59375"
"1573730135913","1033","0.36621094","-0.9550781","-0.08984375","-3.625","8.65625","1.5625"
"1573730135913","1034","0.3564453","-0.93359375","-0.08984375","-3.90625","9.625","-2.46875"
"1573730135914","1035","0.39941406","-0.9111328","-0.08496094","-9.21875","6.75","-0.8125"
"1573730135914","1036","0.3720703","-0.9199219","-0.08886719","-3.625","6.40625","-2.40625"
"1573730135914","1037","0.40625","-0.8955078","-0.095703125","-1.65625","-5.875","0.53125"
"1573730135915","1038","0.4423828","-0.9267578","-0.06738281","-3.4375","-7.34375","7.25"
"1573730135915","1039","0.29785156","-0.99121094","-0.109375","12.25","4.25","4.0"
"1573730136309","1040","0.35742188","-0.8330078","-0.09277344","-1.125","7.1875","5.125"
"1573730136310","1041","0.3232422","-0.9296875","-0.053710938","-1.1875","9.5","0.46875"
"1573730136310","1042","0.3564453","-0.91308594","-0.09082031","-6.65625","8.78125","-1.40625"
"1573730136311","1043","0.390625","-0.9609375","-0.06933594","-13.1875","6.03125","-3.0625"
"1573730136311","1044","0.35546875","-0.90722656","-0.08105469","-10.5625","1.4375","-3.625"
"1573730136312","1045","0.3779297","-0.96875","-0.095703125","-10.40625","1.6875","-3.875"
"1573730136313","1046","0.3876953","-0.90625","-0.08496094","-2.75","0.96875","-3.3125"
"1573730136313","1047","0.35351562","-0.8964844","-0.10546875","4.375","0.03125","0.28125"
"1573730136313","1048","0.37695312","-0.99902344","-0.08691406","3.46875","3.34375","-1.0625"
"1573730136314","1049","0.37597656","-0.8310547","-0.08984375","9.09375","-10.34375","0.96875"
"1573730136707","1050","0.34960938","-0.94140625","-0.091796875","4.6875","-5.25","5.46875"
"1573730136707","1051","0.30859375","-0.9345703","-0.10546875","8.21875","-3.96875","-0.125"
"1573730136708","1052","0.39648438","-0.8652344","-0.08886719","7.96875","-10.625","2.78125"
"1573730136708","1053","0.33398438","-0.953125","-0.07910156","4.8125","-6.78125","-0.625"
"1573730136708","1054","0.3642578","-0.9921875","-0.078125","-4.28125","-3.25","-4.03125"
"1573730136708","1055","0.3671875","-0.92285156","-0.07421875","4.125","-4.90625","-4.90625"
"1573730136709","1056","0.3564453","-0.91796875","-0.087890625","4.3125","-3.5","0.34375"
"1573730136710","1057","0.38867188","-0.97753906","-0.10253906","9.1875","-0.375","-2.6875"
"1573730136711","1058","0.3720703","-0.90722656","-0.038085938","1.4375","-1.90625","-3.375"
"1573730136711","1059","0.36132812","-0.9326172","-0.08105469","4.3125","-1.0","-1.84375"
"1573730137104","1060","0.4169922","-0.89941406","-0.06933594","13.65625","-5.6875","-0.3125"
"1573730137105","1061","0.3154297","-0.9277344","-0.05078125","11.09375","-6.375","3.34375"
"1573730137105","1062","0.421875","-0.8964844","-0.08300781","13.09375","-10.8125","-0.4375"
"1573730137105","1063","0.3515625","-0.9433594","-0.038085938","3.9375","-10.75","4.4375"
"1573730137105","1064","0.29882812","-0.97265625","-0.022460938","11.34375","-3.5","2.1875"
"1573730137106","1065","0.3955078","-0.8701172","-0.0234375","11.53125","-16.0625","6.8125"
"1573730137106","1066","0.375","-0.91308594","0.005859375","8.65625","-13.875","8.90625"
"1573730137106","1067","0.2607422","-0.98339844","-0.015625","6.625","-4.28125","4.0"
"1573730137106","1068","0.453125","-0.9199219","-0.08886719","8.53125","-18.75","3.21875"
"1573730137108","1069","0.43847656","-0.9511719","-0.018554688","5.71875","-18.5","6.6875"
