"# PR data"
"# Start time: 20191114T111234"
"# Subject: jack"
"# Activity type: Sit to stand"
"# Correctness: Incorrect"
"# Notes: "
""
"timestamp","seq","accel_x","accel_y","accel_z","gyro_x","gyro_y","gyro_z"
"1573729954652","0","0.07421875","-0.97558594","0.02734375","-47.3125","17.625","-2.34375"
"1573729954653","1","0.08203125","-0.9941406","0.01171875","-32.1875","9.1875","0.53125"
"1573729954654","2","0.099609375","-0.99609375","-0.01953125","-19.71875","6.40625","1.75"
"1573729954655","3","0.095703125","-0.99609375","-0.021484375","-8.5","3.59375","0.65625"
"1573729954655","4","0.1015625","-0.98046875","-0.034179688","-6.5","1.4375","0.84375"
"1573729954655","5","0.11328125","-1.0009766","-0.040039062","-2.8125","1.75","1.75"
"1573729954655","6","0.083984375","-0.9892578","-0.045898438","-4.96875","6.8125","0.0"
"1573729954656","7","0.10839844","-1.0078125","-0.080078125","-0.25","1.375","2.90625"
"1573729954656","8","0.10546875","-1.0537109","0.0078125","26.90625","-3.1875","0.0"
"1573729954656","9","0.16210938","-1.0908203","-0.021484375","20.4375","-17.21875","-6.1875"
"1573729955048","10","0.16796875","-1.0351562","-0.048828125","14.9375","-15.59375","-12.84375"
"1573729955049","11","0.13085938","-0.95703125","0.0126953125","10.78125","-7.15625","-8.4375"
"1573729955049","12","0.055664062","-0.89941406","0.03125","-7.78125","-11.375","-7.34375"
"1573729955049","13","0.09375","-0.9716797","0.08886719","-31.25","3.84375","0.28125"
"1573729955050","14","0.12011719","-0.9472656","0.072265625","-31.8125","6.625","-1.0"
"1573729955050","15","0.16308594","-1.0058594","-0.018554688","-13.6875","-2.6875","-2.6875"
"1573729955050","16","0.07519531","-0.96484375","-0.046875","-11.375","6.625","-1.125"
"1573729955050","17","0.16113281","-1.0","-0.07128906","-14.46875","13.21875","0.65625"
"1573729955050","18","0.14257812","-1.0019531","-0.07421875","-9.0625","18.90625","-1.46875"
"1573729955051","19","0.09277344","-0.9121094","-0.05078125","-15.15625","19.40625","-4.46875"
"1573729955448","20","0.057617188","-0.9121094","-0.0703125","-3.625","22.25","1.21875"
"1573729955448","21","0.15136719","-0.9560547","-0.11816406","9.125","19.21875","4.0"
"1573729955448","22","0.17773438","-1.0322266","-0.111328125","-11.3125","14.3125","7.90625"
"1573729955449","23","0.03515625","-1.0703125","-0.111328125","-8.25","20.6875","3.21875"
"1573729955449","24","0.09863281","-1.0126953","-0.12402344","-17.90625","12.6875","-2.53125"
"1573729955450","25","0.20019531","-1.0273438","-0.13574219","-23.6875","5.96875","-2.21875"
"1573729955451","26","0.12011719","-0.96972656","-0.06738281","-2.75","7.0625","-1.96875"
"1573729955451","27","0.08203125","-0.9707031","-0.043945312","1.03125","-0.625","-1.125"
"1573729955451","28","0.1328125","-1.0039062","-0.08984375","17.1875","0.34375","-1.34375"
"1573729955451","29","0.13476562","-0.9794922","-0.02734375","9.4375","-4.65625","-0.6875"
"1573729955845","30","0.09863281","-1.0048828","-0.053710938","14.6875","-9.0625","-2.625"
"1573729955845","31","0.14550781","-0.9970703","-0.041992188","23.71875","-7.53125","-3.125"
"1573729955845","32","0.13867188","-0.9824219","-0.017578125","32.09375","-12.15625","-1.90625"
"1573729955846","33","0.10253906","-1.0097656","-0.0107421875","32.6875","-15.6875","-2.28125"
"1573729955846","34","0.13671875","-1.0029297","0.0107421875","28.0","-12.09375","-1.84375"
"1573729955846","35","0.13964844","-1.0009766","0.022460938","23.375","-14.84375","0.78125"
"1573729955846","36","0.13769531","-0.9951172","0.036132812","17.5625","-12.09375","-0.3125"
"1573729955848","37","0.123046875","-1.0097656","0.03125","23.71875","-15.75","2.78125"
"1573729955848","38","0.111328125","-0.9667969","0.06542969","28.3125","-20.03125","5.21875"
"1573729955848","39","0.10449219","-0.9765625","0.064453125","31.53125","-10.4375","13.03125"
"1573729956242","40","0.125","-1.0117188","0.061523438","26.15625","-2.875","16.09375"
"1573729956242","41","0.16210938","-0.96484375","0.080078125","40.03125","-8.875","20.0"
"1573729956243","42","0.140625","-0.94433594","0.111328125","41.65625","0.96875","24.15625"
"1573729956243","43","0.06640625","-0.9921875","0.17773438","32.21875","10.84375","24.75"
"1573729956243","44","0.15136719","-0.9453125","0.16015625","18.28125","15.625","25.8125"
"1573729956244","45","0.12695312","-0.9902344","0.22167969","21.46875","12.1875","25.375"
"1573729956244","46","0.07128906","-1.0058594","0.22070312","28.78125","0.21875","26.46875"
"1573729956244","47","0.032226562","-0.9482422","0.26953125","41.4375","-1.65625","27.15625"
"1573729956245","48","-0.053710938","-0.91503906","0.28808594","44.46875","9.375","27.28125"
"1573729956246","49","-0.009765625","-0.9248047","0.30273438","22.5","17.6875","22.625"
"1573729956638","50","-0.025390625","-0.921875","0.2685547","11.28125","20.0625","19.09375"
"1573729956638","51","-0.060546875","-0.9111328","0.28125","-27.34375","32.53125","20.96875"
"1573729956639","52","-0.15429688","-0.9794922","0.2763672","-31.625","30.75","27.75"
"1573729956639","53","-0.15136719","-1.0019531","0.25976562","4.875","10.71875","29.15625"
"1573729956639","54","-0.15332031","-0.9326172","0.2861328","37.15625","9.8125","32.46875"
"1573729956639","55","-0.22851562","-0.96972656","0.36621094","51.75","11.8125","38.75"
"1573729956640","56","-0.19335938","-0.90722656","0.40820312","58.34375","6.6875","31.0625"
"1573729956640","57","-0.32128906","-0.97265625","0.47753906","58.875","6.15625","31.90625"
"1573729956640","58","-0.3544922","-0.9609375","0.5527344","66.15625","13.96875","23.59375"
"1573729956640","59","-0.2783203","-0.8779297","0.54785156","53.5","4.6875","14.15625"
"1573729957036","60","-0.328125","-0.88183594","0.60546875","44.53125","7.90625","11.59375"
"1573729957037","61","-0.33789062","-0.8642578","0.6484375","15.71875","11.59375","6.9375"
"1573729957038","62","-0.33496094","-0.82910156","0.6298828","18.1875","13.03125","1.03125"
"1573729957038","63","-0.3486328","-0.78515625","0.6171875","20.1875","7.6875","1.03125"
"1573729957038","64","-0.328125","-0.7988281","0.6171875","18.53125","1.5625","0.71875"
"1573729957038","65","-0.31347656","-0.7597656","0.5966797","17.625","2.84375","-3.75"
"1573729957039","66","-0.2998047","-0.6953125","0.6015625","32.75","5.34375","-1.125"
"1573729957039","67","-0.32910156","-0.7109375","0.58691406","15.5625","-3.90625","-0.5"
"1573729957039","68","-0.27539062","-0.6796875","0.5830078","18.0625","-4.71875","-1.40625"
"1573729957039","69","-0.296875","-0.6894531","0.63183594","17.125","-6.59375","0.53125"
"1573729957435","70","-0.2998047","-0.7675781","0.6386719","3.03125","-2.34375","-2.15625"
"1573729957436","71","-0.2548828","-0.7871094","0.66015625","-6.65625","-3.375","-6.59375"
"1573729957436","72","-0.30566406","-0.8105469","0.6777344","-13.3125","-11.1875","-7.59375"
"1573729957437","73","-0.27441406","-0.83203125","0.6386719","-12.40625","-10.6875","-10.9375"
"1573729957438","74","-0.25878906","-0.7636719","0.5957031","-6.78125","-21.0","-16.0"
"1573729957438","75","-0.2529297","-0.7832031","0.5996094","-15.21875","-17.34375","-16.5"
"1573729957438","76","-0.22558594","-0.73535156","0.55859375","-22.71875","-19.375","-21.4375"
"1573729957439","77","-0.14160156","-0.7421875","0.5205078","-20.53125","-25.53125","-23.34375"
"1573729957439","78","-0.16113281","-0.7265625","0.5371094","-17.03125","-29.75","-22.125"
"1573729957439","79","-0.14941406","-0.6767578","0.5439453","-18.8125","-31.5625","-23.5"
"1573729957832","80","-0.13867188","-0.7128906","0.5205078","-29.75","-25.15625","-21.125"
"1573729957833","81","-0.06933594","-0.6748047","0.5107422","-28.8125","-25.96875","-22.34375"
"1573729957833","82","-0.08300781","-0.65234375","0.5126953","-32.25","-19.5","-19.59375"
"1573729957833","83","-0.08203125","-0.7675781","0.48632812","-39.6875","-12.21875","-20.78125"
"1573729957833","84","0.001953125","-0.78222656","0.4892578","-39.6875","-12.53125","-22.84375"
"1573729957835","85","-0.00390625","-0.796875","0.47070312","-40.375","-14.1875","-24.3125"
"1573729957835","86","-0.021484375","-0.859375","0.4580078","-39.6875","-14.65625","-23.6875"
"1573729957836","87","0.009765625","-0.8408203","0.39746094","-29.375","-17.21875","-29.75"
"1573729957836","88","0.020507812","-0.8300781","0.42382812","-30.21875","-12.21875","-30.96875"
"1573729957836","89","-0.0146484375","-0.9042969","0.4375","-43.84375","-9.21875","-33.65625"
"1573729958229","90","0.10449219","-0.8544922","0.40039062","-32.59375","-11.5625","-26.1875"
"1573729958230","91","0.12597656","-0.85839844","0.40234375","-43.96875","-10.28125","-18.3125"
"1573729958230","92","0.12597656","-0.91503906","0.296875","-45.84375","-14.96875","-18.21875"
"1573729958230","93","0.19433594","-0.9169922","0.27539062","-36.46875","-15.34375","-15.53125"
"1573729958231","94","0.13769531","-0.9091797","0.2783203","-35.65625","-16.5","-12.71875"
"1573729958231","95","0.10644531","-0.9238281","0.2626953","-34.8125","-14.46875","-13.375"
"1573729958231","96","0.2265625","-0.85546875","0.2685547","-21.9375","-16.75","-8.0"
"1573729958234","97","0.1953125","-0.85839844","0.2626953","-20.84375","-22.40625","-3.96875"
"1573729958235","98","0.21875","-0.8925781","0.24511719","-18.3125","-17.53125","-6.53125"
"1573729958235","99","0.27148438","-0.92285156","0.22558594","-13.0625","-13.875","-7.34375"
"1573729958627","100","0.25878906","-0.9707031","0.2109375","-18.75","-1.0625","-9.34375"
"1573729958627","101","0.31347656","-0.9453125","0.17871094","-17.46875","-1.84375","-8.5"
"1573729958627","102","0.3486328","-0.85058594","0.18554688","-16.0","-1.0625","-4.59375"
"1573729958628","103","0.2705078","-0.8574219","0.20019531","-24.3125","-3.25","-2.09375"
"1573729958628","104","0.28320312","-0.91503906","0.16894531","-19.53125","3.84375","6.03125"
"1573729958628","105","0.20507812","-0.97558594","0.15429688","-18.3125","2.25","10.25"
"1573729958628","106","0.20117188","-1.0214844","0.14550781","-15.53125","3.40625","11.59375"
"1573729958629","107","0.21582031","-0.98339844","0.08984375","-7.53125","2.25","9.5625"
"1573729958629","108","0.20410156","-0.94140625","0.109375","-9.46875","3.34375","11.15625"
"1573729958630","109","0.140625","-0.9638672","0.15527344","-9.53125","10.125","15.5625"
"1573729959023","110","0.11621094","-0.98339844","0.13183594","-10.4375","13.65625","17.0625"
"1573729959023","111","0.11621094","-1.0048828","0.103515625","-12.34375","12.8125","17.1875"
"1573729959024","112","0.14160156","-1.0175781","0.09765625","-2.6875","8.96875","15.71875"
"1573729959024","113","-0.022460938","-1.015625","0.10253906","5.90625","16.34375","10.0625"
"1573729959024","114","0.015625","-0.9902344","0.028320312","6.9375","21.53125","5.0"
"1573729959024","115","0.1328125","-0.9824219","-0.001953125","4.5625","13.71875","4.5625"
"1573729959025","116","0.13671875","-0.9326172","0.02734375","5.125","3.71875","0.46875"
"1573729959025","117","-0.020507812","-0.8730469","0.05078125","9.5","-4.78125","-0.5"
"1573729959025","118","0.049804688","-1.0322266","0.083984375","-0.8125","7.1875","-1.25"
"1573729959025","119","0.12402344","-1.0322266","0.103515625","13.0","0.90625","-6.5"
"1573729959422","120","0.080078125","-0.9638672","0.109375","17.5625","-11.25","-5.09375"
"1573729959424","121","0.07714844","-1.0683594","0.08984375","14.375","1.09375","-8.4375"
"1573729959424","122","0.16796875","-0.94628906","0.12207031","17.625","-4.65625","-11.4375"
"1573729959425","123","0.091796875","-0.9082031","0.17773438","12.3125","-2.21875","-11.6875"
"1573729959425","124","0.07324219","-0.98828125","0.19824219","14.5","3.71875","-7.28125"
"1573729959425","125","0.14160156","-0.91308594","0.19238281","24.875","4.1875","-3.1875"
"1573729959426","126","0.15722656","-0.9550781","0.2265625","21.84375","9.03125","-2.09375"
"1573729959426","127","0.12207031","-0.9609375","0.24609375","28.125","8.15625","0.21875"
"1573729959426","128","0.18554688","-0.89160156","0.2529297","31.0","6.8125","3.09375"
"1573729959426","129","0.15625","-0.921875","0.2939453","25.75","10.59375","6.34375"
"1573729959819","130","0.12890625","-0.88964844","0.3466797","32.21875","11.8125","7.625"
"1573729959820","131","0.15039062","-0.8769531","0.32617188","38.5","12.375","10.0625"
"1573729959820","132","0.13964844","-0.9248047","0.3671875","24.21875","17.3125","11.53125"
"1573729959822","133","0.08691406","-0.94433594","0.37109375","20.84375","18.40625","9.375"
"1573729959822","134","0.18066406","-0.8876953","0.35839844","20.0","13.96875","11.8125"
"1573729959822","135","0.111328125","-0.89453125","0.4013672","18.125","12.25","10.84375"
"1573729959822","136","0.07421875","-0.8828125","0.40820312","24.15625","14.09375","11.40625"
"1573729959823","137","0.08203125","-0.85546875","0.41796875","23.0625","13.28125","13.53125"
"1573729959823","138","0.041992188","-0.82910156","0.4248047","23.3125","16.53125","15.0"
"1573729959823","139","0.025390625","-0.85839844","0.42871094","23.0625","20.6875","14.15625"
"1573729960217","140","0.005859375","-0.84375","0.45507812","27.5","21.15625","16.28125"
"1573729960218","141","-0.029296875","-0.83691406","0.4814453","23.4375","25.9375","16.90625"
"1573729960218","142","-0.078125","-0.8857422","0.4794922","22.1875","25.375","16.40625"
"1573729960218","143","0.005859375","-0.84765625","0.4794922","18.53125","27.21875","14.8125"
"1573729960218","144","-0.06738281","-0.86035156","0.4892578","20.4375","23.375","17.1875"
"1573729960220","145","-0.022460938","-0.8623047","0.4921875","18.40625","21.15625","17.625"
"1573729960220","146","-0.087890625","-0.8574219","0.52441406","14.375","16.40625","18.34375"
"1573729960220","147","-0.09765625","-0.8203125","0.5283203","19.34375","13.40625","18.21875"
"1573729960221","148","-0.09667969","-0.8027344","0.5488281","12.0625","12.25","15.84375"
"1573729960221","149","-0.19921875","-0.8125","0.58496094","15.5","9.125","15.0"
"1573729960613","150","-0.14648438","-0.76660156","0.5390625","19.15625","7.25","14.28125"
"1573729960613","151","-0.15625","-0.7685547","0.59375","15.84375","5.65625","13.03125"
"1573729960614","152","-0.20019531","-0.7675781","0.5839844","20.75","5.78125","14.875"
"1573729960614","153","-0.16015625","-0.75390625","0.5810547","15.5625","4.5625","12.25"
"1573729960614","154","-0.2607422","-0.76953125","0.6123047","18.40625","3.90625","10.84375"
"1573729960614","155","-0.1875","-0.73828125","0.61035156","15.0","6.5625","8.84375"
"1573729960615","156","-0.20800781","-0.7480469","0.61816406","10.0625","4.6875","4.3125"
"1573729960616","157","-0.23339844","-0.7294922","0.6035156","9.5625","6.6875","3.59375"
"1573729960616","158","-0.16699219","-0.68066406","0.6542969","8.59375","5.53125","2.125"
"1573729960616","159","-0.22949219","-0.72558594","0.6308594","8.84375","5.40625","4.4375"
"1573729961011","160","-0.17675781","-0.6748047","0.6669922","14.09375","5.21875","4.875"
"1573729961012","161","-0.22167969","-0.6591797","0.6484375","12.0625","3.03125","6.6875"
"1573729961012","162","-0.23144531","-0.65527344","0.6669922","12.375","4.1875","5.78125"
"1573729961012","163","-0.2548828","-0.66503906","0.67089844","14.3125","6.15625","7.125"
"1573729961013","164","-0.19238281","-0.6386719","0.6689453","13.84375","5.0","7.5"
"1573729961013","165","-0.26367188","-0.6435547","0.69921875","15.5625","2.1875","7.90625"
"1573729961013","166","-0.25390625","-0.62597656","0.6621094","18.0625","5.78125","8.59375"
"1573729961013","167","-0.24707031","-0.57714844","0.6621094","19.34375","5.90625","7.8125"
"1573729961014","168","-0.24511719","-0.5625","0.66015625","17.625","5.78125","9.375"
"1573729961014","169","-0.25097656","-0.53125","0.68847656","18.53125","3.90625","11.15625"
"1573729961411","170","-0.32128906","-0.53808594","0.6923828","16.40625","9.5","11.03125"
"1573729961411","171","-0.28808594","-0.5126953","0.6767578","20.5625","8.15625","14.375"
"1573729961412","172","-0.32421875","-0.51464844","0.73535156","22.6875","12.25","15.0625"
"1573729961412","173","-0.359375","-0.5703125","0.6953125","18.125","10.375","13.96875"
"1573729961412","174","-0.30078125","-0.53515625","0.7392578","17.4375","9.6875","11.8125"
"1573729961412","175","-0.29785156","-0.53222656","0.7841797","15.96875","6.5625","12.0625"
"1573729961413","176","-0.375","-0.55859375","0.7392578","21.65625","7.125","15.3125"
"1573729961413","177","-0.29785156","-0.5029297","0.74902344","13.40625","12.375","16.28125"
"1573729961413","178","-0.3046875","-0.46679688","0.77246094","10.25","7.6875","11.8125"
"1573729961414","179","-0.3671875","-0.47851562","0.71875","5.65625","1.3125","5.90625"
"1573729961808","180","-0.34765625","-0.45117188","0.7138672","-2.21875","3.65625","0.34375"
"1573729961810","181","-0.30859375","-0.4658203","0.72558594","-12.40625","3.28125","-6.3125"
"1573729961810","182","-0.25878906","-0.484375","0.70703125","-23.875","-8.0625","-12.28125"
"1573729961810","183","-0.3095703","-0.49902344","0.7373047","-34.3125","-14.65625","-16.125"
"1573729961811","184","-0.29882812","-0.51464844","0.81640625","-39.625","-18.4375","-18.6875"
"1573729961811","185","-0.41210938","-0.57128906","0.7949219","-43.59375","-15.9375","-21.3125"
"1573729961811","186","-0.2890625","-0.5703125","0.82714844","-46.65625","-17.84375","-23.5625"
"1573729961812","187","-0.3828125","-0.5908203","0.7919922","-44.3125","-19.0","-22.0"
"1573729961812","188","-0.27246094","-0.5839844","0.7402344","-52.625","-12.09375","-26.125"
"1573729961812","189","-0.19726562","-0.61328125","0.70214844","-57.375","-18.375","-28.28125"
"1573729962204","190","-0.29882812","-0.609375","0.6923828","-59.34375","-20.78125","-30.34375"
"1573729962204","191","-0.2890625","-0.76660156","0.88378906","-73.3125","-16.6875","-31.8125"
"1573729962205","192","-0.23339844","-1.1757812","0.703125","-72.78125","-28.09375","-29.8125"
"1573729962206","193","0.020507812","-1.1640625","0.73828125","-71.1875","-11.84375","-30.21875"
"1573729962207","194","-0.18457031","-1.1259766","0.48339844","-55.625","-26.3125","-41.75"
"1573729962207","195","0.09277344","-0.82128906","0.39746094","-48.0","-11.25","-30.46875"
"1573729962207","196","-0.076171875","-0.78222656","0.28222656","-45.25","-18.25","-37.375"
"1573729962207","197","0.09863281","-0.7783203","0.265625","-42.0","-11.0","-24.3125"
"1573729962208","198","0.056640625","-0.8779297","0.3154297","-38.59375","-18.8125","-21.5"
"1573729962208","199","0.0390625","-0.9560547","0.31835938","-26.5","-10.09375","-14.0625"
"1573729962602","200","0.057617188","-0.94433594","0.36035156","-19.0","-3.4375","-4.34375"
"1573729962602","201","0.107421875","-0.94628906","0.32617188","-9.34375","0.03125","-0.375"
"1573729962602","202","0.080078125","-0.9658203","0.25878906","-5.3125","-1.34375","1.09375"
"1573729962603","203","0.11621094","-0.90625","0.28515625","-0.5625","3.84375","-0.375"
"1573729962603","204","0.047851562","-0.9345703","0.31640625","1.5","6.03125","4.6875"
"1573729962604","205","0.087890625","-0.953125","0.3232422","4.9375","6.6875","5.46875"
"1573729962604","206","-0.0078125","-0.91308594","0.3544922","13.40625","6.5625","8.15625"
"1573729962604","207","-0.0048828125","-0.92578125","0.38476562","8.90625","13.0","7.5625"
"1573729962605","208","0.044921875","-0.9111328","0.40039062","15.71875","12.0625","8.03125"
"1573729962605","209","-0.056640625","-0.89746094","0.40527344","18.34375","10.0625","7.0"
"1573729962998","210","0.024414062","-0.9003906","0.37890625","17.0625","9.03125","7.25"
"1573729962998","211","0.0029296875","-0.8671875","0.39746094","20.25","13.03125","7.6875"
"1573729962998","212","-0.046875","-0.83691406","0.44335938","22.25","15.0625","7.25"
"1573729962999","213","-0.053710938","-0.8574219","0.453125","26.03125","15.84375","6.5625"
"1573729962999","214","-0.06347656","-0.8671875","0.45703125","28.65625","12.5","9.8125"
"1573729962999","215","-0.07421875","-0.8574219","0.47558594","24.59375","13.65625","10.84375"
"1573729962999","216","-0.07128906","-0.8535156","0.50390625","23.78125","13.40625","12.0625"
"1573729963000","217","-0.083984375","-0.83203125","0.50683594","26.59375","11.71875","10.1875"
"1573729963000","218","-0.11425781","-0.8076172","0.5283203","28.375","15.65625","8.71875"
"1573729963001","219","-0.10546875","-0.79589844","0.5449219","26.71875","12.75","8.46875"
"1573729963397","220","-0.13574219","-0.7841797","0.55566406","25.0625","13.59375","9.5625"
"1573729963397","221","-0.15429688","-0.76953125","0.5654297","28.0625","16.40625","9.8125"
"1573729963398","222","-0.078125","-0.7578125","0.58691406","22.3125","13.40625","12.375"
"1573729963398","223","-0.20898438","-0.7626953","0.5966797","25.0","17.1875","9.8125"
"1573729963398","224","-0.16015625","-0.74316406","0.58984375","24.875","16.53125","11.03125"
"1573729963398","225","-0.17382812","-0.72753906","0.60839844","21.65625","19.21875","9.125"
"1573729963399","226","-0.20605469","-0.71777344","0.6484375","16.34375","19.21875","10.1875"
"1573729963399","227","-0.17675781","-0.7265625","0.6503906","17.875","16.40625","11.8125"
"1573729963399","228","-0.21484375","-0.6855469","0.65625","16.90625","15.5","11.71875"
"1573729963400","229","-0.21972656","-0.6894531","0.67089844","16.84375","12.375","12.75"
"1573729963793","230","-0.23828125","-0.6894531","0.6748047","18.40625","12.0625","12.875"
"1573729963794","231","-0.26953125","-0.640625","0.6796875","18.28125","11.9375","12.5"
"1573729963794","232","-0.24804688","-0.6582031","0.68652344","16.65625","7.5","12.625"
"1573729963794","233","-0.30371094","-0.60546875","0.6982422","15.1875","10.0625","10.1875"
"1573729963795","234","-0.2919922","-0.61816406","0.6953125","13.96875","11.9375","10.25"
"1573729963795","235","-0.31933594","-0.58984375","0.70703125","16.53125","15.0625","9.5625"
"1573729963795","236","-0.30566406","-0.5810547","0.7050781","14.8125","13.15625","12.0625"
"1573729963795","237","-0.3330078","-0.59277344","0.69921875","16.90625","19.03125","11.40625"
"1573729963796","238","-0.29882812","-0.5839844","0.7128906","10.1875","15.4375","11.9375"
"1573729963796","239","-0.375","-0.5605469","0.74316406","12.625","14.15625","10.71875"
"1573729964191","240","-0.32910156","-0.57714844","0.7236328","12.9375","7.25","9.5625"
"1573729964192","241","-0.37695312","-0.5419922","0.7294922","15.65625","6.9375","10.1875"
"1573729964192","242","-0.35839844","-0.5488281","0.6972656","16.15625","5.21875","10.1875"
"1573729964192","243","-0.3779297","-0.53515625","0.7314453","14.28125","10.1875","7.125"
"1573729964192","244","-0.37304688","-0.51953125","0.7480469","12.0625","8.46875","8.15625"
"1573729964192","245","-0.39257812","-0.50878906","0.7519531","14.09375","6.8125","9.375"
"1573729964193","246","-0.4033203","-0.5126953","0.7675781","11.28125","6.46875","8.59375"
"1573729964193","247","-0.4033203","-0.5078125","0.7578125","11.9375","9.25","7.6875"
"1573729964193","248","-0.3935547","-0.49121094","0.7548828","8.46875","8.15625","6.03125"
"1573729964193","249","-0.42773438","-0.46875","0.7832031","6.875","9.375","4.25"
"1573729964589","250","-0.4267578","-0.46484375","0.7841797","6.34375","7.25","3.40625"
"1573729964589","251","-0.42871094","-0.47460938","0.7705078","4.0625","10.46875","2.84375"
"1573729964589","252","-0.43554688","-0.4501953","0.77246094","5.0","11.03125","3.03125"
"1573729964590","253","-0.43652344","-0.45410156","0.77441406","1.75","8.03125","-0.4375"
"1573729964590","254","-0.4326172","-0.44628906","0.76464844","-0.875","8.65625","-1.3125"
"1573729964591","255","-0.44628906","-0.45214844","0.7421875","-1.71875","4.375","-2.34375"
"1573729964591","256","-0.44628906","-0.453125","0.7519531","-4.90625","4.8125","-3.5"
"1573729964591","257","-0.43554688","-0.4482422","0.7470703","-6.53125","3.9375","-4.78125"
"1573729964591","258","-0.43847656","-0.4609375","0.7324219","-6.53125","1.09375","-4.46875"
"1573729964592","259","-0.44726562","-0.4609375","0.73535156","-6.53125","3.15625","-6.1875"
"1573729964987","260","-0.44433594","-0.4814453","0.73535156","-4.59375","2.59375","-4.03125"
"1573729964987","261","-0.46679688","-0.4873047","0.73046875","-2.21875","6.03125","-5.09375"
"1573729964988","262","-0.50097656","-0.4892578","0.7373047","0.0","7.5","-6.78125"
"1573729964988","263","-0.4970703","-0.484375","0.7753906","-0.6875","5.96875","-5.3125"
"1573729964988","264","-0.48632812","-0.52246094","0.77246094","-2.625","1.09375","-4.84375"
"1573729964989","265","-0.4453125","-0.47265625","0.7607422","-3.75","4.125","-6.5"
"1573729964989","266","-0.3642578","-0.45214844","0.7548828","-2.59375","0.65625","-4.65625"
"1573729964990","267","-0.3623047","-0.44335938","0.73046875","0.90625","-5.625","-2.625"
"1573729964990","268","-0.3544922","-0.46484375","0.7314453","8.53125","-8.5","-1.0"
"1573729964991","269","-0.33789062","-0.44921875","0.7314453","1.28125","-6.0","1.75"
"1573729965384","270","-0.3779297","-0.5078125","0.71972656","-3.625","-2.46875","2.4375"
"1573729965385","271","-0.39453125","-0.46484375","0.7128906","-12.21875","-1.96875","4.75"
"1573729965385","272","-0.3984375","-0.51464844","0.71777344","-15.28125","2.375","6.6875"
"1573729965385","273","-0.37109375","-0.5126953","0.6982422","-11.25","2.59375","8.46875"
"1573729965385","274","-0.42089844","-0.48535156","0.75","-9.0625","1.15625","8.03125"
"1573729965386","275","-0.4013672","-0.484375","0.74121094","-9.96875","2.96875","8.03125"
"1573729965386","276","-0.38964844","-0.4873047","0.7216797","-4.15625","2.375","8.59375"
"1573729965387","277","-0.43359375","-0.45507812","0.7050781","4.25","1.09375","11.15625"
"1573729965388","278","-0.43359375","-0.4580078","0.73046875","4.8125","5.59375","12.5"
"1573729965388","279","-0.4248047","-0.4658203","0.7363281","9.375","6.34375","13.03125"
"1573729965783","280","-0.45703125","-0.48828125","0.7607422","13.84375","9.375","12.875"
"1573729965783","281","-0.43554688","-0.47070312","0.7578125","13.15625","6.875","13.28125"
"1573729965784","282","-0.49902344","-0.46679688","0.79785156","15.3125","9.5","12.875"
"1573729965784","283","-0.49609375","-0.46875","0.7910156","16.65625","6.21875","11.59375"
"1573729965784","284","-0.4873047","-0.4423828","0.81152344","16.15625","7.375","9.5625"
"1573729965784","285","-0.52246094","-0.42578125","0.8017578","17.3125","3.34375","9.9375"
"1573729965785","286","-0.5107422","-0.39453125","0.7949219","15.96875","2.4375","9.25"
"1573729965785","287","-0.51171875","-0.34472656","0.7597656","16.78125","0.65625","11.28125"
"1573729965785","288","-0.53125","-0.32128906","0.7734375","16.28125","1.75","11.03125"
"1573729965786","289","-0.49414062","-0.3154297","0.7890625","14.5","2.0","9.5"
"1573729966178","290","-0.5","-0.30371094","0.70996094","18.96875","-2.03125","13.28125"
"1573729966178","291","-0.4970703","-0.30566406","0.7636719","17.5625","2.3125","9.5"
"1573729966179","292","-0.54296875","-0.27148438","0.8417969","18.96875","-0.375","7.125"
"1573729966179","293","-0.5449219","-0.29589844","0.7841797","17.875","2.78125","6.28125"
"1573729966179","294","-0.47265625","-0.2734375","0.8027344","16.78125","4.9375","2.0"
"1573729966179","295","-0.5390625","-0.26367188","0.84277344","10.84375","1.5625","-0.1875"
"1573729966179","296","-0.49609375","-0.2578125","0.76953125","8.34375","6.34375","-2.03125"
"1573729966180","297","-0.4716797","-0.23535156","0.7558594","4.0","6.34375","-3.96875"
"1573729966180","298","-0.49414062","-0.21777344","0.7529297","3.21875","6.03125","-6.25"
"1573729966180","299","-0.4453125","-0.19921875","0.7441406","2.5","4.5625","-5.5625"
"1573729966575","300","-0.53808594","-0.19726562","0.79003906","5.40625","5.65625","-2.8125"
"1573729966576","301","-0.4921875","-0.23242188","0.7861328","3.21875","3.34375","-2.09375"
"1573729966576","302","-0.55078125","-0.2607422","0.81933594","8.59375","3.90625","0.96875"
"1573729966576","303","-0.5839844","-0.2607422","0.92578125","6.21875","3.90625","2.0625"
"1573729966577","304","-0.5878906","-0.26464844","0.91796875","1.8125","2.125","1.375"
"1573729966577","305","-0.5986328","-0.28515625","0.9394531","-2.15625","3.84375","2.3125"
"1573729966577","306","-0.5996094","-0.29003906","0.92871094","-5.5625","3.40625","0.40625"
"1573729966577","307","-0.5800781","-0.28710938","0.91015625","-8.5625","0.84375","-0.9375"
"1573729966578","308","-0.56640625","-0.28515625","0.88378906","-9.84375","-1.46875","-2.34375"
"1573729966578","309","-0.5566406","-0.28808594","0.875","-13.5625","-2.6875","-3.875"
"1573729966975","310","-0.55566406","-0.30273438","0.86621094","-15.46875","-1.84375","-6.1875"
"1573729966976","311","-0.5517578","-0.31054688","0.8466797","-16.5625","-2.625","-9.53125"
"1573729966976","312","-0.5205078","-0.33007812","0.8457031","-21.5625","-4.96875","-12.34375"
"1573729966977","313","-0.5205078","-0.3359375","0.828125","-24.75","-6.53125","-17.90625"
"1573729966978","314","-0.49023438","-0.3564453","0.7910156","-25.53125","-6.4375","-20.28125"
"1573729966978","315","-0.4921875","-0.38476562","0.7910156","-33.34375","-5.625","-26.5"
"1573729966978","316","-0.48535156","-0.3857422","0.7988281","-34.9375","-2.40625","-31.8125"
"1573729966979","317","-0.4609375","-0.42382812","0.8046875","-35.71875","-6.125","-38.15625"
"1573729966979","318","-0.453125","-0.47460938","0.7558594","-33.875","-10.9375","-40.3125"
"1573729966979","319","-0.3564453","-0.4970703","0.7685547","-35.21875","-20.09375","-43.28125"
"1573729967372","320","-0.4013672","-0.52734375","0.74902344","-41.28125","-27.84375","-44.875"
"1573729967373","321","-0.2939453","-0.5371094","0.7138672","-49.5","-27.53125","-45.3125"
"1573729967373","322","-0.2998047","-0.53222656","0.703125","-51.78125","-31.3125","-47.0"
"1573729967373","323","-0.2548828","-0.5410156","0.5996094","-55.25","-32.96875","-45.3125"
"1573729967373","324","-0.17382812","-0.50878906","0.65625","-64.09375","-36.28125","-46.09375"
"1573729967374","325","-0.23632812","-0.6425781","0.578125","-66.1875","-42.75","-44.03125"
"1573729967374","326","-0.123046875","-0.6386719","0.6123047","-68.0","-37.90625","-43.96875"
"1573729967374","327","-0.14550781","-0.6767578","0.59765625","-67.875","-43.53125","-40.1875"
"1573729967375","328","-0.10449219","-0.7626953","0.57128906","-71.78125","-40.40625","-39.625"
"1573729967375","329","-0.06640625","-0.71972656","0.5263672","-66.84375","-33.59375","-38.59375"
"1573729967769","330","0.0078125","-0.72265625","0.48535156","-69.84375","-37.0625","-34.3125"
"1573729967770","331","-0.033203125","-0.81347656","0.45507812","-67.03125","-35.53125","-34.6875"
"1573729967770","332","0.0078125","-0.78222656","0.40820312","-70.28125","-29.75","-31.75"
"1573729967770","333","0.07714844","-0.85253906","0.36914062","-67.9375","-28.9375","-30.90625"
"1573729967771","334","0.12011719","-0.88671875","0.35058594","-61.65625","-28.28125","-30.40625"
"1573729967771","335","0.087890625","-0.84472656","0.32128906","-56.53125","-27.0","-24.25"
"1573729967771","336","0.14550781","-0.8984375","0.25878906","-54.40625","-23.09375","-25.71875"
"1573729967773","337","0.14550781","-0.8886719","0.2578125","-50.4375","-15.6875","-21.625"
"1573729967773","338","0.16796875","-0.9453125","0.24414062","-47.6875","-11.3125","-17.90625"
"1573729967773","339","0.22753906","-0.9560547","0.13476562","-44.28125","-16.75","-18.875"
"1573729968167","340","0.24414062","-0.94433594","0.13183594","-35.90625","-12.90625","-15.21875"
"1573729968167","341","0.20117188","-0.9902344","0.09667969","-42.4375","-15.875","-12.21875"
"1573729968167","342","0.32714844","-0.9169922","0.083984375","-38.78125","-12.59375","-16.96875"
"1573729968168","343","0.16503906","-0.9453125","0.09472656","-36.8125","-4.15625","-12.53125"
"1573729968168","344","0.32714844","-0.94140625","0.06738281","-37.6875","-14.34375","-16.4375"
"1573729968168","345","0.19238281","-0.8984375","0.08984375","-29.375","-9.90625","-17.34375"
"1573729968168","346","0.18457031","-0.93847656","0.068359375","-24.0625","-7.40625","-15.21875"
"1573729968169","347","0.15820312","-1.0029297","-0.0029296875","-17.40625","4.0","-18.375"
"1573729968169","348","0.28710938","-0.89941406","-0.040039062","-12.84375","6.875","-18.6875"
"1573729968170","349","0.31640625","-0.9238281","-0.0078125","-4.09375","9.875","-18.375"
"1573729968563","350","0.3330078","-0.93652344","0.022460938","5.0","8.03125","-8.4375"
"1573729968563","351","0.33691406","-0.9326172","0.021484375","9.375","6.6875","-5.5625"
"1573729968564","352","0.3408203","-0.9375","0.01171875","8.34375","6.21875","-3.625"
"1573729968564","353","0.30664062","-0.93066406","0.030273438","8.71875","9.03125","-0.4375"
"1573729968564","354","0.3125","-0.9794922","0.021484375","8.84375","7.125","0.71875"
"1573729968564","355","0.296875","-0.9375","0.022460938","13.65625","6.875","6.5625"
"1573729968565","356","0.35839844","-0.9394531","0.032226562","13.28125","7.5","5.34375"
"1573729968565","357","0.32617188","-0.93066406","0.03515625","14.9375","2.25","6.6875"
"1573729968565","358","0.3173828","-0.93066406","0.041015625","18.0","2.84375","7.625"
"1573729968566","359","0.3125","-0.9501953","0.057617188","16.40625","1.3125","7.5"
"1573729968963","360","0.31152344","-0.92285156","0.041992188","22.3125","0.65625","10.59375"
"1573729968965","361","0.27441406","-0.9423828","0.09667969","22.5","2.65625","9.5"
"1573729968965","362","0.2890625","-0.9160156","0.09277344","21.59375","3.03125","10.71875"
"1573729968965","363","0.30078125","-0.9501953","0.123046875","20.5625","4.5625","10.90625"
"1573729968966","364","0.27246094","-0.9765625","0.12109375","16.53125","5.59375","7.8125"
"1573729968966","365","0.27734375","-0.96484375","0.13964844","14.5","5.59375","6.46875"
"1573729968966","366","0.25","-0.9375","0.13574219","14.375","7.5625","7.5"
"1573729968967","367","0.23730469","-0.9501953","0.15917969","4.8125","9.03125","8.90625"
"1573729968967","368","0.27441406","-0.92285156","0.1640625","8.46875","11.40625","10.84375"
"1573729968967","369","0.22460938","-0.95214844","0.19238281","3.34375","10.59375","11.15625"
"1573729969359","370","0.17675781","-0.9433594","0.19140625","2.5","14.375","9.375"
"1573729969359","371","0.21386719","-0.9609375","0.18164062","2.375","13.59375","12.75"
"1573729969360","372","0.18652344","-0.9091797","0.18457031","8.84375","16.40625","13.40625"
"1573729969364","373","0.14550781","-0.93359375","0.22265625","9.9375","20.96875","16.53125"
"1573729969365","374","0.20703125","-0.9316406","0.20117188","9.6875","18.28125","19.15625"
"1573729969365","375","0.10449219","-0.9140625","0.23144531","16.53125","17.75","23.90625"
"1573729969366","376","0.13574219","-0.9550781","0.27148438","20.25","16.53125","24.8125"
"1573729969366","377","0.12890625","-0.9248047","0.27539062","28.375","9.25","28.625"
"1573729969366","378","0.0546875","-0.8955078","0.30859375","39.40625","8.15625","27.8125"
"1573729969366","379","0.12011719","-0.9550781","0.3173828","36.65625","1.5625","24.40625"
"1573729969758","380","0.06347656","-0.92871094","0.3388672","39.46875","-7.40625","18.78125"
"1573729969758","381","0.07128906","-0.95214844","0.35742188","27.375","0.34375","14.875"
"1573729969759","382","0.08300781","-0.96972656","0.32617188","18.53125","3.09375","12.5"
"1573729969759","383","0.08300781","-0.8847656","0.33203125","10.25","2.0625","9.375"
"1573729969759","384","0.0390625","-0.91015625","0.34472656","8.59375","6.03125","8.90625"
"1573729969761","385","-0.0390625","-0.88671875","0.390625","8.21875","5.0625","6.28125"
"1573729969761","386","0.04296875","-0.8574219","0.3671875","9.375","2.96875","5.59375"
"1573729969761","387","-0.0146484375","-0.84277344","0.39746094","15.65625","3.65625","5.34375"
"1573729969762","388","-0.052734375","-0.8173828","0.41503906","23.125","8.90625","10.84375"
"1573729969762","389","0.0068359375","-0.8496094","0.41015625","23.1875","7.375","14.28125"
"1573729970153","390","-0.045898438","-0.7714844","0.4169922","38.25","10.71875","18.0625"
"1573729970153","391","-0.0126953125","-0.8173828","0.41601562","39.34375","10.90625","27.34375"
"1573729970154","392","-0.078125","-0.8701172","0.5126953","29.03125","11.28125","24.65625"
"1573729970154","393","-0.10253906","-0.8652344","0.5205078","38.625","19.5625","25.6875"
"1573729970154","394","-0.08203125","-0.79003906","0.54785156","33.4375","21.34375","20.375"
"1573729970154","395","-0.22265625","-0.8408203","0.6123047","33.1875","25.75","19.21875"
"1573729970155","396","-0.076171875","-0.78027344","0.53808594","29.34375","19.5625","15.0"
"1573729970155","397","-0.15722656","-0.7470703","0.6269531","37.53125","22.5625","16.65625"
"1573729970155","398","-0.16992188","-0.75878906","0.59472656","33.0625","18.0625","15.3125"
"1573729970156","399","-0.14746094","-0.7519531","0.61328125","31.1875","19.75","15.5"
"1573729970550","400","-0.14453125","-0.7285156","0.64453125","27.5625","17.1875","11.9375"
"1573729970551","401","-0.20507812","-0.7441406","0.69433594","25.375","12.9375","11.71875"
"1573729970551","402","-0.23144531","-0.8046875","0.71191406","18.84375","15.5625","11.53125"
"1573729970551","403","-0.17480469","-0.7734375","0.7451172","10.25","11.15625","-0.125"
"1573729970551","404","-0.3046875","-0.75683594","0.7373047","9.03125","7.5","2.0"
"1573729970552","405","-0.1875","-0.74902344","0.7167969","-0.5","11.46875","-2.28125"
"1573729970552","406","-0.24023438","-0.6699219","0.69921875","-3.875","8.53125","-4.78125"
"1573729970552","407","-0.26367188","-0.6455078","0.65527344","1.15625","10.71875","-2.6875"
"1573729970552","408","-0.22460938","-0.6035156","0.6503906","2.65625","7.375","-2.03125"
"1573729970554","409","-0.24414062","-0.5625","0.58203125","4.9375","9.5","-0.75"
"1573729970949","410","-0.22851562","-0.5654297","0.59277344","5.34375","14.625","2.84375"
"1573729970950","411","-0.25683594","-0.5332031","0.5722656","10.59375","12.5","5.78125"
"1573729970950","412","-0.23828125","-0.54785156","0.61621094","12.0625","13.53125","9.03125"
"1573729970951","413","-0.2578125","-0.5361328","0.6064453","13.15625","7.5","13.15625"
"1573729970951","414","-0.25390625","-0.5419922","0.6279297","16.53125","7.25","18.21875"
"1573729970951","415","-0.31054688","-0.60546875","0.7109375","6.9375","-1.78125","21.65625"
"1573729970951","416","-0.33496094","-0.56347656","0.6582031","-4.65625","4.5","18.0625"
"1573729970951","417","-0.31640625","-0.6123047","0.6738281","-11.96875","1.9375","18.21875"
"1573729970952","418","-0.34375","-0.64941406","0.6855469","-3.8125","-3.90625","14.75"
"1573729970952","419","-0.35058594","-0.6328125","0.6308594","6.8125","2.71875","12.25"
"1573729971347","420","-0.31933594","-0.6269531","0.7324219","12.625","2.25","6.28125"
"1573729971349","421","-0.33398438","-0.57714844","0.68066406","20.75","-5.5","4.3125"
"1573729971350","422","-0.34570312","-0.5800781","0.74609375","7.96875","-2.625","2.78125"
"1573729971350","423","-0.3125","-0.57421875","0.7207031","7.3125","-6.59375","-0.1875"
"1573729971350","424","-0.33984375","-0.6191406","0.75","8.65625","-0.8125","1.21875"
"1573729971350","425","-0.37304688","-0.62402344","0.79785156","11.40625","8.84375","-7.09375"
"1573729971351","426","-0.33789062","-0.5283203","0.7998047","2.125","1.09375","-10.6875"
"1573729971351","427","-0.40429688","-0.5498047","0.8359375","1.21875","1.5","-9.65625"
"1573729971351","428","-0.38183594","-0.5371094","0.8017578","-8.3125","2.71875","-13.625"
"1573729971352","429","-0.3203125","-0.5292969","0.7470703","-18.75","-1.46875","-9.46875"
"1573729971744","430","-0.29589844","-0.53027344","0.73339844","-26.25","-10.8125","-15.34375"
"1573729971744","431","-0.36914062","-0.50878906","0.7421875","-31.03125","-7.28125","-17.09375"
"1573729971745","432","-0.28320312","-0.56347656","0.6777344","-37.0","-8.625","-14.53125"
"1573729971746","433","-0.26464844","-0.5722656","0.6855469","-39.6875","-12.78125","-16.5625"
"1573729971747","434","-0.34375","-0.6298828","0.74316406","-41.6875","-7.40625","-18.375"
"1573729971747","435","-0.3251953","-0.6455078","0.70996094","-44.15625","-8.625","-20.53125"
"1573729971747","436","-0.25390625","-0.7529297","0.68359375","-50.90625","-6.84375","-22.0625"
"1573729971747","437","-0.2529297","-0.85546875","0.7011719","-54.65625","-11.6875","-28.53125"
"1573729971748","438","-0.22265625","-0.96777344","0.6904297","-58.96875","-9.0625","-25.53125"
"1573729971748","439","-0.16015625","-0.9736328","0.6113281","-50.5","-13.5","-25.71875"
"1573729972140","440","-0.07910156","-0.9160156","0.4892578","-41.65625","-15.15625","-25.34375"
"1573729972141","441","-0.078125","-0.85546875","0.44726562","-29.875","-18.75","-25.28125"
"1573729972141","442","-0.06347656","-0.78222656","0.41308594","-31.25","-13.25","-25.78125"
"1573729972141","443","-0.109375","-0.8144531","0.45117188","-38.53125","-16.6875","-21.6875"
"1573729972142","444","-0.06347656","-0.89746094","0.40527344","-33.53125","-6.5","-19.5"
"1573729972143","445","-0.0546875","-0.86816406","0.43164062","-28.8125","-4.15625","-19.65625"
"1573729972143","446","-0.056640625","-0.8720703","0.40527344","-20.09375","-6.53125","-10.75"
"1573729972143","447","0.01171875","-0.9189453","0.40039062","-14.90625","-1.90625","-4.96875"
"1573729972144","448","0.01171875","-0.9003906","0.3798828","-8.0","-6.78125","-5.21875"
"1573729972144","449","-0.030273438","-0.9375","0.36132812","0.65625","-3.90625","0.0"
"1573729972539","450","-9.765625E-4","-0.90722656","0.38085938","-1.34375","-2.15625","-2.9375"
"1573729972540","451","-9.765625E-4","-0.8955078","0.375","-3.875","0.03125","-6.53125"
"1573729972540","452","-9.765625E-4","-0.8798828","0.390625","-5.3125","1.15625","-5.3125"
"1573729972540","453","0.013671875","-0.91503906","0.39746094","-7.46875","1.625","-2.40625"
"1573729972540","454","0.001953125","-0.8886719","0.4248047","-4.90625","1.9375","0.90625"
"1573729972541","455","-0.0390625","-0.8828125","0.41503906","-4.40625","2.59375","4.5625"
"1573729972541","456","-0.016601562","-0.8769531","0.3798828","3.21875","6.8125","3.21875"
"1573729972541","457","-0.07128906","-0.90527344","0.3671875","7.5","7.90625","2.4375"
"1573729972541","458","-0.024414062","-0.9472656","0.3876953","5.65625","10.59375","-0.5625"
"1573729972542","459","-0.03515625","-0.90527344","0.3935547","3.34375","6.46875","-2.53125"
"1573729972938","460","-0.0390625","-0.91015625","0.3779297","2.125","4.5625","-3.0"
"1573729972939","461","-0.043945312","-0.8857422","0.41210938","-0.0625","4.9375","-4.78125"
"1573729972939","462","-0.052734375","-0.8935547","0.40039062","6.5625","4.375","-1.40625"
"1573729972939","463","-0.036132812","-0.8857422","0.44726562","4.25","5.78125","0.53125"
"1573729972940","464","-0.04296875","-0.84277344","0.41601562","14.625","7.375","2.125"
"1573729972940","465","-0.041015625","-0.86621094","0.4375","16.9375","11.59375","6.6875"
"1573729972940","466","-0.03125","-0.8701172","0.4404297","10.84375","7.5","6.9375"
"1573729972940","467","-0.07519531","-0.8623047","0.42773438","22.3125","10.0625","8.90625"
"1573729972940","468","-0.01953125","-0.8720703","0.45507812","20.0625","13.15625","11.59375"
"1573729972942","469","-0.08886719","-0.8535156","0.46777344","10.59375","13.03125","8.71875"
"1573729973334","470","-0.11328125","-0.8339844","0.4873047","4.5625","11.8125","8.21875"
"1573729973335","471","-0.09472656","-0.8925781","0.4814453","4.125","6.5625","11.40625"
"1573729973335","472","-0.09277344","-0.83496094","0.47265625","3.09375","8.28125","12.1875"
"1573729973335","473","-0.12402344","-0.85058594","0.484375","9.03125","9.8125","11.40625"
"1573729973335","474","-0.10058594","-0.83984375","0.4814453","14.625","5.65625","14.625"
"1573729973336","475","-0.12890625","-0.828125","0.484375","24.03125","8.15625","13.96875"
"1573729973336","476","-0.11621094","-0.8203125","0.4765625","36.125","15.625","15.5625"
"1573729973336","477","-0.15625","-0.77246094","0.54003906","39.59375","14.625","18.125"
"1573729973336","478","-0.19824219","-0.7919922","0.5722656","37.15625","16.21875","20.0"
"1573729973337","479","-0.1796875","-0.7324219","0.5625","30.0","14.9375","17.75"
"1573729973930","480","-0.21289062","-0.74902344","0.58691406","34.28125","10.90625","20.625"
"1573729973931","481","-0.2421875","-0.703125","0.6464844","35.75","16.34375","20.4375"
"1573729973932","482","-0.24804688","-0.703125","0.63183594","33.0625","15.1875","20.25"
"1573729973932","483","-0.2841797","-0.6660156","0.66503906","31.28125","15.0625","16.90625"
"1573729973932","484","-0.3046875","-0.6357422","0.68652344","31.53125","14.375","19.09375"
"1573729973933","485","-0.29101562","-0.62402344","0.703125","28.375","12.1875","18.40625"
"1573729973933","486","-0.3408203","-0.60058594","0.7001953","27.625","9.25","17.875"
"1573729973933","487","-0.3359375","-0.5673828","0.7011719","24.75","11.15625","16.34375"
"1573729973933","488","-0.3623047","-0.5527344","0.7207031","21.71875","11.28125","14.9375"
"1573729973934","489","-0.34179688","-0.55078125","0.7158203","17.0625","11.53125","12.625"
"1573729974129","490","-0.40234375","-0.51953125","0.7548828","15.0625","12.9375","10.71875"
"1573729974129","491","-0.39453125","-0.54296875","0.73535156","15.625","11.59375","10.0625"
"1573729974129","492","-0.37597656","-0.53125","0.74316406","11.9375","12.75","8.03125"
"1573729974131","493","-0.40234375","-0.50390625","0.74121094","12.5","11.9375","6.875"
"1573729974132","494","-0.3876953","-0.5107422","0.7373047","10.71875","10.0625","6.03125"
"1573729974132","495","-0.41992188","-0.50097656","0.7451172","13.15625","12.5","5.125"
"1573729974133","496","-0.4140625","-0.48828125","0.7373047","13.28125","10.84375","5.0"
"1573729974133","497","-0.4326172","-0.4814453","0.74121094","12.75","11.59375","4.5625"
"1573729974133","498","-0.4375","-0.47460938","0.7314453","13.84375","10.90625","3.59375"
"1573729974133","499","-0.43359375","-0.4716797","0.7392578","12.375","10.84375","3.09375"
"1573729974527","500","-0.4482422","-0.43554688","0.7548828","12.625","11.59375","4.0"
"1573729974527","501","-0.43847656","-0.44335938","0.75683594","12.9375","8.46875","4.1875"
"1573729974527","502","-0.45507812","-0.43066406","0.7685547","17.375","9.8125","3.21875"
"1573729974528","503","-0.4658203","-0.4111328","0.78027344","19.09375","5.78125","4.0"
"1573729974528","504","-0.45410156","-0.3857422","0.78515625","19.21875","4.5625","6.34375"
"1573729974528","505","-0.4326172","-0.4111328","0.7763672","17.375","3.09375","7.375"
"1573729974529","506","-0.46191406","-0.40429688","0.7861328","5.65625","2.84375","7.8125"
"1573729974529","507","-0.43945312","-0.41210938","0.7890625","-2.75","2.90625","1.375"
"1573729974529","508","-0.47265625","-0.36328125","0.7998047","-11.1875","3.03125","0.03125"
"1573729974529","509","-0.44335938","-0.4033203","0.8173828","-21.625","4.0625","1.6875"
"1573729974924","510","-0.44628906","-0.36328125","0.7216797","-17.34375","-3.3125","1.4375"
"1573729974925","511","-0.5078125","-0.37402344","0.7441406","-6.0625","-5.4375","0.65625"
"1573729974925","512","-0.4658203","-0.43164062","0.7451172","-4.90625","-6.375","0.53125"
"1573729974925","513","-0.47851562","-0.41992188","0.7373047","-7.28125","-6.84375","-1.1875"
"1573729974926","514","-0.49414062","-0.44726562","0.74121094","-10.8125","-5.5625","-4.34375"
"1573729974926","515","-0.46289062","-0.4453125","0.765625","-12.84375","2.0625","-6.59375"
"1573729974926","516","-0.46875","-0.453125","0.7548828","-14.53125","1.28125","-6.96875"
"1573729974927","517","-0.48242188","-0.43652344","0.7441406","-11.90625","4.9375","-8.5"
"1573729974928","518","-0.38183594","-0.48828125","0.7314453","-16.125","1.625","-8.3125"
"1573729974928","519","-0.43359375","-0.43652344","0.7236328","-11.96875","-0.0625","-5.3125"
"1573729975518","520","-0.42089844","-0.4580078","0.70703125","-8.8125","0.03125","-4.78125"
"1573729975519","521","-0.43164062","-0.453125","0.7314453","-7.15625","0.15625","-3.8125"
"1573729975519","522","-0.41601562","-0.4736328","0.75","-7.28125","-0.75","-1.96875"
"1573729975519","523","-0.42382812","-0.48535156","0.74121094","-5.21875","0.34375","-0.8125"
"1573729975520","524","-0.4267578","-0.47851562","0.7607422","-3.96875","-0.25","-1.0625"
"1573729975520","525","-0.38964844","-0.4970703","0.7451172","-1.46875","-1.59375","1.03125"
"1573729975520","526","-0.38867188","-0.49804688","0.72265625","-0.6875","-2.625","3.40625"
"1573729975520","527","-0.40429688","-0.49804688","0.7519531","0.59375","-3.6875","2.90625"
"1573729975520","528","-0.4140625","-0.47851562","0.76171875","3.53125","-1.96875","3.21875"
"1573729975522","529","-0.42285156","-0.50097656","0.7578125","6.03125","-0.3125","5.53125"
"1573729975718","530","-0.40234375","-0.5029297","0.73535156","9.09375","-2.28125","9.9375"
"1573729975718","531","-0.40527344","-0.4794922","0.7597656","13.90625","-5.875","13.65625"
"1573729975719","532","-0.40722656","-0.48828125","0.7949219","14.75","-2.40625","15.0625"
"1573729975719","533","-0.3984375","-0.45703125","0.8388672","15.90625","-5.9375","17.75"
"1573729975719","534","-0.52246094","-0.48046875","0.79785156","16.09375","4.3125","19.21875"
"1573729975719","535","-0.5214844","-0.42578125","0.8144531","15.65625","4.1875","14.625"
"1573729975720","536","-0.49023438","-0.4189453","0.8339844","11.03125","8.71875","6.15625"
"1573729975720","537","-0.5029297","-0.3876953","0.8046875","9.6875","9.375","3.71875"
"1573729975720","538","-0.48535156","-0.36132812","0.8251953","10.375","11.40625","2.4375"
"1573729975721","539","-0.5078125","-0.36035156","0.81640625","11.28125","11.9375","2.0625"
"1573729976116","540","-0.5205078","-0.3359375","0.83984375","7.6875","11.71875","0.21875"
"1573729976117","541","-0.5439453","-0.37890625","0.8876953","7.5625","9.375","-1.25"
"1573729976118","542","-0.5419922","-0.3876953","0.9033203","3.46875","8.34375","-1.71875"
"1573729976118","543","-0.5527344","-0.42382812","0.89941406","0.03125","7.8125","-1.0625"
"1573729976118","544","-0.5371094","-0.39453125","0.8652344","-3.375","5.71875","-1.84375"
"1573729976118","545","-0.5439453","-0.41503906","0.81640625","-10.03125","4.0625","-2.9375"
"1573729976119","546","-0.5136719","-0.40625","0.7919922","-15.59375","1.5625","-4.65625"
"1573729976119","547","-0.47558594","-0.40625","0.7636719","-22.34375","-2.75","-8.9375"
"1573729976119","548","-0.49414062","-0.41601562","0.7480469","-29.9375","-4.28125","-14.65625"
"1573729976119","549","-0.45410156","-0.42871094","0.7402344","-37.0625","-6.125","-19.125"
"1573729976515","550","-0.47460938","-0.4482422","0.7324219","-40.375","-10.5","-22.40625"
"1573729976515","551","-0.4560547","-0.51171875","0.70410156","-44.9375","-8.6875","-23.28125"
"1573729976515","552","-0.42871094","-0.49609375","0.7314453","-46.09375","-8.1875","-28.59375"
"1573729976517","553","-0.41015625","-0.5332031","0.7109375","-48.65625","-10.6875","-28.9375"
"1573729976517","554","-0.40820312","-0.5751953","0.6699219","-45.96875","-13.5","-29.75"
"1573729976518","555","-0.32910156","-0.6035156","0.65527344","-44.625","-12.34375","-32.1875"
"1573729976518","556","-0.35839844","-0.6015625","0.6308594","-37.625","-14.65625","-35.71875"
"1573729976518","557","-0.29785156","-0.6386719","0.62109375","-37.125","-11.84375","-40.84375"
"1573729976518","558","-0.2529297","-0.6484375","0.5859375","-47.625","-20.78125","-42.4375"
"1573729976519","559","-0.23339844","-0.6582031","0.5800781","-48.84375","-24.4375","-43.71875"
"1573729976912","560","-0.18652344","-0.671875","0.5332031","-54.34375","-28.09375","-42.4375"
"1573729976913","561","-0.16113281","-0.66796875","0.53125","-56.40625","-31.5","-39.8125"
"1573729976913","562","-0.20214844","-0.68652344","0.53027344","-61.21875","-28.6875","-37.375"
"1573729976913","563","-0.14453125","-0.7236328","0.49316406","-61.1875","-29.0625","-33.34375"
"1573729976913","564","-0.140625","-0.79296875","0.45996094","-59.15625","-24.5","-29.5625"
"1573729976915","565","-0.060546875","-0.7910156","0.41796875","-57.15625","-21.6875","-31.4375"
"1573729976916","566","-0.046875","-0.83691406","0.42285156","-55.875","-24.0","-30.09375"
"1573729976916","567","-0.044921875","-0.8886719","0.3388672","-51.09375","-18.9375","-25.71875"
"1573729976916","568","0.033203125","-0.84765625","0.3154297","-49.5","-22.53125","-28.15625"
"1573729976917","569","0.005859375","-0.8964844","0.30273438","-51.78125","-23.03125","-26.25"
"1573729977310","570","0.030273438","-0.9111328","0.24511719","-51.46875","-26.3125","-29.625"
"1573729977310","571","0.099609375","-0.8984375","0.2626953","-48.46875","-26.125","-26.03125"
"1573729977311","572","0.08496094","-0.95410156","0.21777344","-49.8125","-26.8125","-25.46875"
"1573729977311","573","0.111328125","-0.9609375","0.20117188","-43.40625","-22.21875","-26.25"
"1573729977311","574","0.13183594","-0.9814453","0.14453125","-43.28125","-21.5","-25.53125"
"1573729977311","575","0.15429688","-0.9638672","0.15820312","-36.34375","-18.5","-25.09375"
"1573729977312","576","0.12011719","-0.9560547","0.115234375","-36.9375","-16.8125","-22.40625"
"1573729977313","577","0.17089844","-0.97265625","0.09765625","-34.8125","-12.46875","-21.125"
"1573729977314","578","0.18359375","-0.9638672","0.12109375","-28.875","-11.4375","-20.9375"
"1573729977314","579","0.15820312","-0.9716797","0.061523438","-27.1875","-9.71875","-17.59375"
"1573729977705","580","0.21386719","-0.9550781","0.052734375","-27.1875","-4.03125","-17.34375"
"1573729977706","581","0.23242188","-0.9716797","0.0146484375","-23.4375","-8.3125","-16.8125"
"1573729977706","582","0.25","-0.9580078","0.0068359375","-21.1875","-3.8125","-15.28125"
"1573729977706","583","0.23144531","-0.9667969","-0.018554688","-10.09375","4.5","-13.8125"
"1573729977707","584","0.26660156","-1.0","-0.001953125","-8.125","11.875","-14.78125"
"1573729977707","585","0.25","-0.96484375","-0.0234375","-9.0625","15.375","-15.46875"
"1573729977707","586","0.24804688","-0.92871094","0.041015625","-10.15625","11.21875","-9.71875"
"1573729977707","587","0.3046875","-0.97558594","-0.03125","-6.90625","12.6875","-11.125"
"1573729977708","588","0.36523438","-0.9296875","-0.01171875","-7.15625","9.5","-12.40625"
"1573729977709","589","0.30371094","-0.91015625","0.02734375","-5.375","1.5625","-9.34375"
"1573729978104","590","0.28125","-0.9404297","0.037109375","-4.34375","3.28125","-7.40625"
"1573729978105","591","0.25097656","-0.9472656","-0.0078125","6.9375","4.25","-3.0625"
"1573729978105","592","0.30859375","-0.9316406","-0.0078125","4.6875","3.65625","-1.3125"
"1573729978105","593","0.28808594","-0.96484375","-0.0146484375","6.5625","5.34375","0.0"
"1573729978105","594","0.3046875","-0.9580078","-0.00390625","8.71875","5.78125","3.34375"
"1573729978106","595","0.30273438","-0.95410156","-9.765625E-4","9.5","5.34375","4.6875"
"1573729978106","596","0.3046875","-0.9355469","0.0029296875","8.84375","4.5625","3.90625"
"1573729978106","597","0.28320312","-0.9511719","0.0","7.375","5.53125","4.125"
"1573729978106","598","0.2841797","-0.9658203","0.021484375","7.375","8.71875","3.53125"
"1573729978106","599","0.30078125","-0.94433594","0.0029296875","8.46875","11.15625","2.375"
"1573729978502","600","0.30859375","-0.9560547","0.026367188","5.34375","10.0625","0.53125"
"1573729978503","601","0.2841797","-0.95410156","0.044921875","2.375","8.71875","0.40625"
"1573729978503","602","0.2919922","-0.92871094","0.051757812","5.34375","7.5","1.21875"
"1573729978503","603","0.25195312","-0.9394531","0.08203125","4.125","8.59375","2.5"
"1573729978503","604","0.2685547","-0.94140625","0.0703125","4.375","8.34375","1.3125"
"1573729978504","605","0.28320312","-0.93652344","0.055664062","1.21875","8.34375","3.09375"
"1573729978504","606","0.265625","-0.9394531","0.076171875","1.15625","5.53125","3.34375"
"1573729978505","607","0.26660156","-0.9375","0.0625","1.625","7.6875","4.25"
"1573729978505","608","0.24511719","-0.92089844","0.091796875","3.46875","11.8125","5.78125"
"1573729978505","609","0.24121094","-0.9248047","0.11230469","4.0","13.03125","9.9375"
"1573729978899","610","0.27441406","-0.9238281","0.11425781","3.03125","12.625","9.9375"
"1573729978900","611","0.24804688","-0.89453125","0.1171875","9.9375","11.28125","14.375"
"1573729978900","612","0.17382812","-0.94433594","0.13574219","18.90625","15.96875","20.0625"
"1573729978902","613","0.234375","-0.91308594","0.1171875","21.28125","17.75","23.1875"
"1573729978902","614","0.24414062","-0.98339844","0.12890625","22.03125","12.75","25.125"
"1573729978902","615","0.13671875","-0.97265625","0.13085938","21.34375","13.40625","24.65625"
"1573729978903","616","0.24023438","-0.9746094","0.13085938","10.59375","11.8125","22.25"
"1573729978903","617","0.16796875","-0.9951172","0.16503906","6.46875","11.8125","15.4375"
"1573729978903","618","0.09863281","-0.94140625","0.12207031","5.90625","14.375","18.71875"
"1573729978904","619","0.20898438","-0.92089844","0.11328125","11.71875","10.0625","14.9375"
"1573729979296","620","-0.015625","-0.9580078","0.19726562","18.78125","10.71875","17.5"
"1573729979297","621","0.051757812","-0.92285156","0.14941406","18.65625","13.15625","17.875"
"1573729979297","622","0.057617188","-0.8613281","0.19042969","26.90625","6.5625","19.53125"
"1573729979297","623","-0.030273438","-0.91796875","0.18847656","32.75","10.84375","18.53125"
"1573729979298","624","0.0078125","-0.8017578","0.20019531","42.09375","9.5","24.03125"
"1573729979299","625","0.021484375","-0.8457031","0.296875","42.90625","4.9375","20.5625"
"1573729979299","626","-0.037109375","-0.9345703","0.33984375","48.5625","6.03125","20.8125"
"1573729979300","627","0.055664062","-0.9375","0.37597656","42.71875","3.53125","20.625"
"1573729979300","628","-0.06347656","-0.88964844","0.34472656","39.09375","5.90625","13.40625"
"1573729979301","629","-0.052734375","-0.9199219","0.41601562","29.09375","11.40625","12.9375"
"1573729979693","630","0.059570312","-0.8417969","0.41015625","28.90625","7.8125","3.71875"
"1573729979693","631","-0.12988281","-0.86816406","0.40820312","25.5","4.6875","3.34375"
"1573729979694","632","-0.045898438","-0.828125","0.42382812","26.21875","15.96875","5.125"
"1573729979694","633","0.045898438","-0.8046875","0.5019531","22.75","9.125","0.0"
"1573729979694","634","-0.052734375","-0.85253906","0.5283203","22.03125","-2.6875","0.21875"
"1573729979695","635","-0.06933594","-0.8642578","0.49609375","20.375","0.34375","2.78125"
"1573729979695","636","-0.055664062","-0.8203125","0.51171875","16.09375","3.46875","3.03125"
"1573729979695","637","-0.017578125","-0.7792969","0.5517578","13.15625","0.90625","-0.1875"
"1573729979696","638","-0.123046875","-0.8203125","0.53515625","13.59375","-4.90625","0.28125"
"1573729979696","639","-0.044921875","-0.7910156","0.52441406","3.59375","0.03125","-0.125"
"1573729980091","640","-0.055664062","-0.7314453","0.55078125","-1.59375","3.46875","-3.90625"
"1573729980091","641","-0.08203125","-0.78125","0.55859375","-5.6875","-2.875","-4.09375"
"1573729980091","642","-0.083984375","-0.7578125","0.5878906","-6.25","-3.75","-3.375"
"1573729980091","643","-0.051757812","-0.77441406","0.6015625","-10.9375","-4.84375","-6.4375"
"1573729980092","644","-0.055664062","-0.8017578","0.61816406","-18.9375","-8.875","-6.71875"
"1573729980092","645","-0.09765625","-0.81347656","0.6113281","-20.78125","-9.34375","-8.625"
"1573729980092","646","-0.0390625","-0.82714844","0.62890625","-30.40625","-6.96875","-13.8125"
"1573729980092","647","-0.103515625","-0.9111328","0.66503906","-35.28125","-5.9375","-12.21875"
"1573729980093","648","-0.10644531","-1.0322266","0.6435547","-28.6875","-14.3125","-13.3125"
"1573729980094","649","-0.0234375","-1.0048828","0.625","-15.59375","-10.75","-12.90625"
"1573729980491","650","-0.021484375","-1.1308594","0.6201172","-45.59375","-17.78125","-5.21875"
"1573729980491","651","0.17480469","-0.99609375","0.48535156","-36.03125","-12.34375","-11.78125"
"1573729980492","652","-0.13085938","-0.8613281","0.32910156","-29.9375","-2.46875","-6.25"
"1573729980492","653","0.265625","-0.9169922","0.19042969","-40.40625","4.625","-6.71875"
"1573729980492","654","0.14746094","-0.8457031","0.20898438","-21.625","7.75","-15.21875"
"1573729980492","655","0.14453125","-0.9501953","0.20703125","-13.03125","12.4375","-10.5"
"1573729980493","656","0.17675781","-0.98535156","0.2998047","0.65625","11.8125","-10.5"
"1573729980493","657","0.12597656","-1.0478516","0.33398438","-11.3125","13.53125","-6.59375"
"1573729980493","658","0.21679688","-1.0654297","0.24511719","2.84375","-2.625","7.125"
"1573729980494","659","0.16015625","-0.90625","0.3154297","8.53125","-9.125","2.3125"
"1573729980886","660","0.15234375","-1.0039062","0.29492188","25.0","-9.78125","7.8125"
"1573729980887","661","0.11425781","-0.91503906","0.29882812","49.53125","-11.90625","8.84375"
"1573729980888","662","0.125","-0.9423828","0.38671875","4.1875","-11.1875","0.46875"
"1573729980888","663","0.049804688","-0.90234375","0.48046875","1.15625","-14.40625","-3.8125"
"1573729980888","664","0.005859375","-0.8857422","0.42871094","0.03125","-18.09375","0.28125"
"1573729980889","665","0.15332031","-0.8671875","0.3466797","-7.78125","-11.125","1.03125"
"1573729980889","666","0.034179688","-0.8486328","0.42773438","-18.75","5.53125","-6.78125"
"1573729980889","667","0.064453125","-0.8779297","0.4013672","-26.25","7.625","0.0"
"1573729980889","668","0.103515625","-0.92285156","0.3544922","-24.0625","9.5","5.46875"
"1573729980890","669","0.10546875","-0.9003906","0.3515625","-25.71875","10.65625","8.46875"
"1573729981284","670","0.1015625","-0.9189453","0.31933594","-15.03125","6.5","11.8125"
"1573729981285","671","0.0703125","-0.9638672","0.31152344","-10.9375","6.40625","11.03125"
"1573729981285","672","0.0546875","-0.94628906","0.3076172","-14.46875","3.71875","5.40625"
"1573729981287","673","0.020507812","-0.92089844","0.30566406","-2.6875","-3.0625","0.34375"
"1573729981287","674","-0.033203125","-0.9941406","0.31152344","-4.34375","6.09375","-0.375"
"1573729981287","675","0.0107421875","-0.95214844","0.35058594","0.90625","13.03125","-8.1875"
"1573729981288","676","-0.0029296875","-0.90527344","0.31835938","2.0625","11.40625","-10.15625"
"1573729981288","677","0.032226562","-0.9638672","0.30371094","8.59375","15.0","-12.34375"
"1573729981288","678","0.045898438","-0.89453125","0.31445312","10.1875","13.53125","-12.46875"
"1573729981288","679","0.08105469","-0.90234375","0.34277344","17.6875","1.09375","-9.15625"
"1573729981680","680","0.0625","-0.9550781","0.35742188","13.65625","-2.53125","-11.6875"
"1573729981681","681","0.11816406","-0.9033203","0.3076172","13.03125","0.78125","-17.28125"
"1573729981681","682","0.11816406","-0.95214844","0.3544922","-5.625","4.875","-8.1875"
"1573729981681","683","0.095703125","-0.8886719","0.3466797","-27.90625","-0.875","-4.90625"
"1573729981682","684","0.12109375","-0.8769531","0.3251953","-48.78125","11.21875","-8.625"
"1573729981683","685","0.13671875","-0.8408203","0.3076172","-35.21875","10.125","-7.875"
"1573729981683","686","0.07910156","-0.921875","0.3720703","12.25","13.59375","7.90625"
"1573729981683","687","0.11425781","-0.9638672","0.2763672","22.6875","5.21875","18.53125"
"1573729981683","688","0.12988281","-0.9169922","0.3798828","17.3125","10.59375","21.34375"
"1573729981684","689","0.0390625","-0.8964844","0.35351562","17.625","5.65625","20.6875"
"1573729982080","690","0.01953125","-0.9189453","0.3701172","26.53125","-0.8125","23.96875"
"1573729982081","691","-0.005859375","-0.91308594","0.3935547","7.8125","7.125","19.09375"
"1573729982081","692","-0.0068359375","-0.9238281","0.39746094","19.40625","15.65625","14.8125"
"1573729982081","693","-0.00390625","-0.95214844","0.3798828","2.65625","12.1875","13.59375"
"1573729982082","694","-0.0390625","-0.9111328","0.3623047","8.46875","13.03125","9.8125"
"1573729982082","695","-0.005859375","-0.9091797","0.39257812","14.375","10.84375","14.75"
"1573729982082","696","-0.018554688","-0.8964844","0.40722656","21.46875","10.1875","14.09375"
"1573729982083","697","-0.044921875","-0.8955078","0.40039062","18.1875","5.0625","16.84375"
"1573729982083","698","-0.0625","-0.87402344","0.43066406","15.625","6.8125","15.625"
"1573729982083","699","-0.08691406","-0.87597656","0.45507812","19.9375","9.9375","16.53125"
"1573729982477","700","-0.061523438","-0.86816406","0.44921875","17.0625","5.90625","18.53125"
"1573729982477","701","-0.078125","-0.85839844","0.47070312","16.65625","7.25","17.5625"
"1573729982478","702","-0.119140625","-0.83984375","0.48339844","13.03125","5.90625","18.53125"
"1573729982478","703","-0.12109375","-0.84375","0.5","20.90625","10.0625","19.53125"
"1573729982478","704","-0.103515625","-0.8173828","0.49316406","14.09375","-0.125","17.375"
"1573729982478","705","-0.17871094","-0.8105469","0.5058594","30.0","4.6875","14.375"
"1573729982479","706","-0.19824219","-0.8222656","0.55371094","25.25","3.53125","13.71875"
"1573729982479","707","-0.15039062","-0.8027344","0.55566406","30.25","3.90625","14.625"
"1573729982479","708","-0.22949219","-0.7734375","0.5673828","25.0625","8.03125","12.0625"
"1573729982480","709","-0.18847656","-0.7792969","0.55859375","20.75","12.5","9.8125"
"1573729982873","710","-0.21582031","-0.7294922","0.56933594","25.625","15.3125","8.84375"
"1573729982874","711","-0.203125","-0.7763672","0.5830078","19.34375","18.78125","7.25"
"1573729982874","712","-0.23730469","-0.75","0.5957031","13.15625","22.6875","3.90625"
"1573729982874","713","-0.21289062","-0.7519531","0.60839844","16.15625","16.53125","9.8125"
"1573729982875","714","-0.25097656","-0.71484375","0.6201172","22.6875","19.03125","11.9375"
"1573729982875","715","-0.20410156","-0.70214844","0.62597656","15.5625","17.5625","14.8125"
"1573729982875","716","-0.28125","-0.64746094","0.6464844","18.90625","18.40625","13.0"
"1573729982876","717","-0.3076172","-0.66308594","0.6503906","16.65625","21.28125","15.5"
"1573729982876","718","-0.28710938","-0.6699219","0.6611328","25.0625","20.0","15.0"
"1573729982876","719","-0.33691406","-0.63183594","0.6855469","23.46875","17.6875","15.3125"
"1573729983270","720","-0.34765625","-0.60839844","0.6748047","23.0","14.625","17.0625"
"1573729983272","721","-0.34277344","-0.6328125","0.7050781","16.65625","12.25","16.78125"
"1573729983272","722","-0.4091797","-0.5722656","0.7158203","18.0","11.28125","16.34375"
"1573729983272","723","-0.37890625","-0.57910156","0.6933594","17.875","5.53125","15.3125"
"1573729983273","724","-0.38671875","-0.57128906","0.7109375","20.96875","5.65625","16.09375"
"1573729983273","725","-0.4033203","-0.5253906","0.7158203","17.75","6.6875","12.0625"
"1573729983273","726","-0.4189453","-0.5263672","0.7216797","19.5625","4.0","11.40625"
"1573729983274","727","-0.41503906","-0.5107422","0.7265625","16.40625","2.96875","10.84375"
"1573729983274","728","-0.42578125","-0.5126953","0.7265625","14.5","2.0625","9.8125"
"1573729983275","729","-0.42089844","-0.49609375","0.7373047","14.5","4.9375","10.84375"
"1573729983669","730","-0.40820312","-0.49804688","0.7167969","11.03125","2.3125","8.15625"
"1573729983670","731","-0.4111328","-0.49121094","0.734375","11.15625","4.375","9.5625"
"1573729983670","732","-0.42285156","-0.4765625","0.74609375","8.15625","5.53125","9.6875"
"1573729983671","733","-0.40820312","-0.48339844","0.7451172","7.90625","1.15625","8.59375"
"1573729983671","734","-0.43359375","-0.45214844","0.75097656","4.1875","1.3125","6.8125"
"1573729983672","735","-0.4501953","-0.4482422","0.7480469","7.625","2.96875","6.09375"
"1573729983672","736","-0.42773438","-0.453125","0.7597656","6.09375","2.78125","5.53125"
"1573729983672","737","-0.4482422","-0.4423828","0.75","9.375","2.71875","4.9375"
"1573729983672","738","-0.45996094","-0.43554688","0.75683594","6.34375","2.0","2.0"
"1573729983673","739","-0.4404297","-0.43554688","0.7441406","10.0625","2.375","2.375"
"1573729984070","740","-0.46289062","-0.421875","0.75683594","10.25","5.0","2.0"
"1573729984070","741","-0.44726562","-0.4189453","0.7578125","10.0625","8.34375","0.53125"
"1573729984071","742","-0.44628906","-0.40820312","0.7734375","12.625","6.21875","1.5"
"1573729984071","743","-0.45898438","-0.39648438","0.7685547","11.71875","4.9375","1.03125"
"1573729984071","744","-0.45507812","-0.3984375","0.7763672","11.71875","6.9375","-0.1875"
"1573729984073","745","-0.46191406","-0.39453125","0.7763672","10.71875","3.90625","-1.96875"
"1573729984073","746","-0.44921875","-0.38964844","0.77246094","12.75","0.71875","-3.5625"
"1573729984073","747","-0.453125","-0.3720703","0.8144531","7.125","0.21875","-4.53125"
"1573729984074","748","-0.44140625","-0.36328125","0.8125","0.09375","2.0625","-3.4375"
"1573729984074","749","-0.46875","-0.34570312","0.7861328","-0.3125","3.15625","1.75"
"1573729984465","750","-0.4423828","-0.359375","0.7861328","3.46875","1.75","3.34375"
"1573729984465","751","-0.4814453","-0.35351562","0.78125","3.90625","0.78125","5.78125"
"1573729984465","752","-0.45898438","-0.3544922","0.7783203","1.4375","3.09375","5.90625"
"1573729984466","753","-0.4658203","-0.35351562","0.76660156","0.0","3.46875","8.21875"
"1573729984466","754","-0.45996094","-0.33691406","0.7861328","-3.90625","3.03125","12.5"
"1573729984466","755","-0.47558594","-0.36328125","0.7988281","-1.59375","3.46875","13.0"
"1573729984466","756","-0.41992188","-0.3388672","0.796875","-9.40625","0.65625","11.9375"
"1573729984468","757","-0.4580078","-0.35253906","0.7714844","-4.59375","-0.5","11.15625"
"1573729984468","758","-0.46679688","-0.3935547","0.8203125","-7.875","-5.5625","8.34375"
"1573729984469","759","-0.43945312","-0.32617188","0.8183594","-13.125","-15.03125","12.0625"
"1573729984863","760","-0.48632812","-0.35546875","0.78222656","-1.59375","-16.625","13.0"
"1573729984863","761","-0.48535156","-0.37597656","0.7871094","-3.0625","-11.3125","12.375"
"1573729984863","762","-0.5126953","-0.3623047","0.79003906","1.5625","-8.6875","8.28125"
"1573729984864","763","-0.49414062","-0.35253906","0.7919922","3.28125","-4.53125","6.8125"
"1573729984864","764","-0.46777344","-0.3251953","0.80859375","4.8125","0.28125","7.5"
"1573729984864","765","-0.47753906","-0.328125","0.8261719","5.34375","3.46875","6.46875"
"1573729984864","766","-0.50097656","-0.3154297","0.8261719","3.90625","4.0","2.90625"
"1573729984865","767","-0.47070312","-0.3076172","0.81152344","2.5","7.90625","0.40625"
"1573729984865","768","-0.4892578","-0.296875","0.80566406","1.8125","9.6875","1.21875"
"1573729984866","769","-0.4765625","-0.30859375","0.8251953","0.71875","9.9375","-0.9375"
"1573729985258","770","-0.4921875","-0.30859375","0.80859375","0.53125","9.5625","-2.28125"
"1573729985258","771","-0.50097656","-0.3330078","0.83984375","-2.53125","14.3125","-4.21875"
"1573729985259","772","-0.51171875","-0.34277344","0.859375","-4.59375","12.875","-4.65625"
"1573729985259","773","-0.51171875","-0.3095703","0.83984375","-5.25","4.6875","-4.90625"
"1573729985259","774","-0.48632812","-0.33203125","0.8261719","-2.75","3.9375","-3.875"
"1573729985259","775","-0.4921875","-0.33203125","0.8183594","-3.75","2.0","-3.75"
"1573729985260","776","-0.5126953","-0.32226562","0.8222656","-4.40625","0.84375","-4.90625"
"1573729985260","777","-0.4921875","-0.32226562","0.8251953","-5.09375","2.0625","-6.0625"
"1573729985260","778","-0.47753906","-0.33691406","0.80078125","-7.71875","0.46875","-6.125"
"1573729985260","779","-0.49902344","-0.32226562","0.80078125","-9.40625","2.0","-6.59375"
"1573729985656","780","-0.484375","-0.34277344","0.81933594","-11.6875","2.3125","-8.375"
"1573729985658","781","-0.4951172","-0.36035156","0.7998047","-10.8125","0.84375","-6.65625"
"1573729985658","782","-0.484375","-0.37109375","0.8017578","-11.25","0.65625","-7.03125"
"1573729985658","783","-0.47558594","-0.37597656","0.7832031","-13.03125","-0.875","-7.40625"
"1573729985659","784","-0.45996094","-0.40039062","0.7792969","-15.03125","-3.0625","-8.75"
"1573729985659","785","-0.45996094","-0.40722656","0.7548828","-17.84375","-3.0","-10.5625"
"1573729985659","786","-0.4501953","-0.43066406","0.76464844","-21.25","-1.0625","-11.96875"
"1573729985659","787","-0.4423828","-0.44433594","0.7714844","-24.6875","-4.15625","-14.1875"
"1573729985660","788","-0.46972656","-0.4765625","0.78027344","-26.75","-5.3125","-15.21875"
"1573729985660","789","-0.4345703","-0.49804688","0.77734375","-29.96875","-5.9375","-16.875"
"1573729986056","790","-0.44140625","-0.51953125","0.77734375","-32.59375","-5.75","-17.78125"
"1573729986056","791","-0.4326172","-0.54589844","0.7753906","-35.21875","-7.34375","-19.96875"
"1573729986057","792","-0.40234375","-0.5761719","0.74609375","-38.15625","-9.65625","-21.5"
"1573729986058","793","-0.38867188","-0.57128906","0.7314453","-41.8125","-8.25","-24.4375"
"1573729986058","794","-0.3876953","-0.61035156","0.71777344","-41.6875","-9.71875","-25.09375"
"1573729986059","795","-0.3486328","-0.62597656","0.68066406","-47.8125","-11.625","-27.59375"
"1573729986059","796","-0.3173828","-0.6152344","0.6591797","-47.0","-11.90625","-28.6875"
"1573729986059","797","-0.39746094","-0.66015625","0.6455078","-37.4375","-4.53125","-31.09375"
"1573729986060","798","-0.29296875","-0.6660156","0.58203125","-42.4375","-1.46875","-35.90625"
"1573729986060","799","-0.21582031","-0.6855469","0.6064453","-32.90625","1.3125","-37.75"
"1573729986452","800","-0.2783203","-0.81640625","0.55078125","-31.5625","-8.0","-37.78125"
"1573729986453","801","-0.16210938","-0.71484375","0.51953125","-45.59375","-12.71875","-35.28125"
"1573729986453","802","-0.20507812","-0.7529297","0.5234375","-56.28125","-22.34375","-37.1875"
"1573729986453","803","-0.15625","-0.75097656","0.47753906","-53.25","-24.84375","-38.96875"
"1573729986453","804","-0.13476562","-0.82128906","0.45507812","-57.15625","-25.09375","-35.34375"
"1573729986455","805","-0.10546875","-0.7714844","0.390625","-55.5625","-33.65625","-41.15625"
"1573729986455","806","-0.02734375","-0.8574219","0.40039062","-49.40625","-37.125","-36.28125"
"1573729986456","807","-0.072265625","-0.95214844","0.3798828","-52.625","-35.0625","-34.1875"
"1573729986456","808","-0.025390625","-0.8720703","0.32617188","-48.90625","-27.78125","-39.875"
"1573729986456","809","0.043945312","-0.86621094","0.34472656","-50.6875","-27.34375","-35.84375"
"1573729986850","810","0.061523438","-0.9482422","0.34472656","-52.875","-26.375","-36.8125"
"1573729986850","811","0.048828125","-0.9746094","0.26464844","-51.28125","-21.6875","-28.34375"
"1573729986850","812","0.15429688","-0.8544922","0.21582031","-49.5","-22.28125","-31.25"
"1573729986851","813","0.087890625","-0.859375","0.21191406","-37.84375","-26.03125","-27.25"
"1573729986851","814","0.048828125","-0.9003906","0.19921875","-36.9375","-17.03125","-20.28125"
"1573729986851","815","0.1171875","-0.8828125","0.18945312","-33.34375","-7.8125","-25.96875"
"1573729986852","816","0.12109375","-0.9667969","0.17871094","-32.0625","-3.625","-25.40625"
"1573729986853","817","0.24511719","-0.96972656","0.09765625","-29.3125","-5.625","-30.40625"
"1573729986854","818","0.20019531","-0.95214844","0.11621094","-32.3125","-6.0625","-32.375"
"1573729986854","819","0.13769531","-0.90234375","0.11035156","-15.6875","-5.09375","-23.8125"
"1573729987245","820","0.29296875","-0.8857422","0.10058594","-2.40625","-9.28125","-26.4375"
"1573729987246","821","0.20117188","-0.9267578","0.10644531","-6.5","-15.625","-23.21875"
"1573729987246","822","0.28710938","-0.9013672","0.13769531","-3.25","-9.96875","-18.09375"
"1573729987246","823","0.33398438","-0.953125","0.08984375","3.40625","-10.6875","-12.46875"
"1573729987246","824","0.328125","-0.9199219","0.099609375","-4.46875","-9.21875","-6.3125"
"1573729987247","825","0.29785156","-0.8828125","0.13769531","-8.4375","-5.5625","3.90625"
"1573729987247","826","0.3076172","-0.9140625","0.091796875","-6.78125","-14.0625","6.34375"
"1573729987247","827","0.24316406","-0.9003906","0.103515625","4.5","-9.84375","6.03125"
"1573729987247","828","0.27734375","-0.9316406","0.095703125","5.0625","-6.90625","5.46875"
"1573729987249","829","0.2705078","-0.9345703","0.045898438","4.0","-2.03125","2.375"
"1573729987644","830","0.2734375","-0.9423828","0.08300781","-2.59375","5.84375","1.21875"
"1573729987644","831","0.3076172","-0.9472656","0.051757812","2.65625","1.15625","-0.625"
"1573729987644","832","0.29296875","-0.9560547","0.08691406","2.375","2.3125","2.71875"
"1573729987645","833","0.2685547","-0.9550781","0.0859375","0.03125","4.6875","1.4375"
"1573729987645","834","0.2783203","-0.9423828","0.072265625","0.09375","1.5625","4.4375"
"1573729987645","835","0.2626953","-0.9355469","0.095703125","-1.34375","7.5","5.0"
"1573729987645","836","0.23730469","-0.9609375","0.09277344","-4.78125","3.34375","5.46875"
"1573729987646","837","0.27539062","-0.94140625","0.07421875","1.3125","0.09375","5.78125"
"1573729987646","838","0.25","-0.98828125","0.087890625","-1.71875","0.28125","5.0"
"1573729987646","839","0.26660156","-0.9863281","0.060546875","-1.125","0.0","1.375"
"1573729988042","840","0.265625","-0.95996094","0.053710938","-5.09375","2.1875","-0.625"
"1573729988043","841","0.19824219","-0.9970703","0.055664062","-9.125","13.09375","0.0"
"1573729988043","842","0.23730469","-0.9746094","0.12890625","-16.75","15.375","-2.6875"
"1573729988043","843","0.27734375","-0.89941406","0.055664062","-8.8125","4.75","-6.0625"
"1573729988045","844","0.17675781","-0.9707031","0.0546875","3.90625","4.0","-1.0"
"1573729988045","845","0.30273438","-0.9160156","0.06933594","2.1875","10.59375","0.96875"
"1573729988046","846","0.26660156","-0.9189453","0.11328125","2.0","8.03125","2.0625"
"1573729988046","847","0.1875","-0.95996094","0.099609375","7.5","12.625","5.0625"
"1573729988046","848","0.31445312","-0.9628906","0.1015625","10.375","17.625","5.90625"
"1573729988046","849","0.31347656","-0.9658203","0.10253906","27.34375","7.6875","6.15625"
"1573729988440","850","0.27929688","-0.9746094","0.0859375","28.84375","7.6875","9.25"
"1573729988440","851","0.31933594","-0.92089844","0.1015625","10.375","15.0625","5.0625"
"1573729988440","852","0.24707031","-0.95703125","0.095703125","9.125","11.53125","5.78125"
"1573729988442","853","0.22070312","-0.9189453","0.15527344","5.125","17.375","3.65625"
"1573729988442","854","0.24804688","-0.9003906","0.18554688","6.34375","12.875","4.9375"
"1573729988442","855","0.18847656","-0.953125","0.18359375","9.6875","11.59375","7.0"
"1573729988443","856","0.17773438","-0.8730469","0.17871094","17.625","18.1875","8.15625"
"1573729988443","857","0.17871094","-0.8964844","0.23339844","25.0","20.375","14.625"
"1573729988443","858","0.14941406","-0.91503906","0.22558594","34.28125","16.9375","18.53125"
"1573729988444","859","0.15625","-0.8388672","0.20605469","52.09375","13.28125","22.875"
"1573729989036","860","0.17480469","-0.9746094","0.26171875","54.3125","11.8125","20.6875"
"1573729989036","861","-0.015625","-0.89746094","0.34375","50.9375","8.15625","19.9375"
"1573729989037","862","0.022460938","-0.85546875","0.3017578","58.9375","16.90625","18.65625"
"1573729989037","863","0.31933594","-1.0273438","0.3310547","22.4375","22.3125","24.21875"
"1573729989037","864","-0.022460938","-0.78515625","0.44726562","54.90625","19.53125","23.78125"
"1573729989039","865","0.015625","-0.7998047","0.3515625","56.9375","16.84375","25.875"
"1573729989039","866","0.22949219","-0.8027344","0.40625","25.875","17.0625","22.75"
"1573729989040","867","-0.15820312","-0.7089844","0.46875","78.0","15.65625","33.75"
"1573729989040","868","-0.030273438","-0.7216797","0.3798828","71.40625","21.96875","50.46875"
"1573729989040","869","-0.10449219","-0.52734375","0.57128906","75.0625","33.1875","43.5"
"1573729989433","870","-0.12792969","-0.6455078","0.55566406","67.5","31.125","49.96875"
"1573729989434","871","-0.10253906","-0.6816406","0.5488281","72.90625","10.25","51.8125"
"1573729989434","872","-0.25390625","-0.5888672","0.7998047","48.9375","29.46875","37.40625"
"1573729989434","873","-0.29492188","-0.83984375","0.7480469","49.65625","17.875","36.125"
"1573729989435","874","-0.107421875","-0.7138672","0.8251953","40.34375","13.71875","30.25"
"1573729989435","875","-0.33007812","-0.7373047","1.0009766","18.71875","22.6875","10.1875"
"1573729989435","876","-0.42871094","-0.8496094","0.9111328","18.28125","21.15625","8.84375"
"1573729989436","877","-0.06347656","-0.7109375","0.83691406","-0.875","5.96875","2.0"
"1573729989436","878","-0.3466797","-0.609375","0.8808594","-0.6875","10.65625","-11.90625"
"1573729989436","879","-0.28710938","-0.64453125","0.83984375","-6.3125","3.40625","-5.8125"
"1573729989834","880","-0.095703125","-0.5673828","0.7558594","-9.65625","-9.84375","-6.71875"
"1573729989834","881","-0.14648438","-0.5439453","0.6669922","-6.65625","-15.6875","-10.875"
"1573729989834","882","-0.15917969","-0.4453125","0.7158203","-11.0625","-10.40625","-7.09375"
"1573729989835","883","-0.20800781","-0.52441406","0.6611328","-12.59375","-17.21875","-3.875"
"1573729989835","884","-0.2109375","-0.4951172","0.68066406","-23.03125","-5.15625","-5.75"
"1573729989835","885","-0.22949219","-0.5576172","0.71972656","-25.71875","3.46875","-9.34375"
"1573729989835","886","-0.17382812","-0.5761719","0.6582031","-24.78125","-6.25","-9.53125"
"1573729989836","887","-0.1875","-0.5703125","0.6826172","-28.34375","-4.59375","-12.78125"
"1573729989836","888","-0.23046875","-0.578125","0.6982422","-27.90625","-2.28125","-11.25"
"1573729989837","889","-0.14257812","-0.59277344","0.68359375","-23.75","-9.15625","-9.65625"
"1573729990228","890","-0.19726562","-0.5888672","0.7207031","-19.90625","-7.21875","-10.875"
"1573729990228","891","-0.18261719","-0.6201172","0.6904297","-23.28125","-5.3125","-8.6875"
"1573729990228","892","-0.14355469","-0.6298828","0.6777344","-23.875","-3.6875","-6.96875"
"1573729990229","893","-0.22363281","-0.6142578","0.70410156","-22.53125","-0.0625","-12.53125"
"1573729990229","894","-0.20019531","-0.65527344","0.64746094","-25.46875","0.46875","-16.875"
"1573729990229","895","-0.09765625","-0.6347656","0.5908203","-39.5625","-0.8125","-22.53125"
"1573729990229","896","-0.13085938","-0.6279297","0.6191406","-48.65625","0.96875","-28.03125"
"1573729990230","897","-0.17675781","-0.8886719","0.7871094","-56.15625","7.1875","-25.40625"
"1573729990230","898","-0.12109375","-1.3789062","0.7470703","-65.09375","-8.5625","-22.84375"
"1573729990231","899","-0.009765625","-1.4746094","0.78027344","-69.34375","10.65625","-35.71875"
"1573729990626","900","0.046875","-1.2490234","0.45898438","-67.46875","-28.34375","-30.78125"
"1573729990627","901","0.10546875","-0.86328125","0.32910156","-35.34375","-24.5","-42.4375"
"1573729990628","902","9.765625E-4","-0.6845703","0.23339844","-44.21875","-15.75","-36.8125"
"1573729990628","903","0.080078125","-0.64160156","0.25683594","-43.59375","-15.9375","-29.125"
"1573729990628","904","0.059570312","-0.81640625","0.265625","-47.5","-8.75","-26.0625"
"1573729990629","905","0.076171875","-0.90527344","0.29589844","-45.1875","6.21875","-19.1875"
"1573729990629","906","0.12792969","-1.0078125","0.29882812","-33.40625","6.21875","-17.09375"
"1573729990629","907","0.22558594","-1.0791016","0.28515625","-22.0625","0.65625","-11.5625"
"1573729990629","908","0.19628906","-0.9970703","0.26171875","-5.03125","-7.40625","-6.71875"
"1573729990630","909","0.18554688","-0.94140625","0.24707031","4.5","-7.875","-6.25"
"1573729991023","910","0.17773438","-0.92578125","0.21875","2.0625","-7.34375","-3.4375"
"1573729991024","911","0.171875","-0.8730469","0.25097656","0.90625","-0.8125","1.5"
"1573729991024","912","0.1484375","-0.8925781","0.27148438","1.4375","0.0","2.3125"
"1573729991026","913","0.09082031","-0.96191406","0.29589844","4.5625","0.15625","4.0"
"1573729991026","914","0.123046875","-0.94921875","0.2841797","9.25","8.15625","5.21875"
"1573729991026","915","0.15429688","-0.95214844","0.27929688","12.25","4.8125","10.46875"
"1573729991026","916","0.053710938","-0.9121094","0.27734375","18.78125","4.3125","11.9375"
"1573729991027","917","0.06738281","-0.9091797","0.29003906","20.3125","13.40625","14.375"
"1573729991027","918","0.111328125","-0.92089844","0.28808594","19.09375","15.96875","15.65625"
"1573729991027","919","0.09765625","-0.9316406","0.296875","25.0","12.375","16.90625"
"1573729991420","920","0.1171875","-0.92871094","0.35058594","8.15625","15.71875","16.53125"
"1573729991421","921","0.034179688","-0.9111328","0.34472656","28.1875","10.1875","15.71875"
"1573729991421","922","0.030273438","-0.91796875","0.38085938","23.1875","7.8125","16.78125"
"1573729991421","923","-0.017578125","-0.8935547","0.38183594","15.84375","10.25","18.1875"
"1573729991421","924","-0.032226562","-0.88964844","0.41015625","15.4375","17.375","15.1875"
"1573729991423","925","-0.051757812","-0.87402344","0.41503906","18.40625","22.1875","18.40625"
"1573729991423","926","-0.026367188","-0.8886719","0.3935547","9.375","28.1875","19.53125"
"1573729991424","927","-0.037109375","-0.86328125","0.421875","-8.625","31.84375","20.25"
"1573729991424","928","-0.107421875","-0.88183594","0.42871094","1.75","30.5625","21.71875"
"1573729991424","929","-0.09667969","-0.8964844","0.41601562","13.15625","28.65625","25.375"
"1573729991818","930","-0.07519531","-0.8691406","0.39941406","-1.78125","30.25","25.6875"
"1573729991818","931","-0.17675781","-0.8496094","0.4111328","-11.4375","37.46875","25.9375"
"1573729991819","932","-0.22753906","-0.8535156","0.42773438","-6.84375","33.75","32.03125"
"1573729991819","933","-0.20898438","-0.85839844","0.44335938","8.34375","30.75","30.9375"
"1573729991819","934","-0.30273438","-0.82128906","0.4326172","13.15625","28.84375","31.40625"
"1573729991819","935","-0.27734375","-0.8466797","0.4345703","23.0","18.0625","30.9375"
"1573729991820","936","-0.32128906","-0.81347656","0.484375","23.3125","20.6875","30.0"
"1573729991821","937","-0.3466797","-0.7910156","0.46484375","30.875","17.875","27.625"
"1573729991822","938","-0.33496094","-0.76171875","0.5234375","31.84375","11.40625","26.90625"
"1573729991822","939","-0.3876953","-0.75","0.5175781","32.6875","9.125","26.09375"
"1573729992215","940","-0.4033203","-0.7402344","0.53515625","29.09375","8.34375","24.875"
"1573729992215","941","-0.39746094","-0.7109375","0.54589844","31.53125","5.125","24.21875"
"1573729992216","942","-0.4375","-0.69921875","0.5703125","30.4375","5.59375","24.28125"
"1573729992216","943","-0.43554688","-0.6855469","0.5761719","24.9375","6.09375","21.90625"
"1573729992216","944","-0.43945312","-0.671875","0.57910156","24.09375","2.375","21.53125"
"1573729992217","945","-0.4716797","-0.6484375","0.5966797","25.125","2.5","18.84375"
"1573729992217","946","-0.46679688","-0.6328125","0.6113281","24.40625","-0.25","17.75"
"1573729992217","947","-0.47265625","-0.609375","0.6191406","28.0","-0.375","17.1875"
"1573729992217","948","-0.4892578","-0.6015625","0.6269531","27.34375","1.875","16.65625"
"1573729992218","949","-0.48046875","-0.57421875","0.6425781","28.71875","1.5625","14.5"
"1573729992613","950","-0.5078125","-0.56347656","0.66308594","25.875","1.6875","14.75"
"1573729992614","951","-0.4921875","-0.5498047","0.6777344","33.25","0.46875","12.375"
"1573729992614","952","-0.5","-0.5175781","0.6904297","43.25","-6.0625","10.0625"
"1573729992614","953","-0.5175781","-0.4873047","0.7167969","44.40625","-4.90625","6.34375"
"1573729992614","954","-0.46484375","-0.46484375","0.70703125","51.6875","-12.03125","3.46875"
"1573729992615","955","-0.47070312","-0.453125","0.7207031","44.40625","-6.65625","6.34375"
"1573729992615","956","-0.46679688","-0.42382812","0.7480469","36.71875","-2.09375","6.21875"
"1573729992615","957","-0.49023438","-0.38378906","0.7578125","34.40625","-7.28125","3.46875"
"1573729992615","958","-0.46875","-0.3779297","0.7841797","37.28125","-3.90625","2.90625"
"1573729992616","959","-0.46289062","-0.3544922","0.78125","39.09375","-2.875","2.0625"
"1573729993011","960","-0.47753906","-0.31152344","0.8095703","45.40625","-3.625","0.84375"
"1573729993012","961","-0.46191406","-0.27246094","0.8066406","50.03125","-8.25","-1.78125"
"1573729993013","962","-0.4345703","-0.25","0.828125","32.75","-9.59375","0.65625"
"1573729993013","963","-0.4423828","-0.2109375","0.8544922","31.1875","-8.5625","4.6875"
"1573729993013","964","-0.4140625","-0.18261719","0.8691406","35.8125","-10.21875","6.09375"
"1573729993014","965","-0.4609375","-0.25","0.82128906","15.0","-4.84375","5.59375"
"1573729993014","966","-0.4501953","-0.20605469","0.8466797","-5.25","8.28125","4.875"
"1573729993014","967","-0.41210938","-0.20019531","0.83691406","0.15625","11.15625","2.65625"
"1573729993015","968","-0.4609375","-0.1875","0.8359375","0.96875","9.9375","2.78125"
"1573729993015","969","-0.44921875","-0.21875","0.8339844","1.03125","11.8125","2.375"
"1573729993606","970","-0.46777344","-0.17871094","0.8330078","-5.875","21.46875","7.90625"
"1573729993606","971","-0.4951172","-0.19140625","0.81347656","-4.53125","15.25","5.21875"
"1573729993607","972","-0.50878906","-0.19238281","0.8173828","-7.03125","15.4375","1.8125"
"1573729993608","973","-0.5390625","-0.19335938","0.8076172","-15.75","13.09375","-4.03125"
"1573729993609","974","-0.5185547","-0.20410156","0.82910156","-11.125","7.5625","-7.8125"
"1573729993609","975","-0.5341797","-0.21875","0.83203125","-15.15625","3.34375","-7.46875"
"1573729993609","976","-0.51171875","-0.18164062","0.84375","-16.625","-2.75","-9.125"
"1573729993609","977","-0.51660156","-0.234375","0.796875","-13.8125","-5.625","-11.0"
"1573729993610","978","-0.50390625","-0.24414062","0.8066406","-19.0625","-2.28125","-12.90625"
"1573729993610","979","-0.50097656","-0.2841797","0.79785156","-15.03125","-8.25","-3.8125"
"1573729993805","980","-0.4814453","-0.27734375","0.8046875","-21.5","-3.625","-3.3125"
"1573729993805","981","-0.47558594","-0.29003906","0.7753906","-26.5","1.6875","-5.75"
"1573729993805","982","-0.46875","-0.35742188","0.76660156","-22.78125","-0.9375","-4.65625"
"1573729993805","983","-0.45117188","-0.34277344","0.7753906","-19.0625","-2.9375","-4.09375"
"1573729993806","984","-0.45410156","-0.36035156","0.77441406","-19.65625","-3.3125","-5.625"
"1573729993807","985","-0.4453125","-0.35839844","0.78808594","-15.875","-3.25","-5.875"
"1573729993807","986","-0.4609375","-0.35742188","0.77246094","-16.4375","-4.65625","-5.3125"
"1573729993807","987","-0.41796875","-0.37695312","0.76464844","-13.6875","-0.25","-4.15625"
"1573729993808","988","-0.4501953","-0.38085938","0.7480469","-6.25","2.59375","-2.40625"
"1573729993808","989","-0.44140625","-0.390625","0.765625","-3.375","4.3125","0.15625"
"1573729994202","990","-0.42578125","-0.4189453","0.7783203","-3.1875","3.15625","2.65625"
"1573729994202","991","-0.45898438","-0.4345703","0.7763672","-1.25","4.25","9.5"
"1573729994203","992","-0.4970703","-0.4296875","0.8261719","2.4375","4.4375","14.625"
"1573729994203","993","-0.49414062","-0.41308594","0.83496094","3.09375","7.375","16.28125"
"1573729994203","994","-0.5332031","-0.40625","0.8535156","-0.125","10.1875","13.84375"
"1573729994203","995","-0.58203125","-0.3955078","0.8925781","-0.0625","10.3125","12.75"
"1573729994204","996","-0.55371094","-0.38183594","0.8515625","-0.4375","5.71875","11.15625"
"1573729994205","997","-0.5566406","-0.375","0.8457031","-5.21875","3.03125","5.0625"
"1573729994205","998","-0.5488281","-0.36523438","0.83203125","-6.3125","2.1875","2.4375"
"1573729994205","999","-0.5439453","-0.3388672","0.8457031","-5.5","-0.0625","-0.6875"
"1573729994600","1000","-0.54785156","-0.3486328","0.8535156","-4.28125","-1.0625","0.46875"
"1573729994600","1001","-0.51953125","-0.38476562","0.8251953","-6.53125","0.03125","-0.3125"
"1573729994601","1002","-0.53515625","-0.37597656","0.7939453","-8.1875","-1.1875","-2.9375"
"1573729994601","1003","-0.49902344","-0.3642578","0.7685547","-7.875","-0.75","-3.625"
"1573729994601","1004","-0.48632812","-0.3671875","0.7519531","-8.1875","0.28125","-3.96875"
"1573729994601","1005","-0.45898438","-0.38671875","0.7675781","-14.0625","-4.28125","-7.59375"
"1573729994602","1006","-0.47558594","-0.38378906","0.7324219","-19.0","-3.25","-12.03125"
"1573729994602","1007","-0.46972656","-0.4033203","0.73535156","-22.53125","-4.53125","-14.53125"
"1573729994602","1008","-0.46191406","-0.43066406","0.74316406","-26.5","-5.3125","-17.96875"
"1573729994604","1009","-0.46679688","-0.45214844","0.7441406","-30.53125","-5.4375","-21.5"
"1573729994999","1010","-0.45507812","-0.47070312","0.75","-34.0","-6.53125","-23.625"
"1573729994999","1011","-0.4423828","-0.5029297","0.73046875","-33.59375","-8.625","-23.21875"
"1573729995000","1012","-0.44628906","-0.546875","0.7265625","-36.34375","-8.6875","-25.78125"
"1573729995000","1013","-0.39453125","-0.5361328","0.70996094","-37.90625","-12.03125","-27.25"
"1573729995000","1014","-0.37597656","-0.55078125","0.7011719","-39.0625","-15.15625","-27.40625"
"1573729995000","1015","-0.36816406","-0.59375","0.66796875","-41.34375","-15.28125","-28.8125"
"1573729995001","1016","-0.34472656","-0.5957031","0.6591797","-42.0","-15.9375","-31.4375"
"1573729995001","1017","-0.3251953","-0.61816406","0.64453125","-37.6875","-21.6875","-33.40625"
"1573729995001","1018","-0.31640625","-0.6484375","0.5703125","-36.21875","-14.90625","-35.78125"
"1573729995001","1019","-0.2578125","-0.65234375","0.5859375","-35.65625","-9.59375","-39.625"
"1573729995396","1020","-0.2548828","-0.8125","0.50683594","-36.28125","-14.34375","-38.28125"
"1573729995397","1021","-0.28320312","-0.6748047","0.6064453","-52.6875","-12.59375","-42.8125"
"1573729995398","1022","-0.15722656","-0.69628906","0.5644531","-52.4375","-17.65625","-35.84375"
"1573729995398","1023","-0.14355469","-0.7998047","0.5234375","-60.125","-25.71875","-32.59375"
"1573729995398","1024","-0.12695312","-0.7783203","0.5263672","-54.65625","-22.34375","-31.6875"
"1573729995398","1025","-0.15527344","-0.82421875","0.4560547","-54.9375","-22.21875","-34.9375"
"1573729995399","1026","-0.11035156","-0.89746094","0.47265625","-50.1875","-26.625","-40.375"
"1573729995399","1027","-0.015625","-0.8574219","0.41796875","-56.03125","-27.1875","-40.46875"
"1573729995399","1028","-0.0029296875","-0.82714844","0.38671875","-58.0625","-31.03125","-40.25"
"1573729995399","1029","0.11230469","-0.8955078","0.34179688","-56.28125","-33.84375","-33.15625"
"1573729995792","1030","0.107421875","-0.8642578","0.31640625","-56.21875","-36.15625","-33.65625"
"1573729995792","1031","0.055664062","-0.8652344","0.25878906","-62.5","-34.5","-33.875"
"1573729995792","1032","0.1328125","-0.94921875","0.2626953","-43.90625","-26.5625","-25.71875"
"1573729995793","1033","0.13378906","-0.8261719","0.22558594","-46.09375","-31.75","-30.34375"
"1573729995794","1034","0.1484375","-0.9394531","0.18261719","-39.8125","-22.96875","-33.40625"
"1573729995794","1035","0.13085938","-0.94628906","0.2109375","-31.8125","-18.03125","-29.96875"
"1573729995795","1036","0.13964844","-0.875","0.17089844","-31.625","-8.4375","-27.96875"
"1573729995795","1037","0.19824219","-0.95410156","0.15234375","-26.125","-4.40625","-23.875"
"1573729995795","1038","0.20410156","-0.92285156","0.13964844","-25.71875","2.0","-18.9375"
"1573729995795","1039","0.17480469","-0.93066406","0.11230469","-26.625","-1.96875","-18.5"
"1573729996190","1040","0.15917969","-0.9375","0.12402344","-26.3125","6.03125","-13.6875"
"1573729996190","1041","0.2705078","-0.9501953","0.07421875","-19.84375","5.46875","-12.59375"
"1573729996191","1042","0.2421875","-0.9375","0.08691406","-20.71875","5.0","-11.1875"
"1573729996191","1043","0.26171875","-0.95703125","0.052734375","-16.125","-0.3125","-10.09375"
"1573729996191","1044","0.3251953","-0.96191406","0.021484375","-17.34375","-3.375","-8.125"
"1573729996192","1045","0.27148438","-0.94433594","0.029296875","-19.25","-3.0625","-8.5625"
"1573729996192","1046","0.25","-0.93066406","0.033203125","-12.34375","-3.3125","-4.34375"
"1573729996192","1047","0.28222656","-0.9238281","0.016601562","-8.125","-1.53125","-5.5"
"1573729996193","1048","0.2578125","-0.9550781","0.00390625","-5.375","-1.0","-5.21875"
"1573729996193","1049","0.28808594","-0.9638672","-0.001953125","-5.8125","-1.65625","-3.375"
"1573729996587","1050","0.32910156","-0.96191406","-0.005859375","-8.1875","-3.8125","-3.96875"
"1573729996588","1051","0.30664062","-0.9423828","-0.017578125","-9.96875","-4.71875","-3.5"
"1573729996588","1052","0.29003906","-0.93847656","-0.001953125","-7.53125","-5.25","0.0"
"1573729996588","1053","0.29101562","-0.95703125","-0.009765625","-5.625","-6.25","1.6875"
"1573729996589","1054","0.30566406","-0.9628906","-0.024414062","-8.1875","-2.21875","0.0"
"1573729996589","1055","0.31054688","-0.97265625","-0.046875","-5.9375","0.46875","0.09375"
"1573729996589","1056","0.3125","-0.9580078","-0.025390625","-12.28125","3.28125","-0.5625"
"1573729996589","1057","0.31347656","-0.9628906","-0.06347656","-11.71875","4.5","-1.59375"
"1573729996590","1058","0.38476562","-0.9580078","-0.051757812","-16.8125","1.8125","-3.6875"
"1573729996591","1059","0.28222656","-0.95996094","-0.015625","-13.75","3.53125","-6.0625"
"1573729996986","1060","0.25195312","-0.92871094","0.0107421875","-3.90625","9.625","-3.0625"
"1573729996986","1061","0.2939453","-0.93066406","-0.016601562","-3.625","10.125","-2.03125"
"1573729996987","1062","0.29101562","-0.94140625","-0.034179688","2.65625","14.5","-2.34375"
"1573729996987","1063","0.3466797","-0.95214844","-0.038085938","3.90625","25.625","-2.625"
"1573729996987","1064","0.2783203","-0.9169922","0.00390625","5.34375","28.78125","-2.09375"
"1573729996987","1065","0.3046875","-0.921875","0.0234375","6.6875","29.03125","0.21875"
"1573729996988","1066","0.2626953","-0.91308594","0.045898438","11.15625","27.9375","4.125"
"1573729996988","1067","0.19726562","-0.89453125","0.049804688","17.625","24.21875","12.625"
"1573729996988","1068","0.21386719","-0.8701172","0.041015625","19.21875","20.3125","21.34375"
"1573729996990","1069","0.3173828","-0.9160156","0.041015625","18.84375","21.46875","23.84375"
"1573729997383","1070","0.15722656","-0.9267578","0.030273438","19.9375","20.4375","25.3125"
"1573729997384","1071","0.18359375","-0.89746094","-0.009765625","28.0","17.875","24.75"
"1573729997384","1072","0.28515625","-1.0273438","0.08691406","17.75","20.625","19.03125"
"1573729997385","1073","0.13183594","-0.984375","0.043945312","23.96875","19.40625","24.09375"
"1573729997385","1074","0.24609375","-0.9238281","0.09082031","25.0625","19.875","25.625"
"1573729997385","1075","0.11035156","-0.9248047","0.12109375","30.8125","12.25","26.21875"
"1573729997386","1076","0.13085938","-0.7949219","0.12597656","43.1875","15.96875","33.0"
"1573729997386","1077","0.07421875","-0.84472656","0.14355469","43.25","13.03125","31.0"
"1573729997386","1078","0.044921875","-0.75097656","0.16894531","50.28125","10.0625","32.6875"
"1573729997387","1079","-0.025390625","-0.76953125","0.23535156","51.25","11.8125","31.90625"
"1573729997779","1080","0.08300781","-0.8251953","0.2705078","48.875","6.6875","34.59375"
"1573729997780","1081","0.032226562","-0.76464844","0.28222656","53.5","-1.96875","30.625"
"1573729997781","1082","0.017578125","-0.8125","0.31054688","44.28125","-1.25","29.78125"
"1573729997781","1083","-0.13378906","-0.9433594","0.4013672","39.21875","0.28125","30.375"
"1573729997781","1084","-0.07910156","-0.8515625","0.3984375","34.59375","7.375","26.71875"
"1573729997782","1085","-0.06640625","-0.8769531","0.3857422","26.71875","5.65625","17.0625"
"1573729997782","1086","-0.009765625","-0.85253906","0.4140625","12.0625","9.125","11.28125"
"1573729997782","1087","-0.08984375","-0.7832031","0.43945312","3.03125","1.5","-2.53125"
"1573729997782","1088","-0.07324219","-0.8154297","0.49023438","-3.3125","2.5","-8.0625"
"1573729997783","1089","-0.024414062","-0.75097656","0.4482422","-5.8125","-0.0625","-14.34375"
"1573729998177","1090","0.0","-0.6123047","0.46875","-17.34375","-5.4375","-16.6875"
"1573729998178","1091","-0.18554688","-0.61816406","0.5058594","-13.875","-7.53125","-9.40625"
"1573729998178","1092","-0.16796875","-0.91503906","0.96875","-46.09375","6.28125","-0.5625"
"1573729998179","1093","-0.23339844","-2.0","0.8564453","-33.09375","-0.4375","6.9375"
"1573729998180","1094","0.38476562","-1.7714844","0.63183594","-74.0625","4.3125","-19.65625"
"1573729998180","1095","-0.001953125","-1.3203125","0.31054688","-3.6875","-6.96875","-27.34375"
"1573729998180","1096","0.18945312","-0.8105469","0.22070312","-11.3125","2.0","-29.75"
"1573729998181","1097","0.01171875","-0.47070312","0.13671875","-21.0625","-14.78125","-39.375"
"1573729998182","1098","0.14941406","-0.40527344","0.11328125","-26.75","-16.6875","-20.9375"
"1573729998182","1099","0.06933594","-0.75","0.22070312","-30.03125","-12.09375","-21.125"
"1573729998576","1100","0.047851562","-0.94140625","0.29296875","-23.75","-6.375","-9.71875"
"1573729998577","1101","0.12988281","-1.0908203","0.37304688","-18.375","0.09375","-6.90625"
"1573729998577","1102","0.06347656","-1.2539062","0.3330078","-10.875","11.34375","-7.21875"
"1573729998577","1103","0.26171875","-1.1171875","0.25195312","-1.34375","2.0625","-6.1875"
"1573729998577","1104","0.14941406","-0.9707031","0.24414062","2.65625","-0.25","-8.625"
"1573729998579","1105","0.061523438","-0.88183594","0.19824219","8.34375","3.78125","-7.09375"
"1573729998579","1106","0.23046875","-0.76660156","0.14648438","11.65625","-10.03125","4.375"
"1573729998579","1107","0.21679688","-0.8251953","0.19921875","27.15625","1.375","14.9375"
"1573729998580","1108","0.1015625","-1.0253906","0.28222656","12.375","14.625","17.5625"
"1573729998580","1109","0.171875","-1.0458984","0.33789062","15.71875","18.28125","17.0625"
"1573729998973","1110","0.16992188","-1.0693359","0.30078125","10.46875","18.1875","24.875"
"1573729998973","1111","0.083984375","-0.91308594","0.36914062","3.78125","15.96875","21.15625"
"1573729998974","1112","-0.06347656","-0.8457031","0.34570312","17.5625","17.75","18.40625"
"1573729998974","1113","-0.005859375","-0.90625","0.34765625","15.1875","15.5625","13.71875"
"1573729998974","1114","-0.041992188","-0.859375","0.4033203","14.625","15.625","10.1875"
"1573729998975","1115","-0.115234375","-0.9169922","0.3876953","13.53125","18.53125","9.5"
"1573729998975","1116","-0.05078125","-0.93066406","0.3564453","14.625","23.53125","10.1875"
"1573729998975","1117","-0.055664062","-0.89746094","0.3828125","15.1875","23.65625","9.8125"
"1573729998976","1118","-0.041015625","-0.9082031","0.375","15.5","23.78125","11.40625"
"1573729998976","1119","-0.053710938","-0.8964844","0.390625","15.84375","18.21875","10.90625"
"1573729999372","1120","-0.022460938","-0.86328125","0.3623047","19.34375","9.9375","12.75"
"1573729999372","1121","-0.072265625","-0.8613281","0.41210938","20.375","8.90625","16.15625"
"1573729999373","1122","-0.11621094","-0.87890625","0.4638672","21.03125","14.375","17.75"
"1573729999373","1123","-0.0703125","-0.8486328","0.45898438","23.96875","8.03125","16.90625"
"1573729999373","1124","-0.12890625","-0.8466797","0.47851562","26.09375","8.34375","19.46875"
"1573729999374","1125","-0.17285156","-0.8671875","0.5019531","24.53125","12.375","20.75"
"1573729999374","1126","-0.15429688","-0.8203125","0.5371094","20.0625","12.375","18.40625"
"1573729999374","1127","-0.14746094","-0.8076172","0.52246094","21.78125","13.40625","17.5625"
"1573729999374","1128","-0.15917969","-0.7753906","0.5605469","19.75","11.03125","15.0625"
"1573729999376","1129","-0.21191406","-0.7675781","0.5576172","24.8125","8.34375","15.71875"
"1573729999768","1130","-0.21484375","-0.7529297","0.59765625","23.375","10.71875","14.5"
"1573729999768","1131","-0.27246094","-0.74121094","0.59472656","22.75","12.9375","15.65625"
"1573729999768","1132","-0.20800781","-0.7373047","0.5966797","19.53125","7.5625","15.0625"
"1573729999769","1133","-0.2685547","-0.71777344","0.60253906","19.6875","6.5625","13.84375"
"1573729999769","1134","-0.28808594","-0.7128906","0.62109375","17.5","8.28125","13.84375"
"1573729999769","1135","-0.29003906","-0.7216797","0.6533203","16.53125","8.15625","13.71875"
"1573729999769","1136","-0.28808594","-0.71875","0.62890625","15.625","4.875","12.5"
"1573729999770","1137","-0.31152344","-0.70996094","0.63964844","14.375","8.46875","12.1875"
"1573729999770","1138","-0.3095703","-0.68847656","0.65527344","12.5","5.21875","11.15625"
"1573729999770","1139","-0.30273438","-0.6767578","0.6376953","9.5625","4.8125","10.0625"
"1573730000165","1140","-0.3486328","-0.65527344","0.6533203","8.46875","4.25","9.375"
"1573730000165","1141","-0.31054688","-0.66308594","0.6542969","7.5","4.125","8.59375"
"1573730000166","1142","-0.32910156","-0.6328125","0.65722656","7.5","4.375","8.03125"
"1573730000166","1143","-0.34472656","-0.63183594","0.65234375","7.25","4.6875","7.8125"
"1573730000166","1144","-0.32617188","-0.63671875","0.6582031","6.6875","5.21875","7.375"
"1573730000166","1145","-0.33789062","-0.6328125","0.66308594","6.8125","3.78125","7.8125"
"1573730000166","1146","-0.3544922","-0.625","0.67578125","6.46875","4.25","7.375"
"1573730000167","1147","-0.33984375","-0.63183594","0.66308594","4.5625","3.03125","7.0"
"1573730000167","1148","-0.34375","-0.62402344","0.68652344","3.40625","5.34375","5.78125"
"1573730000172","1149","-0.3486328","-0.6074219","0.6503906","6.21875","4.9375","5.21875"
"1573730000563","1150","-0.36035156","-0.6074219","0.67578125","6.09375","4.25","5.78125"
"1573730000564","1151","-0.359375","-0.6230469","0.6738281","3.90625","6.28125","5.78125"
"1573730000564","1152","-0.3515625","-0.59765625","0.68066406","4.125","5.40625","6.5625"
"1573730000566","1153","-0.38183594","-0.6015625","0.6738281","5.53125","5.21875","7.25"
"1573730000566","1154","-0.36914062","-0.57910156","0.6894531","5.59375","3.21875","6.875"
"1573730000567","1155","-0.3955078","-0.5800781","0.6816406","7.8125","3.53125","7.125"
"1573730000567","1156","-0.3935547","-0.57421875","0.67578125","8.90625","4.6875","6.5625"
"1573730000567","1157","-0.38964844","-0.5751953","0.68066406","9.9375","5.34375","6.09375"
"1573730000567","1158","-0.40234375","-0.56640625","0.6777344","10.59375","6.8125","6.8125"
"1573730000568","1159","-0.41503906","-0.5625","0.70214844","10.59375","7.25","7.5625"
"1573730000961","1160","-0.40820312","-0.55078125","0.69921875","11.03125","7.25","7.25"
"1573730000961","1161","-0.42382812","-0.5419922","0.70703125","10.0625","6.21875","6.5625"
"1573730000961","1162","-0.42773438","-0.5332031","0.70996094","10.1875","8.03125","7.0"
"1573730000962","1163","-0.41796875","-0.5185547","0.71484375","9.6875","7.125","6.5625"
"1573730000962","1164","-0.4375","-0.49902344","0.7060547","9.8125","8.59375","5.59375"
"1573730000963","1165","-0.4453125","-0.49609375","0.7285156","8.34375","7.0","5.59375"
"1573730000964","1166","-0.4296875","-0.49609375","0.7216797","6.46875","7.125","4.375"
"1573730000965","1167","-0.45507812","-0.48046875","0.72265625","6.03125","7.0","4.6875"
"1573730000965","1168","-0.45507812","-0.48242188","0.7207031","5.78125","6.15625","3.71875"
"1573730000965","1169","-0.45214844","-0.4716797","0.72265625","5.78125","5.0","3.65625"
"1573730001359","1170","-0.45703125","-0.47851562","0.72265625","6.34375","6.03125","2.84375"
"1573730001360","1171","-0.4560547","-0.47558594","0.7158203","6.09375","5.78125","3.09375"
"1573730001360","1172","-0.46777344","-0.46289062","0.7294922","5.59375","5.90625","4.125"
"1573730001360","1173","-0.46777344","-0.46484375","0.72265625","5.0","4.6875","3.40625"
"1573730001361","1174","-0.46972656","-0.4638672","0.7265625","6.21875","5.59375","3.78125"
"1573730001361","1175","-0.47070312","-0.4580078","0.7216797","4.875","4.6875","4.375"
"1573730001361","1176","-0.46972656","-0.45117188","0.7216797","5.59375","4.3125","4.25"
"1573730001362","1177","-0.48828125","-0.4453125","0.7285156","5.46875","5.21875","4.125"
"1573730001362","1178","-0.46191406","-0.44921875","0.75390625","3.59375","2.84375","2.3125"
"1573730001362","1179","-0.47460938","-0.42382812","0.77246094","-3.3125","3.71875","2.0"
"1573730001755","1180","-0.44140625","-0.42285156","0.73535156","9.625","-13.625","4.125"
"1573730001755","1181","-0.47851562","-0.43945312","0.7246094","12.875","-11.5","3.46875"
"1573730001756","1182","-0.46484375","-0.4326172","0.7246094","6.40625","-8.9375","0.21875"
"1573730001756","1183","-0.5390625","-0.48535156","0.7470703","10.84375","-2.34375","2.84375"
"1573730001756","1184","-0.49609375","-0.4423828","0.7861328","6.46875","5.34375","-2.875"
"1573730001756","1185","-0.47558594","-0.4423828","0.76953125","8.46875","7.5","3.21875"
"1573730001757","1186","-0.51171875","-0.41210938","0.7480469","5.90625","10.0625","4.0625"
"1573730001757","1187","-0.4716797","-0.39746094","0.7421875","3.03125","12.375","2.125"
"1573730001757","1188","-0.5214844","-0.35742188","0.7421875","1.5625","11.9375","1.5625"
"1573730001758","1189","-0.48339844","-0.3388672","0.7285156","3.03125","12.875","-1.125"
"1573730002153","1190","-0.4501953","-0.30859375","0.69140625","6.09375","7.5","1.09375"
"1573730002154","1191","-0.4658203","-0.30664062","0.76660156","9.03125","1.3125","3.59375"
"1573730002154","1192","-0.43164062","-0.2939453","0.7861328","2.59375","-13.03125","7.6875"
"1573730002154","1193","-0.4501953","-0.30859375","0.8183594","1.375","-20.03125","8.28125"
"1573730002154","1194","-0.42871094","-0.37695312","0.8027344","-5.03125","-28.65625","7.125"
"1573730002155","1195","-0.41992188","-0.3779297","0.8154297","-14.125","-29.4375","8.15625"
"1573730002155","1196","-0.34960938","-0.35546875","0.8388672","-9.125","-32.78125","9.25"
"1573730002155","1197","-0.46679688","-0.39453125","0.81933594","-1.90625","-29.96875","8.28125"
"1573730002155","1198","-0.4482422","-0.4111328","0.7919922","-0.0625","-18.25","3.34375"
"1573730002156","1199","-0.4638672","-0.4482422","0.83691406","-0.9375","-11.4375","0.65625"
"1573730002551","1200","-0.47070312","-0.45214844","0.87402344","-1.0","-7.65625","3.65625"
"1573730002551","1201","-0.48535156","-0.42773438","0.8613281","2.125","-4.21875","1.5"
"1573730002552","1202","-0.5126953","-0.41503906","0.9121094","0.90625","-0.8125","-2.03125"
"1573730002552","1203","-0.46191406","-0.42871094","0.89941406","1.3125","0.15625","-4.21875"
"1573730002552","1204","-0.4609375","-0.4033203","0.9296875","-2.53125","0.34375","-6.4375"
"1573730002552","1205","-0.4296875","-0.40820312","0.8935547","-6.0625","0.34375","-8.375"
"1573730002553","1206","-0.44628906","-0.35839844","0.89941406","-9.0625","2.78125","-10.5625"
"1573730002553","1207","-0.3779297","-0.40234375","0.85253906","-9.46875","2.90625","-11.25"
"1573730002553","1208","-0.36523438","-0.3798828","0.78808594","-13.03125","3.9375","-10.75"
"1573730002555","1209","-0.38867188","-0.375","0.7607422","-13.3125","7.84375","-12.03125"
"1573730002950","1210","-0.3486328","-0.38183594","0.765625","-12.09375","6.5","-13.25"
"1573730002950","1211","-0.37109375","-0.4033203","0.8017578","-9.65625","6.40625","-13.375"
"1573730002950","1212","-0.3798828","-0.4453125","0.8125","-10.875","5.0625","-12.71875"
"1573730002952","1213","-0.3623047","-0.49121094","0.8652344","-18.21875","1.8125","-12.78125"
"1573730002952","1214","-0.3857422","-0.5019531","0.83496094","-20.46875","-0.875","-11.5625"
"1573730002952","1215","-0.39257812","-0.5185547","0.8251953","-25.15625","-1.65625","-11.0"
"1573730002953","1216","-0.34960938","-0.53222656","0.79589844","-29.25","-6.1875","-12.96875"
"1573730002953","1217","-0.3544922","-0.55078125","0.7714844","-33.03125","-6.5","-16.25"
"1573730002953","1218","-0.32421875","-0.5488281","0.7597656","-38.90625","-9.65625","-17.78125"
"1573730002953","1219","-0.3486328","-0.59472656","0.7373047","-42.4375","-9.28125","-18.9375"
"1573730003344","1220","-0.28027344","-0.58984375","0.7089844","-46.09375","-12.90625","-20.03125"
"1573730003351","1221","-0.296875","-0.6269531","0.7216797","-48.21875","-11.25","-22.46875"
"1573730003352","1222","-0.3154297","-0.64453125","0.68359375","-41.03125","-8.1875","-25.09375"
"1573730003352","1223","-0.22753906","-0.65527344","0.66503906","-46.84375","-11.125","-25.46875"
"1573730003352","1224","-0.23046875","-0.68847656","0.6269531","-41.40625","-5.9375","-28.15625"
"1573730003354","1225","-0.16992188","-0.6699219","0.5908203","-35.46875","-10.6875","-30.90625"
"1573730003358","1226","-0.18359375","-0.71777344","0.5732422","-39.875","-12.90625","-31.09375"
"1573730003359","1227","-0.171875","-0.6972656","0.5498047","-47.25","-14.90625","-35.15625"
"1573730003360","1228","-0.09765625","-0.7607422","0.51171875","-58.90625","-21.875","-35.96875"
"1573730003360","1229","-0.12402344","-0.7792969","0.5058594","-65.8125","-27.71875","-39.75"
"1573730003742","1230","-0.060546875","-0.828125","0.47851562","-69.78125","-27.25","-40.71875"
"1573730003742","1231","-0.04296875","-0.83496094","0.40429688","-68.375","-31.375","-42.0625"
"1573730003742","1232","0.018554688","-0.83203125","0.39648438","-72.90625","-31.21875","-40.59375"
"1573730003742","1233","0.0048828125","-0.8466797","0.31933594","-72.46875","-27.96875","-38.46875"
"1573730003743","1234","0.045898438","-0.8144531","0.29003906","-71.5","-25.34375","-36.875"
"1573730003743","1235","0.016601562","-0.8378906","0.2841797","-69.34375","-17.65625","-33.65625"
"1573730003743","1236","0.0078125","-0.8808594","0.22363281","-76.5625","-14.0625","-37.5625"
"1573730003744","1237","0.08886719","-0.9042969","0.20507812","-69.28125","-8.0","-40.65625"
"1573730003744","1238","0.11035156","-0.94921875","0.17480469","-60.625","-10.15625","-32.59375"
"1573730003744","1239","0.17382812","-0.9511719","0.15429688","-60.3125","-15.21875","-38.65625"
"1573730004141","1240","0.171875","-0.94140625","0.12109375","-47.25","-15.15625","-31.21875"
"1573730004141","1241","0.20800781","-0.9658203","0.047851562","-50.6875","-15.03125","-34.1875"
"1573730004141","1242","0.21484375","-0.9169922","0.03515625","-43.46875","-14.0625","-32.5"
"1573730004142","1243","0.25097656","-0.91503906","0.047851562","-37.90625","-18.09375","-31.25"
"1573730004142","1244","0.23046875","-0.8935547","0.028320312","-22.0625","-7.8125","-19.5"
"1573730004142","1245","0.31347656","-0.9433594","-0.029296875","-19.5","-0.1875","-16.625"
"1573730004142","1246","0.2939453","-0.98535156","-0.021484375","-16.25","5.28125","-9.78125"
"1573730004143","1247","0.35058594","-0.94433594","-0.0546875","-13.25","3.15625","-8.625"
"1573730004143","1248","0.33007812","-0.9375","-0.053710938","-13.6875","0.59375","-5.5"
"1573730004144","1249","0.28710938","-0.9091797","-0.025390625","-6.375","8.65625","-5.21875"
"1573730004538","1250","0.3330078","-0.9316406","-0.047851562","0.78125","10.0625","-0.25"
"1573730004539","1251","0.29492188","-0.9121094","-0.022460938","4.1875","6.5625","2.25"
"1573730004539","1252","0.3642578","-0.94628906","-0.049804688","6.03125","10.84375","2.71875"
"1573730004539","1253","0.34179688","-0.9033203","-0.052734375","14.75","7.125","4.5625"
"1573730004540","1254","0.3515625","-0.90234375","-0.0234375","19.15625","6.09375","7.90625"
"1573730004540","1255","0.32128906","-0.9580078","-0.05078125","21.28125","1.875","6.03125"
"1573730004540","1256","0.33496094","-0.9560547","-0.038085938","18.40625","0.65625","6.03125"
"1573730004540","1257","0.3046875","-0.95410156","-0.032226562","16.28125","2.25","3.65625"
"1573730004541","1258","0.22851562","-0.9472656","0.01953125","13.71875","13.71875","0.03125"
"1573730004541","1259","0.25097656","-0.9667969","-0.0068359375","7.5625","17.4375","0.21875"
"1573730004936","1260","0.27734375","-0.98339844","-0.020507812","4.25","16.9375","0.03125"
"1573730004937","1261","0.31445312","-0.9433594","0.022460938","-2.15625","11.75","-4.21875"
"1573730004938","1262","0.21972656","-0.92871094","0.051757812","3.21875","10.90625","-1.96875"
"1573730004938","1263","0.234375","-0.91503906","0.080078125","8.71875","15.4375","4.0625"
"1573730004938","1264","0.21289062","-0.92285156","0.10644531","18.40625","19.21875","8.84375"
"1573730004939","1265","0.24121094","-0.8964844","0.11328125","33.4375","18.0","17.5625"
"1573730004939","1266","0.21191406","-0.8876953","0.14648438","46.875","19.46875","22.8125"
"1573730004939","1267","0.1484375","-0.86328125","0.18945312","62.65625","22.5","32.5625"
"1573730004939","1268","0.1328125","-0.8105469","0.20703125","76.15625","29.28125","40.21875"
"1573730004940","1269","0.14746094","-0.82910156","0.24804688","78.53125","39.46875","46.6875"
"1573730005332","1270","0.16699219","-0.7783203","0.27148438","64.5","40.75","49.84375"
"1573730005332","1271","0.059570312","-0.79003906","0.30664062","72.75","43.25","53.625"
"1573730005333","1272","0.028320312","-0.78125","0.35058594","72.0","48.8125","57.84375"
"1573730005335","1273","0.16308594","-0.7939453","0.3388672","63.8125","35.375","50.71875"
"1573730005335","1274","-0.22753906","-0.7998047","0.5078125","70.78125","56.375","46.6875"
"1573730005335","1275","0.02734375","-0.81640625","0.33789062","65.90625","21.28125","49.59375"
"1573730005336","1276","0.0068359375","-0.65625","0.5185547","52.15625","37.15625","30.1875"
"1573730005336","1277","-0.20996094","-0.76660156","0.5214844","57.65625","17.3125","39.0"
"1573730005336","1278","-0.18847656","-0.7402344","0.6201172","46.96875","29.46875","35.3125"
"1573730005336","1279","-0.17480469","-0.7236328","0.5292969","54.71875","15.84375","26.84375"
"1573730005729","1280","-0.12792969","-0.6621094","0.6611328","25.625","19.21875","28.78125"
"1573730005730","1281","-0.50097656","-0.7685547","0.6972656","22.125","35.09375","26.28125"
"1573730005730","1282","-0.12011719","-0.75683594","0.5683594","-1.71875","16.59375","25.625"
"1573730005730","1283","-0.16992188","-0.6123047","0.640625","-16.0625","8.78125","18.0"
"1573730005731","1284","-0.5263672","-0.7216797","0.7373047","-13.4375","29.03125","20.84375"
"1573730005732","1285","-0.24121094","-0.7861328","0.58203125","-25.21875","15.78125","11.28125"
"1573730005732","1286","-0.3154297","-0.6982422","0.6904297","-53.0625","7.84375","11.15625"
"1573730005732","1287","-0.4658203","-0.8544922","0.6533203","-46.34375","19.875","2.4375"
"1573730005732","1288","-0.30273438","-0.7705078","0.60839844","-29.3125","5.1875","-5.6875"
"1573730005733","1289","-0.36035156","-0.7890625","0.5957031","-34.875","0.15625","-5.8125"
"1573730006129","1290","-0.4169922","-0.83203125","0.59765625","-35.65625","8.15625","-15.34375"
"1573730006130","1291","-0.35253906","-0.828125","0.5810547","-40.125","0.40625","-20.15625"
"1573730006130","1292","-0.421875","-0.8261719","0.5957031","-33.71875","-3.625","-22.59375"
"1573730006130","1293","-0.3779297","-0.8154297","0.57714844","-23.5625","-9.90625","-27.40625"
"1573730006130","1294","-0.38378906","-0.8388672","0.6298828","-17.71875","-10.9375","-21.125"
"1573730006130","1295","-0.40722656","-0.88183594","0.62597656","-26.25","-1.65625","-23.09375"
"1573730006131","1296","-0.29492188","-0.89941406","0.52441406","-25.15625","-5.9375","-32.125"
"1573730006132","1297","-0.22363281","-0.9160156","0.5205078","-33.84375","-1.125","-34.0"
"1573730006132","1298","-0.29492188","-0.9472656","0.49804688","-27.65625","6.9375","-34.75"
"1573730006133","1299","-0.19433594","-0.89453125","0.3798828","-15.6875","-2.21875","-34.8125"
"1573730006526","1300","-0.15625","-0.9345703","0.3828125","-22.0625","-1.53125","-33.28125"
"1573730006527","1301","-0.11328125","-0.92285156","0.35253906","-26.8125","-6.375","-31.625"
"1573730006527","1302","-0.107421875","-0.90625","0.35253906","-23.6875","-5.25","-29.375"
"1573730006528","1303","-0.08203125","-0.9169922","0.3251953","-23.875","-8.6875","-24.625"
"1573730006528","1304","-0.07910156","-0.91796875","0.32714844","-20.28125","-6.53125","-25.96875"
"1573730006528","1305","-0.11230469","-0.91796875","0.33398438","-22.46875","-0.9375","-23.9375"
"1573730006528","1306","0.005859375","-0.9472656","0.2998047","-31.3125","-3.0625","-25.65625"
"1573730006528","1307","-0.048828125","-0.96777344","0.3203125","-42.5","-3.25","-25.59375"
"1573730006529","1308","-0.0068359375","-0.9658203","0.23339844","-61.0","-8.25","-27.53125"
"1573730006530","1309","0.0","-0.9394531","0.22070312","-55.5","-1.0625","-27.59375"
