"# PR data"
"# Start time: 20191114T111953"
"# Subject: jack"
"# Activity type: Bicep curl"
"# Correctness: Incorrect"
"# Notes: "
""
"timestamp","seq","accel_x","accel_y","accel_z","gyro_x","gyro_y","gyro_z"
"1573730393690","0","0.28808594","-0.94628906","-0.1875","-0.8125","-0.375","-0.625"
"1573730393691","1","0.2783203","-0.9423828","-0.18359375","-0.25","0.03125","-0.125"
"1573730393691","2","0.28710938","-0.9580078","-0.18847656","-1.3125","0.09375","0.09375"
"1573730393691","3","0.27246094","-0.9501953","-0.18359375","-1.96875","2.4375","0.40625"
"1573730393692","4","0.28320312","-0.94628906","-0.19238281","-0.875","4.875","0.40625"
"1573730393692","5","0.28125","-0.953125","-0.19628906","0.21875","3.03125","0.46875"
"1573730393692","6","0.27734375","-0.9453125","-0.18457031","0.40625","2.4375","0.21875"
"1573730393692","7","0.2783203","-0.94433594","-0.18359375","0.96875","1.3125","0.0"
"1573730393693","8","0.27734375","-0.9472656","-0.1796875","1.09375","2.125","0.09375"
"1573730393693","9","0.28320312","-0.95214844","-0.18457031","0.84375","1.03125","-0.1875"
"1573730394089","10","0.28515625","-0.94433594","-0.18847656","2.0625","-1.0625","-0.75"
"1573730394090","11","0.2734375","-0.94921875","-0.16894531","2.59375","-0.8125","-0.8125"
"1573730394090","12","0.28125","-0.953125","-0.17675781","0.71875","-1.0625","-1.53125"
"1573730394090","13","0.27148438","-0.9433594","-0.17285156","5.28125","-3.6875","-1.84375"
"1573730394091","14","0.28125","-0.94628906","-0.1640625","5.84375","-4.21875","-2.75"
"1573730394091","15","0.27246094","-0.9482422","-0.14746094","10.96875","-4.21875","-2.03125"
"1573730394091","16","0.27441406","-0.9511719","-0.19921875","11.75","-2.6875","-2.53125"
"1573730394091","17","0.28808594","-0.9589844","-0.15527344","5.0625","-1.40625","-1.53125"
"1573730394092","18","0.2841797","-0.9472656","-0.140625","-1.78125","1.3125","-1.53125"
"1573730394092","19","0.28222656","-0.96191406","-0.15820312","0.59375","-0.9375","-2.15625"
"1573730394486","20","0.28222656","-0.9560547","-0.14746094","-5.625","1.28125","-3.0"
"1573730394487","21","0.2783203","-0.95996094","-0.14746094","-15.59375","3.84375","-2.9375"
"1573730394487","22","0.29492188","-0.9394531","-0.14257812","-11.5625","2.59375","-1.65625"
"1573730394488","23","0.27734375","-0.9277344","-0.17675781","-2.15625","2.0625","-0.5"
"1573730394488","24","0.328125","-0.94921875","-0.18261719","5.40625","5.59375","0.96875"
"1573730394489","25","0.28222656","-0.9609375","-0.16894531","4.3125","0.40625","0.40625"
"1573730394490","26","0.27929688","-0.9501953","-0.140625","-0.8125","1.75","-0.375"
"1573730394490","27","0.27441406","-0.9667969","-0.15234375","0.71875","3.34375","-1.1875"
"1573730394491","28","0.29296875","-0.9658203","-0.15039062","-5.625","2.59375","-2.21875"
"1573730394491","29","0.2705078","-0.9423828","-0.14355469","-10.15625","1.375","-3.125"
"1573730394882","30","0.29882812","-0.9511719","-0.13964844","-8.4375","2.84375","-3.0"
"1573730394883","31","0.26660156","-0.93652344","-0.16015625","-3.6875","4.625","-2.03125"
"1573730394883","32","0.2998047","-0.9501953","-0.1953125","0.46875","2.78125","-0.75"
"1573730394883","33","0.34375","-0.9501953","-0.19824219","9.03125","4.5625","2.78125"
"1573730394884","34","0.28222656","-0.9423828","-0.16015625","4.0","-1.0625","2.0"
"1573730394884","35","0.2734375","-0.94921875","-0.14941406","-0.5","3.28125","0.90625"
"1573730394884","36","0.26367188","-0.95996094","-0.14648438","-2.875","3.34375","-0.25"
"1573730394885","37","0.29785156","-0.9658203","-0.14746094","-0.8125","4.1875","-0.625"
"1573730394885","38","0.30664062","-0.9316406","-0.15625","-3.875","4.875","-0.375"
"1573730394886","39","0.31347656","-0.9560547","-0.17089844","-6.65625","-1.34375","-1.65625"
"1573730395280","40","0.28027344","-0.9482422","-0.14648438","1.15625","0.78125","-0.8125"
"1573730395281","41","0.28710938","-0.9433594","-0.13671875","-2.6875","2.96875","-2.75"
"1573730395281","42","0.28320312","-0.9550781","-0.13964844","-3.125","0.59375","-2.8125"
"1573730395281","43","0.3017578","-0.96191406","-0.14941406","-0.625","1.625","-3.3125"
"1573730395281","44","0.28808594","-0.94628906","-0.15722656","-2.15625","1.15625","-1.96875"
"1573730395282","45","0.30273438","-0.953125","-0.16894531","-3.6875","0.90625","-2.40625"
"1573730395282","46","0.28710938","-0.9482422","-0.15917969","-4.21875","1.28125","-1.53125"
"1573730395282","47","0.29003906","-0.9394531","-0.15234375","-0.6875","2.71875","-2.03125"
"1573730395282","48","0.3017578","-0.93847656","-0.1640625","1.15625","1.5625","-2.15625"
"1573730395284","49","0.29785156","-0.9501953","-0.1796875","4.5625","0.21875","-2.15625"
"1573730395877","50","0.28515625","-0.95214844","-0.15917969","3.9375","-1.125","-2.21875"
"1573730395878","51","0.3173828","-0.9472656","-0.14160156","3.53125","0.40625","-1.1875"
"1573730395878","52","0.26953125","-0.9501953","-0.13964844","-5.5625","-6.78125","-2.15625"
"1573730395878","53","0.30078125","-0.953125","-0.15820312","-1.96875","-0.0625","-0.1875"
"1573730395879","54","0.28710938","-0.94140625","-0.15332031","-4.71875","-3.3125","-0.125"
"1573730395879","55","0.2998047","-0.9482422","-0.17382812","-6.0625","-3.8125","-0.625"
"1573730395879","56","0.296875","-0.95214844","-0.16894531","-5.21875","-2.9375","0.0"
"1573730395879","57","0.28320312","-0.9550781","-0.17675781","-2.875","1.8125","0.15625"
"1573730395880","58","0.2998047","-0.9511719","-0.16210938","-12.15625","7.1875","1.03125"
"1573730395880","59","0.31152344","-0.9453125","-0.16601562","-14.1875","4.125","-0.3125"
"1573730396075","60","0.29882812","-0.9501953","-0.21386719","-6.84375","-1.59375","-1.34375"
"1573730396076","61","0.2763672","-0.92871094","-0.20800781","3.15625","-1.1875","0.28125"
"1573730396077","62","0.30859375","-0.9482422","-0.14746094","2.375","3.90625","-1.0"
"1573730396077","63","0.2841797","-0.9423828","-0.16113281","0.21875","-0.75","-0.75"
"1573730396077","64","0.28710938","-0.94433594","-0.16796875","-0.625","1.5625","-1.40625"
"1573730396078","65","0.29492188","-0.9326172","-0.15234375","2.65625","1.6875","-0.3125"
"1573730396078","66","0.31054688","-0.96191406","-0.20507812","22.875","-7.09375","-1.90625"
"1573730396078","67","0.3125","-0.9589844","-0.15234375","11.09375","-7.09375","0.28125"
"1573730396078","68","0.26464844","-0.91503906","-0.14160156","5.84375","-15.34375","-1.71875"
"1573730396079","69","0.3017578","-0.95410156","-0.16503906","5.40625","-7.28125","-1.34375"
"1573730396672","70","0.2841797","-0.9433594","-0.14550781","3.15625","-7.15625","-2.40625"
"1573730396673","71","0.3017578","-0.9628906","-0.15917969","-2.40625","-2.625","-3.25"
"1573730396673","72","0.2890625","-0.9316406","-0.140625","-1.125","-4.71875","-1.65625"
"1573730396674","73","0.2861328","-0.9501953","-0.16210938","-6.375","-1.40625","-2.15625"
"1573730396675","74","0.3125","-0.96191406","-0.16894531","-4.53125","0.09375","-1.78125"
"1573730396675","75","0.27734375","-0.9394531","-0.13867188","-3.5625","3.40625","-0.375"
"1573730396675","76","0.2763672","-0.9326172","-0.13867188","1.625","3.21875","-2.28125"
"1573730396675","77","0.34570312","-1.0029297","-0.095703125","5.78125","5.21875","-2.46875"
"1573730396676","78","0.25878906","-0.93359375","-0.14355469","13.46875","-14.25","-3.75"
"1573730396676","79","0.3046875","-0.9375","-0.18164062","0.90625","-13.75","-3.0625"
"1573730396869","80","0.2841797","-0.9716797","-0.18457031","-1.84375","-3.0625","0.65625"
"1573730396870","81","0.3076172","-0.92578125","-0.15332031","-13.875","10.125","-1.59375"
"1573730396870","82","0.2939453","-0.9423828","-0.16308594","-13.125","5.34375","-1.78125"
"1573730396870","83","0.26464844","-0.9433594","-0.17871094","-3.1875","4.375","-1.46875"
"1573730396870","84","0.31347656","-0.9404297","-0.17382812","5.0625","3.90625","1.03125"
"1573730396871","85","0.32617188","-0.9707031","-0.12011719","4.5625","4.3125","0.71875"
"1573730396872","86","0.25585938","-0.9472656","-0.13867188","-3.4375","0.90625","-0.375"
"1573730396872","87","0.2919922","-0.9609375","-0.12207031","-5.5625","1.5625","1.3125"
"1573730396872","88","0.3125","-0.8964844","-0.19140625","-12.90625","1.6875","3.40625"
"1573730396873","89","0.3251953","-0.92285156","-0.18457031","-7.875","-3.5","2.375"
"1573730397269","90","0.2763672","-0.94140625","-0.20898438","-5.3125","3.65625","1.03125"
"1573730397270","91","0.3154297","-0.9667969","-0.17871094","-5.9375","3.40625","-0.3125"
"1573730397270","92","0.2939453","-0.96777344","-0.16015625","-7.53125","9.75","-1.1875"
"1573730397270","93","0.265625","-0.92285156","-0.18261719","-12.15625","13.34375","-4.71875"
"1573730397270","94","0.35058594","-0.9589844","-0.20898438","-17.65625","17.125","-5.875"
"1573730397271","95","0.3515625","-0.97753906","-0.19238281","-3.5625","13.46875","-5.4375"
"1573730397271","96","0.22558594","-0.8808594","-0.16894531","-37.5","16.03125","-3.25"
"1573730397272","97","0.34765625","-0.9824219","-0.16699219","-21.5","16.03125","-5.4375"
"1573730397273","98","0.31933594","-0.9550781","-0.19824219","0.65625","3.09375","-4.40625"
"1573730397273","99","0.24511719","-0.8515625","-0.125","-17.09375","5.96875","-2.15625"
"1573730397665","100","0.35546875","-1.0175781","-0.22460938","-1.0","4.0","-7.53125"
"1573730397665","101","0.29882812","-0.9082031","-0.17871094","-7.59375","-1.3125","-3.375"
"1573730397665","102","0.234375","-0.86035156","-0.17773438","-13.3125","0.28125","-5.09375"
"1573730397666","103","0.43359375","-1.0244141","-0.2919922","-11.625","-2.8125","-6.59375"
"1573730397666","104","0.29785156","-0.8720703","-0.21972656","0.21875","-7.09375","0.15625"
"1573730397666","105","0.2890625","-0.8652344","-0.22265625","-4.21875","-6.25","-2.09375"
"1573730397666","106","0.4482422","-1.0273438","-0.3232422","5.34375","-6.84375","-4.96875"
"1573730397667","107","0.23828125","-0.8515625","-0.18945312","4.75","-12.96875","-1.34375"
"1573730397667","108","0.33496094","-0.91015625","-0.25","2.5","-3.90625","-2.46875"
"1573730397668","109","0.41015625","-1.0058594","-0.27148438","3.84375","-2.28125","-2.6875"
"1573730398062","110","0.20214844","-0.86816406","-0.15429688","-5.03125","-9.90625","-1.40625"
"1573730398062","111","0.3076172","-0.90234375","-0.3046875","-2.59375","3.34375","-3.5"
"1573730398063","112","0.5019531","-1.0195312","-0.29003906","2.71875","-3.25","-1.46875"
"1573730398063","113","0.17773438","-0.80859375","-0.16796875","-1.65625","-11.96875","0.53125"
"1573730398063","114","0.33203125","-0.953125","-0.29589844","-3.375","1.15625","-4.65625"
"1573730398064","115","0.48242188","-0.96875","-0.24023438","3.34375","-6.71875","0.65625"
"1573730398064","116","0.13671875","-0.8330078","-0.19824219","-0.0625","-13.5625","-2.03125"
"1573730398064","117","0.39746094","-0.9501953","-0.328125","-1.90625","0.46875","-3.875"
"1573730398065","118","0.4482422","-0.9765625","-0.25976562","7.5625","-3.0","0.84375"
"1573730398065","119","0.12988281","-0.8154297","-0.1796875","-6.53125","-6.65625","-1.125"
"1573730398461","120","0.41210938","-0.98046875","-0.3154297","-2.21875","8.40625","-1.96875"
"1573730398463","121","0.40820312","-0.9326172","-0.2265625","-0.5","0.21875","3.71875"
"1573730398463","122","0.13964844","-0.86035156","-0.22851562","-9.125","0.59375","-1.90625"
"1573730398463","123","0.45117188","-0.95214844","-0.3076172","-3.8125","9.5","-3.1875"
"1573730398464","124","0.39160156","-0.96777344","-0.21484375","4.125","2.375","2.65625"
"1573730398464","125","0.12792969","-0.83496094","-0.23144531","-6.78125","-3.375","-3.0625"
"1573730398464","126","0.4580078","-0.9765625","-0.3173828","-5.03125","10.78125","-2.8125"
"1573730398464","127","0.40527344","-0.94140625","-0.23242188","4.625","-3.375","2.4375"
"1573730398465","128","0.08105469","-0.84277344","-0.19628906","-8.6875","-1.1875","-3.0625"
"1573730398465","129","0.47265625","-0.98339844","-0.31933594","-8.25","13.21875","-2.28125"
"1573730398860","130","0.42285156","-0.9238281","-0.21777344","1.875","0.09375","4.25"
"1573730398860","131","0.099609375","-0.8378906","-0.25097656","-8.625","-6.25","-3.0"
"1573730398860","132","0.5","-0.9609375","-0.31640625","-1.46875","8.84375","-2.28125"
"1573730398862","133","0.35351562","-0.94433594","-0.21386719","3.46875","-1.78125","4.25"
"1573730398862","134","0.09667969","-0.8642578","-0.23925781","-9.46875","1.28125","-5.875"
"1573730398862","135","0.515625","-0.94140625","-0.32617188","2.1875","11.9375","-0.125"
"1573730398863","136","0.41503906","-0.93847656","-0.22558594","1.5625","1.3125","7.5"
"1573730398863","137","0.060546875","-0.8955078","-0.22070312","-14.53125","0.15625","-4.21875"
"1573730398863","138","0.4560547","-0.9248047","-0.3251953","-4.21875","13.21875","-2.34375"
"1573730398864","139","0.43652344","-0.9248047","-0.24707031","5.90625","5.46875","6.03125"
"1573730399454","140","0.11425781","-0.8955078","-0.20214844","-8.5625","5.28125","-0.5"
"1573730399455","141","0.44140625","-0.91308594","-0.2890625","-5.25","8.78125","-0.4375"
"1573730399455","142","0.36035156","-0.9267578","-0.2998047","3.59375","3.21875","5.0625"
"1573730399455","143","0.28710938","-0.91308594","-0.26660156","6.40625","-0.3125","1.3125"
"1573730399455","144","0.3046875","-0.92285156","-0.20703125","-0.1875","4.1875","-1.1875"
"1573730399456","145","0.3388672","-0.9296875","-0.30078125","1.5625","6.15625","1.6875"
"1573730399457","146","0.34570312","-0.91015625","-0.28515625","10.71875","6.46875","2.25"
"1573730399457","147","0.31152344","-0.9042969","-0.2109375","10.46875","0.96875","0.78125"
"1573730399457","148","0.3330078","-0.9189453","-0.23535156","5.53125","3.03125","0.84375"
"1573730399458","149","0.31152344","-0.953125","-0.23242188","4.3125","0.96875","1.3125"
"1573730399852","150","0.31054688","-0.9394531","-0.22265625","5.84375","-3.5","0.65625"
"1573730399853","151","0.30371094","-0.94433594","-0.20410156","5.71875","-2.34375","0.71875"
"1573730399853","152","0.32421875","-0.9277344","-0.21582031","3.65625","-2.6875","0.96875"
"1573730399853","153","0.3046875","-0.9423828","-0.23632812","4.375","-1.59375","-0.4375"
"1573730399854","154","0.29882812","-0.93066406","-0.19824219","-3.0","1.3125","-1.3125"
"1573730399854","155","0.33691406","-0.94140625","-0.2109375","-0.25","-0.5625","-1.1875"
"1573730399854","156","0.3076172","-0.9345703","-0.21875","0.96875","-0.8125","-0.875"
"1573730399856","157","0.30664062","-0.9326172","-0.23144531","1.4375","2.0","-0.375"
"1573730399856","158","0.3173828","-0.9394531","-0.20507812","-2.53125","3.46875","-0.625"
"1573730399856","159","0.30664062","-0.93066406","-0.19433594","-1.53125","5.34375","0.84375"
"1573730400250","160","0.30371094","-0.93652344","-0.24902344","5.0625","10.0625","0.65625"
"1573730400250","161","0.3173828","-0.9580078","-0.23535156","-0.25","15.25","2.65625"
"1573730400250","162","0.3046875","-0.9199219","-0.18945312","-24.6875","20.1875","2.65625"
"1573730400251","163","0.2998047","-0.9267578","-0.17382812","-11.84375","17.125","2.25"
"1573730400251","164","0.32128906","-0.9404297","-0.22753906","-14.0625","11.75","5.34375"
"1573730400251","165","0.32128906","-0.94628906","-0.23339844","-14.53125","8.53125","3.46875"
"1573730400251","166","0.3154297","-0.9404297","-0.22070312","-13.9375","6.03125","3.46875"
"1573730400252","167","0.28320312","-0.9394531","-0.20605469","-7.8125","8.40625","2.71875"
"1573730400252","168","0.29003906","-0.9453125","-0.21679688","-5.75","6.5","-1.0"
"1573730400253","169","0.3125","-0.9199219","-0.21386719","-3.5","8.40625","-1.1875"
"1573730400646","170","0.28320312","-0.9238281","-0.22167969","0.46875","14.625","-2.03125"
"1573730400646","171","0.2998047","-0.9433594","-0.20507812","2.71875","9.375","-3.3125"
"1573730400646","172","0.29785156","-0.93066406","-0.23632812","3.21875","4.9375","-3.75"
"1573730400647","173","0.33984375","-0.94433594","-0.265625","4.875","0.96875","-1.84375"
"1573730400647","174","0.3046875","-0.92089844","-0.20507812","1.375","-2.28125","-0.5"
"1573730400647","175","0.34375","-0.92578125","-0.2421875","1.28125","-2.46875","-1.1875"
"1573730400647","176","0.29101562","-0.9472656","-0.21679688","1.625","-6.25","-0.75"
"1573730400648","177","0.3095703","-0.9042969","-0.25097656","0.96875","-4.34375","-1.0"
"1573730400648","178","0.3125","-0.96777344","-0.22265625","3.53125","-3.96875","0.28125"
"1573730400648","179","0.3173828","-0.9013672","-0.22851562","4.625","-4.96875","2.125"
"1573730401044","180","0.29101562","-0.9550781","-0.23339844","1.8125","-3.3125","1.21875"
"1573730401045","181","0.33691406","-0.9111328","-0.21289062","4.375","-4.34375","3.46875"
"1573730401046","182","0.26660156","-0.94433594","-0.21582031","1.6875","-1.25","1.6875"
"1573730401046","183","0.33984375","-0.9248047","-0.20898438","-0.9375","-2.09375","2.78125"
"1573730401046","184","0.3046875","-0.9375","-0.22363281","3.84375","-5.375","1.875"
"1573730401046","185","0.2734375","-0.9394531","-0.21679688","4.0","0.71875","0.46875"
"1573730401047","186","0.31835938","-0.92871094","-0.22167969","-2.28125","2.0","0.96875"
"1573730401047","187","0.29296875","-0.95410156","-0.21679688","0.0","1.6875","0.0"
"1573730401047","188","0.30371094","-0.92578125","-0.20410156","1.3125","0.34375","0.53125"
"1573730401047","189","0.27539062","-0.9511719","-0.19042969","-1.25","3.40625","-1.25"
"1573730401442","190","0.28710938","-0.9433594","-0.2109375","-0.875","3.40625","-0.5"
"1573730401443","191","0.296875","-0.9355469","-0.19433594","-2.09375","1.5","-2.8125"
"1573730401443","192","0.30371094","-0.9472656","-0.19433594","1.4375","4.6875","-1.1875"
"1573730401444","193","0.30273438","-0.9550781","-0.19335938","-0.875","2.0","-1.46875"
"1573730401445","194","0.2919922","-0.9423828","-0.19824219","1.15625","2.78125","-1.46875"
"1573730401445","195","0.30078125","-0.94628906","-0.20996094","-0.1875","1.3125","-0.625"
"1573730401445","196","0.28320312","-0.9472656","-0.19140625","1.3125","3.90625","-0.5"
"1573730401446","197","0.29882812","-0.94628906","-0.19238281","-3.6875","3.34375","0.65625"
"1573730401446","198","0.296875","-0.93847656","-0.20507812","-4.71875","2.71875","0.53125"
"1573730401446","199","0.29003906","-0.9472656","-0.1953125","-5.3125","0.78125","-0.5625"
"1573730401840","200","0.29882812","-0.92871094","-0.1953125","-3.1875","0.84375","-0.6875"
"1573730401840","201","0.27539062","-0.9589844","-0.19628906","-1.46875","-0.1875","-1.71875"
"1573730401840","202","0.3017578","-0.9394531","-0.17773438","-3.75","-0.5","-1.3125"
"1573730401841","203","0.28125","-0.9433594","-0.20800781","-0.8125","-1.59375","-1.3125"
"1573730401841","204","0.29785156","-0.9482422","-0.18945312","-1.71875","0.09375","0.65625"
"1573730401842","205","0.2783203","-0.9560547","-0.19335938","1.03125","-0.1875","0.09375"
"1573730401843","206","0.29785156","-0.9433594","-0.18554688","4.5625","0.21875","1.875"
"1573730401843","207","0.28320312","-0.9511719","-0.18066406","2.4375","1.625","2.5625"
"1573730401843","208","0.29003906","-0.94140625","-0.22558594","0.46875","2.125","1.4375"
"1573730401843","209","0.3046875","-0.96191406","-0.22265625","-2.59375","10.3125","0.09375"
"1573730402433","210","0.27539062","-0.93847656","-0.18945312","-2.625","9.3125","-1.40625"
"1573730402434","211","0.296875","-0.9433594","-0.20996094","0.46875","9.03125","-2.21875"
"1573730402434","212","0.2890625","-0.95703125","-0.203125","-9.40625","12.6875","-2.40625"
"1573730402435","213","0.2890625","-0.9501953","-0.18945312","-4.71875","12.1875","-3.6875"
"1573730402435","214","0.2890625","-0.93359375","-0.19921875","3.90625","4.9375","-7.59375"
"1573730402435","215","0.33398438","-0.9394531","-0.1953125","4.0","1.8125","-1.84375"
"1573730402435","216","0.28710938","-0.953125","-0.16699219","10.0","-5.15625","-1.90625"
"1573730402437","217","0.30371094","-0.93359375","-0.14550781","9.3125","-12.84375","0.90625"
"1573730402438","218","0.3828125","-0.9628906","-0.16308594","20.6875","-21.3125","0.40625"
"1573730402438","219","0.26367188","-0.93359375","-0.17773438","34.21875","-24.96875","-0.1875"
"1573730402831","220","0.3857422","-0.97558594","-0.14257812","38.1875","-16.5","4.8125"
"1573730402831","221","0.33007812","-0.9394531","-0.0068359375","5.28125","-20.09375","6.6875"
"1573730402831","222","0.15917969","-0.94433594","-0.13574219","15.625","-28.46875","3.40625"
"1573730402832","223","0.16894531","-0.94140625","-0.171875","17.6875","-3.625","0.71875"
"1573730402832","224","0.20507812","-0.9433594","-0.072265625","-11.25","32.40625","-5.875"
"1573730402832","225","0.28125","-0.9248047","-0.06347656","-27.46875","25.0625","-7.09375"
"1573730402832","226","0.2939453","-0.92089844","-0.080078125","-1.59375","10.1875","-1.59375"
"1573730402833","227","0.3798828","-0.9951172","-0.12207031","10.40625","-7.65625","-1.90625"
"1573730402833","228","0.28320312","-0.95214844","-0.14746094","6.5","-3.3125","-4.34375"
"1573730402834","229","0.27441406","-0.95410156","-0.15917969","3.28125","-3.375","-1.53125"
"1573730403031","230","0.3017578","-0.95214844","-0.140625","-4.65625","-1.65625","-0.8125"
"1573730403032","231","0.3046875","-0.9472656","-0.07421875","-0.375","-2.59375","1.09375"
"1573730403032","232","0.2578125","-0.9511719","-0.09375","-5.03125","-0.0625","-0.375"
"1573730403032","233","0.2890625","-0.9951172","-0.078125","-5.625","4.8125","1.375"
"1573730403033","234","0.28710938","-0.9375","-0.109375","-5.21875","2.59375","-1.25"
"1573730403033","235","0.29492188","-0.96972656","-0.14746094","-3.96875","2.65625","-0.3125"
"1573730403033","236","0.3359375","-0.9296875","-0.09375","-4.28125","5.46875","0.65625"
"1573730403033","237","0.28027344","-0.9550781","-0.11621094","-6.84375","0.65625","-1.90625"
"1573730403034","238","0.28027344","-0.95410156","-0.12109375","-7.9375","0.40625","-3.125"
"1573730403034","239","0.29101562","-0.9277344","-0.12695312","-14.3125","4.0625","-2.8125"
"1573730403430","240","0.3232422","-0.9707031","-0.14453125","-8.5","2.84375","-1.78125"
"1573730403431","241","0.29101562","-0.96777344","-0.12890625","-10.8125","2.4375","-3.5625"
"1573730403432","242","0.2919922","-0.92089844","-0.13671875","-6.90625","3.71875","-2.09375"
"1573730403432","243","0.3232422","-0.9511719","-0.171875","-9.15625","9.09375","-0.875"
"1573730403432","244","0.30371094","-0.9814453","-0.13476562","-9.84375","7.0625","-2.59375"
"1573730403433","245","0.234375","-0.9169922","-0.123046875","-3.5625","2.5","-2.21875"
"1573730403433","246","0.32910156","-0.95214844","-0.16308594","-5.09375","8.78125","-3.0"
"1573730403433","247","0.34375","-0.984375","-0.17285156","-1.78125","4.1875","-1.125"
"1573730403433","248","0.22265625","-0.90527344","-0.119140625","-6.1875","3.65625","-0.375"
"1573730403434","249","0.359375","-0.9560547","-0.17578125","-6.90625","8.96875","-2.15625"
"1573730403827","250","0.34277344","-0.95996094","-0.19238281","-6.1875","2.59375","0.65625"
"1573730403828","251","0.17578125","-0.94433594","-0.13378906","-4.21875","3.40625","-2.6875"
"1573730403828","252","0.40625","-0.92578125","-0.16015625","-9.46875","9.75","-0.25"
"1573730403829","253","0.3408203","-0.9794922","-0.18457031","-1.71875","-2.6875","1.5"
"1573730403830","254","0.18164062","-0.8925781","-0.15234375","-6.96875","-1.78125","-1.90625"
"1573730403830","255","0.40527344","-0.9707031","-0.16894531","-4.90625","6.03125","0.0"
"1573730403830","256","0.3076172","-0.99609375","-0.1875","-4.71875","-2.34375","-1.90625"
"1573730403831","257","0.18066406","-0.8769531","-0.14257812","-9.28125","-4.03125","-3.5"
"1573730403831","258","0.4091797","-0.97558594","-0.21582031","-5.5625","4.0","0.03125"
"1573730403831","259","0.35058594","-0.98339844","-0.2109375","-0.875","-3.3125","0.09375"
"1573730404224","260","0.15820312","-0.8544922","-0.111328125","-11.6875","0.59375","-1.46875"
"1573730404224","261","0.3876953","-1.0039062","-0.23144531","-0.25","5.71875","-1.46875"
"1573730404225","262","0.38476562","-0.95214844","-0.21679688","2.59375","-1.0625","0.28125"
"1573730404225","263","0.12402344","-0.88183594","-0.12109375","-13.0625","-0.0625","-3.96875"
"1573730404225","264","0.39941406","-0.96875","-0.22460938","-0.1875","6.75","-0.125"
"1573730404226","265","0.40429688","-0.9707031","-0.25390625","4.625","-1.84375","-0.5"
"1573730404227","266","0.1484375","-0.89746094","-0.11621094","-8.6875","0.96875","-1.125"
"1573730404227","267","0.32226562","-0.9589844","-0.21484375","-7.34375","8.15625","-2.40625"
"1573730404227","268","0.44921875","-0.9472656","-0.2734375","-5.375","-0.8125","-1.34375"
"1573730404228","269","0.20507812","-0.9345703","-0.14257812","-8.625","2.0","0.53125"
"1573730405018","270","0.27441406","-0.89746094","-0.1875","-9.0625","6.15625","-2.53125"
"1573730405018","271","0.45117188","-0.9707031","-0.29003906","0.34375","-1.0","-1.3125"
"1573730405019","272","0.26171875","-0.94628906","-0.18847656","0.78125","-0.3125","1.4375"
"1573730405019","273","0.19628906","-0.86328125","-0.13476562","-9.40625","2.0625","-3.90625"
"1573730405019","274","0.3984375","-0.98535156","-0.2763672","9.8125","6.34375","-0.6875"
"1573730405019","275","0.34570312","-0.91308594","-0.24023438","9.1875","-3.0625","2.125"
"1573730405020","276","0.2578125","-0.9316406","-0.11035156","7.84375","-9.71875","0.71875"
"1573730405022","277","0.3466797","-0.97558594","-0.123046875","25.25","-7.875","-3.0625"
"1573730405022","278","0.25976562","-0.94433594","-0.20019531","24.71875","-3.75","-7.8125"
"1573730405023","279","0.32421875","-0.9453125","-0.17285156","11.21875","-23.6875","0.0"
"1573730405216","280","0.3095703","-0.92578125","-0.18457031","12.5625","-6.59375","-1.46875"
"1573730405217","281","0.2939453","-0.94433594","-0.16699219","-0.3125","-6.53125","-1.25"
"1573730405217","282","0.3232422","-0.9375","-0.19335938","-6.90625","-1.0625","1.3125"
"1573730405217","283","0.3017578","-0.92871094","-0.13769531","-7.875","2.65625","-1.0"
"1573730405217","284","0.3232422","-0.94921875","-0.16015625","-7.78125","1.9375","-0.5625"
"1573730405218","285","0.28320312","-0.9550781","-0.171875","-6.125","2.3125","0.84375"
"1573730405218","286","0.31640625","-0.9423828","-0.18554688","-5.625","0.21875","-2.46875"
"1573730405218","287","0.3046875","-0.953125","-0.17089844","-4.46875","3.28125","-1.125"
"1573730405218","288","0.30566406","-0.95996094","-0.14550781","-3.90625","2.65625","-3.8125"
"1573730405220","289","0.28710938","-0.9394531","-0.16601562","-1.78125","0.65625","-2.40625"
"1573730405416","290","0.3076172","-0.9501953","-0.171875","-0.0625","1.625","-2.09375"
"1573730405416","291","0.34277344","-0.93066406","-0.19238281","3.03125","5.34375","0.90625"
"1573730405416","292","0.28027344","-0.95214844","-0.1640625","0.09375","2.84375","-0.3125"
"1573730405417","293","0.2998047","-0.93359375","-0.16113281","1.15625","1.625","-1.1875"
"1573730405417","294","0.3076172","-0.9375","-0.17773438","-1.0625","6.40625","-0.75"
"1573730405417","295","0.34375","-0.9277344","-0.17285156","-2.21875","4.3125","0.0"
"1573730405417","296","0.30273438","-0.953125","-0.1640625","-1.0625","0.84375","-0.375"
"1573730405418","297","0.31347656","-0.9472656","-0.16796875","2.78125","0.40625","-1.40625"
"1573730405418","298","0.3125","-0.93652344","-0.16992188","0.90625","3.03125","0.84375"
"1573730405418","299","0.29882812","-0.9453125","-0.15722656","-0.25","3.53125","0.0"
"1573730405816","300","0.31933594","-0.94628906","-0.18945312","-0.4375","6.15625","1.6875"
"1573730405817","301","0.31152344","-0.96191406","-0.16992188","-2.6875","5.84375","0.15625"
"1573730405817","302","0.3095703","-0.9482422","-0.17871094","-2.03125","6.03125","1.8125"
"1573730405817","303","0.2861328","-0.96972656","-0.16992188","-5.5625","5.0625","-0.9375"
"1573730405818","304","0.30859375","-0.93359375","-0.17578125","-13.1875","4.625","-1.53125"
"1573730405818","305","0.3125","-0.94921875","-0.18457031","-14.46875","6.625","-1.3125"
"1573730405818","306","0.31445312","-0.94140625","-0.17675781","-4.90625","10.0","-1.65625"
"1573730405818","307","0.2861328","-0.9394531","-0.17285156","-10.40625","11.53125","-2.6875"
"1573730405819","308","0.30859375","-0.93066406","-0.15917969","-11.96875","9.875","-2.9375"
"1573730405819","309","0.3203125","-0.9482422","-0.18164062","-9.40625","7.4375","-2.53125"
"1573730406808","310","0.29492188","-0.9267578","-0.19433594","-10.34375","7.96875","-2.8125"
"1573730406808","311","0.32910156","-0.9316406","-0.19921875","-12.59375","4.625","-1.34375"
"1573730406809","312","0.33398438","-0.9375","-0.23242188","-11.5","0.90625","0.84375"
"1573730406810","313","0.29882812","-0.9169922","-0.1796875","-19.0","8.40625","-0.125"
"1573730406810","314","0.3623047","-0.92871094","-0.21289062","-6.84375","5.84375","-0.625"
"1573730406811","315","0.29785156","-0.9091797","-0.21484375","-2.03125","4.9375","-0.8125"
"1573730406811","316","0.32617188","-0.9296875","-0.20605469","-2.9375","9.5","-0.8125"
"1573730406811","317","0.32421875","-0.9033203","-0.2265625","-0.5625","6.09375","-0.4375"
"1573730406812","318","0.30859375","-0.9482422","-0.2265625","0.53125","3.59375","-1.46875"
"1573730406812","319","0.32128906","-0.88671875","-0.24023438","4.0","4.375","0.21875"
"1573730407006","320","0.3515625","-0.9658203","-0.22265625","3.21875","4.0","0.28125"
"1573730407006","321","0.3076172","-0.90527344","-0.21289062","2.0","-0.4375","-0.8125"
"1573730407006","322","0.33398438","-0.92285156","-0.19824219","0.15625","2.1875","0.03125"
"1573730407007","323","0.33789062","-0.9277344","-0.23144531","3.15625","-1.71875","-0.4375"
"1573730407007","324","0.29882812","-0.94433594","-0.21386719","0.15625","1.625","-1.0625"
"1573730407007","325","0.32617188","-0.92578125","-0.20019531","-0.125","1.28125","0.84375"
"1573730407007","326","0.34960938","-0.9609375","-0.20410156","3.65625","0.40625","0.90625"
"1573730407008","327","0.31445312","-0.90527344","-0.21289062","-0.0625","-3.25","0.96875"
"1573730407008","328","0.3125","-0.9248047","-0.19921875","1.625","0.71875","0.65625"
"1573730407008","329","0.28515625","-0.96191406","-0.21289062","-0.9375","2.71875","-1.3125"
"1573730407203","330","0.34179688","-0.9482422","-0.17480469","3.34375","3.34375","1.03125"
"1573730407204","331","0.30273438","-0.890625","-0.17578125","-0.375","0.21875","1.09375"
"1573730407204","332","0.29003906","-0.95703125","-0.21582031","-7.59375","1.375","0.28125"
"1573730407204","333","0.3564453","-0.94628906","-0.19433594","-4.34375","2.3125","0.03125"
"1573730407204","334","0.29882812","-0.9316406","-0.19140625","-2.59375","-1.90625","0.15625"
"1573730407205","335","0.31152344","-0.92089844","-0.21289062","-3.625","-2.15625","-0.375"
"1573730407205","336","0.33984375","-0.94921875","-0.21191406","-1.59375","0.15625","0.03125"
"1573730407205","337","0.2939453","-0.9423828","-0.20800781","1.21875","2.0","-1.34375"
"1573730407206","338","0.29003906","-0.9316406","-0.21289062","-2.53125","-0.25","-2.46875"
"1573730407206","339","0.359375","-0.9248047","-0.19628906","-2.6875","0.90625","0.09375"
"1573730407403","340","0.30566406","-0.94140625","-0.20898438","-1.34375","-0.9375","0.34375"
"1573730407404","341","0.30859375","-0.9375","-0.21582031","0.71875","-2.8125","-0.875"
"1573730407404","342","0.2919922","-0.92871094","-0.1953125","-0.6875","-3.0","-1.84375"
"1573730407404","343","0.2939453","-0.953125","-0.20996094","-2.59375","1.09375","-2.09375"
"1573730407405","344","0.3408203","-0.9248047","-0.203125","-3.1875","-0.4375","0.34375"
"1573730407405","345","0.31933594","-0.9355469","-0.22753906","-4.65625","2.3125","1.21875"
"1573730407405","346","0.3173828","-0.95410156","-0.23242188","-3.5","2.96875","1.21875"
"1573730407405","347","0.2919922","-0.9111328","-0.21972656","-6.0","7.96875","1.03125"
"1573730407405","348","0.31835938","-0.93066406","-0.20703125","0.78125","13.84375","2.65625"
"1573730407407","349","0.32421875","-0.93359375","-0.20410156","0.15625","12.875","2.71875"
"1573730407802","350","0.31347656","-0.94921875","-0.19433594","3.71875","5.78125","0.0"
"1573730407803","351","0.3046875","-0.9326172","-0.18945312","7.8125","2.25","-0.5"
"1573730407803","352","0.28710938","-0.94433594","-0.20507812","5.21875","2.84375","-0.25"
"1573730407803","353","0.30371094","-0.9423828","-0.18359375","-6.0625","6.09375","0.34375"
"1573730407804","354","0.30664062","-0.9453125","-0.16894531","-0.3125","5.71875","0.09375"
"1573730407804","355","0.2998047","-0.94628906","-0.19921875","-7.15625","1.6875","1.5625"
"1573730407804","356","0.28515625","-0.94921875","-0.1953125","-18.5625","-1.53125","2.375"
"1573730407804","357","0.2841797","-0.9345703","-0.20507812","-15.625","-2.9375","3.21875"
"1573730407804","358","0.30078125","-0.94433594","-0.21582031","-6.96875","1.9375","2.65625"
"1573730407805","359","0.30664062","-0.9326172","-0.21386719","-0.6875","4.75","1.21875"
"1573730408397","360","0.2998047","-0.9423828","-0.22460938","0.15625","2.78125","2.0625"
"1573730408399","361","0.29882812","-0.9404297","-0.21777344","-2.15625","2.3125","2.1875"
"1573730408400","362","0.2919922","-0.93652344","-0.21582031","-1.34375","3.65625","2.0"
"1573730408400","363","0.28027344","-0.9423828","-0.2109375","-0.875","3.53125","1.5625"
"1573730408400","364","0.29101562","-0.9423828","-0.21289062","-0.5625","0.59375","1.375"
"1573730408400","365","0.28027344","-0.93066406","-0.22167969","-2.59375","2.0","0.96875"
"1573730408401","366","0.27929688","-0.9482422","-0.20898438","-1.78125","5.0625","1.6875"
"1573730408401","367","0.28125","-0.93359375","-0.19824219","-5.09375","3.84375","0.65625"
"1573730408401","368","0.2890625","-0.9453125","-0.23046875","1.625","0.65625","-0.125"
"1573730408402","369","0.2734375","-0.9404297","-0.21972656","-1.25","1.15625","0.03125"
"1573730408796","370","0.28125","-0.94628906","-0.21191406","-2.21875","0.84375","0.0"
"1573730408797","371","0.28515625","-0.94433594","-0.20019531","-2.8125","2.59375","0.28125"
"1573730408797","372","0.2783203","-0.9472656","-0.21972656","-0.3125","1.6875","0.09375"
"1573730408798","373","0.2861328","-0.9453125","-0.22167969","-1.34375","3.15625","0.0"
"1573730408799","374","0.2783203","-0.94628906","-0.21191406","-1.46875","1.75","0.21875"
"1573730408799","375","0.27539062","-0.9472656","-0.21582031","0.0","2.84375","0.15625"
"1573730408799","376","0.2861328","-0.9404297","-0.21679688","0.65625","1.625","0.15625"
"1573730408799","377","0.28027344","-0.9511719","-0.21582031","-1.53125","1.03125","0.40625"
"1573730408800","378","0.28125","-0.94140625","-0.20996094","-1.25","2.0625","0.53125"
"1573730408800","379","0.28808594","-0.94433594","-0.2109375","-1.59375","2.71875","-0.375"
"1573730408995","380","0.2763672","-0.94140625","-0.20410156","-1.90625","0.34375","-0.9375"
"1573730408995","381","0.265625","-0.94628906","-0.19921875","-0.625","1.28125","-0.875"
"1573730408995","382","0.26660156","-0.9394531","-0.22167969","0.03125","1.6875","-1.125"
"1573730408996","383","0.29296875","-0.95703125","-0.20800781","-0.4375","2.125","-0.3125"
"1573730408996","384","0.27246094","-0.92871094","-0.1953125","-3.25","-1.46875","-1.40625"
"1573730408997","385","0.27539062","-0.94628906","-0.21777344","3.9375","-2.53125","-2.03125"
"1573730408997","386","0.2841797","-0.9501953","-0.21777344","2.125","-1.0625","-1.46875"
"1573730408998","387","0.28222656","-0.9482422","-0.20605469","-1.46875","-0.25","-0.625"
"1573730408998","388","0.29101562","-0.94628906","-0.2109375","-3.0","-0.25","-1.46875"
"1573730408998","389","0.2734375","-0.93847656","-0.20898438","-0.3125","1.625","-1.0"
"1573730409392","390","0.26953125","-0.9394531","-0.20703125","-1.71875","5.59375","-1.25"
"1573730409393","391","0.3173828","-0.9589844","-0.21484375","-4.53125","5.28125","-0.75"
"1573730409393","392","0.2890625","-0.9511719","-0.20800781","0.71875","0.53125","-1.84375"
"1573730409393","393","0.2607422","-0.92285156","-0.20214844","1.15625","-0.875","-1.71875"
"1573730409393","394","0.27148438","-0.9580078","-0.2109375","0.53125","4.5625","-2.15625"
"1573730409394","395","0.30566406","-0.9511719","-0.21191406","0.90625","4.5625","-1.59375"
"1573730409394","396","0.30859375","-0.9453125","-0.20117188","-0.5","0.59375","-0.1875"
"1573730409396","397","0.25097656","-0.92089844","-0.18652344","0.65625","1.21875","-1.53125"
"1573730409396","398","0.28027344","-0.9580078","-0.20410156","0.21875","6.6875","-0.6875"
"1573730409396","399","0.33007812","-0.9433594","-0.203125","-2.03125","2.65625","-1.34375"
"1573730409790","400","0.28027344","-0.9375","-0.20214844","2.4375","-0.6875","-0.8125"
"1573730409790","401","0.25390625","-0.9296875","-0.18066406","0.28125","2.4375","-2.03125"
"1573730409790","402","0.31835938","-0.9628906","-0.20898438","-0.5","3.46875","-1.78125"
"1573730409791","403","0.296875","-0.95703125","-0.18164062","-2.53125","1.03125","-0.375"
"1573730409791","404","0.23535156","-0.93359375","-0.19335938","2.0","0.40625","-2.46875"
"1573730409791","405","0.296875","-0.9511719","-0.1953125","0.28125","8.71875","-1.53125"
"1573730409791","406","0.3486328","-0.95214844","-0.19140625","-0.625","4.5","0.0"
"1573730409792","407","0.29101562","-0.9238281","-0.18066406","-3.25","2.4375","0.46875"
"1573730409792","408","0.2705078","-0.9433594","-0.19433594","-1.90625","2.0625","-1.34375"
"1573730409793","409","0.33496094","-0.9609375","-0.19140625","-2.28125","-1.53125","-2.6875"
"1573730410187","410","0.26367188","-0.92578125","-0.17773438","0.65625","-5.625","-1.1875"
"1573730410188","411","0.28515625","-0.953125","-0.19726562","-1.78125","2.4375","-2.875"
"1573730410188","412","0.29785156","-0.9628906","-0.18359375","-3.3125","0.78125","-2.46875"
"1573730410188","413","0.28515625","-0.9345703","-0.18847656","-0.375","-3.0","-1.25"
"1573730410188","414","0.27441406","-0.92089844","-0.18554688","0.84375","2.65625","0.21875"
"1573730410189","415","0.2998047","-0.96972656","-0.18359375","-3.5","4.1875","-0.8125"
"1573730410189","416","0.31445312","-0.9511719","-0.19921875","-0.25","-0.375","-0.4375"
"1573730410189","417","0.2685547","-0.9111328","-0.17871094","-3.96875","-0.5625","-1.53125"
"1573730410189","418","0.28515625","-0.94921875","-0.20800781","0.0","4.375","-1.84375"
"1573730410190","419","0.32910156","-0.96972656","-0.21386719","-5.8125","1.4375","-1.0"
"1573730410584","420","0.31054688","-0.9375","-0.19042969","-5.6875","-7.53125","-1.84375"
"1573730410585","421","0.234375","-0.9248047","-0.18359375","-5.75","-3.8125","-2.40625"
"1573730410586","422","0.3173828","-0.9638672","-0.22949219","-5.75","0.78125","-3.4375"
"1573730410586","423","0.28808594","-0.93359375","-0.20996094","-7.28125","1.15625","-1.0625"
"1573730410586","424","0.27539062","-0.9589844","-0.21386719","-3.5625","5.59375","-1.59375"
"1573730410586","425","0.30566406","-0.9580078","-0.20898438","-1.78125","6.09375","-1.65625"
"1573730410587","426","0.2919922","-0.90625","-0.20800781","-5.15625","2.90625","-0.375"
"1573730410587","427","0.31933594","-0.9453125","-0.22265625","-5.625","4.5","0.71875"
"1573730410587","428","0.34570312","-0.9423828","-0.24121094","-2.53125","-3.0","0.15625"
"1573730410587","429","0.25683594","-0.9472656","-0.21777344","0.65625","-6.4375","-3.375"
"1573730410982","430","0.28515625","-0.90625","-0.18554688","-2.6875","-2.21875","-1.1875"
"1573730410983","431","0.28710938","-0.9316406","-0.24707031","-8.9375","1.28125","-1.25"
"1573730410983","432","0.34960938","-0.9785156","-0.25390625","-0.1875","-1.78125","0.09375"
"1573730410984","433","0.28710938","-0.9277344","-0.19628906","1.3125","-6.0625","0.96875"
"1573730410984","434","0.21386719","-0.8925781","-0.21289062","-6.84375","0.90625","0.0"
"1573730410985","435","0.3154297","-0.9951172","-0.28515625","-13.03125","7.5","-2.53125"
"1573730410985","436","0.37109375","-0.9824219","-0.25976562","4.8125","-0.125","0.78125"
"1573730410985","437","0.23925781","-0.88378906","-0.25097656","-3.625","2.90625","1.8125"
"1573730410985","438","0.265625","-0.88964844","-0.1875","-11.4375","19.625","3.40625"
"1573730410986","439","0.33691406","-1.0185547","-0.3125","-14.71875","11.53125","-2.09375"
"1573730411381","440","0.34765625","-0.9296875","-0.25097656","-8.375","-3.6875","1.5"
"1573730411382","441","0.23730469","-0.87402344","-0.20996094","-3.0625","-3.0625","0.03125"
"1573730411382","442","0.2841797","-0.93847656","-0.23925781","-7.53125","5.84375","0.78125"
"1573730411382","443","0.35351562","-0.9814453","-0.2861328","-11.3125","-3.90625","-0.4375"
"1573730411383","444","0.28710938","-0.93652344","-0.2421875","2.375","-9.78125","0.65625"
"1573730411384","445","0.19921875","-0.8857422","-0.22949219","-2.40625","4.875","-0.4375"
"1573730411385","446","0.3232422","-0.95703125","-0.26171875","-4.90625","8.65625","-1.53125"
"1573730411385","447","0.30566406","-0.94921875","-0.27929688","-2.15625","2.90625","0.65625"
"1573730411385","448","0.2529297","-0.90625","-0.2109375","9.125","12.0625","-0.3125"
"1573730411385","449","0.27441406","-0.9140625","-0.20507812","1.5625","15.96875","-1.0625"
"1573730411975","450","0.3408203","-0.9560547","-0.25683594","0.90625","7.375","-1.78125"
"1573730411976","451","0.2763672","-0.93847656","-0.24023438","6.40625","-1.96875","-1.84375"
"1573730411976","452","0.23242188","-0.8808594","-0.19042969","12.75","5.65625","-3.8125"
"1573730411976","453","0.3310547","-0.94921875","-0.23242188","5.78125","13.84375","-2.03125"
"1573730411977","454","0.36816406","-0.93359375","-0.22753906","17.875","1.375","-0.1875"
"1573730411977","455","0.33398438","-1.0058594","-0.037109375","47.15625","6.03125","-3.4375"
"1573730411977","456","0.09277344","-0.87109375","-0.22460938","5.0625","-28.40625","-7.34375"
"1573730411979","457","0.44335938","-0.96875","-0.25195312","8.53125","-12.15625","0.21875"
"1573730411980","458","0.28710938","-0.9355469","-0.20214844","7.75","-17.53125","2.4375"
"1573730411980","459","0.3642578","-0.9785156","-0.23925781","-7.28125","-3.5625","-0.1875"
"1573730412173","460","0.19628906","-0.89160156","-0.12695312","-15.15625","3.34375","-0.375"
"1573730412174","461","0.34570312","-0.9580078","-0.16210938","-1.90625","11.53125","-2.09375"
"1573730412174","462","0.3095703","-0.97265625","-0.21777344","5.28125","-7.71875","-2.28125"
"1573730412174","463","0.32421875","-0.94433594","-0.20214844","8.53125","-16.125","-0.6875"
"1573730412175","464","0.19140625","-0.9296875","-0.18164062","6.5","-1.1875","-2.75"
"1573730412175","465","0.32617188","-0.9501953","-0.20898438","-3.0","0.71875","-6.4375"
"1573730412175","466","0.3779297","-0.92285156","-0.23730469","5.40625","-2.6875","0.0"
"1573730412175","467","0.2783203","-0.9511719","-0.15039062","1.4375","-7.875","-2.6875"
"1573730412176","468","0.28125","-0.9453125","-0.1953125","1.5","-0.5625","-4.71875"
"1573730412177","469","0.31152344","-0.9355469","-0.18261719","-6.1875","2.5","-1.65625"
"1573730412572","470","0.31835938","-0.94921875","-0.20019531","-7.40625","-0.0625","-3.3125"
"1573730412573","471","0.2998047","-0.9404297","-0.19921875","1.6875","-1.3125","-1.1875"
"1573730412573","472","0.26660156","-0.97265625","-0.14355469","-5.25","0.90625","-1.84375"
"1573730412573","473","0.2861328","-0.9501953","-0.16113281","-9.28125","-5.3125","-3.90625"
"1573730412574","474","0.3125","-0.91503906","-0.19433594","-4.21875","2.71875","-0.8125"
"1573730412574","475","0.3017578","-0.9189453","-0.20800781","-8.875","4.1875","0.46875"
"1573730412574","476","0.36523438","-0.95703125","-0.24023438","-1.125","4.0625","0.28125"
"1573730412575","477","0.31445312","-0.9375","-0.16796875","3.21875","0.09375","1.03125"
"1573730412575","478","0.24804688","-0.95410156","-0.15820312","-3.0","3.15625","-2.9375"
"1573730412575","479","0.28710938","-0.93652344","-0.17480469","-4.71875","1.28125","-1.53125"
"1573730413164","480","0.32617188","-0.9189453","-0.21191406","-2.03125","2.78125","0.71875"
"1573730413166","481","0.328125","-0.9501953","-0.23535156","2.71875","2.3125","2.90625"
"1573730413166","482","0.32421875","-0.9609375","-0.1953125","1.03125","0.96875","0.96875"
"1573730413166","483","0.25878906","-0.9501953","-0.16796875","0.21875","-1.96875","-0.625"
"1573730413167","484","0.28027344","-0.92871094","-0.18164062","-4.09375","-1.96875","-2.40625"
"1573730413167","485","0.30273438","-0.9160156","-0.21289062","-2.875","4.25","0.78125"
"1573730413167","486","0.3671875","-0.9589844","-0.21386719","4.0","4.75","2.375"
"1573730413167","487","0.29882812","-0.9433594","-0.15625","6.5","-3.3125","1.625"
"1573730413168","488","0.2763672","-0.9794922","-0.12011719","5.34375","-10.03125","-5.25"
"1573730413168","489","0.2705078","-0.93359375","-0.13671875","13.65625","-14.59375","-6.1875"
"1573730413367","490","0.328125","-0.93359375","-0.19628906","13.34375","-19.90625","-4.34375"
"1573730413368","491","0.31347656","-0.9638672","-0.20214844","7.1875","-11.0","-0.1875"
"1573730413368","492","0.2783203","-0.96875","-0.22070312","-9.84375","19.9375","-1.1875"
"1573730413370","493","0.3046875","-0.94140625","-0.123046875","-10.625","6.75","-1.71875"
"1573730413370","494","0.30859375","-0.9394531","-0.14550781","-0.25","-8.3125","-1.40625"
"1573730413371","495","0.3203125","-0.953125","-0.20410156","-6.0","-4.71875","-2.59375"
"1573730413371","496","0.27441406","-0.9609375","-0.19238281","-12.09375","18.34375","-0.8125"
"1573730413371","497","0.31054688","-0.89160156","-0.16796875","-20.84375","8.78125","-6.0"
"1573730413371","498","0.3251953","-0.9736328","-0.19335938","-10.6875","-4.40625","-2.21875"
"1573730413372","499","0.36914062","-0.9238281","-0.23828125","-1.0625","2.65625","0.0"
"1573730413764","500","0.25976562","-0.9453125","-0.13867188","-4.46875","-2.40625","-1.0625"
"1573730413765","501","0.30566406","-0.9169922","-0.19140625","-9.84375","-1.59375","-6.59375"
"1573730413765","502","0.32421875","-0.93652344","-0.24121094","-6.0625","-4.28125","-4.09375"
"1573730413765","503","0.3173828","-0.9160156","-0.31445312","18.125","6.34375","2.71875"
"1573730413765","504","0.296875","-0.96972656","-0.33007812","22.3125","10.0625","4.375"
"1573730413766","505","0.33203125","-0.89941406","-0.041015625","-36.875","35.03125","-1.90625"
"1573730413766","506","0.2626953","-0.94921875","-0.18359375","-16.6875","-4.59375","1.8125"
"1573730413766","507","0.3173828","-0.9511719","-0.21582031","-24.6875","5.34375","3.71875"
"1573730413767","508","0.33398438","-0.92089844","-0.20117188","-21.25","15.4375","3.03125"
"1573730413767","509","0.31445312","-0.92578125","-0.19628906","-16.8125","6.09375","4.3125"
"1573730414161","510","0.33007812","-0.9375","-0.23144531","-13.75","-3.8125","1.3125"
"1573730414161","511","0.30664062","-0.92578125","-0.23242188","-4.71875","-9.34375","1.09375"
"1573730414161","512","0.30273438","-0.9316406","-0.29785156","11.65625","-12.34375","-1.71875"
"1573730414162","513","0.32910156","-0.9355469","-0.2626953","4.125","-9.0625","-1.65625"
"1573730414162","514","0.31933594","-0.90722656","-0.22363281","-16.5","-3.96875","-2.53125"
"1573730414162","515","0.27734375","-0.9189453","-0.24902344","-7.46875","0.40625","-5.03125"
"1573730414162","516","0.3232422","-0.9140625","-0.29785156","5.28125","-4.84375","-0.75"
"1573730414163","517","0.32617188","-0.9550781","-0.28222656","0.65625","-6.1875","0.96875"
"1573730414164","518","0.27929688","-0.9248047","-0.25683594","2.78125","0.0","-0.3125"
"1573730414164","519","0.29882812","-0.92871094","-0.20117188","-3.5","-0.8125","-0.875"
"1573730414559","520","0.28808594","-0.92871094","-0.26367188","9.875","-4.59375","1.4375"
"1573730414559","521","0.2998047","-0.921875","-0.29785156","16.9375","1.875","1.6875"
"1573730414560","522","0.3388672","-0.9453125","-0.23730469","2.5625","2.84375","2.96875"
"1573730414560","523","0.25390625","-0.92285156","-0.19921875","-7.71875","4.625","-1.125"
"1573730414560","524","0.28808594","-0.9550781","-0.2109375","-14.1875","6.5","-2.34375"
"1573730414560","525","0.2919922","-0.93847656","-0.26757812","-13.1875","-0.1875","-4.21875"
"1573730414561","526","0.2763672","-0.92578125","-0.26367188","-14.53125","5.71875","-4.34375"
"1573730414561","527","0.32421875","-0.9189453","-0.28515625","-15.03125","10.78125","-3.90625"
"1573730414561","528","0.3076172","-0.95214844","-0.29785156","-7.71875","18.34375","-1.0"
"1573730414562","529","0.31640625","-0.9033203","-0.2734375","-11.625","30.5","1.6875"
"1573730415151","530","0.30664062","-0.9169922","-0.26757812","-23.625","23.84375","2.1875"
"1573730415151","531","0.3095703","-0.92871094","-0.296875","-12.78125","19.40625","4.125"
"1573730415152","532","0.32714844","-0.92285156","-0.29589844","-10.40625","21.28125","5.34375"
"1573730415152","533","0.32910156","-0.88671875","-0.29296875","-18.8125","17.125","7.0"
"1573730415152","534","0.3154297","-0.9345703","-0.29882812","5.78125","12.625","1.21875"
"1573730415152","535","0.33496094","-0.90234375","-0.3095703","7.125","2.5","2.4375"
"1573730415153","536","0.3154297","-0.92871094","-0.2734375","2.4375","3.46875","2.90625"
"1573730415153","537","0.3125","-0.88671875","-0.26464844","-5.875","0.34375","0.90625"
"1573730415153","538","0.29785156","-0.92871094","-0.2763672","6.8125","2.0","-0.5625"
"1573730415153","539","0.2861328","-0.91308594","-0.27246094","10.90625","3.40625","0.0"
"1573730415355","540","0.3359375","-0.9404297","-0.27734375","8.46875","1.4375","-1.65625"
"1573730415357","541","0.27734375","-0.89746094","-0.25390625","4.25","0.84375","0.78125"
"1573730415358","542","0.33203125","-0.9472656","-0.25195312","-1.0625","1.9375","-1.0625"
"1573730415358","543","0.2919922","-0.91503906","-0.265625","-2.59375","0.15625","0.65625"
"1573730415358","544","0.2919922","-0.9345703","-0.26953125","-2.15625","0.28125","-1.1875"
"1573730415358","545","0.31640625","-0.9345703","-0.27148438","2.0","0.71875","-0.1875"
"1573730415359","546","0.27246094","-0.9140625","-0.23535156","-5.9375","4.0625","0.40625"
"1573730415359","547","0.32910156","-0.94628906","-0.2578125","-3.875","2.65625","1.03125"
"1573730415359","548","0.32617188","-0.921875","-0.26660156","-1.53125","-2.75","2.375"
"1573730415359","549","0.28320312","-0.91796875","-0.2529297","-4.46875","-2.9375","1.3125"
"1573730415753","550","0.28320312","-0.9394531","-0.2529297","3.71875","-0.3125","0.21875"
"1573730415753","551","0.30566406","-0.9199219","-0.26953125","3.03125","-0.625","0.28125"
"1573730415754","552","0.29492188","-0.93359375","-0.2685547","0.90625","2.0","1.3125"
"1573730415754","553","0.29003906","-0.9345703","-0.25683594","-0.4375","3.46875","1.03125"
"1573730415754","554","0.30273438","-0.9355469","-0.25195312","-2.09375","2.71875","1.03125"
"1573730415755","555","0.27148438","-0.93847656","-0.25","-2.59375","3.40625","0.84375"
"1573730415755","556","0.28710938","-0.93066406","-0.2529297","0.71875","3.90625","0.90625"
"1573730415755","557","0.29882812","-0.9394531","-0.2548828","1.5625","2.3125","1.75"
"1573730415756","558","0.28320312","-0.9355469","-0.23828125","-1.96875","2.78125","1.6875"
"1573730415756","559","0.28515625","-0.9394531","-0.21972656","-3.0","3.15625","0.90625"
"1573730416148","560","0.2705078","-0.93359375","-0.25585938","2.78125","2.5","0.46875"
"1573730416149","561","0.2841797","-0.94140625","-0.22167969","-2.46875","5.34375","0.78125"
"1573730416149","562","0.3046875","-0.94140625","-0.22167969","-10.9375","2.3125","0.21875"
"1573730416149","563","0.27246094","-0.9472656","-0.24804688","2.78125","-4.96875","-1.78125"
"1573730416149","564","0.22851562","-0.93066406","-0.23144531","3.03125","-2.03125","-2.34375"
"1573730416150","565","0.28515625","-0.953125","-0.25585938","-0.375","5.96875","-1.53125"
"1573730416151","566","0.32910156","-0.9355469","-0.24902344","-4.15625","7.96875","0.84375"
"1573730416151","567","0.30859375","-0.9326172","-0.25585938","-0.0625","-0.25","0.0"
"1573730416151","568","0.24609375","-0.90625","-0.22558594","0.09375","4.8125","-0.4375"
"1573730416152","569","0.31152344","-0.95214844","-0.26367188","-4.15625","5.0625","-2.6875"
"1573730416548","570","0.3173828","-0.9375","-0.24804688","-5.15625","1.375","-2.15625"
"1573730416549","571","0.25976562","-0.9238281","-0.23046875","0.84375","-2.75","-3.5625"
"1573730416549","572","0.24023438","-0.93847656","-0.23535156","4.5625","4.375","-2.8125"
"1573730416549","573","0.35351562","-0.94140625","-0.24511719","-6.53125","7.1875","0.15625"
"1573730416550","574","0.32714844","-0.9560547","-0.25390625","-4.59375","-3.1875","-0.3125"
"1573730416550","575","0.21777344","-0.8984375","-0.20703125","-0.375","-6.1875","-1.96875"
"1573730416550","576","0.2685547","-0.9501953","-0.265625","1.21875","9.125","-3.875"
"1573730416551","577","0.34375","-0.95703125","-0.26464844","-5.8125","9.625","-2.53125"
"1573730416551","578","0.30078125","-0.9140625","-0.23144531","-6.0","-3.4375","-1.90625"
"1573730416551","579","0.26953125","-0.8984375","-0.23828125","2.4375","1.75","-1.34375"
"1573730416945","580","0.32617188","-0.96972656","-0.2578125","-1.65625","8.40625","-0.6875"
"1573730416945","581","0.3359375","-0.93847656","-0.25097656","1.09375","-1.84375","-0.4375"
"1573730416946","582","0.2548828","-0.88378906","-0.20703125","0.96875","-3.5625","-0.375"
"1573730416946","583","0.28320312","-0.9355469","-0.2548828","1.5","7.90625","-1.125"
"1573730416946","584","0.359375","-0.9863281","-0.28320312","-2.625","4.8125","-1.78125"
"1573730416946","585","0.2939453","-0.89453125","-0.23925781","2.375","-6.1875","-0.4375"
"1573730416947","586","0.2265625","-0.9013672","-0.18847656","-1.78125","5.1875","-1.34375"
"1573730416947","587","0.32617188","-0.984375","-0.2783203","-3.8125","9.1875","-3.0"
"1573730416947","588","0.34960938","-0.9404297","-0.26367188","-3.75","2.84375","-1.40625"
"1573730416948","589","0.25976562","-0.88671875","-0.19433594","-3.0","2.59375","-0.9375"
"1573730417342","590","0.2998047","-0.9345703","-0.23144531","-5.75","7.3125","-2.09375"
"1573730417342","591","0.34960938","-0.9658203","-0.29882812","0.03125","3.21875","-1.3125"
"1573730417343","592","0.2998047","-0.91015625","-0.22167969","-1.1875","-2.15625","-0.1875"
"1573730417343","593","0.28125","-0.9003906","-0.22558594","2.96875","0.65625","-1.40625"
"1573730417343","594","0.3095703","-0.9638672","-0.26464844","-2.6875","5.96875","-3.3125"
"1573730417344","595","0.34375","-0.9472656","-0.25195312","-2.625","-1.71875","-2.15625"
"1573730417344","596","0.27929688","-0.90234375","-0.21191406","2.96875","-2.9375","-3.0625"
"1573730417344","597","0.28222656","-0.9189453","-0.23046875","-4.59375","2.90625","-2.75"
"1573730417344","598","0.36328125","-0.9736328","-0.28515625","-5.03125","1.03125","-1.1875"
"1573730417345","599","0.3173828","-0.9199219","-0.24902344","1.8125","-2.6875","1.3125"
"1573730417739","600","0.2548828","-0.90722656","-0.21484375","1.9375","-0.75","-1.96875"
"1573730417740","601","0.31933594","-0.9375","-0.26367188","-4.46875","4.375","-2.46875"
"1573730417740","602","0.39648438","-0.9433594","-0.2783203","1.625","-1.34375","0.53125"
"1573730417740","603","0.3046875","-0.9033203","-0.22167969","6.5","-10.5","2.125"
"1573730417740","604","0.25976562","-0.9121094","-0.23730469","0.0","-6.4375","-2.34375"
"1573730417741","605","0.3408203","-0.9589844","-0.25097656","-7.21875","-2.28125","-2.6875"
"1573730417741","606","0.31152344","-0.93847656","-0.24023438","2.96875","-5.21875","-0.625"
"1573730417741","607","0.24804688","-0.9169922","-0.20996094","-2.09375","-1.90625","-4.15625"
"1573730417741","608","0.29589844","-0.92285156","-0.23925781","-5.3125","4.5","-3.5"
"1573730417741","609","0.3671875","-0.9550781","-0.2734375","-4.28125","3.46875","0.90625"
"1573730418333","610","0.32910156","-0.9355469","-0.22949219","2.5","0.84375","0.71875"
"1573730418334","611","0.2548828","-0.92089844","-0.20996094","2.0625","-3.4375","-2.875"
"1573730418334","612","0.3046875","-0.91503906","-0.24023438","-7.9375","4.6875","-3.4375"
"1573730418335","613","0.375","-0.9355469","-0.2998047","-7.59375","2.59375","0.03125"
"1573730418336","614","0.35351562","-0.9394531","-0.26171875","6.625","-5.875","2.125"
"1573730418336","615","0.20605469","-0.9042969","-0.20800781","-3.125","-3.5","-1.78125"
"1573730418336","616","0.3076172","-0.94433594","-0.265625","-6.5","6.40625","-1.90625"
"1573730418337","617","0.35546875","-0.95214844","-0.25683594","0.46875","4.5625","1.03125"
"1573730418337","618","0.27734375","-0.90234375","-0.22753906","-0.5","3.53125","1.6875"
"1573730418337","619","0.2998047","-0.93847656","-0.25585938","-5.5","7.625","-0.625"
"1573730418533","620","0.33691406","-0.9326172","-0.26757812","-5.75","6.40625","-1.40625"
"1573730418534","621","0.3203125","-0.9238281","-0.2607422","-3.0","4.375","-0.4375"
"1573730418534","622","0.2890625","-0.9189453","-0.26171875","-1.0","5.34375","-1.71875"
"1573730418534","623","0.31933594","-0.92089844","-0.24609375","-1.78125","7.4375","-1.84375"
"1573730418535","624","0.3173828","-0.9375","-0.2705078","-1.25","4.375","-1.65625"
"1573730418536","625","0.32421875","-0.9189453","-0.2607422","0.0","5.65625","-0.875"
"1573730418536","626","0.3046875","-0.9189453","-0.2421875","-2.40625","5.96875","-0.75"
"1573730418537","627","0.3046875","-0.9316406","-0.25","-3.5","3.34375","-1.53125"
"1573730418537","628","0.32226562","-0.9326172","-0.2685547","-2.28125","9.625","-0.5625"
"1573730418537","629","0.34472656","-0.92871094","-0.22753906","-1.96875","8.09375","-0.1875"
"1573730419131","630","0.28320312","-0.9042969","-0.24511719","1.21875","0.34375","-0.5625"
"1573730419131","631","0.3046875","-0.9199219","-0.23339844","-3.5625","6.75","-1.25"
"1573730419132","632","0.3310547","-0.94140625","-0.26367188","-8.625","8.96875","-0.8125"
"1573730419132","633","0.3408203","-0.9345703","-0.24902344","1.75","2.1875","0.15625"
"1573730419132","634","0.28808594","-0.89746094","-0.20996094","-0.25","-0.5625","-0.875"
"1573730419132","635","0.32617188","-0.9189453","-0.2607422","-2.875","4.1875","-0.125"
"1573730419133","636","0.3486328","-0.95214844","-0.26464844","-6.65625","6.8125","1.375"
"1573730419134","637","0.29589844","-0.9316406","-0.21777344","3.03125","-3.25","-0.9375"
"1573730419134","638","0.27246094","-0.89746094","-0.20507812","4.5625","1.5","-2.53125"
"1573730419134","639","0.32714844","-0.94433594","-0.25683594","-2.21875","4.8125","-1.0"
"1573730419330","640","0.3720703","-0.921875","-0.26660156","-0.75","1.03125","2.90625"
"1573730419330","641","0.28808594","-0.91015625","-0.21289062","-3.375","0.71875","2.5"
"1573730419330","642","0.2763672","-0.9355469","-0.24609375","-4.03125","-2.40625","-3.625"
"1573730419331","643","0.32226562","-0.93066406","-0.25585938","-0.8125","1.28125","-2.28125"
"1573730419331","644","0.32226562","-0.9316406","-0.22851562","0.78125","2.84375","-0.1875"
"1573730419331","645","0.32128906","-0.9169922","-0.23535156","-1.1875","-0.1875","0.28125"
"1573730419331","646","0.32421875","-0.92871094","-0.2626953","0.03125","0.0","0.53125"
"1573730419332","647","0.30859375","-0.9355469","-0.21777344","-1.3125","1.5","-0.125"
"1573730419332","648","0.3125","-0.9501953","-0.234375","7.84375","-2.59375","1.15625"
"1573730419333","649","0.29101562","-0.921875","-0.20019531","-1.78125","2.5","0.28125"
"1573730419726","650","0.30664062","-0.8955078","-0.265625","-4.78125","4.6875","0.15625"
"1573730419726","651","0.35546875","-0.94628906","-0.28222656","-3.25","2.59375","2.4375"
"1573730419726","652","0.31933594","-0.8876953","-0.24414062","-3.75","5.59375","2.65625"
"1573730419727","653","0.30566406","-0.9433594","-0.24121094","2.5","0.21875","-1.1875"
"1573730419727","654","0.30664062","-0.94433594","-0.23535156","5.96875","-2.46875","-3.0"
"1573730419727","655","0.29101562","-0.92089844","-0.22070312","0.90625","0.84375","-2.53125"
"1573730419727","656","0.33203125","-0.9355469","-0.23632812","0.53125","1.5","-1.25"
"1573730419728","657","0.31445312","-0.9296875","-0.25195312","2.125","-0.5","-0.6875"
"1573730419728","658","0.3173828","-0.9404297","-0.22460938","1.3125","2.5","0.65625"
"1573730419728","659","0.30566406","-0.9296875","-0.20214844","-3.5","2.25","-0.125"
"1573730420124","660","0.30078125","-0.9501953","-0.20800781","-1.78125","-1.25","-1.125"
"1573730420125","661","0.3046875","-0.9326172","-0.22558594","-0.9375","-1.59375","-1.125"
"1573730420125","662","0.3046875","-0.9394531","-0.21484375","-3.90625","-0.5","-1.59375"
"1573730420125","663","0.30273438","-0.9267578","-0.21875","-2.875","-2.8125","-2.46875"
"1573730420125","664","0.29296875","-0.9453125","-0.22265625","1.28125","-1.90625","-2.34375"
"1573730420126","665","0.32910156","-0.9111328","-0.21972656","-1.0","-1.71875","-0.9375"
"1573730420126","666","0.30273438","-0.9394531","-0.23925781","-0.625","-5.21875","-1.53125"
"1573730420126","667","0.31640625","-0.9248047","-0.23925781","0.59375","-3.375","-1.84375"
"1573730420126","668","0.2919922","-0.94628906","-0.21386719","-0.75","-2.40625","-2.03125"
"1573730420127","669","0.3017578","-0.92871094","-0.20800781","-2.8125","-2.75","-2.8125"
"1573730420522","670","0.31933594","-0.9267578","-0.24316406","-2.21875","-1.25","-1.96875"
"1573730420522","671","0.28515625","-0.9404297","-0.21972656","-4.34375","1.5625","-1.96875"
"1573730420523","672","0.31347656","-0.9111328","-0.23828125","-11.5625","3.84375","-1.25"
"1573730420524","673","0.32128906","-0.9423828","-0.2548828","-5.15625","-1.25","-1.1875"
"1573730420525","674","0.3076172","-0.9189453","-0.24804688","-3.625","-2.46875","-1.34375"
"1573730420525","675","0.33203125","-0.9140625","-0.26171875","-1.71875","-2.21875","0.0"
"1573730420525","676","0.2998047","-0.9433594","-0.26171875","0.71875","-2.40625","0.0"
"1573730420526","677","0.29296875","-0.89941406","-0.23144531","1.75","3.46875","-0.1875"
"1573730420526","678","0.31347656","-0.9472656","-0.24121094","-4.09375","4.875","0.90625"
"1573730420526","679","0.3310547","-0.9140625","-0.26367188","2.1875","1.875","0.46875"
"1573730421114","680","0.31152344","-0.9326172","-0.24804688","0.46875","3.40625","2.125"
"1573730421114","681","0.3388672","-0.91503906","-0.26171875","2.96875","0.96875","1.15625"
"1573730421115","682","0.3203125","-0.9345703","-0.24511719","3.15625","-1.1875","0.09375"
"1573730421115","683","0.296875","-0.9248047","-0.22949219","-2.09375","-0.75","-1.25"
"1573730421115","684","0.3203125","-0.93359375","-0.23925781","-2.46875","0.78125","-0.4375"
"1573730421116","685","0.3251953","-0.92871094","-0.25","-0.8125","-1.71875","-0.5"
"1573730421116","686","0.28515625","-0.93066406","-0.24902344","-0.625","0.59375","-1.53125"
"1573730421117","687","0.31933594","-0.93066406","-0.24316406","-3.4375","2.5","-1.125"
"1573730421117","688","0.29589844","-0.9199219","-0.23535156","-3.625","4.625","-0.5625"
"1573730421117","689","0.3232422","-0.94921875","-0.2421875","0.34375","7.125","-0.6875"
"1573730421317","690","0.29101562","-0.9082031","-0.23925781","4.1875","6.34375","0.65625"
"1573730421317","691","0.31152344","-0.94140625","-0.22753906","-1.71875","11.75","1.15625"
"1573730421317","692","0.38378906","-0.9169922","-0.23828125","-8.5","10.40625","5.65625"
"1573730421318","693","0.2890625","-0.9501953","-0.23535156","7.8125","0.0","0.78125"
"1573730421318","694","0.2529297","-0.92871094","-0.21191406","6.21875","2.375","-2.8125"
"1573730421318","695","0.27246094","-0.9238281","-0.19335938","6.46875","4.5625","-5.4375"
"1573730421319","696","0.3466797","-0.94921875","-0.22265625","5.34375","3.90625","-1.71875"
"1573730421320","697","0.33203125","-0.9375","-0.24023438","2.25","4.0","0.03125"
"1573730421320","698","0.2705078","-0.9433594","-0.20800781","0.78125","4.25","-2.6875"
"1573730421321","699","0.33203125","-0.9296875","-0.1875","5.90625","6.6875","-2.21875"
"1573730421713","700","0.32128906","-0.9296875","-0.18261719","2.1875","3.46875","-1.78125"
"1573730421714","701","0.30273438","-0.9326172","-0.20800781","-0.375","1.3125","-3.1875"
"1573730421714","702","0.3154297","-0.9248047","-0.19335938","-1.53125","4.5","-2.8125"
"1573730421714","703","0.33789062","-0.9482422","-0.19921875","-4.46875","4.375","-2.21875"
"1573730421714","704","0.33984375","-0.9404297","-0.19238281","-6.4375","-2.03125","-1.34375"
"1573730421715","705","0.29589844","-0.9169922","-0.19433594","-1.90625","-4.65625","-2.9375"
"1573730421715","706","0.31640625","-0.9501953","-0.19628906","-2.40625","-2.21875","-3.625"
"1573730421715","707","0.32128906","-0.9169922","-0.19921875","-1.46875","-2.46875","-2.625"
"1573730421715","708","0.3046875","-0.9472656","-0.19433594","-3.6875","0.65625","-2.15625"
"1573730421717","709","0.3310547","-0.93847656","-0.21289062","3.59375","0.0","-0.1875"
"1573730422111","710","0.30859375","-0.9375","-0.18164062","-5.75","2.84375","1.875"
"1573730422112","711","0.34277344","-0.9355469","-0.20117188","-4.40625","6.9375","1.875"
"1573730422112","712","0.3154297","-0.9277344","-0.23535156","-3.8125","2.4375","-0.1875"
"1573730422112","713","0.35351562","-0.9267578","-0.22558594","4.125","1.375","2.25"
"1573730422113","714","0.33984375","-0.90722656","-0.19824219","2.65625","0.84375","2.25"
"1573730422113","715","0.31152344","-0.94628906","-0.1953125","1.8125","-5.8125","-0.25"
"1573730422113","716","0.33203125","-0.9169922","-0.19238281","3.28125","-10.03125","-0.75"
"1573730422113","717","0.27539062","-0.9423828","-0.18945312","-2.34375","-9.40625","-0.8125"
"1573730422114","718","0.31054688","-0.9355469","-0.20214844","-0.625","-7.8125","-2.75"
"1573730422114","719","0.2998047","-0.9296875","-0.21972656","-0.375","-8.375","-1.1875"
"1573730422510","720","0.33789062","-0.94433594","-0.21191406","0.96875","-6.59375","-0.5625"
"1573730422511","721","0.296875","-0.93066406","-0.19824219","1.28125","-5.4375","0.34375"
"1573730422512","722","0.2861328","-0.9472656","-0.2109375","-0.875","-2.875","-1.3125"
"1573730422512","723","0.31445312","-0.9404297","-0.22167969","-1.46875","-0.5","-2.09375"
"1573730422513","724","0.31152344","-0.9277344","-0.21289062","-1.0625","-0.5","-0.8125"
"1573730422513","725","0.3154297","-0.9355469","-0.20507812","-2.28125","2.125","-0.875"
"1573730422513","726","0.31835938","-0.9433594","-0.19921875","-3.125","2.4375","-1.1875"
"1573730422513","727","0.3017578","-0.9169922","-0.203125","-3.375","1.09375","-1.34375"
"1573730422514","728","0.3251953","-0.93359375","-0.21386719","-4.03125","-0.25","-1.40625"
"1573730422514","729","0.3173828","-0.93652344","-0.21972656","-5.21875","0.40625","-2.03125"
"1573730422907","730","0.30664062","-0.9394531","-0.19824219","-4.15625","-0.1875","-2.875"
"1573730422908","731","0.30566406","-0.9238281","-0.21777344","-2.40625","-0.8125","-0.5"
"1573730422908","732","0.3125","-0.95703125","-0.20996094","-1.0","-0.25","-1.46875"
"1573730422909","733","0.30664062","-0.93066406","-0.20605469","-0.9375","-0.875","0.40625"
"1573730422910","734","0.27929688","-0.93066406","-0.203125","-1.125","2.5","-0.4375"
"1573730422910","735","0.31835938","-0.94140625","-0.2265625","-5.625","5.0625","0.09375"
"1573730422910","736","0.34179688","-0.9375","-0.22363281","-2.40625","4.75","1.3125"
"1573730422911","737","0.2861328","-0.9482422","-0.21386719","-0.125","6.625","0.78125"
"1573730422911","738","0.27734375","-0.9345703","-0.21875","-2.9375","9.625","-1.0"
"1573730422911","739","0.35253906","-0.9326172","-0.22265625","-0.625","13.0","-0.6875"
"1573730423305","740","0.34570312","-0.93847656","-0.22753906","0.90625","6.46875","1.5625"
"1573730423306","741","0.29296875","-0.921875","-0.22851562","-1.25","6.5","1.15625"
"1573730423306","742","0.31347656","-0.9296875","-0.21289062","-3.0625","9.1875","-1.59375"
"1573730423306","743","0.33496094","-0.94921875","-0.22070312","-1.53125","7.84375","-1.90625"
"1573730423307","744","0.31640625","-0.92578125","-0.203125","-6.0625","4.125","-1.40625"
"1573730423308","745","0.28320312","-0.91796875","-0.18945312","-4.28125","8.40625","-1.0"
"1573730423309","746","0.3388672","-0.97558594","-0.22949219","-11.625","14.09375","-0.25"
"1573730423309","747","0.35839844","-0.9169922","-0.20800781","-7.875","11.65625","0.03125"
"1573730423309","748","0.28027344","-0.91796875","-0.20019531","-9.59375","4.25","-0.125"
"1573730423309","749","0.29882812","-0.92285156","-0.22558594","-6.4375","8.40625","-1.1875"
"1573730423898","750","0.3720703","-0.96191406","-0.24707031","-4.46875","7.4375","-1.40625"
"1573730423899","751","0.29785156","-0.9199219","-0.20019531","-1.1875","5.84375","0.65625"
"1573730423899","752","0.2783203","-0.90527344","-0.19921875","2.65625","4.5625","-0.125"
"1573730423899","753","0.3515625","-0.9394531","-0.24609375","-0.0625","6.5","0.03125"
"1573730423899","754","0.33691406","-0.93652344","-0.20898438","0.34375","5.0","0.65625"
"1573730423900","755","0.28808594","-0.8935547","-0.17578125","-1.59375","1.3125","0.40625"
"1573730423900","756","0.3095703","-0.9355469","-0.21484375","-2.40625","3.28125","-0.9375"
"1573730423901","757","0.3388672","-0.9394531","-0.22070312","-4.21875","2.71875","-1.0"
"1573730423902","758","0.3173828","-0.92285156","-0.20605469","-4.90625","0.0","0.28125"
"1573730423902","759","0.3203125","-0.93847656","-0.20214844","-2.59375","0.03125","-0.375"
"1573730424296","760","0.30371094","-0.93652344","-0.23242188","-1.0625","0.40625","-1.34375"
"1573730424296","761","0.3046875","-0.9404297","-0.20898438","-2.09375","3.84375","-0.6875"
"1573730424296","762","0.39648438","-0.90722656","-0.22265625","3.40625","-2.75","1.5625"
"1573730424297","763","0.31933594","-0.9267578","-0.24121094","-5.21875","-10.40625","1.03125"
"1573730424297","764","0.25976562","-0.9355469","-0.21972656","-3.1875","-7.78125","-2.40625"
"1573730424297","765","0.3095703","-0.94140625","-0.20898438","-4.78125","-4.15625","-5.09375"
"1573730424297","766","0.33203125","-0.93066406","-0.2421875","4.6875","-5.25","-1.84375"
"1573730424298","767","0.3330078","-0.93652344","-0.21679688","-1.71875","-5.5","-0.5"
"1573730424298","768","0.2783203","-0.9199219","-0.20410156","-1.59375","-1.96875","-0.25"
"1573730424299","769","0.3232422","-0.95214844","-0.24609375","-0.8125","1.375","-0.8125"
"1573730424498","770","0.35546875","-0.92285156","-0.22558594","0.46875","-0.125","-0.1875"
"1573730424498","771","0.32421875","-0.9326172","-0.22167969","4.75","-7.28125","-1.34375"
"1573730424498","772","0.27441406","-0.9003906","-0.22949219","-0.375","-4.09375","-1.65625"
"1573730424499","773","0.34570312","-0.9501953","-0.24707031","-9.40625","0.59375","-2.03125"
"1573730424499","774","0.3388672","-0.93847656","-0.23828125","1.375","-3.90625","-1.40625"
"1573730424499","775","0.2421875","-0.90722656","-0.19042969","-0.375","-3.0625","-3.5625"
"1573730424499","776","0.29296875","-0.94921875","-0.23339844","-5.09375","5.59375","-4.34375"
"1573730424500","777","0.37890625","-0.9238281","-0.25390625","1.03125","4.0","0.0"
"1573730424500","778","0.34472656","-0.9296875","-0.23535156","1.625","0.03125","2.1875"
"1573730424500","779","0.26660156","-0.91308594","-0.2109375","-0.5","0.46875","0.0"
"1573730424893","780","0.3359375","-0.94921875","-0.25","-4.21875","0.40625","-1.25"
"1573730424894","781","0.31835938","-0.9248047","-0.23535156","-0.6875","-1.1875","-1.59375"
"1573730424895","782","0.31054688","-0.92578125","-0.22558594","0.15625","-4.71875","-1.46875"
"1573730424895","783","0.29589844","-0.9248047","-0.24121094","-3.0","-0.8125","-2.9375"
"1573730424895","784","0.30566406","-0.94628906","-0.24316406","-4.96875","2.84375","-2.6875"
"1573730424896","785","0.34277344","-0.92871094","-0.23828125","3.40625","1.15625","-2.75"
"1573730424896","786","0.3125","-0.9277344","-0.21484375","2.59375","-2.6875","-0.75"
"1573730424896","787","0.29785156","-0.9140625","-0.21777344","-5.4375","0.59375","-2.03125"
"1573730424896","788","0.3828125","-0.95214844","-0.2607422","-2.34375","-0.1875","0.65625"
"1573730424897","789","0.3125","-0.9248047","-0.23339844","3.03125","-2.59375","1.8125"
"1573730425292","790","0.26953125","-0.921875","-0.22265625","-2.34375","1.3125","-0.1875"
"1573730425293","791","0.3095703","-0.9375","-0.24121094","-6.375","6.15625","-1.53125"
"1573730425293","792","0.3466797","-0.91308594","-0.23535156","2.65625","8.84375","1.5"
"1573730425294","793","0.33007812","-0.9169922","-0.23046875","2.0","7.25","2.90625"
"1573730425295","794","0.29882812","-0.93066406","-0.23925781","2.5625","7.90625","0.28125"
"1573730425295","795","0.30078125","-0.9433594","-0.21875","-3.0625","5.71875","-0.4375"
"1573730425295","796","0.3017578","-0.91503906","-0.21679688","1.15625","11.59375","-1.25"
"1573730425296","797","0.33789062","-0.92871094","-0.2265625","-1.40625","12.875","-0.875"
"1573730425296","798","0.34375","-0.9296875","-0.22265625","0.71875","7.5625","-0.75"
"1573730425296","799","0.33496094","-0.93652344","-0.19824219","4.5625","1.875","-0.875"
"1573730425886","800","0.3046875","-0.92089844","-0.18261719","-0.875","2.125","-1.65625"
"1573730425886","801","0.35058594","-0.93847656","-0.19042969","-1.84375","-2.46875","-0.375"
"1573730425887","802","0.28125","-0.9121094","-0.20507812","-2.6875","-2.03125","-0.75"
"1573730425887","803","0.3017578","-0.9345703","-0.22460938","-7.53125","-1.0","-2.6875"
"1573730425887","804","0.33691406","-0.93847656","-0.21972656","3.59375","-0.625","-0.3125"
"1573730425888","805","0.3203125","-0.9472656","-0.18261719","-2.28125","-0.875","-2.34375"
"1573730425889","806","0.32128906","-0.9316406","-0.18847656","0.90625","-7.9375","-2.28125"
"1573730425889","807","0.27929688","-0.92285156","-0.18066406","-2.875","-6.65625","-2.8125"
"1573730425889","808","0.3154297","-0.92871094","-0.23046875","-6.0","-3.3125","-1.1875"
"1573730425890","809","0.36328125","-0.93652344","-0.24707031","4.1875","-4.21875","0.71875"
"1573730426087","810","0.2939453","-0.9238281","-0.20117188","3.28125","-6.0","1.21875"
"1573730426088","811","0.31835938","-0.94628906","-0.20703125","1.8125","-3.5625","0.03125"
"1573730426088","812","0.32128906","-0.9375","-0.22265625","2.78125","-2.40625","-0.5"
"1573730426088","813","0.31347656","-0.93847656","-0.22851562","3.59375","-2.75","-0.4375"
"1573730426089","814","0.31347656","-0.9296875","-0.20507812","5.40625","0.15625","1.3125"
"1573730426089","815","0.30371094","-0.9394531","-0.19824219","1.5625","2.65625","0.84375"
"1573730426090","816","0.3154297","-0.9355469","-0.18945312","-1.34375","0.59375","0.28125"
"1573730426090","817","0.30078125","-0.9345703","-0.19824219","-3.5625","-1.25","0.15625"
"1573730426090","818","0.3251953","-0.93847656","-0.21972656","-2.9375","-1.34375","-1.46875"
"1573730426090","819","0.30664062","-0.9404297","-0.203125","-4.09375","-0.625","-1.59375"
"1573730426679","820","0.31347656","-0.9326172","-0.18945312","-2.40625","-0.4375","-1.78125"
"1573730426679","821","0.3017578","-0.9550781","-0.20605469","-3.5","0.78125","-1.78125"
"1573730426679","822","0.30078125","-0.9277344","-0.19921875","-3.375","0.03125","-2.09375"
"1573730426680","823","0.31347656","-0.9375","-0.21289062","-3.6875","2.25","-1.1875"
"1573730426680","824","0.31835938","-0.93066406","-0.23144531","-3.4375","0.96875","-0.875"
"1573730426680","825","0.3173828","-0.93847656","-0.23339844","-3.5","2.59375","-0.875"
"1573730426680","826","0.31835938","-0.9326172","-0.21679688","-4.21875","2.96875","-1.3125"
"1573730426681","827","0.31835938","-0.93359375","-0.2265625","-6.125","3.84375","-1.1875"
"1573730426681","828","0.31835938","-0.9345703","-0.23242188","-4.53125","3.84375","-3.0"
"1573730426682","829","0.3154297","-0.9121094","-0.24511719","-3.8125","7.96875","-1.40625"
"1573730426882","830","0.3330078","-0.9423828","-0.23632812","-1.65625","9.1875","-2.34375"
"1573730426883","831","0.3125","-0.91015625","-0.2265625","-3.375","5.84375","-1.53125"
"1573730426883","832","0.31835938","-0.9472656","-0.23535156","-7.53125","7.5","-1.1875"
"1573730426884","833","0.32226562","-0.9091797","-0.21875","3.34375","11.03125","0.03125"
"1573730426884","834","0.32128906","-0.95410156","-0.23339844","-5.15625","11.46875","0.65625"
"1573730426884","835","0.3251953","-0.9042969","-0.21777344","-0.6875","4.125","-1.65625"
"1573730426884","836","0.33203125","-0.9277344","-0.22558594","-2.15625","5.40625","0.09375"
"1573730426885","837","0.33203125","-0.9316406","-0.22460938","6.5625","4.8125","-0.3125"
"1573730426885","838","0.31835938","-0.9238281","-0.22265625","3.59375","4.0","0.53125"
"1573730426885","839","0.33984375","-0.93847656","-0.20703125","8.46875","2.65625","0.0"
"1573730427279","840","0.30664062","-0.9160156","-0.19042969","6.9375","8.71875","1.21875"
"1573730427281","841","0.33203125","-0.9511719","-0.20410156","3.34375","2.78125","-0.625"
"1573730427281","842","0.33398438","-0.91503906","-0.19042969","7.0","7.125","0.65625"
"1573730427282","843","0.29785156","-0.92871094","-0.16601562","4.9375","4.125","0.0"
"1573730427282","844","0.32617188","-0.9394531","-0.17871094","4.75","3.34375","-0.4375"
"1573730427282","845","0.33007812","-0.9248047","-0.16015625","2.0625","5.125","0.65625"
"1573730427282","846","0.29785156","-0.9355469","-0.15722656","-1.0","3.84375","-0.125"
"1573730427283","847","0.34472656","-0.94433594","-0.171875","-4.15625","2.3125","1.5"
"1573730427283","848","0.31054688","-0.92578125","-0.17382812","-4.84375","1.625","0.71875"
"1573730427283","849","0.32714844","-0.9423828","-0.16894531","-3.8125","1.15625","0.46875"
"1573730427676","850","0.32910156","-0.92089844","-0.17382812","-5.625","-0.3125","0.34375"
"1573730427676","851","0.3095703","-0.9375","-0.16503906","-6.375","1.15625","0.65625"
"1573730427676","852","0.32421875","-0.9345703","-0.19140625","0.78125","0.53125","-0.4375"
"1573730427677","853","0.328125","-0.9404297","-0.171875","-5.15625","-1.59375","1.15625"
"1573730427678","854","0.30664062","-0.93066406","-0.18261719","-9.0625","-2.75","-0.6875"
"1573730427678","855","0.32226562","-0.94433594","-0.20996094","-1.65625","-5.21875","-1.40625"
"1573730427678","856","0.31152344","-0.9453125","-0.18164062","-3.1875","-3.96875","-1.53125"
"1573730427679","857","0.30273438","-0.9267578","-0.19238281","-3.25","-3.875","0.03125"
"1573730427679","858","0.31054688","-0.94628906","-0.19726562","-3.90625","-3.5","-1.90625"
"1573730427679","859","0.3232422","-0.9316406","-0.19140625","-1.46875","-4.34375","-0.375"
"1573730428867","860","0.3154297","-0.92578125","-0.19824219","-2.8125","-3.375","-0.4375"
"1573730428869","861","0.30273438","-0.9501953","-0.21191406","-1.65625","-6.25","-0.8125"
"1573730428869","862","0.31445312","-0.95410156","-0.19042969","-1.125","-4.78125","-0.875"
"1573730428870","863","0.29492188","-0.9482422","-0.18359375","-0.75","-3.3125","-1.46875"
"1573730428870","864","0.29296875","-0.9433594","-0.19140625","-0.5","-1.0","-1.25"
"1573730428871","865","0.31445312","-0.92578125","-0.21289062","-3.5","1.8125","0.28125"
"1573730428872","866","0.3330078","-0.9511719","-0.2109375","-3.6875","1.5625","0.65625"
"1573730428872","867","0.30371094","-0.9248047","-0.19140625","-2.46875","0.71875","0.15625"
"1573730428872","868","0.29492188","-0.9277344","-0.19726562","-5.21875","5.28125","0.28125"
"1573730428873","869","0.33007812","-0.9667969","-0.1875","-4.09375","3.34375","0.65625"
"1573730428873","870","0.30078125","-0.9267578","-0.19238281","-2.8125","-2.53125","-0.1875"
"1573730428874","871","0.2734375","-0.9238281","-0.21679688","-6.5","1.9375","-1.96875"
"1573730428874","872","0.35839844","-0.953125","-0.24804688","-1.1875","3.34375","-0.875"
"1573730428874","873","0.31835938","-0.9472656","-0.20898438","1.9375","-2.40625","-0.5625"
"1573730428875","874","0.28515625","-0.91503906","-0.203125","-0.6875","1.625","0.78125"
"1573730428875","875","0.2919922","-0.93652344","-0.22753906","-4.40625","-0.625","-1.53125"
"1573730428875","876","0.33789062","-0.93652344","-0.21386719","-3.375","-1.40625","0.0"
"1573730428876","877","0.32714844","-0.93066406","-0.25195312","0.71875","-3.5","0.0"
"1573730428876","878","0.24902344","-0.94628906","-0.20507812","0.59375","-2.09375","-1.84375"
"1573730428876","879","0.3125","-0.94628906","-0.19433594","0.21875","3.34375","-1.59375"
"1573730429067","880","0.3046875","-0.9550781","-0.22363281","2.78125","2.96875","-0.1875"
"1573730429067","881","0.31054688","-0.9189453","-0.19921875","-1.0","-0.0625","-0.125"
"1573730429068","882","0.31347656","-0.9248047","-0.22753906","-4.40625","1.375","0.90625"
"1573730429068","883","0.328125","-0.9355469","-0.25","-2.8125","0.40625","0.65625"
"1573730429068","884","0.3359375","-0.9375","-0.22558594","-4.59375","-3.875","0.03125"
"1573730429068","885","0.27148438","-0.94628906","-0.23144531","-2.28125","-3.1875","-3.875"
"1573730429069","886","0.22460938","-0.91015625","-0.22070312","-13.875","11.09375","-5.875"
"1573730429069","887","0.36132812","-0.9316406","-0.23339844","-12.46875","14.28125","-3.0"
"1573730429069","888","0.37402344","-0.9638672","-0.2607422","6.9375","14.375","0.21875"
"1573730429070","889","0.20214844","-0.9199219","-0.17773438","4.1875","11.59375","-2.34375"
"1573730429266","890","0.3076172","-0.9160156","-0.18066406","-14.34375","14.6875","-1.90625"
"1573730429266","891","0.43359375","-0.9355469","-0.27441406","-6.5","11.75","3.53125"
"1573730429266","892","0.37402344","-0.9316406","-0.24023438","-5.375","0.03125","6.6875"
"1573730429266","893","0.18066406","-0.9121094","-0.20996094","-2.9375","-0.0625","-0.8125"
"1573730429267","894","0.31347656","-0.9511719","-0.24707031","2.3125","8.21875","-5.6875"
"1573730429267","895","0.36914062","-0.9375","-0.23339844","-8.75","5.1875","-1.53125"
"1573730429267","896","0.29296875","-0.9121094","-0.19433594","-6.25","5.46875","-0.1875"
"1573730429267","897","0.2890625","-0.9394531","-0.22070312","-11.5","10.3125","-0.3125"
"1573730429268","898","0.31933594","-0.9453125","-0.25683594","-8.5625","10.3125","-0.9375"
"1573730429268","899","0.3203125","-0.9091797","-0.22265625","-8.3125","8.28125","-1.40625"
"1573730430060","900","0.328125","-0.9160156","-0.25","-1.78125","6.625","-0.375"
"1573730430061","901","0.36132812","-0.9482422","-0.25976562","-13.375","7.3125","1.03125"
"1573730430062","902","0.3330078","-0.9267578","-0.20898438","-0.5","5.1875","-1.46875"
"1573730430062","903","0.3076172","-0.89453125","-0.21386719","3.59375","0.71875","-0.375"
"1573730430062","904","0.29589844","-0.87597656","-0.21191406","-3.625","-3.0625","-1.78125"
"1573730430063","905","0.27734375","-0.95214844","-0.2421875","-5.03125","1.375","-5.875"
"1573730430063","906","0.3876953","-0.96191406","-0.25878906","-0.125","1.28125","-3.90625"
"1573730430064","907","0.30371094","-0.8876953","-0.20800781","-4.15625","-3.25","0.0"
"1573730430064","908","0.28125","-0.89746094","-0.22558594","-6.96875","-1.34375","-0.4375"
"1573730430064","909","0.3388672","-0.9501953","-0.27246094","-6.3125","-0.375","-0.4375"
"1573730430258","910","0.3642578","-0.9296875","-0.265625","0.90625","0.34375","0.90625"
"1573730430258","911","0.2890625","-0.91308594","-0.22265625","4.75","-3.96875","-0.9375"
"1573730430259","912","0.31054688","-0.9189453","-0.21777344","-1.96875","-3.5","-2.03125"
"1573730430260","913","0.36523438","-0.92285156","-0.29492188","0.84375","-4.90625","-1.46875"
"1573730430260","914","0.32421875","-0.9248047","-0.26757812","6.40625","-7.59375","0.53125"
"1573730430260","915","0.22949219","-0.9160156","-0.23632812","-1.40625","2.4375","-3.75"
"1573730430261","916","0.39746094","-0.9472656","-0.25390625","-2.03125","-0.0625","-3.375"
"1573730430261","917","0.3544922","-0.9140625","-0.25976562","3.15625","-8.125","0.40625"
"1573730430261","918","0.26464844","-0.9121094","-0.21875","-3.125","-6.90625","-0.875"
"1573730430261","919","0.3076172","-0.92285156","-0.2578125","-6.0625","-2.875","-1.71875"
"1573730430460","920","0.3642578","-0.9375","-0.28515625","2.25","-3.5625","-1.1875"
"1573730430460","921","0.29882812","-0.9472656","-0.23925781","5.71875","-3.75","-1.96875"
"1573730430461","922","0.29296875","-0.9199219","-0.19824219","-1.34375","-6.375","-3.96875"
"1573730430461","923","0.25097656","-0.9140625","-0.24121094","-4.15625","-0.0625","-3.5"
"1573730430461","924","0.2998047","-0.9189453","-0.2919922","-7.8125","8.53125","-0.8125"
"1573730430462","925","0.4814453","-0.92871094","-0.3076172","3.21875","4.5625","5.90625"
"1573730430463","926","0.31152344","-0.9277344","-0.22753906","12.1875","-3.6875","3.90625"
"1573730430463","927","0.20605469","-0.9082031","-0.20703125","-4.15625","-5.03125","-0.4375"
"1573730430463","928","0.3330078","-0.93847656","-0.2626953","-11.625","4.875","-3.90625"
"1573730430464","929","0.42382812","-0.91015625","-0.2861328","6.15625","1.03125","2.65625"
"1573730430858","930","0.2705078","-0.9189453","-0.23242188","6.5","-3.0625","1.75"
"1573730430858","931","0.26660156","-0.92578125","-0.24316406","-2.15625","3.40625","-1.59375"
"1573730430859","932","0.3720703","-0.93066406","-0.25683594","-2.9375","4.5","-1.125"
"1573730430859","933","0.31933594","-0.93066406","-0.2578125","3.84375","-0.8125","2.125"
"1573730430859","934","0.3173828","-0.9248047","-0.23828125","5.21875","1.5","1.15625"
"1573730430859","935","0.29785156","-0.93359375","-0.25","1.875","0.40625","0.0"
"1573730430860","936","0.31347656","-0.94140625","-0.23730469","0.0","3.59375","-0.3125"
"1573730430861","937","0.31640625","-0.9326172","-0.23730469","1.9375","-2.34375","-0.5625"
"1573730430861","938","0.30078125","-0.9375","-0.2265625","2.5625","0.65625","0.21875"
"1573730430862","939","0.296875","-0.9423828","-0.22753906","0.40625","4.3125","0.40625"
"1573730431255","940","0.3173828","-0.94628906","-0.21875","-1.90625","7.0625","0.09375"
"1573730431255","941","0.29492188","-0.9189453","-0.234375","0.0","7.5","0.65625"
"1573730431255","942","0.3173828","-0.92871094","-0.21875","3.21875","7.8125","1.21875"
"1573730431256","943","0.31835938","-0.9404297","-0.22167969","5.53125","6.9375","-0.4375"
"1573730431256","944","0.3046875","-0.9277344","-0.21191406","2.65625","9.5625","-0.4375"
"1573730431256","945","0.30566406","-0.9238281","-0.19238281","3.90625","10.0625","0.0"
"1573730431256","946","0.3076172","-0.9472656","-0.21484375","6.15625","8.46875","-0.5"
"1573730431257","947","0.3076172","-0.9394531","-0.22070312","8.21875","12.0625","0.0"
"1573730431257","948","0.328125","-0.94628906","-0.1796875","3.46875","15.5625","-1.0"
"1573730431258","949","0.30859375","-0.95214844","-0.14746094","-4.90625","5.84375","-1.34375"
"1573730431651","950","0.30566406","-0.93066406","-0.16894531","-6.125","1.625","-2.59375"
"1573730431651","951","0.31640625","-0.9511719","-0.17480469","-8.5","2.78125","-1.71875"
"1573730431652","952","0.28808594","-0.9423828","-0.19433594","-7.71875","1.625","-5.09375"
"1573730431652","953","0.296875","-0.9404297","-0.17773438","-5.8125","3.03125","-3.25"
"1573730431652","954","0.32421875","-0.93066406","-0.1796875","-4.21875","9.5","-3.1875"
"1573730431652","955","0.3154297","-0.9433594","-0.18554688","-6.1875","4.6875","-0.5625"
"1573730431653","956","0.34179688","-0.9277344","-0.19042969","-12.34375","4.5","-0.9375"
"1573730431653","957","0.29882812","-0.9111328","-0.2109375","-3.6875","3.34375","0.03125"
"1573730431653","958","0.36132812","-0.9345703","-0.20898438","-2.09375","4.0","-0.1875"
"1573730431653","959","0.29296875","-0.921875","-0.1953125","-2.6875","1.9375","0.15625"
"1573730432050","960","0.3330078","-0.93847656","-0.20800781","0.71875","5.21875","-0.375"
"1573730432051","961","0.31054688","-0.9160156","-0.18554688","0.53125","4.125","0.28125"
"1573730432052","962","0.33984375","-0.9248047","-0.18261719","-2.75","5.28125","1.09375"
"1573730432052","963","0.3310547","-0.9453125","-0.20996094","-2.40625","2.5","0.65625"
"1573730432052","964","0.33691406","-0.9082031","-0.20996094","-3.3125","1.03125","2.3125"
"1573730432053","965","0.32617188","-0.90625","-0.17285156","-2.03125","8.65625","-0.1875"
"1573730432053","966","0.3125","-0.92089844","-0.22753906","-4.71875","0.96875","-0.3125"
"1573730432053","967","0.3330078","-0.9394531","-0.22558594","-7.03125","-1.59375","1.5"
"1573730432054","968","0.2841797","-0.9589844","-0.20703125","-3.6875","-6.65625","0.46875"
"1573730432054","969","0.30664062","-0.921875","-0.2265625","-0.9375","-2.59375","0.09375"
"1573730432447","970","0.33984375","-0.9638672","-0.23242188","0.28125","-9.125","0.03125"
"1573730432448","971","0.2919922","-0.91308594","-0.20214844","0.59375","-3.0","-0.1875"
"1573730432448","972","0.3203125","-0.94921875","-0.2109375","-5.5625","-0.5","-0.9375"
"1573730432449","973","0.3359375","-0.9189453","-0.21777344","1.375","-0.875","-1.1875"
"1573730432450","974","0.29003906","-0.9169922","-0.20996094","-10.6875","4.9375","-0.9375"
"1573730432450","975","0.35546875","-0.9550781","-0.25585938","-3.375","-0.5625","-1.96875"
"1573730432450","976","0.3017578","-0.9316406","-0.23730469","-5.3125","-4.53125","-1.96875"
"1573730432451","977","0.31054688","-0.9355469","-0.22949219","-6.3125","-2.625","-1.59375"
"1573730432451","978","0.30859375","-0.93359375","-0.22167969","-0.0625","-4.96875","-1.65625"
"1573730432451","979","0.31054688","-0.92871094","-0.234375","0.84375","-5.8125","-2.625"
"1573730432844","980","0.31640625","-0.94140625","-0.24804688","3.03125","-5.375","-1.40625"
"1573730432845","981","0.3125","-0.92578125","-0.22949219","0.96875","-4.09375","-1.90625"
"1573730432845","982","0.3076172","-0.9394531","-0.22460938","1.5625","-5.03125","-1.1875"
"1573730432845","983","0.3076172","-0.9296875","-0.20703125","1.5","-3.25","-1.125"
"1573730432845","984","0.31152344","-0.93652344","-0.22949219","2.25","-3.875","-0.125"
"1573730432847","985","0.31152344","-0.93652344","-0.22167969","0.03125","-1.96875","0.0"
"1573730432847","986","0.3017578","-0.94433594","-0.21972656","0.34375","-3.0","-0.5"
"1573730432848","987","0.29101562","-0.9355469","-0.2265625","-0.75","-0.5625","-1.46875"
"1573730432848","988","0.32910156","-0.9326172","-0.21679688","0.28125","0.84375","0.0"
"1573730432848","989","0.29882812","-0.9326172","-0.21386719","-3.0","-3.875","0.65625"
"1573730433241","990","0.31347656","-0.9375","-0.234375","-0.3125","-2.09375","0.46875"
"1573730433241","991","0.3017578","-0.94433594","-0.23925781","-0.75","-3.4375","-0.8125"
"1573730433241","992","0.31347656","-0.93847656","-0.24804688","-3.25","4.75","-0.5625"
"1573730433242","993","0.2861328","-0.9345703","-0.23535156","-6.78125","10.0","-0.5625"
"1573730433242","994","0.34277344","-0.94628906","-0.20703125","-3.3125","9.3125","-0.875"
"1573730433242","995","0.29589844","-0.92089844","-0.22363281","-1.3125","6.40625","-0.6875"
"1573730433243","996","0.2685547","-0.9238281","-0.22753906","1.3125","14.9375","0.15625"
"1573730433244","997","0.33496094","-0.9658203","-0.23046875","-9.40625","12.6875","0.28125"
"1573730433244","998","0.32128906","-0.9238281","-0.23144531","-13.375","9.4375","1.3125"
"1573730433244","999","0.29101562","-0.921875","-0.24707031","-7.40625","6.5","1.375"
"1573730434036","1000","0.30078125","-0.9267578","-0.2265625","-3.375","10.53125","-0.6875"
"1573730434037","1001","0.31933594","-0.9296875","-0.25195312","-9.84375","9.5","-0.25"
"1573730434037","1002","0.3330078","-0.94628906","-0.21582031","-6.78125","9.4375","-0.9375"
"1573730434037","1003","0.31835938","-0.921875","-0.22363281","-2.03125","-1.0","-1.78125"
"1573730434038","1004","0.27734375","-0.90527344","-0.21582031","-3.96875","1.625","-3.0625"
"1573730434038","1005","0.3388672","-0.9423828","-0.25585938","-5.8125","8.53125","-1.78125"
"1573730434038","1006","0.36328125","-0.9277344","-0.22851562","0.84375","4.0","0.09375"
"1573730434038","1007","0.28027344","-0.91015625","-0.21679688","-1.125","-2.28125","-0.375"
"1573730434039","1008","0.28515625","-0.9248047","-0.23144531","-0.3125","2.125","-1.1875"
"1573730434040","1009","0.3232422","-0.9472656","-0.24804688","0.21875","5.53125","-0.625"
"1573730434041","1010","0.31054688","-0.9189453","-0.23144531","-1.125","3.40625","-0.125"
"1573730434041","1011","0.30371094","-0.9189453","-0.22753906","2.125","2.65625","0.40625"
"1573730434041","1012","0.32128906","-0.9355469","-0.234375","-3.90625","4.0","-0.5625"
"1573730434041","1013","0.3408203","-0.93359375","-0.23632812","-3.375","-0.9375","-2.03125"
"1573730434042","1014","0.28515625","-0.90234375","-0.23828125","-2.59375","-3.4375","-2.46875"
"1573730434042","1015","0.31347656","-0.93066406","-0.24511719","-0.375","-0.0625","-2.75"
"1573730434042","1016","0.33496094","-0.9345703","-0.24804688","-0.1875","2.59375","-1.25"
"1573730434042","1017","0.32617188","-0.9375","-0.25390625","0.59375","-0.125","-1.78125"
"1573730434043","1018","0.296875","-0.9111328","-0.22949219","3.09375","1.3125","-1.71875"
"1573730434043","1019","0.32128906","-0.92871094","-0.234375","3.03125","-0.5625","-2.21875"
"1573730434436","1020","0.35351562","-0.9375","-0.26171875","1.75","3.34375","-0.625"
"1573730434437","1021","0.3125","-0.9277344","-0.23730469","1.03125","-3.5","-0.9375"
"1573730434438","1022","0.31445312","-0.9111328","-0.2265625","1.3125","0.0","-0.625"
"1573730434438","1023","0.3173828","-0.9355469","-0.2265625","-0.5625","-2.40625","-0.6875"
"1573730434438","1024","0.2705078","-0.9238281","-0.22949219","-1.34375","0.28125","-1.90625"
"1573730434439","1025","0.3408203","-0.9248047","-0.24804688","-1.71875","6.28125","-1.59375"
"1573730434439","1026","0.38867188","-0.92578125","-0.24609375","-6.5","2.0625","-0.125"
"1573730434439","1027","0.29785156","-0.9355469","-0.20996094","-2.8125","-2.21875","-1.71875"
"1573730434440","1028","0.27148438","-0.89160156","-0.22558594","0.71875","-2.40625","-5.3125"
"1573730434440","1029","0.3623047","-0.92285156","-0.23730469","-5.25","-0.8125","-4.34375"
"1573730435031","1030","0.3779297","-0.9658203","-0.2626953","-3.25","-5.8125","-2.53125"
"1573730435031","1031","0.2841797","-0.92089844","-0.21484375","1.8125","-9.0625","-4.53125"
"1573730435032","1032","0.24414062","-0.89453125","-0.21386719","-4.71875","-6.3125","-4.96875"
"1573730435033","1033","0.38183594","-0.9326172","-0.27539062","-6.4375","3.03125","-2.28125"
"1573730435034","1034","0.3798828","-0.9589844","-0.27734375","0.28125","-3.375","-0.4375"
"1573730435034","1035","0.2939453","-0.88183594","-0.19628906","2.71875","-4.53125","0.03125"
"1573730435034","1036","0.2763672","-0.9189453","-0.23242188","-6.125","-2.03125","-4.53125"
"1573730435035","1037","0.36816406","-0.9296875","-0.29003906","-5.09375","-1.78125","-2.53125"
"1573730435035","1038","0.3564453","-0.9111328","-0.24902344","2.3125","-3.3125","0.03125"
"1573730435035","1039","0.2919922","-0.92871094","-0.22460938","1.28125","-2.75","-1.59375"
"1573730435229","1040","0.35546875","-0.9238281","-0.26367188","0.21875","-4.15625","-2.21875"
"1573730435229","1041","0.3095703","-0.9267578","-0.23925781","2.25","-5.3125","-2.34375"
"1573730435230","1042","0.3310547","-0.9082031","-0.2265625","-2.875","-3.0","-1.0"
"1573730435230","1043","0.33789062","-0.93847656","-0.2626953","2.5","-0.3125","-1.0"
"1573730435230","1044","0.33203125","-0.91796875","-0.23632812","4.125","-3.90625","0.09375"
"1573730435232","1045","0.27929688","-0.91308594","-0.24707031","-0.0625","-0.4375","-2.15625"
"1573730435233","1046","0.3671875","-0.91503906","-0.26757812","-0.3125","-1.59375","-2.625"
"1573730435233","1047","0.35546875","-0.9082031","-0.2861328","2.71875","-1.3125","-0.5625"
"1573730435233","1048","0.34277344","-0.9296875","-0.25683594","5.46875","-3.125","-0.4375"
"1573730435234","1049","0.26757812","-0.94433594","-0.203125","-2.21875","-0.75","-4.59375"
"1573730435826","1050","0.28125","-0.92578125","-0.21289062","-8.25","3.28125","-5.5625"
"1573730435826","1051","0.37304688","-0.9345703","-0.24902344","-4.09375","2.65625","-1.84375"
"1573730435827","1052","0.33691406","-0.89160156","-0.26171875","-1.84375","3.28125","2.1875"
"1573730435827","1053","0.375","-0.92871094","-0.25683594","-0.375","4.0625","1.09375"
"1573730435827","1054","0.33007812","-0.9121094","-0.23730469","-0.125","-3.875","-0.1875"
"1573730435827","1055","0.29492188","-0.92871094","-0.22167969","-3.8125","-0.1875","-3.625"
"1573730435828","1056","0.33496094","-0.92285156","-0.24414062","-5.5","0.65625","-4.21875"
"1573730435829","1057","0.31445312","-0.9238281","-0.24707031","-4.21875","-1.0","-4.78125"
"1573730435829","1058","0.33398438","-0.9042969","-0.26464844","-4.65625","3.59375","-2.15625"
"1573730435830","1059","0.35742188","-0.9169922","-0.24316406","-7.46875","5.1875","-1.40625"
"1573730436220","1060","0.3466797","-0.93652344","-0.24414062","-7.53125","3.53125","-0.1875"
"1573730436220","1061","0.3330078","-0.9169922","-0.2783203","0.84375","1.625","0.0"
"1573730436221","1062","0.3203125","-0.9111328","-0.26757812","-1.0625","5.40625","-1.25"
"1573730436221","1063","0.32617188","-0.9296875","-0.24414062","4.0","7.125","-1.1875"
"1573730436221","1064","0.3232422","-0.88671875","-0.24023438","5.21875","9.5","0.96875"
"1573730436221","1065","0.37597656","-0.92089844","-0.29589844","9.125","15.96875","5.0"
"1573730436222","1066","0.35839844","-0.92871094","-0.2705078","4.4375","12.25","3.90625"
"1573730436222","1067","0.3251953","-0.91308594","-0.19433594","4.3125","6.9375","1.625"
"1573730436222","1068","0.3388672","-0.93652344","-0.21289062","-0.125","1.9375","-2.9375"
"1573730436223","1069","0.32421875","-0.92871094","-0.20507812","-0.4375","-3.0","-4.15625"
"1573730436817","1070","0.28808594","-0.91015625","-0.1796875","-1.71875","2.90625","-1.46875"
"1573730436818","1071","0.34765625","-0.93847656","-0.21777344","-1.53125","7.3125","-2.28125"
"1573730436818","1072","0.38085938","-0.9189453","-0.21582031","-5.15625","0.59375","0.0"
"1573730436819","1073","0.3232422","-0.9238281","-0.20117188","-3.0","-0.5","-1.125"
"1573730436819","1074","0.29492188","-0.9248047","-0.1875","-3.0","4.1875","-1.0625"
"1573730436819","1075","0.33496094","-0.92578125","-0.22070312","-6.0625","3.03125","0.03125"
"1573730436819","1076","0.36621094","-0.9199219","-0.21777344","-4.59375","1.28125","0.53125"
"1573730436820","1077","0.3408203","-0.90722656","-0.22558594","-4.53125","-1.78125","0.65625"
"1573730436820","1078","0.3388672","-0.92285156","-0.24707031","-1.71875","-2.34375","0.21875"
"1573730436820","1079","0.3330078","-0.91796875","-0.23339844","-3.625","-1.96875","-0.1875"
"1573730437015","1080","0.34960938","-0.9189453","-0.24023438","0.03125","-2.46875","1.75"
"1573730437017","1081","0.35058594","-0.92578125","-0.25195312","3.71875","-3.6875","0.84375"
"1573730437018","1082","0.34375","-0.91503906","-0.24121094","2.1875","-7.875","1.5"
"1573730437018","1083","0.3359375","-0.9189453","-0.2607422","0.0","-6.5","-0.125"
"1573730437018","1084","0.33398438","-0.92285156","-0.24414062","-0.6875","-4.34375","-1.125"
"1573730437018","1085","0.328125","-0.89941406","-0.24902344","-2.53125","-0.75","0.84375"
"1573730437019","1086","0.3466797","-0.9316406","-0.2705078","2.96875","1.375","1.03125"
"1573730437019","1087","0.3154297","-0.89160156","-0.25976562","2.3125","0.0","0.34375"
"1573730437020","1088","0.35351562","-0.9667969","-0.234375","-0.1875","-4.03125","-1.71875"
"1573730437020","1089","0.28710938","-0.91015625","-0.21484375","0.59375","-4.40625","-2.46875"
"1573730437415","1090","0.2890625","-0.9394531","-0.22265625","-7.65625","2.375","-3.8125"
"1573730437415","1091","0.35839844","-0.9042969","-0.25585938","-9.125","3.15625","0.15625"
"1573730437416","1092","0.35742188","-0.9189453","-0.28222656","-3.90625","3.15625","1.3125"
"1573730437417","1093","0.3466797","-0.9638672","-0.27441406","-1.65625","3.15625","-0.5625"
"1573730437417","1094","0.25878906","-0.9091797","-0.20898438","-3.4375","6.9375","-2.875"
"1573730437418","1095","0.3779297","-0.9013672","-0.23144531","-7.53125","4.0","-1.0"
"1573730437418","1096","0.3486328","-0.90527344","-0.29589844","7.5625","5.53125","1.625"
"1573730437418","1097","0.32226562","-0.93359375","-0.27441406","7.375","7.5","-0.25"
"1573730437419","1098","0.3388672","-0.92089844","-0.19921875","6.46875","7.25","-0.3125"
"1573730437419","1099","0.29101562","-0.9140625","-0.20507812","6.34375","10.46875","-1.0625"
"1573730437812","1100","0.359375","-0.95410156","-0.22558594","-1.0","12.4375","0.0"
"1573730437813","1101","0.3017578","-0.91015625","-0.20117188","2.1875","7.5625","1.375"
"1573730437813","1102","0.32617188","-0.91503906","-0.20605469","0.65625","6.6875","1.875"
"1573730437813","1103","0.359375","-0.93066406","-0.21191406","-0.25","7.75","0.40625"
"1573730437813","1104","0.31835938","-0.9199219","-0.20019531","-1.46875","3.9375","2.5625"
"1573730437814","1105","0.32226562","-0.92871094","-0.20605469","0.03125","3.40625","0.34375"
"1573730437815","1106","0.30371094","-0.9238281","-0.19335938","-1.78125","3.03125","0.09375"
"1573730437815","1107","0.34375","-0.9433594","-0.19726562","-6.125","1.9375","-1.3125"
"1573730437815","1108","0.31933594","-0.9238281","-0.23046875","-2.15625","-2.75","-0.3125"
"1573730437815","1109","0.3203125","-0.92871094","-0.18847656","-5.15625","-1.1875","1.5625"
"1573730438211","1110","0.32226562","-0.93652344","-0.21582031","-4.03125","-0.375","-0.9375"
"1573730438211","1111","0.30664062","-0.9277344","-0.21972656","-5.375","-1.1875","1.3125"
"1573730438211","1112","0.33203125","-0.9296875","-0.22070312","-4.15625","-0.1875","0.65625"
"1573730438212","1113","0.3203125","-0.9345703","-0.21679688","-1.25","2.125","0.28125"
"1573730438212","1114","0.3359375","-0.93066406","-0.21289062","-3.0","-1.71875","0.0"
"1573730438212","1115","0.3232422","-0.9238281","-0.2109375","-1.46875","-0.25","-0.4375"
"1573730438212","1116","0.328125","-0.93359375","-0.22265625","-1.59375","-1.96875","-1.40625"
"1573730438214","1117","0.32226562","-0.9248047","-0.21289062","-2.75","-3.0","-1.0625"
"1573730438214","1118","0.3154297","-0.9121094","-0.22363281","-2.09375","-2.03125","-1.46875"
"1573730438214","1119","0.3046875","-0.9472656","-0.23144531","0.59375","-0.375","-0.5"
"1573730438609","1120","0.35253906","-0.94628906","-0.20410156","4.0","-1.84375","-0.5"
"1573730438609","1121","0.2939453","-0.90527344","-0.20898438","3.71875","-6.375","-0.4375"
"1573730438609","1122","0.29003906","-0.93652344","-0.22949219","2.0625","-2.59375","-2.9375"
"1573730438609","1123","0.32617188","-0.94433594","-0.20605469","-3.5","-0.5625","-2.15625"
"1573730438610","1124","0.3154297","-0.9453125","-0.22460938","2.96875","0.28125","0.03125"
"1573730438610","1125","0.2783203","-0.92578125","-0.20214844","-1.0625","2.5","0.96875"
"1573730438610","1126","0.33789062","-0.9238281","-0.22851562","-5.9375","6.40625","0.90625"
"1573730438610","1127","0.3623047","-0.9394531","-0.24707031","-2.15625","-0.3125","0.96875"
"1573730438611","1128","0.3173828","-0.9345703","-0.21875","0.34375","-4.78125","-0.4375"
"1573730438612","1129","0.28515625","-0.92285156","-0.22363281","-0.5","-4.40625","-3.25"
"1573730439006","1130","0.30078125","-0.91796875","-0.23730469","-1.78125","-2.34375","-4.21875"
"1573730439007","1131","0.3251953","-0.9277344","-0.21484375","-8.25","1.09375","-2.75"
"1573730439007","1132","0.3486328","-0.9355469","-0.22070312","-5.75","-0.5625","-1.125"
"1573730439007","1133","0.33007812","-0.9169922","-0.23535156","-3.0","-1.40625","0.21875"
"1573730439007","1134","0.27929688","-0.9267578","-0.24023438","-2.8125","-1.40625","-1.1875"
"1573730439008","1135","0.34375","-0.9375","-0.22753906","-3.625","2.25","-4.09375"
"1573730439008","1136","0.30273438","-0.93847656","-0.20410156","-3.3125","1.5625","-1.96875"
"1573730439008","1137","0.3125","-0.9345703","-0.21386719","-4.15625","3.28125","-1.78125"
"1573730439008","1138","0.32128906","-0.9267578","-0.24511719","-4.15625","1.375","-1.34375"
"1573730439008","1139","0.3330078","-0.9453125","-0.24707031","-6.84375","1.4375","-1.53125"
"1573730439404","1140","0.30371094","-0.92285156","-0.2578125","-5.3125","3.03125","-2.09375"
"1573730439406","1141","0.3466797","-0.9199219","-0.25390625","-0.1875","9.4375","-2.875"
"1573730439406","1142","0.31835938","-0.89941406","-0.24023438","5.90625","6.46875","-1.84375"
"1573730439407","1143","0.296875","-0.92089844","-0.24804688","2.71875","13.40625","-1.65625"
"1573730439407","1144","0.45507812","-0.9248047","-0.25976562","4.0","12.25","1.21875"
"1573730439407","1145","0.27148438","-0.90722656","-0.2265625","-1.84375","2.0625","0.71875"
"1573730439408","1146","0.28222656","-0.9042969","-0.21191406","-7.21875","3.28125","-4.15625"
"1573730439408","1147","0.39160156","-0.95410156","-0.265625","-1.96875","7.3125","-1.78125"
"1573730439408","1148","0.33007812","-0.93847656","-0.22070312","0.40625","3.40625","0.40625"
"1573730439408","1149","0.2578125","-0.890625","-0.1640625","-6.125","3.03125","0.34375"
"1573730439799","1150","0.35058594","-0.91308594","-0.24511719","-1.59375","8.09375","0.28125"
"1573730439800","1151","0.4033203","-0.9628906","-0.2607422","2.1875","8.21875","1.75"
"1573730439800","1152","0.2841797","-0.91503906","-0.14941406","-2.875","-2.34375","-0.4375"
"1573730439801","1153","0.2529297","-0.8701172","-0.19433594","-5.625","-0.0625","-3.125"
"1573730439802","1154","0.4169922","-0.94433594","-0.2919922","-5.3125","4.25","-1.71875"
"1573730439802","1155","0.39453125","-0.9375","-0.24609375","1.375","-4.78125","2.71875"
"1573730439802","1156","0.2607422","-0.89746094","-0.171875","-0.625","-6.4375","-2.03125"
"1573730439803","1157","0.328125","-0.92578125","-0.24609375","-4.28125","-5.875","-3.4375"
"1573730439803","1158","0.3623047","-0.9375","-0.2705078","2.3125","-6.1875","-1.71875"
"1573730439803","1159","0.30859375","-0.9316406","-0.22167969","1.9375","-7.9375","-1.65625"
"1573730440197","1160","0.3095703","-0.90722656","-0.24804688","4.3125","-6.59375","-3.625"
"1573730440197","1161","0.3564453","-0.91796875","-0.24804688","0.84375","-5.15625","0.09375"
"1573730440198","1162","0.33789062","-0.95996094","-0.23535156","6.8125","-6.4375","0.34375"
"1573730440198","1163","0.328125","-0.9042969","-0.20214844","3.34375","-7.09375","0.34375"
"1573730440198","1164","0.29003906","-0.92578125","-0.22949219","-6.3125","-3.90625","-2.09375"
"1573730440199","1165","0.32617188","-0.95214844","-0.24707031","-0.3125","-0.8125","-3.0625"
"1573730440200","1166","0.3359375","-0.921875","-0.21484375","2.96875","2.65625","0.09375"
"1573730440200","1167","0.32226562","-0.9238281","-0.21777344","1.09375","0.78125","0.34375"
"1573730440200","1168","0.31445312","-0.9091797","-0.22558594","-5.75","0.21875","0.34375"
"1573730440200","1169","0.34570312","-0.9267578","-0.2626953","-1.71875","2.3125","-0.125"
"1573730440596","1170","0.359375","-0.9042969","-0.25","1.5","3.40625","2.65625"
"1573730440596","1171","0.32617188","-0.9267578","-0.24609375","0.46875","0.78125","0.40625"
"1573730440597","1172","0.28808594","-0.93847656","-0.23535156","3.53125","4.5625","-2.21875"
"1573730440597","1173","0.35839844","-0.9345703","-0.234375","1.5","3.78125","-2.59375"
"1573730440597","1174","0.3154297","-0.9238281","-0.21289062","-0.125","4.5","-1.59375"
"1573730440598","1175","0.33203125","-0.9316406","-0.22558594","9.125","7.125","0.65625"
"1573730440598","1176","0.32617188","-0.9345703","-0.21679688","6.875","9.5","0.40625"
"1573730440599","1177","0.32421875","-0.92871094","-0.19726562","4.0","10.59375","1.3125"
"1573730440600","1178","0.32128906","-0.9375","-0.18261719","-0.0625","14.3125","0.0"
"1573730440600","1179","0.35253906","-0.9355469","-0.17773438","0.46875","11.59375","0.84375"
"1573730441389","1180","0.3017578","-0.9277344","-0.1875","-4.21875","11.34375","0.03125"
"1573730441390","1181","0.3466797","-0.93652344","-0.1484375","-1.96875","10.78125","0.40625"
"1573730441390","1182","0.30566406","-0.93652344","-0.16894531","-2.8125","5.71875","-0.125"
"1573730441390","1183","0.3310547","-0.9277344","-0.18359375","4.75","2.71875","-0.5625"
"1573730441391","1184","0.328125","-0.9189453","-0.1484375","2.65625","9.25","1.09375"
"1573730441391","1185","0.32910156","-0.92578125","-0.17089844","1.03125","3.71875","0.21875"
"1573730441391","1186","0.3251953","-0.93652344","-0.18066406","-3.375","-0.8125","0.0"
"1573730441391","1187","0.32421875","-0.9238281","-0.16601562","-6.3125","-2.40625","-1.0625"
"1573730441392","1188","0.3232422","-0.92871094","-0.16503906","-3.375","-0.75","-1.84375"
"1573730441393","1189","0.31640625","-0.9433594","-0.1796875","-4.21875","-5.09375","-2.34375"
"1573730441587","1190","0.3310547","-0.9326172","-0.18261719","-1.40625","-2.09375","-1.96875"
"1573730441587","1191","0.3330078","-0.9423828","-0.18066406","-0.3125","-4.78125","-2.75"
"1573730441587","1192","0.3330078","-0.921875","-0.18847656","-2.625","-4.15625","-2.8125"
"1573730441588","1193","0.31445312","-0.9394531","-0.19335938","-1.0625","-2.15625","-1.84375"
"1573730441588","1194","0.32714844","-0.9355469","-0.20117188","-2.03125","-4.40625","-1.40625"
"1573730441588","1195","0.32910156","-0.9345703","-0.19433594","0.59375","-1.78125","-0.3125"
"1573730441588","1196","0.3388672","-0.9375","-0.18945312","-0.875","-1.0625","-0.625"
"1573730441589","1197","0.31640625","-0.9394531","-0.1953125","-2.9375","-3.4375","-1.90625"
"1573730441589","1198","0.3330078","-0.9277344","-0.18945312","-3.5625","-3.6875","-0.8125"
"1573730441589","1199","0.31152344","-0.9296875","-0.20117188","-4.09375","-1.90625","-2.15625"
"1573730441984","1200","0.31933594","-0.93847656","-0.19628906","-5.8125","-1.3125","-3.0"
"1573730441986","1201","0.34375","-0.9189453","-0.1953125","-6.0625","-2.28125","-1.59375"
"1573730441986","1202","0.30664062","-0.9375","-0.21386719","-6.375","-0.25","-1.84375"
"1573730441987","1203","0.32128906","-0.91796875","-0.20214844","-5.5625","-0.4375","-1.34375"
"1573730441987","1204","0.3251953","-0.9404297","-0.20703125","-1.90625","2.3125","-1.59375"
"1573730441987","1205","0.34570312","-0.92285156","-0.23144531","-0.6875","2.0625","-0.125"
"1573730441987","1206","0.35546875","-0.9199219","-0.23828125","-1.65625","-0.0625","0.0"
"1573730441988","1207","0.3466797","-0.9326172","-0.22363281","5.28125","-1.3125","0.28125"
"1573730441988","1208","0.29296875","-0.90625","-0.1953125","-0.9375","2.4375","-1.25"
"1573730441988","1209","0.36035156","-0.9609375","-0.23242188","1.4375","0.40625","-0.3125"
"1573730442184","1210","0.3095703","-0.9091797","-0.19238281","-0.1875","-0.9375","-0.125"
"1573730442185","1211","0.3310547","-0.9375","-0.20605469","-7.875","4.6875","-0.75"
"1573730442185","1212","0.33398438","-0.9082031","-0.22851562","-5.5","4.5","0.65625"
"1573730442186","1213","0.35058594","-0.9355469","-0.21386719","-6.84375","2.59375","1.3125"
"1573730442186","1214","0.33203125","-0.8984375","-0.20410156","-1.46875","-1.25","0.78125"
"1573730442187","1215","0.296875","-0.9169922","-0.24316406","-2.46875","3.15625","-1.3125"
"1573730442187","1216","0.3671875","-0.93066406","-0.20898438","1.09375","-0.125","0.0"
"1573730442187","1217","0.28808594","-0.92089844","-0.22167969","-0.375","0.59375","-0.5625"
"1573730442187","1218","0.32910156","-0.94433594","-0.21582031","0.71875","2.71875","-0.625"
"1573730442188","1219","0.3310547","-0.9111328","-0.19921875","0.34375","1.15625","0.65625"
"1573730442584","1220","0.3232422","-0.94921875","-0.21875","0.53125","3.65625","0.46875"
"1573730442585","1221","0.34277344","-0.9121094","-0.22167969","2.5625","1.15625","1.5625"
"1573730442585","1222","0.3251953","-0.9433594","-0.21875","1.375","0.78125","0.46875"
"1573730442585","1223","0.3095703","-0.9482422","-0.22070312","0.78125","3.65625","-1.0"
"1573730442585","1224","0.3203125","-0.92871094","-0.21679688","-3.96875","4.125","-1.1875"
"1573730442586","1225","0.3251953","-0.9560547","-0.20410156","-5.75","4.5","-0.75"
"1573730442587","1226","0.31933594","-0.92578125","-0.234375","3.65625","9.375","-1.53125"
"1573730442587","1227","0.33203125","-0.9238281","-0.21289062","5.78125","15.4375","0.65625"
"1573730442587","1228","0.34472656","-0.9404297","-0.16308594","-3.6875","17.0","0.65625"
"1573730442588","1229","0.31054688","-0.9345703","-0.18847656","-3.75","7.3125","0.28125"
"1573730442981","1230","0.32714844","-0.92871094","-0.19433594","-5.21875","11.46875","-0.5"
"1573730442981","1231","0.33496094","-0.9345703","-0.16503906","-4.90625","8.96875","0.84375"
"1573730442981","1232","0.3173828","-0.9296875","-0.19824219","0.0","5.0625","0.96875"
"1573730442981","1233","0.31933594","-0.9501953","-0.20019531","0.0","6.28125","2.0"
"1573730442982","1234","0.3154297","-0.93359375","-0.16601562","-1.53125","8.65625","1.21875"
"1573730442982","1235","0.3203125","-0.9326172","-0.16601562","-4.84375","5.96875","1.09375"
"1573730442982","1236","0.3359375","-0.94433594","-0.18066406","-2.03125","4.625","-0.8125"
"1573730442984","1237","0.31445312","-0.9238281","-0.16113281","4.3125","3.34375","1.3125"
"1573730442984","1238","0.30859375","-0.93359375","-0.15429688","-4.53125","2.0625","-0.75"
"1573730442984","1239","0.30859375","-0.9316406","-0.16894531","-8.0625","-2.40625","-0.375"
"1573730443379","1240","0.3076172","-0.9355469","-0.18261719","-10.34375","-1.59375","-1.46875"
"1573730443379","1241","0.31152344","-0.9355469","-0.20507812","-10.4375","-0.6875","-1.84375"
"1573730443380","1242","0.3203125","-0.921875","-0.20605469","-8.375","-0.3125","-2.03125"
"1573730443380","1243","0.33203125","-0.91796875","-0.22753906","-6.71875","-0.0625","-0.125"
"1573730443380","1244","0.2841797","-0.9980469","-0.22265625","-2.9375","6.03125","-2.40625"
"1573730443380","1245","0.37109375","-0.89941406","-0.17675781","-0.4375","1.6875","0.03125"
"1573730443383","1246","0.32714844","-0.90234375","-0.21386719","-8.0625","-0.5625","1.03125"
"1573730443383","1247","0.31152344","-0.9423828","-0.2548828","-3.75","-1.90625","-0.9375"
"1573730443383","1248","0.36816406","-0.9345703","-0.22851562","-4.15625","-3.8125","-1.40625"
"1573730443385","1249","0.33007812","-0.9160156","-0.22265625","2.0625","-9.0","-1.65625"
"1573730443776","1250","0.30078125","-0.9082031","-0.23339844","-0.6875","-9.46875","-1.46875"
"1573730443777","1251","0.30371094","-0.9472656","-0.24414062","-5.9375","-4.90625","-3.25"
"1573730443777","1252","0.35058594","-0.9453125","-0.23144531","3.40625","-4.15625","-1.0"
"1573730443777","1253","0.2919922","-0.890625","-0.22070312","0.96875","-6.5","-1.125"
"1573730443780","1254","0.29492188","-0.9345703","-0.2265625","-7.46875","-1.1875","-3.375"
"1573730443780","1255","0.3388672","-0.95703125","-0.25878906","-3.5","0.96875","-3.3125"
"1573730443780","1256","0.3623047","-0.9160156","-0.21289062","2.96875","-0.6875","0.15625"
"1573730443781","1257","0.2919922","-0.9121094","-0.22070312","-3.375","-4.28125","-0.125"
"1573730443781","1258","0.32226562","-0.9472656","-0.2705078","-1.1875","-0.6875","-2.03125"
"1573730443781","1259","0.35839844","-0.93066406","-0.24414062","2.4375","-1.71875","0.21875"
"1573730444369","1260","0.32421875","-0.92089844","-0.20898438","3.40625","-2.53125","-0.5625"
"1573730444371","1261","0.3173828","-0.9111328","-0.23242188","0.65625","-3.5625","-0.6875"
"1573730444371","1262","0.2841797","-0.921875","-0.24804688","-2.15625","-2.34375","-2.6875"
"1573730444371","1263","0.32128906","-0.91503906","-0.25390625","-10.03125","6.09375","-1.71875"
"1573730444372","1264","0.3798828","-0.9707031","-0.25195312","-1.1875","5.84375","-0.6875"
"1573730444372","1265","0.30078125","-0.9033203","-0.21289062","2.0","5.0","1.21875"
"1573730444373","1266","0.265625","-0.92089844","-0.22558594","-15.46875","5.96875","-0.625"
"1573730444373","1267","0.36328125","-0.9423828","-0.29003906","-4.46875","9.1875","-2.03125"
"1573730444373","1268","0.37695312","-0.91796875","-0.27929688","2.125","6.875","1.625"
"1573730444373","1269","0.33007812","-0.9082031","-0.22167969","7.8125","4.0","0.34375"
"1573730444571","1270","0.26660156","-0.921875","-0.2265625","2.90625","4.6875","-2.46875"
"1573730444572","1271","0.31835938","-0.9404297","-0.23339844","-0.625","9.875","-1.90625"
"1573730444572","1272","0.34765625","-0.9316406","-0.23828125","-0.875","8.40625","-0.5"
"1573730444574","1273","0.33789062","-0.90722656","-0.20800781","-5.6875","4.625","0.0"
"1573730444574","1274","0.31933594","-0.9316406","-0.23242188","-9.0625","5.1875","-0.25"
"1573730444574","1275","0.34179688","-0.9267578","-0.2705078","1.03125","1.375","-1.40625"
"1573730444575","1276","0.33984375","-0.92089844","-0.23046875","-2.46875","3.15625","0.0"
"1573730444575","1277","0.2939453","-0.91015625","-0.20996094","-0.5625","4.625","-2.75"
"1573730444575","1278","0.33789062","-0.94433594","-0.22753906","-0.375","9.5","0.09375"
"1573730444575","1279","0.3388672","-0.9267578","-0.23828125","-0.9375","1.9375","-0.5625"
"1573730444970","1280","0.328125","-0.9140625","-0.20996094","-1.78125","1.9375","0.34375"
"1573730444970","1281","0.31152344","-0.9111328","-0.20800781","0.65625","0.34375","-1.96875"
"1573730444971","1282","0.3251953","-0.92285156","-0.22949219","-3.8125","0.15625","-2.28125"
"1573730444971","1283","0.33007812","-0.9189453","-0.22070312","-8.5","1.28125","-0.875"
"1573730444971","1284","0.34570312","-0.9589844","-0.2421875","-0.5","-1.0625","-1.46875"
"1573730444972","1285","0.29785156","-0.9042969","-0.19726562","-3.96875","-3.5625","-2.75"
"1573730444973","1286","0.2919922","-0.921875","-0.22460938","-7.8125","-0.375","-2.75"
"1573730444973","1287","0.3779297","-0.9169922","-0.27734375","-3.1875","4.25","0.90625"
"1573730444973","1288","0.36523438","-0.9238281","-0.26367188","-0.1875","-0.25","2.96875"
"1573730444974","1289","0.28515625","-0.9091797","-0.21777344","-0.0625","-2.8125","1.5625"
"1573730445367","1290","0.2998047","-0.9423828","-0.24121094","5.125","3.34375","0.0"
"1573730445368","1291","0.3232422","-0.9296875","-0.22753906","3.71875","1.375","0.15625"
"1573730445368","1292","0.34472656","-0.9199219","-0.22460938","0.03125","3.90625","0.96875"
"1573730445368","1293","0.33496094","-0.9267578","-0.25683594","5.59375","-1.71875","0.71875"
"1573730445368","1294","0.33007812","-0.9267578","-0.234375","4.625","-0.9375","1.375"
"1573730445369","1295","0.31445312","-0.9267578","-0.22460938","4.5","-1.40625","0.78125"
"1573730445369","1296","0.3154297","-0.9355469","-0.22460938","2.78125","-1.53125","0.40625"
"1573730445371","1297","0.32421875","-0.9296875","-0.21875","1.3125","-0.6875","0.53125"
"1573730445371","1298","0.31152344","-0.9423828","-0.21484375","-1.65625","1.625","-0.1875"
"1573730445372","1299","0.3251953","-0.92285156","-0.21386719","-1.78125","-0.1875","-0.125"
"1573730445762","1300","0.30273438","-0.9423828","-0.203125","0.0","1.5","-0.4375"
"1573730445762","1301","0.3408203","-0.93652344","-0.22070312","-0.1875","-0.3125","-0.75"
"1573730445763","1302","0.31152344","-0.93359375","-0.20117188","-1.53125","-1.53125","0.15625"
"1573730445763","1303","0.3173828","-0.93066406","-0.20800781","-0.375","-1.65625","-0.875"
"1573730445763","1304","0.35253906","-0.92871094","-0.2265625","0.59375","-4.65625","0.15625"
"1573730445763","1305","0.29882812","-0.93066406","-0.2265625","3.28125","-5.3125","-0.625"
"1573730445764","1306","0.2763672","-0.9355469","-0.20800781","1.15625","-2.21875","-3.625"
"1573730445764","1307","0.31835938","-0.94140625","-0.19238281","-6.125","0.78125","-4.21875"
"1573730445764","1308","0.29882812","-0.9326172","-0.21777344","-3.25","0.59375","-4.15625"
"1573730445764","1309","0.31152344","-0.93066406","-0.24023438","-4.71875","2.59375","-4.40625"
"1573730446752","1310","0.37890625","-0.92871094","-0.22949219","3.28125","-0.375","-2.46875"
"1573730446753","1311","0.32617188","-0.9189453","-0.21386719","-4.21875","-1.0","-4.03125"
"1573730446753","1312","0.36035156","-0.93066406","-0.25390625","-0.5625","-3.1875","-3.5"
"1573730446753","1313","0.27148438","-0.9628906","-0.23925781","2.78125","-11.0","-7.71875"
"1573730446754","1314","0.2890625","-0.9091797","-0.19824219","2.5625","0.28125","-5.09375"
"1573730446754","1315","0.3544922","-0.94628906","-0.20214844","5.90625","8.71875","0.21875"
"1573730446754","1316","0.31835938","-0.9345703","-0.20507812","0.0","11.9375","2.125"
"1573730446754","1317","0.3095703","-0.9248047","-0.18652344","-5.25","13.34375","2.71875"
"1573730446755","1318","0.34960938","-0.92089844","-0.20898438","-4.59375","17.5","2.78125"
"1573730446755","1319","0.3544922","-0.9326172","-0.21777344","-9.0","12.875","2.0"
"1573730446956","1320","0.3203125","-0.9033203","-0.19433594","-5.8125","11.875","0.65625"
"1573730446958","1321","0.3564453","-0.9238281","-0.22558594","-2.9375","10.3125","1.09375"
