"# PR data"
"# Start time: 20191114T112150"
"# Subject: jack"
"# Activity type: Shoulder press"
"# Correctness: Incorrect"
"# Notes: "
""
"timestamp","seq","accel_x","accel_y","accel_z","gyro_x","gyro_y","gyro_z"
"1573730510356","0","0.26660156","-0.9267578","-0.21191406","3.90625","5.90625","-6.90625"
"1573730510357","1","0.30664062","-0.9472656","-0.18554688","23.25","-3.5","-9.46875"
"1573730510357","2","0.27539062","-0.96191406","-0.16796875","26.84375","-8.9375","-8.9375"
"1573730510357","3","0.33496094","-0.9482422","-0.15136719","18.0625","0.65625","-6.78125"
"1573730510357","4","0.30273438","-0.9326172","-0.11621094","-4.15625","7.96875","-1.53125"
"1573730510358","5","0.2578125","-0.9550781","-0.11328125","-19.125","0.84375","-2.09375"
"1573730510358","6","0.2529297","-0.9550781","-0.12109375","-15.875","-3.375","-2.03125"
"1573730510358","7","0.2626953","-0.9501953","-0.14355469","-7.65625","-1.71875","-3.0"
"1573730510358","8","0.328125","-0.92578125","-0.16894531","-2.625","-1.34375","-3.3125"
"1573730510359","9","0.30273438","-0.984375","-0.15039062","2.59375","-1.90625","-2.28125"
"1573730510953","10","0.30566406","-0.9423828","-0.18261719","-2.59375","-7.53125","-1.90625"
"1573730510953","11","0.3173828","-0.9453125","-0.1484375","-4.03125","-5.75","0.46875"
"1573730510954","12","0.28125","-0.9482422","-0.14941406","8.15625","2.65625","-1.0625"
"1573730510954","13","0.2841797","-0.9501953","-0.12792969","1.15625","3.34375","0.71875"
"1573730510954","14","0.27539062","-0.9609375","-0.14746094","-5.21875","-0.625","0.21875"
"1573730510954","15","0.28320312","-0.95410156","-0.14941406","-3.0625","1.28125","1.4375"
"1573730510955","16","0.26367188","-0.9482422","-0.13867188","-6.90625","5.71875","1.875"
"1573730510955","17","0.24121094","-0.9560547","-0.15234375","-8.0625","9.625","1.15625"
"1573730510955","18","0.2783203","-0.9560547","-0.20117188","-1.34375","9.3125","0.0"
"1573730510956","19","0.2529297","-0.9472656","-0.17382812","0.96875","13.15625","-0.5625"
"1573730511151","20","0.29492188","-0.9560547","-0.16210938","6.6875","8.71875","-0.8125"
"1573730511151","21","0.30664062","-0.953125","-0.14160156","5.59375","7.90625","0.84375"
"1573730511151","22","0.31152344","-0.9560547","-0.12597656","5.34375","2.0625","1.3125"
"1573730511152","23","0.296875","-0.94433594","-0.13085938","3.59375","-1.3125","0.65625"
"1573730511152","24","0.28222656","-0.94628906","-0.13183594","0.03125","0.53125","0.40625"
"1573730511153","25","0.2783203","-0.9589844","-0.1328125","-1.125","0.90625","0.78125"
"1573730511154","26","0.26660156","-0.9453125","-0.140625","-4.34375","-1.65625","0.53125"
"1573730511154","27","0.29882812","-0.95996094","-0.16015625","1.21875","3.34375","0.78125"
"1573730511154","28","0.25976562","-0.9482422","-0.13769531","-6.59375","1.09375","-0.875"
"1573730511154","29","0.26757812","-0.95410156","-0.13476562","-1.46875","1.3125","0.0"
"1573730511944","30","0.26464844","-0.95996094","-0.12988281","-3.125","4.6875","-1.25"
"1573730511944","31","0.26953125","-0.96484375","-0.12695312","-2.03125","4.0625","-0.625"
"1573730511945","32","0.2890625","-0.94628906","-0.13867188","-2.03125","3.84375","-0.875"
"1573730511945","33","0.2578125","-0.9667969","-0.14453125","0.90625","2.84375","-1.0625"
"1573730511945","34","0.29296875","-0.95214844","-0.13183594","-1.96875","2.5","-1.0"
"1573730511946","35","0.2783203","-0.94921875","-0.12109375","-1.125","3.34375","-0.9375"
"1573730511946","36","0.25683594","-0.9501953","-0.11816406","-2.6875","3.71875","-0.8125"
"1573730511947","37","0.27734375","-0.96191406","-0.15039062","2.65625","1.375","-2.15625"
"1573730511947","38","0.29589844","-0.95703125","-0.12792969","0.71875","2.65625","-0.75"
"1573730511947","39","0.29101562","-0.93847656","-0.1015625","4.1875","4.375","-1.46875"
"1573730512147","40","0.26464844","-0.9628906","-0.12109375","10.78125","-3.4375","-0.625"
"1573730512148","41","0.2685547","-0.96972656","-0.15722656","5.84375","-7.59375","-0.25"
"1573730512148","42","0.30664062","-0.96484375","-0.111328125","5.28125","-3.375","-0.625"
"1573730512148","43","0.26660156","-0.94628906","-0.078125","0.28125","-8.1875","-1.46875"
"1573730512149","44","0.26367188","-0.96972656","-0.123046875","8.53125","-8.9375","-2.625"
"1573730512149","45","0.265625","-0.96777344","-0.1015625","3.9375","-3.375","-2.21875"
"1573730512149","46","0.25878906","-0.9501953","-0.08984375","2.4375","-3.625","-1.96875"
"1573730512149","47","0.28125","-0.96777344","-0.119140625","5.40625","-0.6875","-1.25"
"1573730512150","48","0.296875","-0.9638672","-0.123046875","5.96875","-0.8125","-0.5"
"1573730512151","49","0.2890625","-0.94628906","-0.09667969","4.0625","-0.875","-0.375"
"1573730512544","50","0.2890625","-0.9550781","-0.11230469","3.15625","-4.15625","-0.5"
"1573730512545","51","0.27539062","-0.9423828","-0.1015625","10.125","-5.4375","-0.8125"
"1573730512545","52","0.3095703","-0.9423828","-0.08691406","9.75","-3.5625","1.3125"
"1573730512545","53","0.2783203","-0.9736328","-0.08691406","9.09375","-9.34375","1.5"
"1573730512545","54","0.265625","-0.98046875","-0.05859375","10.65625","-9.125","-1.25"
"1573730512546","55","0.2607422","-0.9355469","-0.029296875","4.8125","-3.125","-1.3125"
"1573730512546","56","0.28125","-0.9746094","-0.021484375","-2.46875","1.375","-0.1875"
"1573730512546","57","0.26660156","-0.9794922","-0.068359375","-4.21875","-1.78125","-2.15625"
"1573730512546","58","0.2841797","-0.9375","-0.083984375","-9.53125","0.09375","-2.9375"
"1573730512547","59","0.32910156","-0.9472656","-0.09863281","-11.5625","-1.0","-1.46875"
"1573730512940","60","0.22949219","-0.97753906","-0.103515625","-8.8125","1.28125","-6.25"
"1573730512941","61","0.22363281","-0.95703125","-0.059570312","-6.84375","10.125","-9.15625"
"1573730512941","62","0.36523438","-0.953125","-0.06347656","-4.40625","-0.1875","-5.25"
"1573730512942","63","0.3486328","-0.9560547","-0.09863281","7.0625","-3.875","-1.96875"
"1573730512942","64","0.29003906","-0.96484375","-0.099609375","1.15625","-6.53125","2.0"
"1573730512942","65","0.26367188","-0.96875","-0.09667969","-8.9375","-6.0625","-0.875"
"1573730512942","66","0.2607422","-0.9248047","-0.09375","-10.15625","-0.0625","0.84375"
"1573730512943","67","0.31054688","-0.97753906","-0.095703125","-5.5625","2.65625","3.53125"
"1573730512943","68","0.2578125","-0.9560547","-0.09667969","-7.40625","1.375","2.5"
"1573730512943","69","0.296875","-0.9511719","-0.12792969","-3.6875","0.15625","2.84375"
"1573730513341","70","0.27734375","-0.9667969","-0.13769531","-6.1875","2.0","0.09375"
"1573730513342","71","0.29492188","-0.9345703","-0.115234375","-6.96875","0.40625","0.40625"
"1573730513342","72","0.24023438","-0.9951172","-0.12792969","-13.125","-1.0625","-6.90625"
"1573730513343","73","0.27246094","-0.9277344","-0.13183594","-13.5625","7.4375","-7.8125"
"1573730513344","74","0.29296875","-0.97265625","-0.125","-14.65625","-1.3125","-6.59375"
"1573730513344","75","0.2998047","-0.95410156","-0.09667969","-10.875","1.3125","-8.0625"
"1573730513344","76","0.31640625","-0.9501953","-0.17382812","-3.5","-8.0","-4.84375"
"1573730513344","77","0.31347656","-0.9814453","-0.17773438","-2.75","-10.625","-8.4375"
"1573730513345","78","0.2607422","-0.9628906","-0.14160156","-8.5625","-9.0625","-6.71875"
"1573730513345","79","0.37597656","-0.9111328","-0.1796875","-3.1875","-10.875","-6.96875"
"1573730513735","80","0.32421875","-0.9746094","-0.171875","-9.15625","-10.9375","-4.90625"
"1573730513736","81","0.26464844","-0.8876953","-0.18554688","-15.21875","-9.84375","-6.53125"
"1573730513736","82","0.359375","-0.9394531","-0.19042969","-3.8125","-1.25","-3.3125"
"1573730513737","83","0.30371094","-0.92871094","-0.1640625","-16.5","-5.09375","-5.5"
"1573730513737","84","0.2841797","-0.93359375","-0.20507812","-11.3125","-5.8125","-5.15625"
"1573730513738","85","0.3408203","-0.92578125","-0.19433594","-14.0625","-7.28125","-2.9375"
"1573730513739","86","0.33496094","-0.9345703","-0.21289062","-4.53125","-2.21875","-3.0625"
"1573730513739","87","0.28515625","-0.92578125","-0.22070312","-7.46875","-0.5625","-6.96875"
"1573730513740","88","0.3564453","-0.9345703","-0.29785156","8.78125","-8.875","-7.34375"
"1573730513740","89","0.3203125","-0.9316406","-0.29492188","18.46875","-10.5","-7.78125"
"1573730514134","90","0.36816406","-0.9482422","-0.18261719","21.09375","-15.03125","-14.65625"
"1573730514134","91","0.25976562","-0.94628906","-0.21679688","43.125","-8.875","-20.84375"
"1573730514135","92","0.4375","-0.91796875","-0.119140625","20.96875","-20.59375","0.34375"
"1573730514135","93","0.3232422","-0.9091797","-0.13183594","5.59375","-10.40625","-1.0625"
"1573730514135","94","0.265625","-0.8984375","-0.17773438","-7.28125","-3.0","3.90625"
"1573730514135","95","0.41210938","-0.9199219","-0.20800781","-1.59375","-4.21875","4.125"
"1573730514136","96","0.296875","-0.91503906","-0.17773438","-12.28125","-5.8125","5.90625"
"1573730514137","97","0.36816406","-0.92285156","-0.18847656","-15.53125","1.09375","0.71875"
"1573730514137","98","0.32617188","-0.8857422","-0.2421875","-7.34375","4.1875","0.96875"
"1573730514138","99","0.32226562","-0.8984375","-0.17675781","-6.4375","9.4375","1.09375"
"1573730514529","100","0.29296875","-0.9042969","-0.18261719","-3.5625","-8.125","5.65625"
"1573730514530","101","0.3876953","-0.9785156","-0.19628906","9.5","5.125","4.1875"
"1573730514530","102","0.3720703","-0.96777344","-0.21289062","23.0625","3.71875","4.125"
"1573730514530","103","0.27441406","-0.94628906","-0.11328125","25.125","7.5","2.3125"
"1573730514531","104","0.2890625","-0.9785156","-0.15625","7.96875","-5.03125","4.3125"
"1573730514531","105","0.28027344","-0.94628906","-0.13574219","2.0","20.625","-1.25"
"1573730514531","106","0.36035156","-0.93066406","0.047851562","-36.40625","9.1875","3.21875"
"1573730514531","107","0.3046875","-0.9404297","-0.27246094","-11.90625","2.84375","2.65625"
"1573730514532","108","0.3701172","-0.92578125","-0.14648438","-30.09375","11.34375","1.8125"
"1573730514533","109","0.25585938","-0.96191406","-0.21875","-18.4375","6.40625","-2.21875"
"1573730514927","110","0.31054688","-0.9375","-0.21191406","-11.0625","8.65625","-4.90625"
"1573730514928","111","0.37402344","-0.92871094","-0.22753906","1.4375","-1.1875","-2.34375"
"1573730514928","112","0.33984375","-0.94433594","-0.23242188","19.09375","5.34375","-3.5625"
"1573730514928","113","0.31152344","-0.9160156","-0.18359375","21.34375","3.21875","-3.5"
"1573730514928","114","0.2861328","-0.91796875","-0.14160156","6.28125","2.5625","-3.25"
"1573730514929","115","0.27246094","-0.9326172","-0.12011719","-7.46875","6.625","-3.90625"
"1573730514929","116","0.35546875","-0.9375","-0.19238281","-7.59375","8.09375","-1.46875"
"1573730514929","117","0.35351562","-0.9345703","-0.17578125","-3.375","18.46875","0.78125"
"1573730514929","118","0.37109375","-0.94921875","-0.14648438","9.6875","23.53125","0.78125"
"1573730514929","119","0.36132812","-0.9638672","-0.12597656","9.25","2.375","1.8125"
"1573730515325","120","0.36816406","-0.90625","-0.15527344","14.5625","-1.96875","4.875"
"1573730515327","121","0.25878906","-0.9638672","-0.15820312","6.8125","6.5625","0.28125"
"1573730515327","122","0.26464844","-0.9013672","-0.10644531","-6.90625","12.3125","-0.125"
"1573730515328","123","0.42089844","-0.96777344","-0.15234375","-5.375","3.15625","-1.84375"
"1573730515328","124","0.3125","-0.94628906","-0.15039062","-5.75","5.84375","-6.59375"
"1573730515328","125","0.26464844","-0.9121094","-0.06640625","-24.375","4.5","-2.8125"
"1573730515329","126","0.34277344","-0.95996094","-0.13769531","-26.375","4.3125","-3.4375"
"1573730515329","127","0.31933594","-0.9628906","-0.1171875","-26.3125","5.40625","-1.59375"
"1573730515329","128","0.28515625","-0.8847656","-0.15722656","-29.5625","15.25","1.375"
"1573730515329","129","0.33691406","-0.9404297","-0.27734375","-15.625","17.8125","-1.78125"
"1573730515724","130","0.42578125","-0.87890625","-0.26171875","-5.21875","14.4375","9.375"
"1573730515724","131","0.2783203","-0.9111328","-0.2705078","2.78125","28.1875","4.0625"
"1573730515724","132","0.40234375","-0.89746094","-0.26171875","-3.4375","23.84375","9.8125"
"1573730515725","133","0.38183594","-0.8964844","-0.3310547","20.0","22.1875","11.03125"
"1573730515725","134","0.3310547","-0.92089844","-0.17480469","7.5625","26.28125","6.875"
"1573730515725","135","0.3310547","-0.95410156","-0.1328125","5.34375","15.65625","10.46875"
"1573730515726","136","0.3408203","-0.9277344","-0.14160156","14.75","0.65625","8.71875"
"1573730515726","137","0.27441406","-0.9589844","-0.1484375","11.53125","9.8125","3.46875"
"1573730515726","138","0.21777344","-1.0146484","-0.12988281","9.4375","-4.40625","0.0"
"1573730515726","139","0.3720703","-0.94140625","-0.13183594","13.53125","-14.1875","-1.90625"
"1573730516121","140","0.24707031","-0.9785156","-0.06347656","20.5","-4.53125","-3.5"
"1573730516122","141","0.2890625","-0.93359375","-0.056640625","19.6875","-5.875","2.5625"
"1573730516122","142","0.37695312","-0.97558594","-0.08984375","11.65625","-9.59375","3.09375"
"1573730516122","143","0.28125","-0.96777344","-0.08496094","9.875","-8.25","3.90625"
"1573730516122","144","0.20898438","-0.9140625","-0.0859375","-8.25","1.28125","-1.59375"
"1573730516124","145","0.16699219","-0.9433594","-0.15136719","-0.375","20.84375","-15.34375"
"1573730516124","146","0.3515625","-0.94433594","-0.001953125","-6.375","19.34375","-11.71875"
"1573730516125","147","0.42089844","-0.92578125","-0.061523438","-1.71875","7.3125","-11.96875"
"1573730516125","148","0.41601562","-0.95996094","-0.055664062","-3.875","1.375","-3.625"
"1573730516125","149","0.36132812","-0.96484375","-0.087890625","-0.5","-5.15625","0.34375"
"1573730516518","150","0.33007812","-0.96191406","-0.09765625","-0.1875","-5.09375","4.25"
"1573730516518","151","0.3046875","-0.9316406","-0.12988281","-0.6875","-4.59375","4.9375"
"1573730516518","152","0.30566406","-0.9560547","-0.115234375","-4.96875","-4.03125","4.8125"
"1573730516518","153","0.33398438","-0.95214844","-0.08496094","-6.53125","0.03125","6.15625"
"1573730516519","154","0.25878906","-0.94140625","-0.07519531","-9.90625","2.78125","4.375"
"1573730516519","155","0.2685547","-0.9638672","-0.0703125","-11.5625","8.40625","4.0625"
"1573730516519","156","0.29589844","-0.9472656","-0.103515625","-9.21875","10.0","3.09375"
"1573730516520","157","0.28027344","-0.95214844","-0.099609375","-13.5","8.65625","0.0"
"1573730516521","158","0.3154297","-0.953125","-0.111328125","-10.75","10.125","0.21875"
"1573730516521","159","0.29296875","-0.94921875","-0.125","-2.75","9.09375","-0.625"
"1573730516914","160","0.30664062","-0.9423828","-0.10449219","-3.25","7.5","0.09375"
"1573730516915","161","0.3017578","-0.9589844","-0.12890625","-1.25","9.1875","0.65625"
"1573730516915","162","0.30566406","-0.95703125","-0.09375","-6.125","3.9375","-1.53125"
"1573730516915","163","0.33203125","-0.93652344","-0.09765625","-4.59375","-0.25","0.46875"
"1573730516916","164","0.25878906","-0.96777344","-0.13867188","-5.5625","-5.75","-3.3125"
"1573730516916","165","0.31933594","-0.9472656","-0.14257812","-3.625","-0.875","-2.40625"
"1573730516916","166","0.3095703","-0.93652344","-0.1015625","-10.21875","-0.25","-1.25"
"1573730516916","167","0.2998047","-0.97265625","-0.13769531","-5.03125","-0.8125","-4.90625"
"1573730516917","168","0.33691406","-0.9169922","-0.12402344","-7.53125","0.78125","-1.84375"
"1573730516918","169","0.3330078","-0.96484375","-0.13183594","-7.71875","-1.3125","-3.0"
"1573730517314","170","0.29003906","-0.94628906","-0.13085938","-8.6875","-3.6875","-3.5625"
"1573730517315","171","0.3232422","-0.9189453","-0.17089844","-7.09375","-3.25","-3.4375"
"1573730517315","172","0.3330078","-0.94628906","-0.16894531","1.4375","3.34375","-2.625"
"1573730517315","173","0.32128906","-0.9453125","-0.171875","5.46875","-1.25","-1.78125"
"1573730517316","174","0.3173828","-0.9091797","-0.15722656","2.65625","-0.4375","-0.25"
"1573730517316","175","0.29101562","-0.9863281","-0.16601562","5.0625","2.25","-0.75"
"1573730517316","176","0.33398438","-0.9238281","-0.12695312","-5.5","8.40625","0.46875"
"1573730517316","177","0.3076172","-0.9375","-0.15234375","-6.84375","7.5625","2.25"
"1573730517316","178","0.32128906","-0.9970703","-0.140625","-9.15625","8.40625","-0.1875"
"1573730517319","179","0.30078125","-0.89453125","-0.17578125","-13.25","5.1875","2.3125"
"1573730517908","180","0.33398438","-0.9794922","-0.16894531","-9.40625","4.0625","4.0625"
"1573730517908","181","0.29785156","-0.95410156","-0.12011719","-9.34375","5.71875","0.90625"
"1573730517908","182","0.27246094","-0.9169922","-0.16796875","-5.03125","2.0625","2.71875"
"1573730517909","183","0.31933594","-0.98046875","-0.18164062","-13.1875","-0.3125","2.4375"
"1573730517909","184","0.3310547","-0.9248047","-0.1640625","-7.34375","0.65625","2.25"
"1573730517909","185","0.28320312","-0.953125","-0.17285156","-4.46875","-0.625","0.90625"
"1573730517909","186","0.30078125","-0.9511719","-0.16699219","-0.25","-4.46875","0.0"
"1573730517910","187","0.30371094","-0.96191406","-0.15820312","-5.6875","-3.0625","-0.125"
"1573730517910","188","0.30859375","-0.9667969","-0.17871094","-0.0625","-6.65625","-4.21875"
"1573730517910","189","0.28515625","-0.93066406","-0.16796875","0.78125","-2.8125","-3.96875"
"1573730518108","190","0.3046875","-0.92578125","-0.17675781","-8.4375","-5.5","-3.5"
"1573730518109","191","0.30566406","-0.953125","-0.20019531","-0.5625","-6.3125","-4.21875"
"1573730518109","192","0.2998047","-0.92285156","-0.18164062","-2.9375","1.8125","-3.625"
"1573730518110","193","0.3173828","-0.94628906","-0.18066406","-5.375","-0.375","-2.625"
"1573730518111","194","0.2998047","-0.9433594","-0.17578125","-5.3125","-5.21875","-3.1875"
"1573730518111","195","0.2998047","-0.9248047","-0.18457031","-8.375","-4.65625","-2.46875"
"1573730518111","196","0.32226562","-0.9375","-0.20800781","-6.71875","-1.125","-0.8125"
"1573730518112","197","0.3046875","-0.9589844","-0.21289062","-4.96875","-5.5625","-2.6875"
"1573730518112","198","0.30273438","-0.9326172","-0.18652344","0.71875","-0.9375","-2.53125"
"1573730518112","199","0.29296875","-0.93359375","-0.18066406","-6.90625","-5.875","-3.6875"
"1573730518510","200","0.28710938","-0.9638672","-0.21582031","2.59375","-4.84375","-5.6875"
"1573730518510","201","0.2919922","-0.93652344","-0.17578125","6.03125","-2.8125","-7.59375"
"1573730518511","202","0.26757812","-0.9248047","-0.20996094","-7.15625","-8.125","-8.6875"
"1573730518511","203","0.36132812","-0.9248047","-0.29296875","-0.8125","-10.21875","-5.9375"
"1573730518511","204","0.38378906","-0.9345703","-0.24511719","-7.21875","-4.78125","-5.6875"
"1573730518512","205","0.3515625","-0.9277344","-0.2421875","-0.0625","-12.28125","-6.53125"
"1573730518513","206","0.3076172","-0.92089844","-0.29101562","13.78125","-12.78125","-6.125"
"1573730518513","207","0.35058594","-0.9238281","-0.2421875","13.0","-3.5625","-1.34375"
"1573730518513","208","0.27441406","-0.85839844","-0.22949219","7.0625","-0.625","2.78125"
"1573730518514","209","0.3388672","-0.9248047","-0.22070312","5.46875","3.21875","4.4375"
"1573730519103","210","0.34472656","-0.92871094","-0.26367188","9.625","-4.65625","4.5625"
"1573730519104","211","0.30859375","-0.9345703","-0.171875","7.25","3.90625","-0.75"
"1573730519104","212","0.28320312","-0.94140625","-0.22167969","16.09375","-1.84375","-3.0625"
"1573730519104","213","0.36816406","-0.9628906","-0.21289062","26.40625","1.3125","1.625"
"1573730519105","214","0.3642578","-0.92871094","-0.24902344","22.375","-4.78125","-1.46875"
"1573730519105","215","0.40039062","-0.94628906","-0.1328125","15.1875","5.90625","-2.46875"
"1573730519105","216","0.3251953","-0.92089844","-0.0546875","-1.90625","-9.34375","-0.8125"
"1573730519106","217","0.26367188","-0.9609375","-0.14648438","-0.0625","-8.4375","-1.34375"
"1573730519107","218","0.2734375","-0.9140625","-0.12695312","-18.25","-0.9375","0.28125"
"1573730519107","219","0.29492188","-0.9394531","-0.109375","-27.40625","0.40625","-0.125"
"1573730519301","220","0.3544922","-0.9560547","-0.21484375","-18.625","-5.15625","0.03125"
"1573730519301","221","0.31933594","-0.9472656","-0.19824219","-10.40625","0.03125","-0.5625"
"1573730519302","222","0.29785156","-0.9277344","-0.16796875","-0.3125","9.875","-3.0"
"1573730519302","223","0.3642578","-0.9511719","-0.18359375","4.8125","1.75","-3.5625"
"1573730519302","224","0.33007812","-0.921875","-0.17675781","10.40625","-7.34375","-3.6875"
"1573730519302","225","0.37304688","-0.9482422","-0.14453125","10.1875","-18.25","-3.5"
"1573730519303","226","0.19824219","-0.9404297","-0.083984375","-7.875","-16.25","-3.96875"
"1573730519303","227","0.21484375","-0.9345703","-0.19238281","5.78125","1.09375","-8.0625"
"1573730519303","228","0.33984375","-0.9658203","-0.203125","0.03125","-0.25","-9.28125"
"1573730519304","229","0.4326172","-0.921875","-0.19335938","2.4375","-6.375","0.21875"
"1573730519698","230","0.3642578","-0.9091797","-0.17480469","5.71875","-3.3125","0.28125"
"1573730519698","231","0.27734375","-0.94433594","-0.15625","7.5625","9.03125","3.03125"
"1573730519699","232","0.33984375","-0.9121094","-0.18847656","0.40625","8.71875","4.875"
"1573730519699","233","0.33203125","-0.9267578","-0.14355469","-14.0","3.84375","8.03125"
"1573730519699","234","0.3251953","-0.9589844","-0.18066406","-7.40625","6.8125","2.5"
"1573730519699","235","0.31347656","-0.9199219","-0.16308594","-6.90625","8.40625","1.875"
"1573730519700","236","0.35351562","-0.9316406","-0.20117188","-11.125","7.4375","0.46875"
"1573730519700","237","0.34277344","-0.9345703","-0.21777344","-11.375","5.53125","1.03125"
"1573730519700","238","0.328125","-0.9189453","-0.17285156","-10.625","9.3125","2.71875"
"1573730519700","239","0.27734375","-0.93359375","-0.20410156","-8.1875","14.09375","2.1875"
"1573730520096","240","0.23730469","-0.96777344","-0.23242188","-2.28125","16.15625","-3.5"
"1573730520097","241","0.32714844","-0.9248047","-0.15429688","-13.375","27.6875","-6.375"
"1573730520098","242","0.20605469","-0.9863281","-0.21386719","-4.71875","20.5625","-13.5625"
"1573730520098","243","0.33789062","-0.86035156","-0.0859375","-14.96875","39.46875","-8.375"
"1573730520098","244","0.46972656","-0.91796875","-0.26367188","-13.03125","7.84375","2.3125"
"1573730520099","245","0.34375","-0.8642578","-0.14746094","-20.21875","22.6875","9.125"
"1573730520099","246","0.3857422","-0.86816406","-0.22460938","3.46875","23.3125","11.8125"
"1573730520099","247","0.43847656","-0.9277344","-0.20800781","-4.84375","7.96875","15.3125"
"1573730520099","248","0.2919922","-0.9316406","-0.17675781","6.5625","20.84375","6.6875"
"1573730520100","249","0.3095703","-0.9472656","-0.22167969","15.5","-1.40625","-0.5625"
"1573730520494","250","0.390625","-0.93847656","-0.15332031","0.40625","4.1875","7.375"
"1573730520495","251","0.26171875","-0.90527344","-0.15722656","-4.84375","3.46875","1.21875"
"1573730520495","252","0.2763672","-0.9667969","-0.17480469","3.90625","2.5625","0.78125"
"1573730520496","253","0.28222656","-0.9785156","-0.26367188","15.625","-1.71875","-2.8125"
"1573730520496","254","0.32910156","-0.9511719","-0.17285156","14.375","12.9375","2.5625"
"1573730520505","255","0.2705078","-0.93847656","-0.087890625","5.21875","17.75","-2.625"
"1573730520505","256","0.29296875","-0.9716797","-0.12988281","9.9375","17.875","3.03125"
"1573730520506","257","0.3408203","-0.9785156","-0.11328125","-7.34375","17.125","3.09375"
"1573730520506","258","0.328125","-0.9296875","-0.12109375","-11.25","7.96875","5.0625"
"1573730520506","259","0.36035156","-0.9091797","-0.12890625","-9.21875","5.28125","7.6875"
"1573730520891","260","0.28125","-0.9589844","-0.13964844","-10.875","2.4375","4.3125"
"1573730520891","261","0.22851562","-0.99609375","-0.12792969","-14.125","1.625","-0.8125"
"1573730520892","262","0.22753906","-0.9453125","-0.11816406","-14.90625","7.5","-7.09375"
"1573730520892","263","0.29296875","-0.94433594","-0.17773438","3.65625","7.25","-9.46875"
"1573730520892","264","0.35058594","-0.95410156","-0.16503906","7.1875","-0.375","-7.59375"
"1573730520893","265","0.3642578","-0.9375","-0.12988281","11.09375","-4.84375","-6.0625"
"1573730520893","266","0.36035156","-0.95703125","-0.119140625","3.9375","-1.125","-1.0625"
"1573730520893","267","0.32714844","-0.9589844","-0.13769531","-2.59375","-10.5","-0.8125"
"1573730520893","268","0.30566406","-0.93652344","-0.15136719","-1.53125","-14.90625","-2.28125"
"1573730520894","269","0.28320312","-0.96875","-0.16210938","2.3125","-15.03125","-1.40625"
"1573730521486","270","0.3046875","-0.9453125","-0.14746094","0.65625","-10.625","-2.875"
"1573730521486","271","0.2998047","-0.94921875","-0.17089844","0.59375","-6.0625","-1.0"
"1573730521487","272","0.30371094","-0.9423828","-0.14648438","-3.3125","-0.0625","-1.40625"
"1573730521487","273","0.29296875","-0.93652344","-0.14941406","-7.53125","0.96875","-2.59375"
"1573730521487","274","0.32421875","-0.9453125","-0.17089844","-3.0","3.40625","-4.21875"
"1573730521487","275","0.3310547","-0.93359375","-0.16015625","-6.1875","2.3125","-2.9375"
"1573730521487","276","0.32226562","-0.92871094","-0.16015625","-7.09375","3.9375","-3.90625"
"1573730521489","277","0.34277344","-0.92089844","-0.17382812","-4.15625","2.84375","-2.46875"
"1573730521489","278","0.35253906","-0.921875","-0.18066406","-5.09375","2.0625","-1.46875"
"1573730521489","279","0.3330078","-0.93847656","-0.15917969","-1.125","-0.5625","-1.125"
"1573730521686","280","0.33496094","-0.9169922","-0.17089844","-1.96875","-1.59375","-0.9375"
"1573730521687","281","0.3154297","-0.9423828","-0.16894531","-1.3125","-0.875","-1.125"
"1573730521687","282","0.34375","-0.9375","-0.18554688","-1.34375","-2.875","-0.5625"
"1573730521687","283","0.328125","-0.92871094","-0.17382812","-5.15625","-3.1875","0.0"
"1573730521687","284","0.2685547","-0.96875","-0.14941406","-10.5","1.75","-1.84375"
"1573730521688","285","0.33984375","-0.9248047","-0.2109375","5.40625","-0.6875","-2.28125"
"1573730521688","286","0.3515625","-0.9433594","-0.1796875","-0.6875","4.25","1.4375"
"1573730521688","287","0.33007812","-0.92578125","-0.17480469","3.03125","7.5625","1.15625"
"1573730521688","288","0.3154297","-0.9550781","-0.17089844","2.96875","0.46875","-0.6875"
"1573730521690","289","0.31640625","-0.93652344","-0.13964844","0.46875","5.40625","-1.125"
"1573730522084","290","0.3251953","-0.9316406","-0.17480469","-1.34375","5.71875","-3.75"
"1573730522084","291","0.37597656","-0.93652344","-0.17675781","-3.25","1.09375","0.46875"
"1573730522084","292","0.30859375","-0.9423828","-0.16894531","-3.5","3.9375","-3.90625"
"1573730522084","293","0.30664062","-0.9238281","-0.14550781","-10.8125","5.40625","-3.625"
"1573730522085","294","0.34570312","-0.93652344","-0.20703125","-12.65625","2.59375","-2.625"
"1573730522085","295","0.3408203","-0.95703125","-0.1640625","-14.25","3.28125","-1.1875"
"1573730522085","296","0.32617188","-0.890625","-0.17382812","-4.21875","2.1875","-2.59375"
"1573730522085","297","0.3564453","-0.9375","-0.19238281","-5.4375","-1.0","-3.625"
"1573730522086","298","0.33496094","-0.94433594","-0.19238281","-16.25","-9.90625","-3.375"
"1573730522086","299","0.3544922","-0.9140625","-0.2109375","-17.46875","-13.6875","-3.375"
"1573730522479","300","0.34375","-0.9189453","-0.1953125","-17.53125","-9.0","-2.09375"
"1573730522481","301","0.32226562","-0.9160156","-0.23535156","-8.125","-4.59375","-3.6875"
"1573730522481","302","0.36914062","-0.93066406","-0.23925781","6.03125","-11.375","-2.59375"
"1573730522481","303","0.31054688","-0.8925781","-0.22265625","-0.875","-11.125","-1.0"
"1573730522482","304","0.3798828","-0.9160156","-0.23339844","0.78125","-6.53125","2.3125"
"1573730522482","305","0.3984375","-0.89453125","-0.26660156","-2.28125","-10.28125","6.21875"
"1573730522482","306","0.2626953","-0.9013672","-0.21582031","-3.25","-6.90625","2.71875"
"1573730522482","307","0.2529297","-0.95996094","-0.20117188","-11.4375","-2.15625","-1.0"
"1573730522483","308","0.29492188","-0.9199219","-0.2421875","-7.40625","0.65625","-1.53125"
"1573730522483","309","0.2705078","-0.94433594","-0.22949219","-11.4375","7.0625","-5.03125"
"1573730522879","310","0.31347656","-0.9658203","-0.25097656","-2.75","7.0625","-4.96875"
"1573730522879","311","0.33691406","-0.9199219","-0.23828125","-16.3125","1.375","-3.875"
"1573730522879","312","0.3359375","-0.9511719","-0.2890625","-0.5625","-0.875","-4.78125"
"1573730522881","313","0.3642578","-0.8886719","-0.3154297","7.4375","-1.46875","-2.40625"
"1573730522881","314","0.32128906","-0.89160156","-0.32617188","10.375","0.03125","-4.03125"
"1573730522881","315","0.390625","-0.8828125","-0.26953125","10.40625","-2.625","1.3125"
"1573730522882","316","0.31152344","-0.8769531","-0.23242188","-5.21875","-0.9375","1.4375"
"1573730522882","317","0.3408203","-0.9160156","-0.30371094","10.1875","0.15625","2.4375"
"1573730522882","318","0.359375","-0.90625","-0.24414062","-1.84375","3.71875","2.90625"
"1573730522882","319","0.34277344","-0.93652344","-0.2421875","-2.46875","-3.0","5.0"
"1573730523276","320","0.3466797","-0.9316406","-0.27441406","12.875","-10.75","3.46875"
"1573730523276","321","0.32421875","-0.92089844","-0.23046875","7.75","-2.9375","4.6875"
"1573730523277","322","0.2890625","-0.9511719","-0.19921875","0.90625","-0.8125","2.0625"
"1573730523277","323","0.30566406","-0.9238281","-0.26367188","3.53125","-9.96875","-0.8125"
"1573730523277","324","0.30078125","-0.9423828","-0.21191406","-1.125","3.40625","-4.03125"
"1573730523278","325","0.2529297","-0.9160156","-0.18066406","-12.78125","4.8125","-6.25"
"1573730523279","326","0.2939453","-0.9267578","-0.20214844","-20.21875","3.46875","-4.40625"
"1573730523279","327","0.3466797","-0.92285156","-0.22753906","-21.375","4.3125","-1.59375"
"1573730523279","328","0.4140625","-0.9316406","-0.296875","-8.0625","-5.875","4.6875"
"1573730523280","329","0.32421875","-0.92578125","-0.28710938","11.46875","-7.78125","1.5625"
"1573730523675","330","0.26171875","-0.9375","-0.2578125","22.125","-2.15625","-3.625"
"1573730523675","331","0.26464844","-0.9277344","-0.24414062","16.78125","2.78125","-5.625"
"1573730523675","332","0.2998047","-0.9248047","-0.19726562","1.5625","10.0625","-3.90625"
"1573730523676","333","0.30371094","-0.93359375","-0.19726562","-5.375","9.875","-3.6875"
"1573730523676","334","0.35742188","-0.9189453","-0.23339844","-1.1875","7.96875","0.28125"
"1573730523676","335","0.35742188","-0.9277344","-0.24023438","-1.34375","7.4375","1.5625"
"1573730523676","336","0.3720703","-0.90722656","-0.20800781","-4.21875","5.0","2.96875"
"1573730523678","337","0.37890625","-0.9199219","-0.25390625","4.125","-4.53125","4.6875"
"1573730523678","338","0.31445312","-0.9453125","-0.24316406","5.71875","-7.8125","1.3125"
"1573730523678","339","0.27539062","-0.93847656","-0.20117188","5.84375","-5.8125","-6.1875"
"1573730524069","340","0.2548828","-0.9169922","-0.16210938","-6.0625","5.53125","-6.96875"
"1573730524070","341","0.36816406","-0.9404297","-0.21484375","-8.5","-3.3125","-4.15625"
"1573730524070","342","0.31640625","-0.9345703","-0.20410156","-8.25","3.28125","-3.75"
"1573730524070","343","0.25097656","-0.91796875","-0.09863281","-23.9375","28.4375","-1.3125"
"1573730524071","344","0.34472656","-0.9326172","-0.26660156","-26.5","2.96875","-5.625"
"1573730524071","345","0.32128906","-0.953125","-0.22363281","-14.53125","14.28125","-2.15625"
"1573730524071","346","0.37109375","-0.8486328","-0.30664062","-10.5625","10.96875","-2.75"
"1573730524071","347","0.3798828","-0.93652344","-0.26367188","-3.625","16.84375","3.90625"
"1573730524072","348","0.41308594","-0.84277344","-0.33398438","4.6875","6.34375","6.34375"
"1573730524073","349","0.32617188","-0.9199219","-0.25976562","0.34375","21.65625","11.59375"
"1573730524467","350","0.37402344","-0.8720703","-0.2861328","8.84375","18.40625","9.6875"
"1573730524468","351","0.36328125","-0.9248047","-0.27929688","-4.59375","12.4375","8.84375"
"1573730524468","352","0.2607422","-0.9082031","-0.27148438","3.65625","11.9375","5.21875"
"1573730524469","353","0.35253906","-0.9511719","-0.21289062","2.90625","13.65625","3.90625"
"1573730524469","354","0.36328125","-0.91796875","-0.2421875","-4.46875","12.6875","6.5625"
"1573730524469","355","0.29589844","-0.93359375","-0.23632812","3.21875","13.03125","1.3125"
"1573730524469","356","0.2685547","-0.96972656","-0.20019531","-4.09375","11.65625","2.3125"
"1573730524470","357","0.30273438","-0.91308594","-0.203125","-0.125","16.71875","1.3125"
"1573730524470","358","0.34570312","-0.9238281","-0.21875","7.25","3.03125","-1.96875"
"1573730524470","359","0.30664062","-0.96191406","-0.18847656","12.5","8.03125","-2.75"
"1573730524868","360","0.37109375","-0.92089844","-0.17675781","-1.34375","9.3125","1.75"
"1573730524869","361","0.29589844","-0.93847656","-0.13476562","-9.53125","10.0","0.0"
"1573730524870","362","0.31445312","-0.9609375","-0.21875","0.28125","3.34375","-1.71875"
"1573730524870","363","0.3671875","-0.93359375","-0.21191406","1.8125","-1.59375","2.65625"
"1573730524870","364","0.35253906","-0.90625","-0.19433594","-0.625","-4.34375","1.375"
"1573730524871","365","0.23535156","-0.9550781","-0.18652344","0.09375","-0.625","-1.25"
"1573730524871","366","0.30078125","-0.9501953","-0.21777344","6.75","-5.09375","-2.03125"
"1573730524871","367","0.26757812","-0.9355469","-0.20605469","7.5","0.21875","-2.59375"
"1573730524872","368","0.29003906","-0.9326172","-0.18457031","8.46875","2.25","-3.4375"
"1573730524872","369","0.31054688","-0.9716797","-0.16601562","8.34375","3.40625","-3.25"
"1573730525264","370","0.33007812","-0.9628906","-0.11816406","0.84375","6.46875","0.96875"
"1573730525264","371","0.31347656","-0.9511719","-0.13378906","0.15625","9.5625","5.90625"
"1573730525264","372","0.3076172","-0.9345703","-0.16894531","-0.875","8.40625","8.15625"
"1573730525266","373","0.31835938","-0.9453125","-0.18261719","3.59375","5.53125","7.25"
"1573730525266","374","0.33007812","-0.9511719","-0.15722656","0.09375","-1.1875","6.15625"
"1573730525267","375","0.3046875","-0.9267578","-0.16503906","0.90625","1.375","2.125"
"1573730525267","376","0.2939453","-0.9560547","-0.17675781","1.5","0.15625","-0.4375"
"1573730525268","377","0.30273438","-0.9453125","-0.16113281","-3.0625","-1.59375","-2.34375"
"1573730525269","378","0.28320312","-0.93359375","-0.16894531","-8.5","-0.4375","-3.625"
"1573730525269","379","0.29589844","-0.9394531","-0.19726562","-8.4375","2.125","-4.28125"
"1573730525661","380","0.31835938","-0.95996094","-0.1796875","-13.0625","5.28125","-3.375"
"1573730525662","381","0.2998047","-0.9355469","-0.18554688","-6.25","-0.375","-4.59375"
"1573730525662","382","0.32226562","-0.953125","-0.16796875","-0.5625","-4.34375","-3.875"
"1573730525662","383","0.2939453","-0.9433594","-0.140625","-5.03125","-1.3125","-3.875"
"1573730525662","384","0.29882812","-0.9511719","-0.12597656","-3.5","1.3125","-2.03125"
"1573730525664","385","0.30566406","-0.9433594","-0.171875","-6.125","0.65625","-0.8125"
"1573730525664","386","0.30664062","-0.9316406","-0.18457031","-6.0625","2.84375","0.03125"
"1573730525665","387","0.3046875","-0.9394531","-0.21972656","-5.21875","-1.0","0.46875"
"1573730525665","388","0.32128906","-0.9277344","-0.21191406","-3.5625","2.25","0.34375"
"1573730525665","389","0.28515625","-0.9326172","-0.21777344","3.21875","3.71875","-2.15625"
"1573730526057","390","0.3251953","-0.9316406","-0.19238281","4.5625","1.8125","-2.09375"
"1573730526057","391","0.30566406","-0.92089844","-0.1640625","-1.78125","3.9375","-5.6875"
"1573730526058","392","0.35546875","-0.93652344","-0.18359375","0.78125","0.28125","-4.78125"
"1573730526058","393","0.35839844","-0.9345703","-0.16308594","-6.375","-5.625","-4.21875"
"1573730526058","394","0.37109375","-0.92089844","-0.18847656","-3.6875","-5.09375","-2.75"
"1573730526058","395","0.38085938","-0.9423828","-0.21386719","-2.09375","-15.09375","-0.625"
"1573730526059","396","0.23046875","-0.9248047","-0.20507812","-3.3125","-18.625","-3.96875"
"1573730526060","397","0.3076172","-0.9296875","-0.24121094","3.28125","-12.21875","-3.125"
"1573730526060","398","0.26367188","-0.95703125","-0.22753906","3.65625","-0.625","-6.53125"
"1573730526060","399","0.2939453","-0.9199219","-0.15625","-6.25","7.84375","-2.15625"
"1573730526652","400","0.34179688","-0.9375","-0.19433594","-6.4375","10.125","-1.34375"
"1573730526652","401","0.31933594","-0.95703125","-0.20410156","-5.21875","10.125","-0.375"
"1573730526653","402","0.34570312","-0.9296875","-0.16796875","-12.46875","12.8125","1.5625"
"1573730526653","403","0.37890625","-0.9160156","-0.19628906","-8.5","9.4375","0.65625"
"1573730526653","404","0.38378906","-0.9355469","-0.23828125","-4.46875","0.65625","2.125"
"1573730526653","405","0.30859375","-0.9042969","-0.21875","-4.96875","-1.3125","1.21875"
"1573730526654","406","0.28125","-0.9423828","-0.21679688","9.5","-0.9375","-1.90625"
"1573730526654","407","0.30859375","-0.9472656","-0.18652344","3.28125","-1.46875","-2.40625"
"1573730526654","408","0.31054688","-0.91796875","-0.19238281","-6.0","5.71875","0.0"
"1573730526655","409","0.3408203","-0.95214844","-0.24414062","-2.6875","3.9375","-0.4375"
"1573730526852","410","0.3642578","-0.9453125","-0.23535156","-4.21875","-1.46875","1.6875"
"1573730526852","411","0.32128906","-0.8984375","-0.18945312","-11.71875","0.0","1.625"
"1573730526853","412","0.3173828","-0.921875","-0.21972656","-2.625","-6.1875","0.0"
"1573730526853","413","0.28320312","-0.9355469","-0.21386719","-1.53125","-9.59375","-2.6875"
"1573730526853","414","0.2734375","-0.93066406","-0.21484375","8.09375","-18.9375","-5.75"
"1573730526853","415","0.34277344","-0.93652344","-0.21191406","13.53125","-19.3125","-2.03125"
"1573730526854","416","0.296875","-0.9501953","-0.20410156","-3.90625","3.28125","-1.65625"
"1573730526854","417","0.33496094","-0.9345703","-0.20800781","-3.5625","0.84375","-1.40625"
"1573730526854","418","0.3154297","-0.953125","-0.21582031","5.71875","-6.0625","-1.125"
"1573730526854","419","0.32128906","-0.921875","-0.21582031","1.375","-2.59375","-1.84375"
"1573730527251","420","0.3408203","-0.9140625","-0.2109375","-2.53125","-3.3125","-0.3125"
"1573730527253","421","0.30371094","-0.9316406","-0.203125","-9.0","1.09375","-1.90625"
"1573730527253","422","0.2939453","-0.9277344","-0.20214844","-20.15625","5.59375","-1.84375"
"1573730527254","423","0.33203125","-0.91015625","-0.2529297","-14.96875","6.09375","-5.15625"
"1573730527254","424","0.359375","-0.9589844","-0.296875","-0.1875","-3.75","-5.75"
"1573730527254","425","0.35546875","-0.89160156","-0.24023438","-4.40625","-8.5","-4.78125"
"1573730527254","426","0.3173828","-0.9277344","-0.2626953","2.0625","-12.71875","-8.5625"
"1573730527255","427","0.31152344","-0.9091797","-0.2421875","5.96875","-18.375","-8.125"
"1573730527255","428","0.33789062","-0.9472656","-0.23828125","3.59375","-14.25","-6.0625"
"1573730527255","429","0.3486328","-0.92089844","-0.27148438","6.5","-16.8125","-5.6875"
"1573730527649","430","0.2890625","-0.8964844","-0.20898438","-3.6875","-4.15625","-3.1875"
"1573730527650","431","0.30664062","-0.92089844","-0.24902344","-9.84375","2.96875","-1.84375"
"1573730527650","432","0.3388672","-0.91796875","-0.27246094","-9.71875","2.25","-0.8125"
"1573730527651","433","0.3076172","-0.8886719","-0.22558594","-17.96875","13.34375","0.34375"
"1573730527652","434","0.359375","-0.90722656","-0.2841797","-10.5625","9.3125","0.46875"
"1573730527652","435","0.38867188","-0.9121094","-0.28027344","-7.71875","-3.6875","1.3125"
"1573730527652","436","0.32617188","-0.90722656","-0.31347656","4.5","-4.46875","-0.6875"
"1573730527653","437","0.33984375","-0.9082031","-0.28710938","11.03125","2.1875","1.625"
"1573730527653","438","0.3330078","-0.9140625","-0.26953125","6.28125","-4.03125","0.84375"
"1573730527653","439","0.31445312","-0.92578125","-0.2763672","13.09375","-3.25","2.3125"
"1573730528044","440","0.3125","-0.9267578","-0.24316406","7.5625","1.75","3.46875"
"1573730528045","441","0.29785156","-0.9140625","-0.2578125","2.375","7.5","7.25"
"1573730528045","442","0.3408203","-0.92578125","-0.2626953","-1.78125","8.40625","7.6875"
"1573730528045","443","0.3359375","-0.92578125","-0.26757812","3.03125","7.90625","7.8125"
"1573730528046","444","0.34375","-0.9296875","-0.23535156","1.03125","10.71875","8.46875"
"1573730528047","445","0.32910156","-0.92578125","-0.23339844","0.46875","9.25","6.6875"
"1573730528047","446","0.2783203","-0.93359375","-0.203125","0.40625","5.21875","3.21875"
"1573730528047","447","0.3017578","-0.93847656","-0.20898438","1.21875","4.3125","0.84375"
"1573730528047","448","0.2919922","-0.92089844","-0.1953125","-7.21875","9.75","0.0"
"1573730528048","449","0.296875","-0.93359375","-0.2265625","-4.90625","9.875","-1.0"
"1573730528443","450","0.3388672","-0.9423828","-0.23242188","-7.71875","5.1875","-0.875"
"1573730528444","451","0.31054688","-0.9326172","-0.22558594","-5.25","2.71875","-1.25"
"1573730528444","452","0.2998047","-0.9345703","-0.24511719","5.84375","-0.125","-2.46875"
"1573730528444","453","0.2841797","-0.92871094","-0.20019531","1.03125","0.46875","-2.875"
"1573730528445","454","0.3125","-0.94921875","-0.2548828","10.40625","-2.09375","-3.0625"
"1573730528445","455","0.3564453","-0.9560547","-0.20019531","2.84375","-4.34375","-1.34375"
"1573730528445","456","0.2841797","-0.90234375","-0.16992188","-1.0","-7.09375","-3.875"
"1573730528445","457","0.29785156","-0.9433594","-0.21679688","1.03125","1.3125","-6.4375"
"1573730528446","458","0.33203125","-0.9667969","-0.20117188","-14.3125","-5.6875","-5.8125"
"1573730528446","459","0.20605469","-0.92089844","-0.18261719","-27.96875","-4.59375","-10.09375"
"1573730528841","460","0.29492188","-0.9628906","-0.23828125","-13.25","5.84375","-9.59375"
"1573730528841","461","0.37695312","-0.8925781","-0.2607422","-23.09375","0.96875","-7.21875"
"1573730528842","462","0.21875","-0.9326172","-0.25","-31.6875","17.375","-4.59375"
"1573730528842","463","0.41503906","-0.8935547","-0.3125","-14.84375","18.0625","-2.75"
"1573730528842","464","0.328125","-0.9169922","-0.29882812","-16.125","19.6875","1.4375"
"1573730528842","465","0.34277344","-0.84375","-0.26953125","-25.84375","20.96875","1.5"
"1573730528843","466","0.36132812","-0.8847656","-0.3876953","16.90625","22.3125","3.21875"
"1573730528843","467","0.44335938","-0.90722656","-0.2861328","-4.09375","16.71875","8.15625"
"1573730528843","468","0.33789062","-0.80566406","-0.33203125","3.65625","14.15625","9.375"
"1573730528845","469","0.39648438","-0.91308594","-0.31835938","15.1875","15.625","9.8125"
"1573730529238","470","0.38964844","-0.88378906","-0.3486328","8.03125","15.4375","7.5625"
"1573730529239","471","0.36914062","-0.9394531","-0.25683594","9.9375","8.15625","8.15625"
"1573730529239","472","0.3359375","-0.89160156","-0.21875","3.40625","15.71875","6.9375"
"1573730529239","473","0.30859375","-0.9160156","-0.22851562","7.6875","14.28125","8.28125"
"1573730529240","474","0.32910156","-0.9892578","-0.21679688","-11.5","-0.0625","-3.6875"
"1573730529240","475","0.2939453","-0.9482422","-0.18359375","-6.25","3.53125","-1.78125"
"1573730529240","476","0.24414062","-0.92871094","-0.18554688","-11.625","4.0625","-5.4375"
"1573730529240","477","0.2734375","-0.96972656","-0.20800781","-6.65625","10.40625","-5.6875"
"1573730529241","478","0.31054688","-0.9375","-0.23730469","4.0","2.0","-4.78125"
"1573730529241","479","0.3310547","-0.9189453","-0.21386719","6.9375","4.5625","-1.53125"
"1573730529635","480","0.32421875","-0.92285156","-0.22460938","10.375","2.1875","1.75"
"1573730529635","481","0.33203125","-0.96484375","-0.27539062","14.4375","-0.6875","0.96875"
"1573730529636","482","0.3955078","-0.9091797","-0.25","17.8125","-7.34375","5.78125"
"1573730529636","483","0.25097656","-0.93652344","-0.15234375","4.625","-1.40625","1.875"
"1573730529636","484","0.27734375","-0.94433594","-0.18359375","-6.4375","11.09375","0.09375"
"1573730529636","485","0.36132812","-0.94140625","-0.23144531","-3.0625","3.9375","0.09375"
"1573730529637","486","0.33691406","-0.93652344","-0.22167969","-4.03125","-2.40625","0.03125"
"1573730529637","487","0.3154297","-0.91015625","-0.23144531","-4.28125","-4.65625","-5.6875"
"1573730529637","488","0.3671875","-0.90625","-0.23632812","2.0","-5.375","-2.21875"
"1573730529637","489","0.31347656","-0.92871094","-0.20800781","-6.53125","-9.15625","-6.3125"
"1573730530035","490","0.30078125","-0.9375","-0.20800781","-5.25","-4.90625","-4.46875"
"1573730530035","491","0.3232422","-0.9238281","-0.22558594","-5.625","-3.625","-4.28125"
"1573730530035","492","0.32226562","-0.9267578","-0.23730469","-4.15625","-4.84375","-2.6875"
"1573730530036","493","0.30371094","-0.93652344","-0.23535156","0.46875","-2.625","-1.1875"
"1573730530036","494","0.31347656","-0.92578125","-0.22949219","-0.0625","1.4375","-0.75"
"1573730530036","495","0.32910156","-0.9267578","-0.2421875","3.34375","4.3125","1.6875"
"1573730530037","496","0.3408203","-0.9355469","-0.23144531","1.75","3.78125","1.375"
"1573730530037","497","0.32421875","-0.9267578","-0.234375","1.375","5.125","1.3125"
"1573730530037","498","0.36621094","-0.8857422","-0.25","4.125","5.0","3.65625"
"1573730530037","499","0.35546875","-0.921875","-0.22265625","3.03125","2.71875","6.21875"
"1573730530430","500","0.2763672","-0.9580078","-0.18164062","-7.40625","4.0","-1.3125"
"1573730530431","501","0.29296875","-0.9404297","-0.17480469","-6.25","5.28125","-0.75"
"1573730530431","502","0.30566406","-0.91503906","-0.20117188","-8.25","4.875","-0.5625"
"1573730530431","503","0.30078125","-0.95410156","-0.22851562","-6.25","4.625","-2.59375"
"1573730530431","504","0.3779297","-0.94140625","-0.2734375","4.0625","1.5","1.3125"
"1573730530432","505","0.36328125","-0.9296875","-0.24414062","3.59375","0.71875","2.0"
"1573730530432","506","0.4013672","-0.92578125","-0.26171875","17.125","-7.8125","4.0"
"1573730530432","507","0.32714844","-0.89746094","-0.15429688","0.46875","-9.28125","1.625"
"1573730530432","508","0.23242188","-0.9277344","-0.11425781","-16.5","-3.5","-0.625"
"1573730530433","509","0.1796875","-0.9638672","-0.12011719","-25.21875","5.0625","-9.84375"
"1573730531026","510","0.22558594","-0.97753906","-0.22851562","-13.9375","10.96875","-7.9375"
"1573730531027","511","0.38085938","-0.8925781","-0.26757812","-32.84375","15.65625","-2.8125"
"1573730531027","512","0.31640625","-0.953125","-0.2939453","-9.59375","7.75","-4.46875"
"1573730531027","513","0.3798828","-0.8828125","-0.29101562","-6.125","-3.375","-1.3125"
"1573730531028","514","0.38183594","-0.92578125","-0.2841797","9.09375","-4.15625","4.1875"
"1573730531028","515","0.24023438","-0.9394531","-0.2109375","-10.6875","4.5","-5.15625"
"1573730531028","516","0.35546875","-0.8828125","-0.3154297","6.5625","4.8125","4.0"
"1573730531029","517","0.328125","-0.9482422","-0.2109375","-13.875","2.4375","-5.375"
"1573730531030","518","0.38671875","-0.88671875","-0.2841797","-2.53125","-8.3125","3.09375"
"1573730531030","519","0.31152344","-0.95214844","-0.2861328","-0.0625","-5.5625","-7.53125"
"1573730531225","520","0.3623047","-0.8847656","-0.32128906","2.4375","-7.21875","-2.6875"
"1573730531225","521","0.31347656","-0.9160156","-0.2685547","-3.375","-2.75","-6.375"
"1573730531225","522","0.29882812","-0.92089844","-0.25390625","-9.46875","1.5625","-5.375"
"1573730531225","523","0.33496094","-0.9140625","-0.26367188","-8.125","2.78125","-3.625"
"1573730531226","524","0.34570312","-0.9267578","-0.28320312","-8.875","4.9375","-3.4375"
"1573730531226","525","0.33984375","-0.9003906","-0.28515625","-8.0","3.34375","-4.34375"
"1573730531226","526","0.3642578","-0.90234375","-0.29589844","-9.53125","-0.25","-5.4375"
"1573730531226","527","0.3671875","-0.90722656","-0.296875","-3.75","-3.0625","-7.03125"
"1573730531227","528","0.32421875","-0.8847656","-0.30273438","-5.5625","-5.6875","-7.28125"
"1573730531228","529","0.3544922","-0.9121094","-0.32617188","-0.625","-4.46875","-6.25"
"1573730531622","530","0.3642578","-0.8964844","-0.30566406","0.46875","-8.0","-7.53125"
"1573730531622","531","0.3701172","-0.8828125","-0.3251953","10.96875","-14.65625","-6.71875"
"1573730531623","532","0.4140625","-0.90234375","-0.32617188","19.34375","-19.3125","-3.4375"
"1573730531623","533","0.3203125","-0.8779297","-0.28808594","7.4375","-13.8125","-1.84375"
"1573730531623","534","0.359375","-0.9013672","-0.27734375","7.96875","-3.1875","-1.59375"
"1573730531624","535","0.3251953","-0.8876953","-0.24511719","-6.0625","0.78125","-0.1875"
"1573730531624","536","0.33203125","-0.90234375","-0.26171875","-16.25","3.15625","-0.25"
"1573730531624","537","0.36132812","-0.88671875","-0.33496094","-9.15625","-2.8125","-2.40625"
"1573730531624","538","0.37597656","-0.9013672","-0.3154297","-4.40625","0.78125","-2.40625"
"1573730531624","539","0.39257812","-0.8984375","-0.34277344","10.96875","-10.875","-4.59375"
"1573730532221","540","0.36132812","-0.8964844","-0.30566406","18.59375","-12.78125","-3.125"
"1573730532223","541","0.35058594","-0.90625","-0.2841797","13.0","-6.96875","-5.09375"
"1573730532223","542","0.37402344","-0.9560547","-0.2939453","22.125","-20.59375","-8.8125"
"1573730532223","543","0.27539062","-0.87109375","-0.20214844","3.65625","-26.03125","-1.96875"
"1573730532224","544","0.31640625","-0.8964844","-0.24121094","-5.75","-34.625","5.78125"
"1573730532224","545","0.39257812","-0.92578125","-0.41796875","19.09375","-4.03125","3.40625"
"1573730532224","546","0.3564453","-0.89453125","-0.27441406","5.46875","-1.34375","4.6875"
"1573730532224","547","0.3359375","-0.8925781","-0.23535156","0.65625","-1.65625","3.46875"
"1573730532225","548","0.32910156","-0.9375","-0.3466797","14.75","2.96875","2.5625"
"1573730532225","549","0.3515625","-0.9326172","-0.26367188","13.84375","9.8125","2.0"
"1573730532616","550","0.32910156","-0.90234375","-0.22949219","4.75","5.0","1.3125"
"1573730532616","551","0.3125","-0.9267578","-0.25976562","10.65625","-6.3125","-0.4375"
"1573730532617","552","0.34277344","-0.9199219","-0.26757812","4.9375","0.65625","1.875"
"1573730532618","553","0.3564453","-0.9277344","-0.23730469","2.3125","1.3125","-1.0625"
"1573730532618","554","0.3251953","-0.92578125","-0.22753906","1.6875","-5.21875","-2.59375"
"1573730532618","555","0.3251953","-0.9277344","-0.23535156","5.28125","-1.71875","-4.28125"
"1573730532619","556","0.31640625","-0.9189453","-0.18457031","-0.6875","-1.40625","-4.90625"
"1573730532619","557","0.3408203","-0.9248047","-0.20507812","-3.1875","-1.65625","-5.5625"
"1573730532619","558","0.32910156","-0.9267578","-0.21191406","-8.0","-4.34375","-5.5625"
"1573730532619","559","0.328125","-0.9189453","-0.1875","-11.625","-0.875","-5.09375"
"1573730532815","560","0.3017578","-0.9375","-0.25097656","-7.78125","0.71875","-6.375"
"1573730532815","561","0.3095703","-0.9003906","-0.22851562","-16.75","9.5","-2.8125"
"1573730532816","562","0.34375","-0.92578125","-0.26171875","-15.34375","14.3125","-0.25"
"1573730532816","563","0.265625","-0.96972656","-0.33496094","-4.21875","21.09375","-2.875"
"1573730532816","564","0.3359375","-0.984375","-0.19140625","-0.25","42.71875","-6.125"
"1573730532817","565","0.38085938","-0.8330078","-0.14746094","-17.53125","23.3125","-3.875"
"1573730532818","566","0.43847656","-0.8964844","-0.15332031","-19.96875","14.5625","-3.75"
"1573730532818","567","0.3388672","-0.8535156","-0.31347656","-6.25","18.21875","-2.875"
"1573730532818","568","0.5107422","-0.8886719","-0.3466797","6.6875","7.25","-2.875"
"1573730532818","569","0.37890625","-0.8261719","-0.265625","-3.75","-1.59375","-2.03125"
"1573730533214","570","0.30566406","-0.9248047","-0.26171875","-2.75","0.28125","-1.90625"
"1573730533214","571","0.32128906","-0.8496094","-0.2607422","-6.3125","20.25","-3.4375"
"1573730533214","572","0.5449219","-0.91503906","-0.31347656","2.5","-0.5","6.09375"
"1573730533215","573","0.23144531","-0.8544922","-0.24316406","-6.25","18.59375","-0.875"
"1573730533215","574","0.43554688","-0.9140625","-0.28222656","-3.5","10.65625","3.59375"
"1573730533215","575","0.23339844","-0.890625","-0.2841797","-5.5625","32.6875","-6.125"
"1573730533215","576","0.5498047","-0.8779297","-0.2890625","6.5625","26.78125","4.5625"
"1573730533217","577","0.42871094","-0.90722656","-0.23339844","-1.53125","19.28125","8.59375"
"1573730533217","578","0.42773438","-0.8095703","-0.22753906","8.71875","19.09375","18.84375"
"1573730533218","579","0.41210938","-0.9785156","-0.23730469","-5.15625","9.75","9.6875"
"1573730533610","580","0.29296875","-0.8935547","-0.19628906","6.8125","2.0","10.84375"
"1573730533610","581","0.43164062","-0.90625","-0.21875","4.0","-5.25","8.90625"
"1573730533610","582","0.31347656","-0.9248047","-0.19628906","3.71875","-3.75","3.71875"
"1573730533610","583","0.3125","-0.9638672","-0.17675781","2.71875","-3.96875","6.5625"
"1573730533611","584","0.3046875","-0.921875","-0.19042969","5.84375","-3.0","4.0"
"1573730533611","585","0.2685547","-0.9482422","-0.18554688","0.03125","-2.21875","3.46875"
"1573730533611","586","0.31152344","-0.9277344","-0.18359375","-1.1875","3.59375","1.5625"
"1573730533611","587","0.3408203","-0.9638672","-0.22753906","1.5625","8.46875","4.5625"
"1573730533612","588","0.33789062","-0.9375","-0.20410156","-2.09375","8.65625","1.6875"
"1573730533613","589","0.3408203","-0.9169922","-0.21484375","-5.4375","0.96875","0.40625"
"1573730534007","590","0.3232422","-0.9326172","-0.19140625","-7.53125","3.59375","-2.09375"
"1573730534008","591","0.32128906","-0.9296875","-0.18359375","-10.34375","6.03125","-2.6875"
"1573730534008","592","0.34277344","-0.9296875","-0.2265625","-14.34375","3.46875","-4.09375"
"1573730534008","593","0.35742188","-0.9238281","-0.23046875","-11.3125","1.375","-4.03125"
"1573730534008","594","0.35839844","-0.9199219","-0.23632812","-5.5625","-0.5","-2.9375"
"1573730534009","595","0.3515625","-0.9160156","-0.23242188","-4.59375","-1.0625","-2.625"
"1573730534009","596","0.35351562","-0.92578125","-0.23730469","-2.6875","-1.90625","-2.09375"
"1573730534009","597","0.328125","-0.9189453","-0.23144531","-1.59375","-3.25","-2.875"
"1573730534009","598","0.33789062","-0.9199219","-0.21582031","-1.71875","-2.53125","-2.28125"
"1573730534010","599","0.3330078","-0.9160156","-0.22070312","-0.875","-3.5","-2.03125"
"1573730534406","600","0.3408203","-0.9296875","-0.22167969","-0.8125","-1.40625","0.0"
"1573730534406","601","0.34179688","-0.92089844","-0.23535156","0.0","-1.34375","1.15625"
"1573730534407","602","0.32714844","-0.9199219","-0.25097656","0.65625","0.28125","0.84375"
"1573730534407","603","0.3408203","-0.9248047","-0.25195312","-4.03125","4.1875","2.0"
"1573730534407","604","0.34179688","-0.92089844","-0.26367188","-2.09375","6.9375","2.78125"
"1573730534407","605","0.3564453","-0.9042969","-0.25585938","1.375","6.8125","3.34375"
"1573730534408","606","0.34277344","-0.93847656","-0.265625","7.8125","3.78125","1.375"
"1573730534408","607","0.30664062","-0.9189453","-0.21679688","5.65625","6.6875","1.8125"
"1573730534408","608","0.33691406","-0.9355469","-0.19726562","-4.09375","6.5","0.03125"
"1573730534408","609","0.3388672","-0.91308594","-0.22070312","-5.375","3.84375","-1.0"
"1573730534804","610","0.34375","-0.93066406","-0.234375","-5.8125","3.71875","-0.8125"
"1573730534804","611","0.3173828","-0.9277344","-0.23144531","-3.90625","2.90625","-2.03125"
"1573730534804","612","0.35546875","-0.9160156","-0.22363281","-2.21875","3.28125","-1.0625"
"1573730534806","613","0.34179688","-0.9189453","-0.22363281","-7.46875","2.3125","-1.0625"
"1573730534806","614","0.34570312","-0.93359375","-0.22949219","-0.0625","-1.96875","-1.96875"
"1573730534807","615","0.3125","-0.96972656","-0.21484375","2.71875","-3.625","1.3125"
"1573730534807","616","0.30273438","-0.9277344","-0.20703125","-7.9375","-1.34375","-3.8125"
"1573730534807","617","0.31152344","-0.9277344","-0.24511719","-12.46875","-8.5","-1.84375"
"1573730534807","618","0.39453125","-0.9277344","-0.2607422","-11.25","-7.28125","1.6875"
"1573730534807","619","0.3046875","-0.9042969","-0.22949219","-10.625","-4.90625","-2.59375"
"1573730535200","620","0.32128906","-0.9404297","-0.21484375","-9.65625","-0.3125","-3.96875"
"1573730535200","621","0.31054688","-0.9111328","-0.2548828","-14.90625","-1.0","-7.46875"
"1573730535201","622","0.37109375","-0.91503906","-0.29003906","-12.21875","-5.75","-7.40625"
"1573730535201","623","0.40234375","-0.89160156","-0.30371094","-0.625","-13.3125","-3.5625"
"1573730535201","624","0.3310547","-0.8847656","-0.29296875","2.65625","-15.8125","-3.625"
"1573730535203","625","0.3671875","-0.8847656","-0.3486328","11.09375","-16.25","-3.5"
"1573730535203","626","0.31933594","-0.88378906","-0.29785156","3.9375","-7.40625","-2.6875"
"1573730535204","627","0.33496094","-0.8701172","-0.2841797","-2.625","-0.1875","-2.03125"
"1573730535204","628","0.3173828","-0.9189453","-0.28515625","2.96875","5.0","0.0"
"1573730535204","629","0.31152344","-0.93847656","-0.25097656","-11.96875","4.25","-5.15625"
"1573730535598","630","0.37695312","-0.9238281","-0.28710938","-12.71875","-3.96875","-2.8125"
"1573730535598","631","0.3720703","-0.8984375","-0.28515625","-7.03125","1.3125","-3.1875"
"1573730535599","632","0.32910156","-0.88671875","-0.29101562","-6.90625","4.5","-1.40625"
"1573730535599","633","0.32421875","-0.9003906","-0.3125","-3.8125","5.28125","-2.59375"
"1573730535599","634","0.36328125","-0.8886719","-0.29003906","-6.1875","4.0625","-1.1875"
"1573730535599","635","0.34960938","-0.9013672","-0.31347656","0.65625","4.125","0.65625"
"1573730535599","636","0.35351562","-0.9091797","-0.3076172","9.8125","1.75","0.90625"
"1573730535601","637","0.3330078","-0.90234375","-0.27734375","-1.59375","0.71875","0.96875"
"1573730535601","638","0.34960938","-0.91308594","-0.31445312","0.21875","-0.125","2.5"
"1573730535601","639","0.35839844","-0.890625","-0.3125","3.71875","-1.3125","3.53125"
"1573730535995","640","0.40429688","-0.90527344","-0.33691406","11.65625","-7.03125","3.90625"
"1573730535995","641","0.36328125","-0.8964844","-0.31640625","12.8125","-11.125","4.3125"
"1573730535995","642","0.2763672","-0.9238281","-0.25195312","9.875","-5.5","-1.65625"
"1573730535995","643","0.3095703","-0.91503906","-0.29101562","5.40625","-2.625","-5.03125"
"1573730535996","644","0.3017578","-0.91308594","-0.23242188","-12.03125","4.1875","-4.59375"
"1573730535996","645","0.34277344","-0.8935547","-0.23632812","-22.40625","5.40625","-3.6875"
"1573730535996","646","0.36816406","-0.9248047","-0.2919922","-14.84375","2.0625","-1.96875"
"1573730535996","647","0.3203125","-0.90722656","-0.30859375","-3.875","-3.625","-1.90625"
"1573730535997","648","0.35351562","-0.91796875","-0.3154297","6.5","-2.8125","-1.96875"
"1573730535998","649","0.35742188","-0.9013672","-0.2919922","12.6875","-5.9375","-1.53125"
"1573730536395","650","0.33203125","-0.9169922","-0.30273438","23.25","-2.6875","-0.8125"
"1573730536395","651","0.3330078","-0.8964844","-0.21191406","0.84375","6.9375","1.4375"
"1573730536395","652","0.28320312","-0.9199219","-0.2607422","-7.8125","5.84375","-2.46875"
"1573730536396","653","0.36035156","-0.91308594","-0.31054688","-2.21875","0.46875","-1.46875"
"1573730536396","654","0.2939453","-0.9248047","-0.3046875","-2.53125","9.3125","-5.75"
"1573730536396","655","0.3671875","-0.91796875","-0.2529297","-5.625","5.1875","-2.8125"
"1573730536396","656","0.2919922","-0.9121094","-0.28515625","2.71875","8.84375","-6.65625"
"1573730536397","657","0.36132812","-0.9042969","-0.2607422","-7.9375","5.40625","-4.21875"
"1573730536397","658","0.32421875","-0.8730469","-0.27734375","-6.125","14.6875","-0.875"
"1573730536397","659","0.40234375","-0.8808594","-0.32421875","-1.53125","11.34375","5.90625"
"1573730536790","660","0.39941406","-0.89453125","-0.3125","0.21875","7.5","8.59375"
"1573730536792","661","0.34277344","-0.8515625","-0.27246094","4.8125","15.0625","8.90625"
"1573730536792","662","0.36914062","-0.9482422","-0.2783203","7.25","13.84375","9.5"
"1573730536793","663","0.3515625","-0.8730469","-0.24707031","7.625","7.125","9.6875"
"1573730536793","664","0.30664062","-0.9589844","-0.22851562","8.21875","14.375","9.5625"
"1573730536793","665","0.33789062","-0.9169922","-0.2265625","17.75","11.8125","7.90625"
"1573730536794","666","0.27148438","-0.9814453","-0.15527344","-1.25","14.15625","1.75"
"1573730536794","667","0.27246094","-0.9267578","-0.14355469","6.46875","23.90625","5.46875"
"1573730536794","668","0.33789062","-0.93847656","-0.18066406","4.375","23.84375","3.21875"
"1573730536795","669","0.3203125","-0.95214844","-0.19335938","2.4375","17.875","2.65625"
"1573730537387","670","0.31054688","-0.93652344","-0.19433594","0.78125","15.0","0.28125"
"1573730537388","671","0.39941406","-0.93359375","-0.23632812","5.78125","7.90625","2.125"
"1573730537388","672","0.35839844","-0.9433594","-0.17871094","2.59375","-1.1875","4.1875"
"1573730537389","673","0.29882812","-0.92089844","-0.16992188","-0.75","-4.28125","-0.125"
"1573730537390","674","0.33789062","-0.9580078","-0.20996094","2.84375","-8.6875","0.34375"
"1573730537390","675","0.30273438","-0.9189453","-0.19824219","0.09375","-12.84375","-1.90625"
"1573730537390","676","0.31347656","-0.96191406","-0.15136719","-2.34375","-7.28125","-3.375"
"1573730537390","677","0.26367188","-0.9628906","-0.18066406","-3.125","-7.09375","-6.90625"
"1573730537391","678","0.27246094","-0.9326172","-0.16601562","-5.875","-2.625","-3.375"
"1573730537391","679","0.32714844","-0.9453125","-0.16796875","-6.96875","2.25","-1.84375"
"1573730537585","680","0.30273438","-0.9433594","-0.18359375","-6.65625","0.46875","-0.5625"
"1573730537586","681","0.31347656","-0.94433594","-0.19433594","-6.3125","2.1875","-0.6875"
"1573730537586","682","0.3095703","-0.9355469","-0.19042969","-7.34375","5.28125","-1.0"
"1573730537586","683","0.33691406","-0.92578125","-0.20800781","-3.3125","5.0","-0.5625"
"1573730537586","684","0.38476562","-0.9277344","-0.2265625","2.4375","-2.09375","1.03125"
"1573730537587","685","0.3125","-0.91796875","-0.18066406","1.375","-0.75","-1.25"
"1573730537588","686","0.30859375","-0.92871094","-0.21875","-0.5625","-3.375","-2.03125"
"1573730537588","687","0.33691406","-0.9345703","-0.21777344","1.28125","-5.09375","-1.34375"
"1573730537588","688","0.29785156","-0.9394531","-0.19335938","-0.9375","-4.28125","-0.4375"
"1573730537589","689","0.29785156","-0.9355469","-0.20800781","0.15625","0.53125","-0.5"
"1573730537984","690","0.31347656","-0.9296875","-0.20019531","-3.0","1.75","-0.1875"
"1573730537984","691","0.31152344","-0.9375","-0.21289062","-1.71875","3.71875","0.46875"
"1573730537984","692","0.32910156","-0.9394531","-0.20996094","2.84375","3.90625","1.875"
"1573730537985","693","0.3095703","-0.9326172","-0.18847656","0.96875","2.1875","1.3125"
"1573730537985","694","0.31347656","-0.9375","-0.1953125","3.71875","3.65625","1.6875"
"1573730537985","695","0.3251953","-0.9355469","-0.19238281","-1.125","2.5","0.28125"
"1573730537985","696","0.31347656","-0.9199219","-0.20703125","-0.375","0.46875","0.96875"
"1573730537987","697","0.3076172","-0.9580078","-0.20214844","-6.96875","2.4375","-0.9375"
"1573730537987","698","0.3515625","-0.9277344","-0.19433594","-6.375","-1.3125","-1.1875"
"1573730537987","699","0.29882812","-0.95410156","-0.20996094","-6.53125","-8.8125","-2.8125"
"1573730538380","700","0.32226562","-0.9511719","-0.21679688","-5.375","-12.46875","-4.96875"
"1573730538380","701","0.29296875","-0.9394531","-0.18945312","-4.90625","-4.09375","-4.78125"
"1573730538381","702","0.29003906","-0.9746094","-0.17773438","-6.71875","-1.78125","-7.03125"
"1573730538381","703","0.35546875","-0.96191406","-0.19824219","-11.96875","-5.15625","-6.96875"
"1573730538381","704","0.3203125","-0.8857422","-0.24316406","-10.6875","-7.46875","-7.78125"
"1573730538381","705","0.32910156","-0.91015625","-0.2763672","1.09375","-4.15625","-4.65625"
"1573730538382","706","0.3466797","-0.9189453","-0.2529297","-3.3125","-8.4375","-5.9375"
"1573730538382","707","0.3017578","-0.9189453","-0.25","-8.75","-9.125","-6.375"
"1573730538382","708","0.34375","-0.90722656","-0.21679688","-21.5","-6.90625","-3.5625"
"1573730538384","709","0.3046875","-0.91015625","-0.22851562","-20.59375","-1.0","-4.90625"
"1573730538779","710","0.328125","-0.921875","-0.26757812","-23.9375","-6.84375","-5.875"
"1573730538779","711","0.36621094","-0.921875","-0.29785156","-9.65625","-20.03125","-2.40625"
"1573730538779","712","0.34179688","-0.9042969","-0.33984375","17.125","-16.1875","-5.25"
"1573730538780","713","0.2919922","-0.87402344","-0.3017578","16.09375","0.34375","-2.59375"
"1573730538780","714","0.35351562","-0.8847656","-0.328125","16.40625","1.5625","-1.84375"
"1573730538780","715","0.37402344","-0.91503906","-0.2841797","9.4375","-6.375","0.78125"
"1573730538780","716","0.3125","-0.9169922","-0.27441406","-1.71875","-4.34375","-3.25"
"1573730538781","717","0.34277344","-0.90234375","-0.2890625","-4.90625","-1.3125","-5.6875"
"1573730538781","718","0.359375","-0.90527344","-0.23242188","-15.75","-0.25","-3.5625"
"1573730538781","719","0.3046875","-0.91796875","-0.2919922","-10.8125","-5.21875","-2.15625"
"1573730539175","720","0.35058594","-0.9082031","-0.28125","-11.25","1.09375","-1.46875"
"1573730539175","721","0.3232422","-0.9091797","-0.29296875","-2.53125","0.71875","0.46875"
"1573730539176","722","0.3232422","-0.9082031","-0.28027344","2.71875","4.375","1.03125"
"1573730539176","723","0.3359375","-0.9003906","-0.2919922","7.5","2.4375","1.09375"
"1573730539176","724","0.2998047","-0.9033203","-0.28808594","11.03125","5.40625","2.0625"
"1573730539177","725","0.34472656","-0.9091797","-0.27441406","6.9375","5.34375","1.15625"
"1573730539177","726","0.32226562","-0.8964844","-0.27539062","-0.375","0.40625","1.03125"
"1573730539177","727","0.3251953","-0.9169922","-0.23535156","-5.8125","6.875","2.4375"
"1573730539177","728","0.43652344","-0.94921875","-0.30078125","2.65625","-12.59375","2.25"
"1573730539178","729","0.33496094","-0.9501953","-0.31835938","25.1875","-26.8125","2.3125"
"1573730539574","730","0.21777344","-0.8964844","-0.25976562","29.34375","0.40625","0.09375"
"1573730539574","731","0.33398438","-0.92871094","-0.22070312","11.28125","4.25","0.65625"
"1573730539574","732","0.3046875","-0.9277344","-0.22753906","-3.3125","-8.3125","1.21875"
"1573730539575","733","0.35546875","-0.8925781","-0.21777344","-9.53125","2.96875","4.6875"
"1573730539575","734","0.33203125","-0.91503906","-0.22265625","-17.40625","4.0625","1.09375"
"1573730539575","735","0.2734375","-0.9316406","-0.2529297","-13.03125","5.96875","-0.6875"
"1573730539576","736","0.30273438","-0.9433594","-0.21875","-12.78125","4.625","-3.875"
"1573730539576","737","0.30859375","-0.91015625","-0.2705078","-14.59375","-2.15625","-2.46875"
"1573730539576","738","0.29101562","-0.9121094","-0.28027344","-6.5","1.9375","-1.125"
"1573730539576","739","0.32226562","-0.9238281","-0.2919922","2.375","4.5625","0.0"
"1573730539972","740","0.32910156","-0.9248047","-0.2783203","4.875","4.125","0.40625"
"1573730539973","741","0.34570312","-0.9160156","-0.2919922","15.4375","4.3125","2.3125"
"1573730539973","742","0.34375","-0.93652344","-0.26953125","22.625","5.59375","1.5"
"1573730539973","743","0.3154297","-0.8935547","-0.21191406","13.03125","6.875","2.96875"
"1573730539974","744","0.24316406","-0.9375","-0.14746094","-17.65625","13.0","0.09375"
"1573730539974","745","0.3076172","-0.95703125","-0.26660156","-18.15625","-2.40625","-1.40625"
"1573730539974","746","0.3388672","-0.90234375","-0.24023438","-28.21875","7.4375","-6.90625"
"1573730539974","747","0.32226562","-0.93652344","-0.30859375","-12.53125","2.59375","-5.25"
"1573730539975","748","0.28710938","-0.8808594","-0.3017578","-3.4375","6.625","-6.71875"
"1573730539975","749","0.31152344","-0.9248047","-0.22363281","-5.3125","20.3125","-1.0"
"1573730540369","750","0.3828125","-0.87109375","-0.33691406","0.46875","8.71875","-2.03125"
"1573730540369","751","0.28808594","-0.9580078","-0.18066406","2.375","23.0","3.34375"
"1573730540369","752","0.36816406","-0.8671875","-0.32910156","6.03125","8.15625","2.0625"
"1573730540370","753","0.33203125","-0.9482422","-0.24804688","10.71875","10.71875","4.4375"
"1573730540370","754","0.3330078","-0.8964844","-0.24609375","-1.71875","4.9375","4.0"
"1573730540370","755","0.28027344","-0.9394531","-0.22167969","4.6875","16.78125","4.25"
"1573730540370","756","0.30664062","-0.921875","-0.21484375","-0.875","24.28125","0.78125"
"1573730540372","757","0.38867188","-0.91796875","-0.27539062","10.1875","15.1875","3.59375"
"1573730540372","758","0.32128906","-0.96191406","-0.21582031","14.375","10.375","1.03125"
"1573730540373","759","0.32421875","-0.9091797","-0.14746094","4.375","13.03125","2.96875"
"1573730540766","760","0.3642578","-0.89941406","-0.20117188","3.21875","11.9375","1.6875"
"1573730540767","761","0.3310547","-0.96191406","-0.19433594","1.6875","9.25","1.625"
"1573730540767","762","0.31445312","-0.9472656","-0.17578125","-1.1875","4.75","2.65625"
"1573730540767","763","0.3017578","-0.92285156","-0.18261719","0.40625","6.21875","2.65625"
"1573730540767","764","0.29882812","-0.94140625","-0.17871094","2.1875","3.46875","0.28125"
"1573730540767","765","0.3251953","-0.9433594","-0.18359375","9.375","8.15625","2.25"
"1573730540768","766","0.24804688","-0.953125","-0.1328125","3.09375","17.1875","2.96875"
"1573730540768","767","0.3125","-0.9326172","-0.125","1.4375","21.71875","3.21875"
"1573730540768","768","0.35351562","-0.98535156","-0.13964844","7.375","14.375","6.28125"
"1573730540770","769","0.21582031","-0.9707031","-0.08300781","-4.40625","13.59375","-1.25"
"1573730541361","770","0.28320312","-0.9296875","-0.11230469","-4.90625","17.625","-0.25"
"1573730541362","771","0.3330078","-0.96484375","-0.16210938","1.09375","18.53125","0.21875"
"1573730541362","772","0.3671875","-0.9589844","-0.14160156","-0.1875","11.875","4.4375"
"1573730541362","773","0.3046875","-0.9316406","-0.10644531","-13.375","3.9375","2.71875"
"1573730541362","774","0.36035156","-0.93847656","-0.18261719","-1.96875","-4.34375","4.875"
"1573730541363","775","0.31445312","-0.94628906","-0.1953125","-3.90625","-7.21875","1.5625"
"1573730541363","776","0.3017578","-0.9189453","-0.13671875","-1.96875","-5.03125","0.90625"
"1573730541363","777","0.3046875","-0.95996094","-0.14648438","-2.6875","-4.96875","-1.125"
"1573730541363","778","0.28222656","-0.9550781","-0.1328125","-4.40625","-3.8125","-5.21875"
"1573730541364","779","0.2939453","-0.9433594","-0.171875","-3.4375","-9.0625","-3.0625"
"1573730541559","780","0.3330078","-0.94921875","-0.18847656","-0.5","-10.09375","-3.125"
"1573730541561","781","0.29589844","-0.9453125","-0.14941406","-0.1875","-5.875","-2.28125"
"1573730541561","782","0.2578125","-0.93066406","-0.16210938","-2.9375","-2.75","-2.625"
"1573730541561","783","0.3095703","-0.96191406","-0.18066406","2.25","1.875","-0.4375"
"1573730541562","784","0.28710938","-0.9423828","-0.16308594","-7.59375","5.34375","-1.40625"
"1573730541562","785","0.33398438","-0.9394531","-0.18359375","-2.875","0.90625","-2.15625"
"1573730541562","786","0.328125","-0.93066406","-0.19433594","-2.53125","-1.46875","-1.59375"
"1573730541562","787","0.31152344","-0.9433594","-0.18066406","-3.5","-0.5","-1.40625"
"1573730541563","788","0.3232422","-0.93066406","-0.18652344","-2.46875","-1.53125","-1.0"
"1573730541563","789","0.30664062","-0.9404297","-0.19628906","1.4375","-0.8125","-1.71875"
"1573730541959","790","0.31640625","-0.9189453","-0.17773438","-1.25","4.25","-1.0"
"1573730541959","791","0.3203125","-0.94140625","-0.19238281","-5.3125","-1.1875","-1.46875"
"1573730541959","792","0.3095703","-0.9472656","-0.18359375","-5.4375","-3.25","-1.78125"
"1573730541961","793","0.31152344","-0.9267578","-0.16796875","-5.6875","-0.0625","-1.53125"
"1573730541961","794","0.3076172","-0.9433594","-0.18066406","-1.65625","-2.46875","-1.25"
"1573730541961","795","0.3095703","-0.9550781","-0.18359375","-1.0625","-2.03125","-1.96875"
"1573730541962","796","0.32421875","-0.93847656","-0.19433594","2.84375","-4.65625","-1.0"
"1573730541962","797","0.32714844","-0.9482422","-0.19726562","2.96875","-3.0","0.0"
"1573730541962","798","0.3076172","-0.93652344","-0.21386719","5.71875","-5.375","-2.15625"
"1573730541962","799","0.3125","-0.9511719","-0.18847656","5.1875","-8.375","-1.25"
"1573730542356","800","0.29882812","-0.9355469","-0.15332031","0.65625","0.03125","-1.90625"
"1573730542357","801","0.31152344","-0.95410156","-0.16992188","2.0","1.6875","-1.96875"
"1573730542357","802","0.29003906","-0.9316406","-0.17773438","-3.875","1.3125","-2.59375"
"1573730542357","803","0.30273438","-0.9472656","-0.14355469","-0.5625","9.625","-1.84375"
"1573730542357","804","0.3076172","-0.9394531","-0.14746094","-4.21875","7.4375","-3.125"
"1573730542359","805","0.31445312","-0.94140625","-0.16894531","-5.5625","4.8125","-2.40625"
"1573730542359","806","0.32421875","-0.9511719","-0.15625","-8.0","6.5","-0.125"
"1573730542359","807","0.30664062","-0.9316406","-0.17089844","-11.1875","5.53125","-1.1875"
"1573730542359","808","0.34375","-0.96972656","-0.19628906","-2.53125","-4.65625","-0.5"
"1573730542360","809","0.31933594","-0.9316406","-0.17578125","-6.84375","-4.53125","-1.78125"
"1573730542950","810","0.29785156","-0.9501953","-0.17382812","-6.59375","-0.375","-4.90625"
"1573730542950","811","0.3251953","-0.93652344","-0.18847656","-16.25","-1.40625","-7.03125"
"1573730542950","812","0.3330078","-0.9248047","-0.23632812","-11.90625","-6.4375","-6.71875"
"1573730542951","813","0.35253906","-0.91308594","-0.22851562","-17.84375","-4.28125","-5.75"
"1573730542951","814","0.3486328","-0.92285156","-0.25585938","-11.78125","-9.90625","-8.625"
"1573730542951","815","0.38183594","-0.9199219","-0.2529297","-7.8125","-14.96875","-5.8125"
"1573730542952","816","0.29296875","-0.8935547","-0.234375","-13.9375","-18.5625","-3.6875"
"1573730542953","817","0.3310547","-0.8857422","-0.24414062","-7.34375","-19.90625","-3.96875"
"1573730542953","818","0.30664062","-0.90527344","-0.28027344","5.84375","-17.53125","-4.46875"
"1573730542954","819","0.3310547","-0.93652344","-0.28125","10.3125","-8.375","-3.96875"
"1573730543151","820","0.35742188","-0.9033203","-0.25878906","-0.3125","-3.4375","-1.0"
"1573730543152","821","0.29492188","-0.9189453","-0.27246094","6.75","-5.8125","-1.40625"
"1573730543152","822","0.32421875","-0.9267578","-0.22851562","2.65625","-7.46875","-2.09375"
"1573730543152","823","0.36035156","-0.9189453","-0.28027344","16.84375","-6.1875","2.0"
"1573730543152","824","0.33007812","-0.9013672","-0.22851562","7.375","1.5","3.78125"
"1573730543153","825","0.31445312","-0.9082031","-0.22265625","4.6875","-1.40625","4.8125"
"1573730543153","826","0.2529297","-0.91308594","-0.24902344","-0.875","9.09375","3.65625"
"1573730543153","827","0.35351562","-0.9433594","-0.24609375","-6.0625","8.40625","3.59375"
"1573730543153","828","0.30859375","-0.9267578","-0.23535156","-8.0","6.15625","0.65625"
"1573730543155","829","0.31640625","-0.9267578","-0.22949219","-5.5","5.71875","3.34375"
"1573730543744","830","0.36328125","-0.9091797","-0.24023438","-5.75","1.75","3.90625"
"1573730543745","831","0.31640625","-0.92285156","-0.2421875","0.65625","-1.59375","1.3125"
"1573730543745","832","0.28320312","-0.93359375","-0.23730469","2.25","-0.25","-1.40625"
"1573730543746","833","0.30371094","-0.92871094","-0.22460938","0.0","-1.25","-4.46875"
"1573730543746","834","0.3310547","-0.9238281","-0.25390625","2.375","-0.375","-3.90625"
"1573730543746","835","0.30859375","-0.94628906","-0.22363281","-2.40625","-0.6875","-4.28125"
"1573730543746","836","0.30859375","-0.92285156","-0.19921875","-3.0625","3.34375","-1.59375"
"1573730543747","837","0.32714844","-0.9482422","-0.24707031","-0.8125","1.03125","-2.46875"
"1573730543747","838","0.3359375","-0.9394531","-0.23730469","5.0","-1.90625","-0.375"
"1573730543747","839","0.31054688","-0.9433594","-0.18652344","-1.71875","0.59375","-3.5625"
"1573730543946","840","0.31640625","-0.93359375","-0.22363281","2.5","-3.375","-4.90625"
"1573730543948","841","0.23925781","-0.9277344","-0.15722656","-19.3125","3.65625","-7.46875"
"1573730543948","842","0.30859375","-0.9121094","-0.2109375","-25.15625","3.46875","-4.90625"
"1573730543948","843","0.32910156","-0.92871094","-0.265625","-21.0","5.53125","-7.34375"
"1573730543949","844","0.36132812","-0.87597656","-0.29003906","-9.78125","4.6875","-2.875"
"1573730543949","845","0.41308594","-0.92285156","-0.35058594","10.59375","3.90625","-2.53125"
"1573730543949","846","0.31152344","-0.88183594","-0.23925781","-3.3125","-0.375","0.65625"
"1573730543950","847","0.3154297","-0.9238281","-0.2763672","3.53125","10.59375","0.90625"
"1573730543950","848","0.3701172","-0.8808594","-0.30273438","5.125","7.90625","7.25"
"1573730543950","849","0.32421875","-0.921875","-0.24414062","4.9375","19.9375","7.5"
"1573730544344","850","0.3671875","-0.8720703","-0.30859375","10.46875","12.25","7.25"
"1573730544344","851","0.34179688","-0.9560547","-0.24804688","17.5625","10.84375","4.5625"
"1573730544345","852","0.34570312","-0.8925781","-0.25","3.03125","7.375","2.25"
"1573730544346","853","0.28710938","-0.953125","-0.1953125","3.59375","7.5","0.0"
"1573730544346","854","0.3408203","-0.94921875","-0.18945312","3.03125","13.28125","0.15625"
"1573730544346","855","0.41015625","-0.9375","-0.21777344","8.59375","2.25","5.90625"
"1573730544347","856","0.27539062","-0.8955078","-0.20898438","0.90625","-2.6875","2.4375"
"1573730544347","857","0.36621094","-0.9345703","-0.23925781","7.375","1.6875","-0.8125"
"1573730544347","858","0.25585938","-0.94628906","-0.1796875","-5.375","9.875","-2.28125"
"1573730544347","859","0.28515625","-0.9033203","-0.13378906","-15.53125","20.1875","-2.625"
"1573730544940","860","0.35058594","-0.9482422","-0.1875","-13.03125","10.3125","-2.8125"
"1573730544940","861","0.29589844","-0.9296875","-0.22363281","2.90625","12.1875","-2.21875"
"1573730544941","862","0.3564453","-0.9326172","-0.19335938","3.21875","12.1875","2.5625"
"1573730544941","863","0.33496094","-0.94921875","-0.16015625","6.9375","1.75","1.625"
"1573730544941","864","0.2861328","-0.9482422","-0.15332031","7.84375","-0.4375","2.90625"
"1573730544942","865","0.3095703","-0.9453125","-0.12695312","3.59375","7.5","4.0625"
"1573730544943","866","0.2861328","-0.95996094","-0.140625","-1.125","10.0","2.65625"
"1573730544943","867","0.29101562","-0.9423828","-0.18457031","5.0625","10.84375","3.71875"
"1573730544943","868","0.3310547","-0.9316406","-0.16992188","2.375","19.5625","4.25"
"1573730544944","869","0.3095703","-0.9355469","-0.16308594","0.21875","12.75","2.375"
"1573730545138","870","0.3232422","-0.953125","-0.15917969","4.875","6.28125","0.03125"
"1573730545138","871","0.31640625","-0.9248047","-0.16992188","5.34375","8.34375","-2.53125"
"1573730545139","872","0.36328125","-0.95214844","-0.17578125","9.375","1.09375","-2.21875"
"1573730545139","873","0.33984375","-0.94433594","-0.13964844","7.84375","-7.9375","-2.8125"
"1573730545139","874","0.31445312","-0.953125","-0.13671875","10.125","-9.78125","-1.1875"
"1573730545139","875","0.3154297","-0.94921875","-0.13085938","6.28125","-5.09375","0.53125"
"1573730545140","876","0.2919922","-0.9638672","-0.12792969","-3.4375","-3.0","-0.5"
"1573730545141","877","0.2890625","-0.94140625","-0.16113281","-6.3125","-8.0","-3.0625"
"1573730545141","878","0.38183594","-0.9238281","-0.1640625","-0.25","-1.40625","0.78125"
"1573730545141","879","0.2939453","-0.9902344","-0.12695312","8.40625","-11.6875","-3.90625"
"1573730545536","880","0.3310547","-0.8886719","-0.08984375","15.65625","-19.59375","-1.71875"
"1573730545536","881","0.27734375","-0.96972656","-0.09082031","9.875","-8.4375","-4.84375"
"1573730545536","882","0.29101562","-0.9550781","-0.15234375","4.0625","-8.3125","-4.28125"
"1573730545537","883","0.31445312","-0.9453125","-0.1484375","-9.40625","-0.5","-1.53125"
"1573730545537","884","0.33398438","-0.9511719","-0.15332031","-14.53125","9.09375","-2.40625"
"1573730545537","885","0.33398438","-0.9433594","-0.15625","-14.84375","7.625","0.09375"
"1573730545537","886","0.30664062","-0.9482422","-0.099609375","-7.34375","4.5","0.96875"
"1573730545538","887","0.2861328","-0.9169922","-0.10253906","-2.75","7.625","-0.1875"
"1573730545538","888","0.32910156","-0.93359375","-0.107421875","-5.5","6.09375","0.40625"
"1573730545539","889","0.34375","-0.93066406","-0.16503906","-2.21875","3.40625","0.40625"
"1573730546329","890","0.30566406","-0.94921875","-0.16894531","0.96875","2.0625","0.46875"
"1573730546330","891","0.33203125","-0.9111328","-0.16308594","2.5","4.9375","0.28125"
"1573730546330","892","0.3310547","-0.9482422","-0.1484375","-5.21875","4.1875","-0.3125"
"1573730546330","893","0.328125","-0.95703125","-0.16308594","-2.46875","-1.59375","-1.125"
"1573730546331","894","0.3095703","-0.9326172","-0.14160156","-0.9375","-0.6875","-0.875"
"1573730546331","895","0.328125","-0.93652344","-0.14160156","-3.125","0.34375","-1.25"
"1573730546331","896","0.31445312","-0.9433594","-0.16503906","-2.40625","-1.90625","-1.25"
"1573730546331","897","0.31347656","-0.94921875","-0.16503906","-7.53125","0.03125","-1.90625"
"1573730546332","898","0.32128906","-0.9667969","-0.15429688","-6.1875","2.1875","-1.3125"
"1573730546332","899","0.32226562","-0.9355469","-0.17480469","-1.96875","2.25","-1.25"
"1573730546527","900","0.328125","-0.94628906","-0.13085938","-7.34375","0.21875","-0.6875"
"1573730546528","901","0.2998047","-0.9453125","-0.16015625","-8.75","-1.125","-2.46875"
"1573730546528","902","0.33007812","-0.9423828","-0.15820312","-12.90625","-2.875","-1.96875"
"1573730546528","903","0.30273438","-0.92578125","-0.18066406","-5.25","-2.46875","-4.40625"
"1573730546529","904","0.33398438","-0.9404297","-0.21289062","-0.1875","0.28125","-4.40625"
"1573730546529","905","0.35253906","-0.93066406","-0.17089844","-12.21875","-0.1875","-3.4375"
"1573730546529","906","0.31152344","-0.9169922","-0.17089844","-9.40625","-3.0","-0.5625"
"1573730546529","907","0.2998047","-0.9248047","-0.1640625","-13.375","7.4375","-2.6875"
"1573730546530","908","0.30371094","-0.9658203","-0.17480469","-16.8125","8.65625","-4.03125"
"1573730546530","909","0.3154297","-0.94628906","-0.18066406","-20.34375","8.53125","-4.21875"
"1573730546728","910","0.3720703","-0.9433594","-0.22851562","-14.90625","2.5","-3.625"
"1573730546729","911","0.3828125","-0.9199219","-0.23046875","-12.65625","-2.75","-2.03125"
"1573730546729","912","0.29589844","-0.91015625","-0.21972656","-13.03125","-5.4375","-3.125"
"1573730546730","913","0.39746094","-0.90722656","-0.24316406","-13.5625","-14.46875","-1.59375"
"1573730546731","914","0.3330078","-0.91015625","-0.2861328","1.625","-25.65625","-5.5"
"1573730546731","915","0.3544922","-0.8847656","-0.2841797","3.53125","-17.84375","-2.875"
"1573730546731","916","0.3388672","-0.88671875","-0.27929688","12.4375","-11.71875","-5.25"
"1573730546731","917","0.31445312","-0.9375","-0.25390625","17.0","-13.25","-2.15625"
"1573730546732","918","0.30273438","-0.890625","-0.25683594","2.96875","-5.21875","-1.78125"
"1573730546732","919","0.34179688","-0.9482422","-0.23925781","2.65625","1.6875","0.90625"
"1573730547125","920","0.3095703","-0.9267578","-0.22167969","-12.21875","-0.5625","1.15625"
"1573730547125","921","0.31640625","-0.9013672","-0.2607422","-2.8125","4.0","1.21875"
"1573730547125","922","0.38183594","-0.9267578","-0.27246094","-3.1875","-1.125","4.5625"
"1573730547125","923","0.3623047","-0.92285156","-0.26757812","0.59375","-4.78125","6.875"
"1573730547126","924","0.28710938","-0.91015625","-0.23339844","3.09375","2.0625","4.375"
"1573730547127","925","0.30566406","-0.9394531","-0.2626953","5.21875","3.34375","1.03125"
"1573730547127","926","0.29589844","-0.9248047","-0.23046875","-3.5","10.3125","-1.53125"
"1573730547127","927","0.3203125","-0.91308594","-0.20117188","-14.0","8.78125","-1.25"
"1573730547128","928","0.3466797","-0.9267578","-0.23535156","-8.1875","5.34375","-1.65625"
"1573730547128","929","0.35742188","-0.91308594","-0.2783203","-5.6875","0.59375","0.15625"
"1573730547525","930","0.3310547","-0.9277344","-0.2607422","0.40625","-4.21875","-0.375"
"1573730547532","931","0.31152344","-0.93066406","-0.23535156","6.8125","-7.65625","-0.3125"
"1573730547532","932","0.33007812","-0.94921875","-0.22167969","16.09375","-10.21875","-1.40625"
"1573730547532","933","0.3046875","-0.9277344","-0.20214844","21.59375","-10.6875","-2.75"
"1573730547533","934","0.28222656","-0.921875","-0.23828125","17.9375","-6.0","-3.25"
"1573730547533","935","0.30371094","-0.9501953","-0.20507812","4.125","-6.25","-1.59375"
"1573730547533","936","0.22753906","-0.9277344","-0.14355469","-18.9375","4.1875","-4.40625"
"1573730547534","937","0.3310547","-0.9423828","-0.27246094","-7.46875","8.84375","-1.40625"
"1573730547534","938","0.36523438","-0.93847656","-0.20605469","-15.8125","12.6875","-0.9375"
"1573730547534","939","0.27734375","-0.9091797","-0.24316406","-4.71875","10.0","1.3125"
"1573730547920","940","0.36621094","-0.92285156","-0.25","-3.3125","13.21875","3.03125"
"1573730547920","941","0.31640625","-0.9375","-0.2763672","-1.53125","9.1875","2.90625"
"1573730547921","942","0.35351562","-0.8857422","-0.27441406","-2.53125","8.84375","2.84375"
"1573730547921","943","0.34375","-0.96875","-0.2939453","12.75","8.46875","1.5625"
"1573730547921","944","0.32226562","-0.8769531","-0.2421875","-5.03125","9.75","2.0"
"1573730547921","945","0.33496094","-0.9433594","-0.26367188","6.6875","5.34375","0.65625"
"1573730547922","946","0.31152344","-0.9091797","-0.23339844","-3.5","7.5","-0.5625"
"1573730547922","947","0.34570312","-0.93066406","-0.25","12.625","3.78125","-0.875"
"1573730547922","948","0.3095703","-0.9423828","-0.20214844","4.0","7.375","-0.25"
"1573730547924","949","0.39746094","-0.9111328","-0.25097656","8.84375","-3.0625","1.375"
"1573730548319","950","0.35742188","-0.9267578","-0.23535156","13.0","-8.125","3.90625"
"1573730548319","951","0.33691406","-0.89160156","-0.20703125","2.59375","-10.09375","5.59375"
"1573730548320","952","0.31835938","-0.9707031","-0.17773438","-16.625","-7.8125","4.3125"
"1573730548320","953","0.22070312","-0.9316406","-0.10546875","-24.5625","9.4375","0.15625"
"1573730548320","954","0.17773438","-0.9472656","-0.20800781","-4.34375","10.78125","-3.875"
"1573730548320","955","0.27441406","-0.9921875","-0.25","6.5625","12.625","-6.4375"
"1573730548321","956","0.26953125","-0.9394531","-0.13476562","-4.21875","23.0625","-5.625"
"1573730548321","957","0.29785156","-0.95703125","-0.115234375","-0.8125","28.0","-0.8125"
"1573730548321","958","0.3330078","-0.9638672","-0.15039062","-0.75","19.8125","0.46875"
"1573730548321","959","0.29785156","-0.95703125","-0.15332031","0.15625","22.5","5.40625"
"1573730548915","960","0.3720703","-0.93847656","-0.18457031","-0.4375","20.84375","9.6875"
"1573730548916","961","0.34375","-0.9433594","-0.15917969","0.53125","16.65625","11.9375"
"1573730548917","962","0.26464844","-0.92871094","-0.19140625","1.21875","7.375","8.28125"
"1573730548917","963","0.3232422","-0.9296875","-0.19921875","1.875","1.625","6.21875"
"1573730548917","964","0.3359375","-0.9355469","-0.20898438","8.09375","-2.34375","0.65625"
"1573730548918","965","0.2939453","-0.9423828","-0.18457031","13.09375","-6.59375","-0.5625"
"1573730548918","966","0.31933594","-0.9589844","-0.18261719","13.09375","-12.90625","-3.125"
"1573730548918","967","0.3154297","-0.9433594","-0.1328125","6.40625","-8.9375","-1.71875"
"1573730548919","968","0.28320312","-0.9433594","-0.13769531","3.9375","-6.375","-2.9375"
"1573730548919","969","0.27734375","-0.9589844","-0.17089844","3.15625","-9.0625","-1.0625"
"1573730549311","970","0.27441406","-0.9501953","-0.1484375","-3.875","-7.15625","-1.40625"
"1573730549312","971","0.26464844","-0.9638672","-0.125","-3.875","0.90625","-1.90625"
"1573730549312","972","0.30078125","-0.9453125","-0.16601562","0.09375","2.84375","0.34375"
"1573730549314","973","0.28125","-0.953125","-0.1328125","-4.21875","5.84375","0.65625"
"1573730549314","974","0.3046875","-0.9589844","-0.15429688","-6.25","4.9375","-1.3125"
"1573730549314","975","0.31054688","-0.93847656","-0.16894531","1.375","2.0625","-3.0"
"1573730549315","976","0.29003906","-0.9472656","-0.14648438","-0.875","-0.0625","-1.59375"
"1573730549315","977","0.3154297","-0.93847656","-0.13867188","-5.875","1.28125","-1.78125"
"1573730549315","978","0.2783203","-0.953125","-0.15722656","-8.0","1.75","-2.34375"
"1573730549315","979","0.28710938","-0.9472656","-0.17285156","-7.53125","2.65625","-0.75"
"1573730550103","980","0.29785156","-0.93066406","-0.16992188","-16.5","10.40625","-1.125"
"1573730550104","981","0.30273438","-0.94433594","-0.203125","-9.96875","10.0","1.15625"
"1573730550104","982","0.328125","-0.9560547","-0.18652344","-2.625","4.625","0.46875"
"1573730550105","983","0.31347656","-0.9355469","-0.16894531","-4.28125","0.34375","0.65625"
"1573730550105","984","0.26953125","-0.94433594","-0.16992188","-1.84375","1.375","-3.4375"
"1573730550106","985","0.30859375","-0.9550781","-0.17382812","1.375","0.0","-2.875"
"1573730550107","986","0.32910156","-0.9296875","-0.19042969","7.0625","-4.53125","-1.96875"
"1573730550107","987","0.30859375","-0.96191406","-0.18066406","0.59375","-3.0","-3.75"
"1573730550107","988","0.31152344","-0.92089844","-0.20507812","-8.0625","-1.90625","-2.59375"
"1573730550108","989","0.31347656","-0.9375","-0.15039062","-8.25","0.40625","-2.15625"
"1573730550303","990","0.2861328","-0.93847656","-0.21386719","5.0625","1.15625","-3.875"
"1573730550304","991","0.32617188","-0.94433594","-0.19433594","1.15625","0.84375","-2.09375"
"1573730550304","992","0.3125","-0.94140625","-0.13964844","-12.84375","4.3125","-4.15625"
"1573730550304","993","0.296875","-0.95214844","-0.16210938","-8.8125","4.625","-4.15625"
"1573730550305","994","0.3076172","-0.9355469","-0.16503906","-17.28125","3.84375","-3.4375"
"1573730550305","995","0.3095703","-0.95996094","-0.21972656","-10.8125","-1.40625","-5.9375"
"1573730550305","996","0.30664062","-0.9453125","-0.21289062","-6.78125","-1.96875","-6.25"
"1573730550307","997","0.3251953","-0.9511719","-0.19140625","-7.53125","1.375","-5.375"
"1573730550308","998","0.33007812","-0.93359375","-0.20703125","-15.21875","0.96875","-5.5"
"1573730550308","999","0.3251953","-0.92285156","-0.22070312","-18.5625","-5.8125","-5.4375"
"1573730550901","1000","0.3232422","-0.9316406","-0.23730469","-14.0","-9.15625","-6.71875"
"1573730550902","1001","0.35351562","-0.9082031","-0.2861328","-11.5","-16.625","-5.75"
"1573730550902","1002","0.35742188","-0.9033203","-0.25585938","-5.75","-22.34375","-4.71875"
"1573730550902","1003","0.3388672","-0.91015625","-0.2607422","9.875","-29.6875","-3.1875"
"1573730550902","1004","0.296875","-0.8769531","-0.2626953","8.96875","-15.28125","-2.75"
"1573730550902","1005","0.34277344","-0.9091797","-0.3125","13.21875","-7.65625","0.78125"
"1573730550903","1006","0.32128906","-0.8769531","-0.21972656","-11.4375","4.25","3.90625"
"1573730550903","1007","0.28808594","-0.9169922","-0.234375","-19.5","10.65625","4.5625"
"1573730550903","1008","0.3125","-0.95214844","-0.28125","-11.125","7.84375","-1.53125"
"1573730550904","1009","0.3203125","-0.9404297","-0.28320312","2.0","0.65625","-3.96875"
"1573730551098","1010","0.3828125","-0.8984375","-0.26171875","10.0","-5.75","-3.5625"
"1573730551099","1011","0.28125","-0.9140625","-0.22753906","19.5625","-7.40625","-3.875"
"1573730551099","1012","0.2998047","-0.9248047","-0.2890625","26.53125","-14.90625","-2.53125"
"1573730551099","1013","0.34570312","-0.92285156","-0.25390625","8.53125","-8.25","-1.34375"
"1573730551099","1014","0.36328125","-0.92285156","-0.24707031","5.34375","-6.84375","0.03125"
"1573730551100","1015","0.3232422","-0.9326172","-0.2421875","12.1875","-5.5625","0.15625"
"1573730551100","1016","0.33691406","-0.93066406","-0.21777344","10.125","-0.9375","0.65625"
"1573730551100","1017","0.3154297","-0.9453125","-0.2421875","9.8125","0.65625","0.53125"
"1573730551100","1018","0.3154297","-0.9326172","-0.19433594","0.34375","0.15625","2.25"
"1573730551101","1019","0.2939453","-0.91503906","-0.18457031","-6.96875","6.5","0.0"
"1573730551301","1020","0.2939453","-0.93359375","-0.17773438","-21.75","9.625","1.6875"
"1573730551302","1021","0.35839844","-0.94433594","-0.2626953","-13.0625","-2.46875","0.96875"
"1573730551303","1022","0.359375","-0.92578125","-0.25878906","-1.25","-4.71875","0.28125"
"1573730551303","1023","0.33789062","-0.9375","-0.265625","11.53125","-6.0","-3.5625"
"1573730551304","1024","0.34765625","-0.9550781","-0.22949219","19.75","-11.90625","-9.65625"
"1573730551304","1025","0.2734375","-0.9433594","-0.17089844","1.6875","-10.9375","-9.125"
"1573730551304","1026","0.23632812","-0.9326172","-0.15820312","-14.90625","1.6875","-6.125"
"1573730551304","1027","0.25097656","-0.921875","-0.14453125","-38.78125","6.40625","-6.5"
"1573730551305","1028","0.29003906","-0.95410156","-0.31640625","-18.6875","8.78125","-5.25"
"1573730551305","1029","0.4658203","-0.88671875","-0.3125","-5.4375","12.5625","5.78125"
"1573730551696","1030","0.390625","-0.85058594","-0.29882812","0.0","4.1875","8.46875"
"1573730551696","1031","0.265625","-0.8564453","-0.28808594","1.5","18.78125","11.15625"
"1573730551696","1032","0.34570312","-0.8925781","-0.34375","-0.8125","18.21875","10.59375"
"1573730551698","1033","0.3642578","-0.9296875","-0.29882812","-8.875","26.90625","18.28125"
"1573730551698","1034","0.41210938","-0.8466797","-0.24902344","-19.53125","16.46875","22.6875"
"1573730551698","1035","0.20605469","-1.0664062","-0.2607422","15.1875","19.875","8.59375"
"1573730551698","1036","-0.111328125","-1.3125","-0.05859375","-33.59375","40.875","-10.6875"
"1573730551699","1037","0.5673828","-0.6777344","-0.20214844","1.875","45.21875","-0.3125"
"1573730551699","1038","0.25097656","-0.8955078","-0.2265625","22.5","4.8125","2.90625"
"1573730551699","1039","0.12207031","-1.0585938","-0.11230469","4.1875","23.375","4.5625"
