"# PR data"
"# Start time: 20191114T112749"
"# Subject: jack"
"# Activity type: Walking"
"# Correctness: Incorrect"
"# Notes: "
""
"timestamp","seq","accel_x","accel_y","accel_z","gyro_x","gyro_y","gyro_z"
"1573730869299","0","-0.4111328","-1.0527344","0.31152344","44.65625","-33.71875","-19.53125"
"1573730869299","1","-0.2705078","-0.9716797","0.5097656","61.5","-16.3125","-22.59375"
"1573730869300","2","-0.17773438","-0.8955078","0.46484375","90.9375","4.5625","-18.875"
"1573730869300","3","-0.26660156","-1.0351562","0.3251953","32.625","7.25","-23.625"
"1573730869300","4","-0.080078125","-0.82421875","0.5732422","37.875","-6.96875","-23.9375"
"1573730869300","5","-0.10058594","-0.75097656","0.6738281","87.5","-2.8125","-31.3125"
"1573730869301","6","-0.16601562","-0.6611328","0.5576172","53.5625","5.125","-26.1875"
"1573730869301","7","-0.068359375","-0.6660156","0.5810547","36.96875","23.25","-25.40625"
"1573730869301","8","-0.08203125","-0.7832031","0.55859375","13.59375","43.0625","-24.1875"
"1573730869301","9","-0.109375","-0.7910156","0.6972656","3.34375","53.6875","-27.3125"
"1573730869697","10","-0.080078125","-0.7734375","0.5341797","2.78125","30.4375","-22.40625"
"1573730869697","11","-0.06542969","-0.8232422","0.5810547","1.875","31.25","-26.8125"
"1573730869697","12","-0.18554688","-0.8623047","0.62109375","26.90625","42.65625","-30.34375"
"1573730869698","13","0.02734375","-0.8457031","0.56640625","3.21875","13.28125","-36.34375"
"1573730869698","14","-0.03125","-0.85058594","0.6748047","4.1875","2.84375","-40.71875"
"1573730869698","15","-0.0234375","-0.87890625","0.6230469","1.4375","0.21875","-36.75"
"1573730869699","16","0.041992188","-0.88964844","0.6171875","-19.0","6.09375","-37.125"
"1573730869699","17","0.078125","-0.9423828","0.61621094","-36.34375","4.8125","-38.21875"
"1573730869699","18","0.1171875","-0.85546875","0.5292969","-36.625","-7.34375","-37.1875"
"1573730869699","19","0.12109375","-0.84277344","0.50878906","-33.34375","-17.28125","-34.3125"
"1573730870094","20","0.15332031","-0.8076172","0.47558594","-40.375","-32.125","-30.21875"
"1573730870094","21","0.14355469","-0.79785156","0.41992188","-37.1875","-32.25","-17.96875"
"1573730870094","22","0.19726562","-0.84277344","0.4404297","-42.5","-29.25","-10.28125"
"1573730870095","23","0.18164062","-0.8144531","0.40429688","-36.625","-28.21875","-6.71875"
"1573730870095","24","0.16992188","-0.8466797","0.34472656","-42.4375","-25.59375","0.96875"
"1573730870096","25","0.2109375","-0.8076172","0.33496094","-52.8125","-13.25","9.5"
"1573730870096","26","0.08691406","-0.86035156","0.2939453","-61.71875","12.6875","14.375"
"1573730870097","27","0.060546875","-0.9267578","0.53515625","-75.46875","51.1875","12.0625"
"1573730870097","28","-0.24121094","-1.1201172","0.3623047","-21.6875","26.71875","19.8125"
"1573730870097","29","0.047851562","-1.03125","0.091796875","-39.5","9.625","22.9375"
"1573730870496","30","0.22460938","-0.88378906","0.140625","-30.78125","-17.40625","12.375"
"1573730870496","31","-0.09277344","-1.0986328","0.23046875","13.21875","-0.3125","30.0625"
"1573730870497","32","-0.16699219","-0.8623047","0.18652344","5.40625","-6.71875","9.8125"
"1573730870497","33","0.02734375","-0.7998047","0.08984375","6.6875","0.40625","21.09375"
"1573730870497","34","0.038085938","-0.85253906","0.078125","15.4375","-10.21875","18.34375"
"1573730870497","35","-0.09765625","-0.86621094","0.14648438","12.8125","-16.96875","16.53125"
"1573730870498","36","-0.03515625","-0.9042969","0.10546875","20.0625","-19.65625","15.96875"
"1573730870499","37","-0.009765625","-0.9033203","0.06347656","28.0625","-32.5","9.6875"
"1573730870499","38","-0.020507812","-0.9042969","0.14941406","45.03125","-31.9375","8.15625"
"1573730870500","39","-0.034179688","-0.9248047","0.1640625","35.5","-34.8125","-2.53125"
"1573730871087","40","0.016601562","-0.984375","0.09667969","34.03125","-43.28125","-8.1875"
"1573730871087","41","0.0146484375","-0.9941406","0.24609375","44.84375","-50.375","-14.84375"
"1573730871088","42","0.10644531","-0.87109375","0.83691406","71.40625","-24.125","-21.375"
"1573730871088","43","-0.41503906","-1.5058594","0.90527344","68.65625","-15.03125","41.0"
"1573730871088","44","0.11035156","-0.7919922","0.41210938","69.5","-26.875","-26.1875"
"1573730871088","45","0.3720703","-0.6904297","0.91308594","18.46875","-23.03125","-21.0"
"1573730871089","46","-0.28027344","-1.0986328","0.6347656","37.8125","27.6875","-4.21875"
"1573730871089","47","0.3203125","-0.62109375","0.54003906","0.65625","14.3125","-27.34375"
"1573730871089","48","0.20605469","-0.734375","0.58496094","-6.375","-11.5","-6.59375"
"1573730871090","49","0.05859375","-0.7480469","0.57910156","-15.34375","-6.96875","-22.0625"
"1573730871286","50","0.140625","-0.68359375","0.5605469","-46.78125","-1.34375","-11.125"
"1573730871286","51","0.10546875","-0.7949219","0.54296875","-42.5","6.5","-11.0625"
"1573730871287","52","0.119140625","-0.8027344","0.50878906","-42.1875","10.1875","-13.375"
"1573730871287","53","0.13867188","-0.8017578","0.4609375","-47.0","12.3125","-8.1875"
"1573730871287","54","0.17871094","-0.8535156","0.4111328","-46.65625","9.09375","-2.40625"
"1573730871287","55","0.13867188","-0.8486328","0.37695312","-47.6875","11.21875","1.3125"
"1573730871288","56","0.1484375","-0.8232422","0.38085938","-58.125","20.5","5.21875"
"1573730871288","57","0.10449219","-0.8847656","0.3486328","-46.46875","32.5625","4.0"
"1573730871288","58","0.13671875","-0.9160156","0.31152344","-46.21875","43.5625","8.71875"
"1573730871288","59","0.15332031","-0.9082031","0.2890625","-50.78125","59.1875","10.1875"
"1573730871684","60","0.08886719","-0.9941406","0.4111328","-72.34375","76.28125","9.5625"
"1573730871685","61","-0.20507812","-1.3388672","0.37597656","-64.96875","76.71875","33.0625"
"1573730871686","62","-0.0625","-0.8964844","0.083984375","-26.625","42.90625","1.5625"
"1573730871686","63","0.4033203","-0.7080078","9.765625E-4","-18.15625","-3.375","3.34375"
"1573730871686","64","-0.32910156","-1.2470703","0.10546875","-36.15625","17.0","35.09375"
"1573730871686","65","-0.055664062","-0.9873047","0.140625","-11.0625","-5.5625","-5.25"
"1573730871687","66","0.083984375","-0.7519531","0.037109375","16.28125","-6.53125","10.84375"
"1573730871687","67","-0.20605469","-0.88183594","-0.043945312","-14.0","-11.5","9.5625"
"1573730871687","68","0.013671875","-0.8339844","0.033203125","4.9375","-22.96875","-0.3125"
"1573730871687","69","-0.06640625","-0.8730469","0.0048828125","13.34375","-34.5","6.9375"
"1573730872081","70","-0.08886719","-0.91015625","-0.005859375","22.4375","-44.3125","3.53125"
"1573730872081","71","-0.057617188","-0.9267578","-0.033203125","21.40625","-39.125","3.40625"
"1573730872082","72","-0.083984375","-0.92871094","0.041015625","16.59375","-18.875","-1.71875"
"1573730872083","73","-0.029296875","-0.9423828","0.046875","30.625","-31.5625","-7.03125"
"1573730872083","74","-0.0068359375","-0.99609375","0.026367188","52.0625","-26.9375","-17.34375"
"1573730872083","75","0.0068359375","-0.9550781","0.10839844","33.6875","-23.09375","-16.96875"
"1573730872084","76","-0.064453125","-1.0341797","0.5722656","43.5","-11.3125","-22.65625"
"1573730872084","77","-0.24316406","-1.4677734","0.4892578","71.6875","-10.21875","13.96875"
"1573730872084","78","0.0029296875","-1.3115234","0.34960938","20.1875","-16.625","-6.5"
"1573730872085","79","0.25683594","-0.72265625","0.6875","20.96875","-26.75","-30.40625"
"1573730872483","80","-0.115234375","-0.9902344","0.6425781","22.09375","8.59375","-2.40625"
"1573730872484","81","-0.013671875","-0.9667969","0.5","-10.9375","41.0","-23.8125"
"1573730872484","82","0.18066406","-0.8232422","0.42089844","-13.5625","36.96875","-15.21875"
"1573730872484","83","0.14941406","-0.7783203","0.4482422","-10.9375","13.65625","-22.71875"
"1573730872485","84","0.09082031","-0.7734375","0.42089844","-10.8125","8.21875","-19.5"
"1573730872485","85","0.15429688","-0.7734375","0.41015625","-20.78125","-1.1875","-17.71875"
"1573730872486","86","0.1953125","-0.83496094","0.4326172","-24.125","-7.28125","-20.71875"
"1573730872487","87","0.12109375","-0.8535156","0.3984375","-21.875","-6.25","-17.21875"
"1573730872487","88","0.17675781","-0.8251953","0.3095703","-26.5","-3.375","-11.90625"
"1573730872488","89","0.23242188","-0.8779297","0.33398438","-27.125","-10.15625","-4.59375"
"1573730872877","90","0.13574219","-0.90722656","0.3408203","-22.71875","-6.96875","-1.0"
"1573730872877","91","0.123046875","-0.93359375","0.29492188","-25.15625","8.09375","3.78125"
"1573730872878","92","0.20800781","-0.99121094","0.25976562","-24.3125","10.65625","7.125"
"1573730872878","93","0.26757812","-0.9394531","0.19726562","-18.15625","5.59375","8.71875"
"1573730872878","94","0.25195312","-0.9501953","0.24707031","-31.375","2.25","10.46875"
"1573730872878","95","0.068359375","-1.109375","0.31152344","-35.34375","10.78125","18.21875"
"1573730872878","96","-0.15332031","-1.0917969","0.17871094","5.34375","7.25","28.125"
"1573730872879","97","0.24023438","-0.7001953","0.22460938","15.125","-0.75","13.71875"
"1573730872880","98","-0.15625","-1.0244141","0.18554688","-10.6875","-6.59375","31.125"
"1573730872880","99","-0.10546875","-1.0068359","0.23828125","8.71875","3.03125","21.59375"
"1573730873276","100","0.045898438","-0.83691406","0.20214844","14.09375","15.96875","20.625"
"1573730873276","101","-0.13671875","-0.93652344","0.13183594","13.71875","16.53125","26.0"
"1573730873277","102","0.009765625","-0.84375","0.14941406","20.25","0.40625","16.15625"
"1573730873277","103","-0.10449219","-0.9189453","0.16308594","18.46875","-18.03125","24.71875"
"1573730873277","104","-0.13476562","-0.9472656","0.14550781","8.84375","-11.0625","16.40625"
"1573730873277","105","-0.018554688","-0.91308594","0.123046875","21.46875","-20.53125","13.40625"
"1573730873278","106","-0.052734375","-0.9111328","0.16210938","22.4375","-22.53125","6.875"
"1573730873278","107","-0.064453125","-0.91503906","0.12207031","30.1875","-29.625","-1.34375"
"1573730873278","108","-0.091796875","-0.9394531","0.15625","15.5625","-29.125","-3.6875"
"1573730873280","109","-9.765625E-4","-0.8642578","0.18359375","39.09375","-30.84375","-10.6875"
"1573730873672","110","-0.08496094","-1.0332031","0.45507812","32.625","-24.78125","-2.875"
"1573730873673","111","-0.18261719","-1.2255859","0.6357422","56.625","-32.84375","-18.6875"
"1573730873673","112","-0.15625","-1.0214844","0.98828125","64.1875","-5.625","-9.0625"
"1573730873673","113","0.07324219","-1.0595703","0.55078125","43.6875","-12.59375","0.09375"
"1573730873673","114","0.12597656","-0.7138672","0.61035156","-8.375","-9.15625","-35.53125"
"1573730873674","115","0.091796875","-0.9951172","0.6533203","21.53125","5.46875","-15.21875"
"1573730873674","116","0.07519531","-0.7890625","0.52441406","-6.0","9.1875","-38.53125"
"1573730873674","117","0.20117188","-0.71191406","0.5214844","-18.25","15.0","-23.5"
"1573730873674","118","0.14550781","-0.8173828","0.50097656","-31.875","3.84375","-28.75"
"1573730873675","119","0.13378906","-0.7441406","0.46875","-32.25","0.09375","-26.375"
"1573730874069","120","0.15136719","-0.8173828","0.45898438","-43.96875","0.59375","-22.59375"
"1573730874069","121","0.1484375","-0.8154297","0.40722656","-41.53125","1.15625","-20.71875"
"1573730874070","122","0.16015625","-0.796875","0.38476562","-45.4375","15.375","-11.0"
"1573730874070","123","0.17089844","-0.87109375","0.36621094","-47.9375","16.59375","-5.4375"
"1573730874070","124","0.2109375","-0.84765625","0.32617188","-48.0625","16.09375","-3.6875"
"1573730874070","125","0.20410156","-0.87597656","0.26464844","-51.28125","21.21875","-2.03125"
"1573730874071","126","0.23632812","-0.9042969","0.21386719","-50.0","18.65625","-3.4375"
"1573730874071","127","0.31347656","-0.9609375","0.15722656","-48.0","15.65625","-0.875"
"1573730874071","128","0.27148438","-0.9794922","0.15527344","-48.21875","11.09375","-2.21875"
"1573730874071","129","0.22363281","-1.1142578","0.22949219","-59.71875","28.71875","4.875"
"1573730874468","130","0.00390625","-1.25","0.13476562","-64.96875","28.5625","19.15625"
"1573730874468","131","0.12109375","-0.8144531","0.091796875","-14.34375","16.9375","6.28125"
"1573730874468","132","0.109375","-0.7050781","0.038085938","-0.9375","-5.75","22.75"
"1573730874470","133","-0.10449219","-1.1972656","0.0087890625","-20.28125","17.9375","30.25"
"1573730874470","134","0.07324219","-0.9003906","0.15625","-22.53125","17.25","14.15625"
"1573730874470","135","-0.052734375","-0.82128906","0.12597656","6.34375","2.78125","22.375"
"1573730874471","136","-0.016601562","-0.9189453","-0.04296875","6.9375","-0.8125","17.375"
"1573730874471","137","0.022460938","-0.81640625","-0.026367188","11.15625","2.5625","10.1875"
"1573730874471","138","-0.06738281","-1.0068359","-0.021484375","5.84375","-3.8125","4.1875"
"1573730874472","139","-0.05078125","-0.90234375","-0.0234375","18.21875","-19.125","3.34375"
"1573730875064","140","0.0146484375","-0.9472656","-0.041015625","23.53125","-19.71875","-1.40625"
"1573730875064","141","0.022460938","-0.9375","-0.0068359375","34.15625","-26.25","-7.34375"
"1573730875065","142","-0.026367188","-0.9560547","0.045898438","34.84375","-27.34375","-10.34375"
"1573730875065","143","-0.028320312","-0.9902344","0.025390625","25.25","-24.375","-14.90625"
"1573730875074","144","0.041992188","-1.0517578","0.09863281","32.875","-25.90625","-14.1875"
"1573730875075","145","0.017578125","-1.1308594","0.25683594","38.5625","-33.53125","-17.59375"
"1573730875075","146","-0.06542969","-1.1259766","0.6503906","53.9375","-11.5625","-11.96875"
"1573730875076","147","-0.16894531","-1.4677734","0.75","66.875","9.5","20.6875"
"1573730875076","148","0.47753906","-0.6767578","0.4111328","34.65625","-50.375","-47.0625"
"1573730875077","149","0.103515625","-1.015625","0.64160156","27.6875","-10.4375","-6.3125"
"1573730875461","150","-0.07421875","-1.0488281","0.40234375","10.0625","28.90625","-20.21875"
"1573730875462","151","0.47265625","-0.7636719","0.41796875","-12.84375","10.125","-17.71875"
"1573730875462","152","0.19726562","-0.7734375","0.3876953","-0.875","-21.3125","-18.625"
"1573730875462","153","0.14160156","-0.7578125","0.38378906","-19.1875","-20.15625","-21.25"
"1573730875463","154","0.29589844","-0.8203125","0.4189453","-34.3125","-20.40625","-13.03125"
"1573730875463","155","0.20019531","-0.8144531","0.38867188","-27.59375","-22.78125","-14.40625"
"1573730875463","156","0.19921875","-0.76953125","0.3544922","-36.28125","-12.59375","-11.5"
"1573730875464","157","0.27246094","-0.86621094","0.31054688","-27.65625","-11.0625","-6.59375"
"1573730875464","158","0.2607422","-0.79296875","0.27246094","-20.9375","-7.28125","-3.8125"
"1573730875465","159","0.2841797","-0.83203125","0.27734375","-28.21875","6.09375","4.0"
"1573730875856","160","0.21972656","-0.87402344","0.23535156","-28.28125","12.8125","-1.96875"
"1573730875856","161","0.33007812","-0.8808594","0.1328125","-6.25","5.40625","1.3125"
"1573730875857","162","0.35839844","-1.0234375","0.21289062","-35.34375","16.71875","15.1875"
"1573730875857","163","0.3046875","-0.9160156","0.18261719","-40.1875","22.09375","5.78125"
"1573730875857","164","0.3828125","-1.1552734","0.23632812","-57.28125","31.0625","9.25"
"1573730875857","165","0.005859375","-1.3300781","0.1484375","-8.5625","7.4375","18.28125"
"1573730875858","166","0.15234375","-0.65234375","0.07324219","22.3125","2.65625","13.59375"
"1573730875858","167","0.052734375","-0.6113281","0.27246094","2.4375","-1.0625","14.09375"
"1573730875858","168","-0.072265625","-1.453125","0.0859375","18.65625","33.3125","20.1875"
"1573730875860","169","0.28808594","-0.8232422","0.19726562","31.59375","-24.1875","9.25"
"1573730876057","170","-0.05859375","-0.72753906","0.17578125","25.0625","-4.90625","29.03125"
"1573730876058","171","-0.013671875","-1.0195312","0.06933594","14.875","-1.84375","26.15625"
"1573730876058","172","0.14648438","-0.8300781","0.17382812","15.78125","-24.5625","22.75"
"1573730876058","173","-0.040039062","-0.8564453","0.125","31.1875","-30.65625","21.46875"
"1573730876058","174","0.056640625","-0.9550781","0.13964844","26.0","-32.25","12.0625"
"1573730876059","175","-0.005859375","-0.9667969","0.119140625","33.84375","-41.09375","10.375"
"1573730876059","176","0.06640625","-0.9355469","0.19042969","33.8125","-35.84375","2.84375"
"1573730876059","177","-0.0126953125","-0.98828125","0.19433594","29.84375","-34.8125","-3.375"
"1573730876060","178","0.032226562","-0.9921875","0.17382812","42.03125","-37.5625","-2.9375"
"1573730876060","179","0.08300781","-0.9609375","0.359375","39.34375","-40.59375","-5.5625"
"1573730876455","180","-0.030273438","-1.0126953","0.8388672","28.5","-24.0","-2.34375"
"1573730876457","181","-0.265625","-1.4365234","0.55371094","106.96875","11.8125","26.0"
"1573730876457","182","0.5859375","-0.57714844","0.5214844","41.71875","-47.5625","-40.78125"
"1573730876457","183","0.06933594","-0.625","0.8154297","42.90625","-8.125","8.84375"
"1573730876458","184","0.08105469","-1.0166016","0.5800781","18.65625","26.40625","-16.1875"
"1573730876458","185","0.33203125","-0.76953125","0.5263672","10.90625","24.71875","-9.90625"
"1573730876458","186","0.20410156","-0.7314453","0.55078125","10.375","8.71875","-10.28125"
"1573730876458","187","0.22558594","-0.68066406","0.54296875","-9.0625","3.40625","-19.1875"
"1573730876459","188","0.21777344","-0.7402344","0.54785156","-16.1875","6.40625","-11.71875"
"1573730876459","189","0.16894531","-0.7138672","0.54589844","-20.65625","9.75","-11.71875"
"1573730876853","190","0.21777344","-0.7421875","0.52734375","-22.15625","16.71875","-9.46875"
"1573730876854","191","0.24511719","-0.7636719","0.5214844","-22.84375","13.46875","-10.21875"
"1573730876854","192","0.19824219","-0.7519531","0.5029297","-20.71875","15.65625","-9.21875"
"1573730876856","193","0.22070312","-0.77441406","0.4736328","-22.125","14.6875","-6.59375"
"1573730876856","194","0.27929688","-0.82910156","0.40820312","-14.96875","7.4375","0.21875"
"1573730876856","195","0.2529297","-0.8339844","0.45996094","-21.0625","11.21875","0.65625"
"1573730876857","196","0.23339844","-0.8310547","0.3955078","-18.875","13.09375","1.3125"
"1573730876857","197","0.21972656","-0.85253906","0.4189453","-25.84375","23.65625","4.75"
"1573730876857","198","0.22949219","-0.92578125","0.38183594","-31.21875","27.875","4.8125"
"1573730876857","199","0.24316406","-0.96777344","0.32617188","-22.34375","16.59375","9.8125"
"1573730877249","200","0.2548828","-0.9345703","0.4423828","-30.28125","-6.25","11.53125"
"1573730877249","201","-0.03515625","-1.1464844","0.5234375","-30.59375","-2.46875","15.71875"
"1573730877250","202","0.064453125","-0.7451172","0.2734375","16.78125","-5.3125","7.5"
"1573730877250","203","0.2919922","-0.5253906","0.39453125","-10.9375","18.21875","14.21875"
"1573730877250","204","-0.33203125","-1.0976562","0.234375","-71.375","30.8125","11.8125"
"1573730877252","205","0.19433594","-1.0107422","0.40820312","16.40625","16.84375","9.6875"
"1573730877252","206","0.09375","-0.7109375","0.36523438","33.8125","-11.0625","13.59375"
"1573730877252","207","-0.18945312","-0.93847656","0.25683594","39.78125","-0.75","6.5625"
"1573730877252","208","0.020507812","-0.7558594","0.29296875","21.40625","-14.90625","1.375"
"1573730877253","209","-9.765625E-4","-0.80078125","0.25683594","1.5","0.71875","5.0"
"1573730877646","210","0.052734375","-1.0146484","0.21875","-3.75","-6.0625","10.84375"
"1573730877650","211","0.033203125","-0.87890625","0.16699219","-31.03125","-11.96875","6.09375"
"1573730877650","212","-0.021484375","-0.7832031","0.14550781","-44.3125","-7.40625","-1.34375"
"1573730877650","213","0.03125","-0.984375","0.09375","23.96875","8.59375","-3.3125"
"1573730877650","214","-0.095703125","-0.984375","0.2939453","2.84375","5.78125","-9.34375"
"1573730877651","215","0.017578125","-0.8564453","0.6826172","54.6875","26.90625","-23.625"
"1573730877651","216","-0.061523438","-1.0888672","0.9667969","95.25","11.53125","-4.46875"
"1573730877653","217","-0.045898438","-1.1328125","0.42382812","51.25","44.59375","23.71875"
"1573730877653","218","0.28125","-0.7050781","0.8251953","-5.3125","15.125","-49.21875"
"1573730877653","219","-0.09863281","-0.94433594","0.7285156","-6.78125","48.5","-1.25"
"1573730878045","220","0.25195312","-0.8984375","0.7285156","20.5625","34.21875","-24.375"
"1573730878046","221","0.11035156","-0.75097656","0.52441406","2.375","5.65625","-25.34375"
"1573730878046","222","0.07128906","-0.7373047","0.48339844","-31.25","21.09375","-25.65625"
"1573730878047","223","0.15429688","-0.70703125","0.3955078","-45.59375","30.3125","-35.78125"
"1573730878048","224","0.19824219","-0.71875","0.41503906","-91.3125","36.25","-30.53125"
"1573730878048","225","0.14941406","-0.79003906","0.52734375","-60.375","17.5","-20.28125"
"1573730878048","226","0.16601562","-0.9033203","0.50097656","-27.46875","-7.9375","-17.65625"
"1573730878049","227","0.19335938","-0.8496094","0.43945312","-71.71875","-7.46875","-14.53125"
"1573730878049","228","0.12597656","-0.89160156","0.38085938","-31.8125","-2.21875","-4.78125"
"1573730878049","229","0.203125","-0.93066406","0.25195312","-18.4375","-12.21875","-1.125"
"1573730878442","230","0.24121094","-0.89160156","0.25","-48.46875","12.0","9.03125"
"1573730878443","231","0.21386719","-0.85546875","0.25585938","-44.9375","16.21875","5.125"
"1573730878443","232","0.1328125","-0.80566406","0.28320312","-54.59375","16.59375","9.5625"
"1573730878444","233","-0.0859375","-1.1982422","0.3388672","-76.25","50.65625","22.25"
"1573730878444","234","-0.3046875","-1.2148438","-0.1875","16.59375","-13.625","9.6875"
"1573730878444","235","0.5605469","-0.80566406","0.19140625","-44.6875","-21.4375","-0.8125"
"1573730878444","236","-0.29882812","-1.1210938","0.11328125","-26.6875","14.28125","30.9375"
"1573730878445","237","-0.013671875","-1.0185547","0.04296875","13.09375","-11.84375","3.40625"
"1573730878445","238","0.11230469","-0.6074219","0.16796875","27.625","-30.03125","6.28125"
"1573730878445","239","-0.16113281","-0.83496094","0.09667969","20.6875","-16.25","21.15625"
"1573730878840","240","0.0107421875","-0.9140625","0.056640625","-5.875","-7.875","-0.75"
"1573730878842","241","-0.043945312","-0.9746094","0.061523438","-18.15625","-16.5625","10.59375"
"1573730878842","242","-0.028320312","-0.9609375","-0.0048828125","0.09375","-24.90625","0.84375"
"1573730878843","243","0.057617188","-0.9121094","0.0126953125","23.59375","-25.40625","-4.21875"
"1573730878843","244","0.02734375","-0.90722656","0.0390625","32.9375","-31.25","-6.375"
"1573730878843","245","-0.005859375","-0.9238281","0.025390625","34.15625","-27.84375","-11.78125"
"1573730878844","246","0.03125","-0.9609375","0.091796875","30.1875","-20.40625","-16.8125"
"1573730878844","247","0.032226562","-1.0302734","0.45703125","55.96875","6.34375","-13.875"
"1573730878844","248","-0.10839844","-1.1435547","0.64160156","39.65625","6.9375","6.875"
"1573730878844","249","-0.18554688","-1.3984375","0.6533203","91.0","25.0625","20.625"
"1573730879237","250","0.421875","-0.7636719","0.47070312","44.65625","-11.5625","-46.46875"
"1573730879237","251","0.12695312","-1.0166016","0.5361328","-17.21875","-4.90625","15.84375"
"1573730879238","252","-0.044921875","-1.0625","0.51464844","30.6875","38.625","-21.4375"
"1573730879239","253","0.31152344","-0.8300781","0.36914062","-17.78125","0.46875","-36.21875"
"1573730879239","254","0.21972656","-0.8173828","0.40722656","-26.5","-22.125","-14.78125"
"1573730879239","255","0.12695312","-0.8173828","0.40429688","-24.84375","-9.21875","-30.34375"
"1573730879240","256","0.16113281","-0.81347656","0.3642578","-40.46875","-7.65625","-18.25"
"1573730879240","257","0.20605469","-0.8466797","0.3359375","-54.75","-3.25","-14.53125"
"1573730879240","258","0.16015625","-0.8408203","0.296875","-43.46875","11.53125","-12.71875"
"1573730879241","259","0.18847656","-0.8300781","0.2578125","-18.6875","19.625","-7.9375"
"1573730880029","260","0.24414062","-0.8691406","0.26464844","-49.625","27.5","-5.8125"
"1573730880030","261","0.23925781","-0.87890625","0.20019531","-93.46875","19.28125","-1.90625"
"1573730880030","262","0.25976562","-0.88378906","0.17382812","-43.84375","12.125","0.65625"
"1573730880031","263","0.23339844","-0.9111328","0.140625","-30.21875","18.21875","4.75"
"1573730880031","264","0.24707031","-0.99609375","0.09667969","-37.96875","24.71875","7.6875"
"1573730880032","265","0.3017578","-1.0439453","0.111328125","-33.03125","18.46875","7.8125"
"1573730880033","266","0.16308594","-1.0996094","0.11230469","-27.84375","24.53125","16.21875"
"1573730880033","267","-0.051757812","-1.1083984","0.16601562","-27.59375","50.40625","21.53125"
"1573730880034","268","-0.05078125","-0.9765625","0.18359375","4.1875","69.875","17.3125"
"1573730880034","269","0.01171875","-0.7714844","0.11230469","-2.34375","28.65625","26.03125"
"1573730880230","270","-0.0078125","-1.1113281","0.0","-7.71875","33.4375","34.65625"
"1573730880230","271","0.13378906","-1.1396484","0.08105469","9.5","23.25","20.90625"
"1573730880231","272","0.001953125","-0.81640625","0.12011719","16.34375","-7.59375","22.03125"
"1573730880231","273","-0.123046875","-0.89746094","0.001953125","19.09375","-0.25","22.375"
"1573730880231","274","0.09375","-0.9013672","-0.056640625","16.78125","0.46875","11.03125"
"1573730880231","275","-0.03515625","-0.88964844","0.016601562","11.75","-4.09375","12.375"
"1573730880232","276","-0.005859375","-0.91308594","0.0","10.0","-15.9375","4.6875"
"1573730880233","277","0.057617188","-0.9902344","-0.043945312","0.71875","-19.53125","0.0"
"1573730880233","278","0.057617188","-0.9658203","-0.046875","12.1875","-25.78125","-10.40625"
"1573730880234","279","0.015625","-0.921875","-0.064453125","7.0625","-30.15625","-19.96875"
"1573730880430","280","0.0068359375","-0.90625","0.13964844","31.25","-16.25","-19.25"
"1573730880430","281","-0.040039062","-0.95214844","0.22753906","67.125","-41.65625","-0.625"
"1573730880431","282","-0.13964844","-1.1445312","0.5058594","62.84375","-24.125","0.15625"
"1573730880431","283","-0.20703125","-1.2421875","0.6269531","94.15625","15.65625","27.28125"
"1573730880431","284","0.25","-1.0566406","0.34570312","58.75","-35.46875","4.0"
"1573730880431","285","0.12109375","-0.89160156","0.77441406","37.28125","-18.9375","-17.09375"
"1573730880432","286","-0.21484375","-1.0527344","0.6455078","43.0","-1.71875","13.40625"
"1573730880432","287","-0.0029296875","-0.8779297","0.4453125","-0.875","18.84375","-22.84375"
"1573730880432","288","0.23632812","-0.83691406","0.44335938","9.8125","2.5","-6.125"
"1573730880434","289","0.078125","-0.7871094","0.49609375","4.0","-21.125","-17.96875"
"1573730880829","290","0.0107421875","-0.75390625","0.5332031","-8.0625","-14.34375","-18.625"
"1573730880829","291","0.12011719","-0.80371094","0.4921875","-16.5","-7.78125","-14.0625"
"1573730880830","292","0.11035156","-0.8457031","0.4609375","-21.25","-3.8125","-12.90625"
"1573730880830","293","0.12109375","-0.828125","0.47558594","-33.34375","-4.90625","-9.71875"
"1573730880830","294","0.1640625","-0.89160156","0.46289062","-26.875","5.96875","-9.34375"
"1573730880830","295","0.15039062","-0.85058594","0.37402344","-23.9375","11.875","-6.84375"
"1573730880831","296","0.1875","-0.8623047","0.3232422","-32.84375","12.3125","-6.3125"
"1573730880831","297","0.24023438","-0.88183594","0.30664062","-21.4375","9.75","-1.59375"
"1573730880831","298","0.13085938","-0.8222656","0.26464844","-26.0625","17.125","-2.9375"
"1573730880831","299","0.23242188","-0.88964844","0.2548828","-30.03125","24.71875","-1.59375"
"1573730881224","300","0.28515625","-0.9394531","0.24023438","-52.8125","13.34375","-0.625"
"1573730881224","301","0.19042969","-1.0068359","0.27148438","-55.75","9.1875","-2.34375"
"1573730881224","302","0.020507812","-1.1630859","0.29101562","-81.0625","17.375","-2.21875"
"1573730881225","303","-0.28320312","-1.1054688","-0.005859375","-18.03125","-18.6875","0.34375"
"1573730881225","304","0.375","-0.7480469","0.18261719","-20.09375","-9.125","-0.6875"
"1573730881225","305","-0.11328125","-0.9873047","0.07519531","-23.40625","-21.625","10.90625"
"1573730881225","306","-0.013671875","-1.1259766","0.07910156","-25.96875","-1.0","11.9375"
"1573730881226","307","0.14257812","-0.78808594","0.14160156","-0.4375","-23.4375","3.09375"
"1573730881226","308","-0.10449219","-0.8496094","0.05859375","5.53125","-14.34375","22.5"
"1573730881226","309","0.055664062","-0.93359375","-0.0107421875","-0.75","-7.875","3.21875"
"1573730881823","310","0.087890625","-0.89453125","-0.03125","-4.53125","-14.46875","7.375"
"1573730881823","311","0.001953125","-0.9814453","-0.04296875","-5.21875","-13.1875","1.09375"
"1573730881824","312","0.064453125","-0.92285156","-0.037109375","-1.0625","-16.875","-5.375"
"1573730881825","313","0.17675781","-0.875","-0.061523438","18.0625","-22.125","-7.8125"
"1573730881825","314","0.06542969","-1.0","-0.0546875","18.84375","-23.03125","-11.375"
"1573730881826","315","0.041015625","-0.92871094","-0.013671875","31.71875","-26.4375","-13.75"
"1573730881826","316","0.12597656","-0.89941406","0.06640625","28.5625","-27.59375","-18.21875"
"1573730881826","317","-0.0068359375","-1.1220703","0.20800781","41.1875","-17.59375","-7.46875"
"1573730881826","318","-0.17480469","-1.2470703","0.6513672","70.125","20.84375","10.71875"
"1573730881827","319","-0.038085938","-1.2607422","0.50097656","96.25","41.3125","31.1875"
"1573730882020","320","0.4736328","-0.8251953","0.37402344","67.25","-16.4375","-20.84375"
"1573730882020","321","0.17089844","-0.8496094","0.703125","71.9375","-31.625","0.28125"
"1573730882020","322","-0.17285156","-0.95996094","0.578125","47.28125","3.09375","2.375"
"1573730882020","323","0.14257812","-0.8232422","0.44921875","8.15625","23.0","-11.6875"
"1573730882021","324","0.1796875","-0.8847656","0.50683594","9.9375","7.0","-2.75"
"1573730882022","325","0.10839844","-0.8144531","0.5263672","4.75","3.03125","-15.875"
"1573730882022","326","0.13769531","-0.7626953","0.48046875","-21.3125","-5.03125","-14.65625"
"1573730882022","327","0.19238281","-0.8046875","0.4951172","-22.96875","-12.90625","-9.40625"
"1573730882023","328","0.107421875","-0.8222656","0.4921875","-19.78125","-9.28125","-6.53125"
"1573730882023","329","0.13671875","-0.82128906","0.45996094","-27.40625","-9.0","-5.5"
"1573730882417","330","0.23632812","-0.8486328","0.39453125","-27.1875","-7.46875","-3.6875"
"1573730882418","331","0.2109375","-0.88183594","0.38964844","-16.5625","-9.71875","0.0"
"1573730882418","332","0.19726562","-0.9277344","0.36328125","-30.46875","2.71875","1.375"
"1573730882418","333","0.21582031","-0.9628906","0.3310547","-59.59375","5.59375","3.90625"
"1573730882419","334","0.19140625","-0.9033203","0.22753906","-44.6875","-0.6875","-5.25"
"1573730882419","335","0.2421875","-0.92285156","0.25195312","-40.78125","9.625","2.0625"
"1573730882419","336","0.22753906","-0.8720703","0.24316406","-50.125","14.6875","-3.6875"
"1573730882420","337","0.28808594","-0.87597656","0.2734375","-53.125","16.46875","-2.34375"
"1573730882421","338","0.16210938","-1.1533203","0.375","-70.875","52.28125","-3.8125"
"1573730882421","339","-0.3125","-1.1650391","0.18847656","13.71875","42.34375","10.375"
"1573730883014","340","0.23730469","-0.58496094","0.026367188","-28.875","19.28125","-4.53125"
"1573730883014","341","0.15527344","-0.8847656","0.0126953125","-40.0","10.0","10.46875"
"1573730883015","342","0.015625","-1.4814453","0.01953125","-19.65625","31.53125","14.15625"
"1573730883015","343","0.049804688","-0.7441406","0.1171875","-1.84375","-14.59375","-1.34375"
"1573730883015","344","0.055664062","-0.7294922","0.0048828125","6.8125","8.15625","10.59375"
"1573730883016","345","0.08203125","-1.0087891","-0.059570312","-0.125","9.625","13.84375"
"1573730883016","346","0.15234375","-0.8203125","-0.0546875","-6.71875","-12.90625","0.03125"
"1573730883016","347","0.095703125","-0.93847656","-0.0107421875","5.59375","-10.4375","7.375"
"1573730883016","348","0.03515625","-0.95996094","-0.057617188","10.65625","-14.46875","2.25"
"1573730883018","349","0.14550781","-0.8701172","-0.040039062","26.84375","-17.34375","3.40625"
"1573730883211","350","0.057617188","-0.9433594","-0.016601562","41.0","-9.78125","6.6875"
"1573730883211","351","0.018554688","-0.90722656","0.053710938","69.6875","-12.28125","10.71875"
"1573730883212","352","0.13964844","-0.8886719","0.21289062","91.84375","-31.375","21.71875"
"1573730883212","353","-0.1015625","-1.09375","0.3359375","100.9375","-33.84375","14.28125"
"1573730883212","354","-0.0234375","-1.0380859","0.6328125","98.0625","-8.75","14.28125"
"1573730883212","355","-0.36035156","-1.3261719","1.1416016","91.0625","29.28125","36.53125"
"1573730883213","356","0.32128906","-0.86035156","0.5449219","103.375","-8.0625","3.53125"
"1573730883213","357","0.15625","-0.8066406","0.6738281","54.96875","-17.15625","-14.34375"
"1573730883213","358","-0.123046875","-0.90234375","0.71875","53.15625","10.46875","8.59375"
"1573730883214","359","0.18457031","-0.6308594","0.5917969","17.0","5.40625","-20.09375"
"1573730883610","360","0.1484375","-0.7998047","0.6035156","2.25","-18.625","-3.96875"
"1573730883611","361","0.10644531","-0.6816406","0.62890625","-5.09375","-20.71875","-16.875"
"1573730883611","362","0.08984375","-0.7128906","0.5722656","-15.6875","-21.375","-9.84375"
"1573730883612","363","0.13476562","-0.70214844","0.58691406","-25.53125","-12.40625","-6.90625"
"1573730883612","364","0.12402344","-0.71484375","0.58984375","-29.4375","-4.78125","-8.4375"
"1573730883612","365","0.06933594","-0.8105469","0.5390625","-26.75","12.4375","-13.5625"
"1573730883612","366","0.034179688","-0.8154297","0.54003906","-36.75","10.84375","-18.4375"
"1573730883613","367","0.23828125","-0.7871094","0.4892578","-36.6875","16.78125","-13.5"
"1573730883613","368","0.25585938","-0.8642578","0.47753906","-41.59375","7.75","0.96875"
"1573730883613","369","0.20703125","-0.82910156","0.45214844","-44.28125","6.5","-2.8125"
"1573730884206","370","0.123046875","-0.8642578","0.4501953","-69.71875","20.125","-1.59375"
"1573730884206","371","0.18066406","-0.91015625","0.36328125","-75.75","32.15625","-0.4375"
"1573730884206","372","0.26171875","-0.9296875","0.41992188","-67.15625","44.34375","3.03125"
"1573730884207","373","-0.046875","-1.2597656","0.42578125","-123.6875","74.15625","9.8125"
"1573730884208","374","-0.4033203","-0.9453125","0.20507812","-60.5625","62.0","4.6875"
"1573730884208","375","0.45996094","-0.5888672","0.16992188","-82.65625","44.65625","-11.4375"
"1573730884208","376","-0.13964844","-1.1279297","0.083984375","-76.5","30.9375","22.375"
"1573730884209","377","-0.08105469","-1.1044922","0.06933594","-20.15625","30.625","10.59375"
"1573730884209","378","0.0859375","-0.64160156","0.15625","-2.03125","-18.4375","-9.78125"
"1573730884209","379","-0.16210938","-0.91015625","0.034179688","2.65625","1.3125","24.53125"
"1573730884404","380","0.044921875","-0.92089844","-0.025390625","-9.125","10.125","-1.65625"
"1573730884404","381","-0.01171875","-0.9355469","0.0029296875","-18.6875","1.8125","3.34375"
"1573730884404","382","-0.044921875","-0.93066406","-0.037109375","-14.1875","-9.0","2.125"
"1573730884405","383","0.06640625","-0.953125","-0.08496094","-13.5","-13.03125","-5.03125"
"1573730884405","384","0.032226562","-0.8964844","-0.125","0.0","-23.28125","-11.96875"
"1573730884406","385","0.09082031","-0.9345703","-0.107421875","4.6875","-33.84375","-18.09375"
"1573730884406","386","0.030273438","-0.9560547","-0.087890625","15.25","-34.875","-19.65625"
"1573730884407","387","0.017578125","-0.96875","-0.029296875","26.84375","-42.125","-21.0625"
"1573730884407","388","-0.015625","-1.0400391","0.14746094","47.96875","-23.28125","-5.3125"
"1573730884407","389","-0.14160156","-1.2294922","0.25585938","59.8125","-8.0625","11.28125"
"1573730884803","390","-0.048828125","-1.1591797","0.28710938","67.0","-12.78125","12.875"
"1573730884803","391","0.024414062","-1.2304688","0.50097656","73.34375","-12.53125","10.1875"
"1573730884804","392","0.055664062","-0.8154297","0.5058594","87.21875","-39.5","-7.8125"
"1573730884804","393","9.765625E-4","-0.8574219","0.5341797","47.21875","-26.25","-9.53125"
"1573730884804","394","0.0029296875","-1.0175781","0.46191406","30.125","14.21875","-5.03125"
"1573730884804","395","0.16699219","-0.79785156","0.4716797","17.75","1.5625","-12.46875"
"1573730884804","396","0.15136719","-0.9091797","0.47753906","9.4375","-1.25","-9.59375"
"1573730884806","397","0.09082031","-0.8730469","0.46191406","6.625","-1.65625","-9.40625"
"1573730884806","398","0.109375","-0.8203125","0.4658203","-7.28125","-7.03125","-11.125"
"1573730884807","399","0.17480469","-0.8935547","0.4267578","-14.125","-3.3125","-7.46875"
"1573730885199","400","0.13476562","-0.8535156","0.4345703","-19.59375","-1.71875","-8.25"
"1573730885200","401","0.10546875","-0.83203125","0.38183594","-18.9375","1.28125","-7.59375"
"1573730885200","402","0.19921875","-0.84277344","0.37304688","-26.375","5.0625","-6.84375"
"1573730885200","403","0.203125","-0.83691406","0.32714844","-31.625","-4.90625","-6.65625"
"1573730885200","404","0.25195312","-0.9013672","0.3173828","-34.125","-6.5","-6.96875"
"1573730885204","405","0.16894531","-0.8955078","0.32714844","-30.53125","-0.6875","-5.15625"
"1573730885204","406","0.109375","-0.9472656","0.2626953","-41.53125","18.21875","-2.46875"
"1573730885204","407","0.2919922","-0.9951172","0.20800781","-52.09375","18.84375","-3.75"
"1573730885205","408","0.2548828","-0.92089844","0.38085938","-47.8125","24.03125","-6.53125"
"1573730885210","409","-0.2705078","-1.1708984","0.19921875","-37.0","13.78125","13.84375"
"1573730885796","410","0.06542969","-0.8408203","0.04296875","-27.84375","43.375","-3.625"
"1573730885797","411","0.4296875","-0.8808594","0.09765625","-56.09375","9.75","-13.3125"
"1573730885797","412","-0.19726562","-1.2685547","0.125","-38.96875","12.6875","10.59375"
"1573730885797","413","0.061523438","-0.99609375","0.068359375","-16.8125","17.3125","-5.25"
"1573730885797","414","0.23339844","-0.703125","0.016601562","-8.4375","12.1875","4.25"
"1573730885798","415","-0.041015625","-0.9404297","-0.01953125","-13.75","11.34375","16.90625"
"1573730885798","416","0.13378906","-0.8720703","-0.017578125","-10.40625","14.75","-3.8125"
"1573730885798","417","0.11621094","-0.8964844","-0.061523438","-21.1875","8.96875","7.8125"
"1573730885798","418","0.043945312","-0.9550781","-0.115234375","-39.875","11.75","1.75"
"1573730885799","419","0.08886719","-0.9296875","-0.08203125","-28.8125","0.78125","-3.96875"
"1573730886194","420","0.15234375","-0.9121094","-0.12792969","-8.375","-13.0625","-9.0625"
"1573730886195","421","0.1328125","-0.9667969","-0.1640625","14.75","-24.3125","-13.1875"
"1573730886195","422","0.12890625","-0.9423828","-0.13769531","18.0","-26.4375","-11.125"
"1573730886195","423","0.1171875","-0.9433594","-0.111328125","26.71875","-23.34375","-10.15625"
"1573730886196","424","0.080078125","-0.9873047","0.0087890625","36.46875","-15.625","-3.3125"
"1573730886196","425","-0.091796875","-1.1826172","0.14453125","63.875","7.375","13.15625"
"1573730886196","426","-0.072265625","-1.1005859","0.20214844","79.875","15.625","24.875"
"1573730886196","427","0.11425781","-1.1210938","0.44140625","61.5625","25.0625","22.25"
"1573730886197","428","0.048828125","-1.2519531","0.6738281","45.40625","18.125","36.0"
"1573730886197","429","0.055664062","-0.6611328","0.40234375","47.90625","-28.875","-15.46875"
"1573730886590","430","0.11328125","-1.1162109","0.45996094","31.1875","-7.59375","4.4375"
"1573730886591","431","-0.001953125","-0.9951172","0.40527344","22.875","13.96875","-7.09375"
"1573730886591","432","0.08496094","-0.828125","0.38964844","0.0","13.0","-7.875"
"1573730886592","433","0.107421875","-0.9951172","0.39941406","3.03125","14.09375","-3.3125"
"1573730886593","434","0.1640625","-0.8623047","0.45410156","4.6875","0.90625","-13.03125"
"1573730886593","435","0.12695312","-0.81152344","0.35253906","-2.6875","-11.71875","-10.625"
"1573730886593","436","0.140625","-0.8828125","0.35351562","-12.15625","-9.65625","-9.21875"
"1573730886594","437","0.11035156","-0.86035156","0.3388672","-21.8125","-7.78125","-7.59375"
"1573730886594","438","0.17089844","-0.8984375","0.29003906","-21.125","-8.3125","-7.78125"
"1573730886594","439","0.18847656","-0.8984375","0.2939453","-27.34375","-7.53125","-5.15625"
"1573730886989","440","0.16894531","-0.8847656","0.24511719","-27.34375","-7.34375","-3.875"
"1573730886989","441","0.203125","-0.8876953","0.24023438","-23.5625","-5.625","-2.625"
"1573730886990","442","0.17675781","-0.86816406","0.2685547","-20.34375","-0.1875","1.4375"
"1573730886990","443","0.12597656","-0.859375","0.24316406","-19.71875","11.21875","1.4375"
"1573730886990","444","0.23144531","-0.85253906","0.19335938","-32.78125","16.28125","2.375"
"1573730886992","445","0.24804688","-1.1074219","0.37890625","-69.71875","29.28125","-3.875"
"1573730886992","446","-0.5390625","-1.4160156","0.16308594","-2.59375","19.875","19.9375"
"1573730886993","447","0.28222656","-0.76660156","0.083984375","-0.1875","10.125","0.21875"
"1573730886993","448","0.19140625","-0.9472656","0.052734375","-28.09375","9.3125","2.84375"
"1573730886993","449","-0.16308594","-1.3183594","0.16796875","-8.5","3.28125","23.0"
"1573730887585","450","0.0625","-0.72558594","0.06542969","19.46875","-2.53125","-9.78125"
"1573730887585","451","0.0048828125","-0.86621094","-0.0126953125","-1.78125","15.125","16.40625"
"1573730887586","452","0.15820312","-0.9580078","0.0087890625","-0.8125","4.375","2.3125"
"1573730887586","453","0.043945312","-0.8457031","0.052734375","-0.875","-4.09375","-3.125"
"1573730887586","454","0.060546875","-0.9707031","-0.009765625","-8.875","-11.3125","2.71875"
"1573730887586","455","0.13574219","-0.9716797","-0.0087890625","2.0625","-23.875","-6.25"
"1573730887587","456","0.12988281","-0.89160156","-0.01171875","5.1875","-31.8125","-3.375"
"1573730887587","457","0.07519531","-0.94628906","-0.018554688","-1.25","-41.40625","-6.96875"
"1573730887587","458","0.05859375","-1.0546875","-0.043945312","32.28125","-48.0","-3.0"
"1573730887587","459","0.06347656","-0.890625","-0.016601562","31.40625","-47.5","-17.53125"
"1573730887784","460","0.045898438","-0.9628906","0.13085938","30.0625","-20.21875","-3.875"
"1573730887784","461","-0.087890625","-1.109375","0.29589844","48.625","-0.9375","-0.9375"
"1573730887785","462","-0.016601562","-1.0019531","0.3173828","62.5","14.21875","3.90625"
"1573730887785","463","0.119140625","-1.0322266","0.57714844","62.59375","18.53125","2.90625"
"1573730887785","464","-0.001953125","-1.2724609","0.92089844","54.5","11.28125","13.0"
"1573730887785","465","0.16992188","-0.85253906","0.3642578","77.75","0.90625","1.75"
"1573730887785","466","0.31445312","-0.74902344","0.55078125","42.15625","-31.15625","-25.46875"
"1573730887786","467","-0.091796875","-0.9638672","0.50683594","18.84375","11.9375","3.03125"
"1573730887786","468","0.15234375","-0.7529297","0.5498047","-28.6875","32.28125","-18.21875"
"1573730887787","469","0.22753906","-0.94921875","0.5185547","17.75","6.09375","-12.84375"
"1573730888182","470","0.08886719","-0.8847656","0.5332031","-6.4375","1.8125","-16.96875"
"1573730888182","471","0.24414062","-0.8125","0.4873047","-8.4375","6.09375","-10.625"
"1573730888182","472","0.11230469","-0.8144531","0.45703125","-22.0625","-2.46875","-10.625"
"1573730888183","473","0.1640625","-0.7763672","0.4375","-28.9375","-3.1875","-6.4375"
"1573730888183","474","0.20996094","-0.78515625","0.4736328","-23.40625","5.71875","-3.4375"
"1573730888183","475","0.13378906","-0.7871094","0.390625","-17.71875","11.875","-4.46875"
"1573730888184","476","0.20605469","-0.82910156","0.3564453","-23.40625","10.1875","0.21875"
"1573730888184","477","0.2763672","-0.8466797","0.34375","-29.4375","2.4375","-0.8125"
"1573730888184","478","0.21777344","-0.9199219","0.27929688","-32.59375","2.78125","3.78125"
"1573730888184","479","0.23046875","-0.8720703","0.2783203","-39.0625","5.84375","1.03125"
"1573730888578","480","0.2421875","-0.9746094","0.26660156","-41.8125","11.09375","2.0625"
"1573730888579","481","0.1796875","-0.98828125","0.26171875","-39.1875","16.34375","-1.46875"
"1573730888579","482","0.20507812","-0.9003906","0.38183594","-34.75","26.40625","-3.5625"
"1573730888579","483","-0.10644531","-1.140625","0.2548828","-23.6875","23.0625","10.1875"
"1573730888580","484","0.03515625","-0.8544922","0.068359375","-45.125","28.90625","-5.4375"
"1573730888580","485","0.3125","-0.9267578","0.16015625","-34.3125","-3.90625","-4.21875"
"1573730888580","486","-0.20605469","-1.2275391","0.23535156","-20.71875","19.15625","13.96875"
"1573730888580","487","0.0029296875","-0.828125","0.12988281","-6.96875","12.6875","3.21875"
"1573730888581","488","0.18457031","-0.7265625","0.07421875","-3.3125","12.1875","7.90625"
"1573730888581","489","0.0625","-0.99902344","0.055664062","-3.125","5.34375","15.0625"
"1573730888975","490","0.09277344","-0.84472656","0.07910156","3.34375","-10.34375","-2.03125"
"1573730888976","491","0.026367188","-0.9248047","0.026367188","0.59375","-7.53125","11.15625"
"1573730888976","492","0.030273438","-0.99316406","0.0029296875","-0.3125","-13.875","3.09375"
"1573730888977","493","0.10839844","-0.89941406","-0.033203125","3.65625","-24.84375","-2.6875"
"1573730888978","494","0.103515625","-0.9511719","-0.028320312","5.28125","-33.65625","-12.59375"
"1573730888978","495","-0.037109375","-0.99316406","-0.055664062","17.6875","-28.09375","-9.34375"
"1573730888978","496","0.13671875","-1.078125","0.01953125","19.34375","-13.8125","-6.71875"
"1573730888979","497","0.12695312","-1.0576172","0.15234375","37.15625","-23.9375","-16.1875"
"1573730888979","498","-0.12207031","-1.0966797","0.43359375","48.875","-1.125","-3.3125"
"1573730888979","499","-0.1015625","-1.2119141","0.5732422","52.78125","39.96875","17.1875"
"1573730889374","500","0.32226562","-1.0976562","0.484375","39.59375","21.84375","6.5625"
"1573730889375","501","0.25","-0.8574219","0.6826172","39.71875","-24.0625","-14.46875"
"1573730889375","502","-0.11328125","-0.8544922","0.53027344","36.25","-1.71875","5.40625"
"1573730889375","503","0.15820312","-0.9033203","0.36621094","13.15625","33.0","-12.59375"
"1573730889375","504","0.2265625","-0.79003906","0.3408203","-15.8125","7.0625","-8.3125"
"1573730889377","505","0.09375","-0.79589844","0.4375","-15.9375","-12.90625","-9.15625"
"1573730889377","506","0.11328125","-0.8671875","0.4921875","-17.15625","0.96875","-13.5625"
"1573730889378","507","0.171875","-0.8642578","0.37890625","-4.46875","-5.5625","-10.6875"
"1573730889378","508","0.18261719","-0.8417969","0.39160156","-7.53125","-4.59375","-3.90625"
"1573730889378","509","0.18164062","-0.8466797","0.44628906","-18.5","10.3125","-0.75"
"1573730889770","510","0.15527344","-0.87597656","0.38867188","-13.5","22.03125","-2.28125"
"1573730889770","511","0.17480469","-0.8144531","0.3125","-1.53125","22.6875","-1.34375"
"1573730889770","512","0.18554688","-0.90722656","0.38671875","-11.5","24.9375","2.375"
"1573730889771","513","0.19140625","-0.9013672","0.37109375","-10.9375","28.96875","-2.03125"
"1573730889771","514","0.19628906","-0.9121094","0.26171875","-16.96875","27.15625","0.40625"
"1573730889771","515","0.2578125","-0.984375","0.2734375","-24.75","19.625","2.0625"
"1573730889771","516","0.21582031","-0.98828125","0.28125","-28.65625","18.59375","2.5625"
"1573730889773","517","0.06933594","-0.9160156","0.25","-37.75","26.0","2.71875"
"1573730889773","518","0.076171875","-0.9501953","0.38378906","-40.90625","43.0625","5.53125"
"1573730889773","519","-0.15234375","-1.0107422","0.23632812","-41.46875","14.9375","15.0625"
"1573730890167","520","0.15136719","-0.8828125","0.16015625","-33.875","16.78125","-6.1875"
"1573730890168","521","0.109375","-1.0810547","0.17382812","-24.96875","-15.03125","7.8125"
"1573730890168","522","-0.09375","-0.98046875","0.1015625","-11.3125","-14.78125","6.8125"
"1573730890168","523","0.080078125","-0.8623047","0.20507812","4.3125","-15.59375","7.625"
"1573730890168","524","-0.05859375","-0.8300781","0.11035156","2.0","-17.03125","17.75"
"1573730890169","525","0.040039062","-0.86621094","0.07714844","1.8125","-20.46875","5.65625"
"1573730890169","526","0.06347656","-0.9316406","0.091796875","-2.9375","-25.84375","5.21875"
"1573730890169","527","-0.05859375","-0.9824219","0.029296875","-5.875","-27.34375","3.53125"
"1573730890169","528","-9.765625E-4","-1.0361328","-0.01171875","-6.25","-33.03125","-2.8125"
"1573730890170","529","0.123046875","-0.9003906","-0.0107421875","20.0","-40.125","-9.96875"
"1573730890566","530","0.080078125","-0.98535156","0.009765625","19.875","-34.0","-11.1875"
"1573730890567","531","-0.040039062","-1.0556641","0.018554688","18.78125","-32.84375","-14.1875"
"1573730890567","532","0.068359375","-0.9736328","0.09472656","31.0","-22.90625","-16.1875"
"1573730890567","533","0.14160156","-1.0517578","0.39257812","60.96875","-21.75","-7.15625"
"1573730890568","534","0.111328125","-1.2099609","0.6826172","103.0","-30.46875","14.5"
"1573730890568","535","0.06933594","-0.9082031","0.4892578","71.9375","-13.75","6.46875"
"1573730890568","536","0.21875","-0.89746094","0.5292969","-26.0625","-9.34375","-19.375"
"1573730890569","537","0.107421875","-1.1513672","0.5332031","-6.59375","3.34375","9.8125"
"1573730890569","538","0.15820312","-0.82128906","0.40527344","11.8125","23.125","-19.375"
"1573730890569","539","0.31152344","-0.8808594","0.3388672","-25.96875","0.40625","-5.5625"
"1573730891161","540","0.19042969","-0.8886719","0.31933594","-22.84375","-10.8125","-10.34375"
"1573730891161","541","0.22265625","-0.80859375","0.40234375","-24.5","-15.75","-9.28125"
"1573730891162","542","0.20214844","-0.87109375","0.3515625","-12.46875","-13.0625","-5.5"
"1573730891162","543","0.21972656","-0.8417969","0.33984375","-25.96875","-12.34375","-5.8125"
"1573730891162","544","0.21679688","-0.8330078","0.28710938","-21.5","-12.46875","-4.65625"
"1573730891162","545","0.21679688","-0.8701172","0.26367188","-17.78125","-13.5625","0.34375"
"1573730891163","546","0.20898438","-0.8828125","0.24804688","-14.46875","3.40625","2.375"
"1573730891163","547","0.25878906","-0.90625","0.22167969","-10.15625","8.96875","2.84375"
"1573730891163","548","0.23242188","-0.9003906","0.22265625","-14.59375","13.21875","3.34375"
"1573730891164","549","0.28808594","-0.96875","0.24902344","-16.1875","21.34375","7.375"
"1573730891361","550","0.26367188","-0.9589844","0.20214844","-16.375","21.15625","7.90625"
"1573730891362","551","0.21484375","-1.0507812","0.21582031","-33.28125","28.0625","6.03125"
"1573730891362","552","-0.0126953125","-1.2666016","0.265625","-34.6875","46.1875","8.71875"
"1573730891364","553","0.005859375","-0.8046875","0.1796875","1.8125","34.59375","1.375"
"1573730891364","554","0.044921875","-0.63671875","0.15917969","-19.84375","25.0625","10.46875"
"1573730891364","555","-0.022460938","-1.2167969","0.08105469","-26.6875","43.3125","19.09375"
"1573730891365","556","0.203125","-1.0996094","0.22949219","0.0","15.3125","8.03125"
"1573730891365","557","-0.024414062","-0.7392578","0.22851562","1.625","-2.40625","12.875"
"1573730891365","558","-0.10449219","-0.95410156","0.053710938","4.6875","15.84375","23.25"
"1573730891366","559","0.10644531","-0.94433594","0.0029296875","-8.8125","11.65625","3.71875"
"1573730891759","560","0.017578125","-0.8623047","0.05078125","-15.9375","-0.0625","1.5"
"1573730891759","561","-0.0068359375","-0.9667969","0.016601562","-4.78125","-3.75","1.21875"
"1573730891759","562","0.061523438","-0.99609375","-0.043945312","-13.0625","-13.0625","-11.96875"
"1573730891759","563","0.17089844","-0.9248047","-0.07421875","2.0625","-40.375","-19.65625"
"1573730891760","564","0.05859375","-0.9121094","0.015625","17.125","-45.4375","-22.78125"
"1573730891761","565","-0.09863281","-1.0771484","0.005859375","27.4375","-30.34375","-14.0625"
"1573730891761","566","0.12109375","-1.0371094","0.046875","15.65625","-26.5625","-18.15625"
"1573730891761","567","0.19140625","-1.2353516","0.47265625","48.5","-11.71875","-10.4375"
"1573730891762","568","-0.0625","-1.3828125","0.48535156","54.84375","-22.59375","26.28125"
"1573730891762","569","0.30566406","-0.6699219","0.27929688","33.3125","-46.15625","-39.3125"
"1573730892155","570","0.20605469","-0.89746094","0.5341797","28.625","-32.25","-2.03125"
"1573730892156","571","-0.103515625","-1.0878906","0.5527344","25.4375","15.1875","-8.875"
"1573730892156","572","0.2109375","-0.796875","0.43066406","13.03125","27.5625","-15.6875"
"1573730892156","573","0.203125","-0.8828125","0.4326172","17.0","18.71875","-3.125"
"1573730892157","574","0.17285156","-0.8222656","0.4375","12.375","13.59375","-12.53125"
"1573730892157","575","0.1953125","-0.7890625","0.42773438","7.125","14.21875","-5.9375"
"1573730892157","576","0.17871094","-0.8222656","0.4248047","-0.0625","12.4375","-4.59375"
"1573730892158","577","0.20117188","-0.84765625","0.4267578","-2.75","13.09375","-1.84375"
"1573730892159","578","0.17871094","-0.85839844","0.38867188","-6.53125","14.15625","-3.0"
"1573730892159","579","0.203125","-0.87597656","0.36621094","-15.09375","16.28125","0.03125"
"1573730892748","580","0.26757812","-0.91308594","0.37304688","-11.6875","3.84375","2.4375"
"1573730892748","581","0.27441406","-0.87402344","0.3564453","-14.34375","-5.6875","0.65625"
"1573730892749","582","0.17089844","-0.85253906","0.28222656","-24.84375","-0.3125","-1.90625"
"1573730892749","583","0.25390625","-0.9980469","0.27441406","-34.4375","12.4375","5.78125"
"1573730892749","584","0.24511719","-1.0068359","0.28222656","-51.03125","12.5625","0.28125"
"1573730892749","585","0.22070312","-0.92089844","0.23339844","-53.0625","14.5625","-2.09375"
"1573730892750","586","0.022460938","-1.109375","0.39453125","-72.59375","53.6875","4.4375"
"1573730892750","587","-0.08886719","-0.76953125","0.026367188","1.75","26.28125","-5.5625"
"1573730892750","588","0.3173828","-0.8261719","0.025390625","-59.71875","13.65625","5.78125"
"1573730892751","589","0.20117188","-1.3105469","0.20117188","-22.40625","31.28125","-0.125"
"1573730892951","590","-0.024414062","-0.9355469","0.15332031","3.78125","2.84375","14.375"
"1573730892952","591","-0.08691406","-0.7011719","0.037109375","-21.0","13.09375","5.0625"
"1573730892952","592","0.19921875","-0.90625","-0.0107421875","-11.4375","22.3125","11.40625"
"1573730892952","593","0.022460938","-0.9658203","0.0068359375","-12.09375","9.3125","-0.625"
"1573730892953","594","-0.0087890625","-0.92285156","-0.02734375","-17.59375","10.40625","2.0"
"1573730892953","595","0.13964844","-1.0126953","-0.087890625","-10.28125","4.0625","-3.96875"
"1573730892953","596","0.12890625","-0.91503906","-0.119140625","-1.84375","-12.71875","-6.25"
"1573730892953","597","0.16210938","-0.9082031","-0.032226562","10.65625","-18.09375","-9.15625"
"1573730892954","598","-0.0078125","-1.0537109","-0.0546875","11.34375","-17.34375","-7.28125"
"1573730892954","599","0.10058594","-1.0537109","-0.12988281","22.03125","-14.46875","-9.59375"
"1573730893548","600","0.18457031","-1.1025391","0.115234375","11.875","-3.4375","-7.15625"
"1573730893549","601","-0.12402344","-1.2998047","0.38085938","40.5625","21.59375","12.625"
"1573730893550","602","0.12890625","-1.1699219","0.21386719","22.125","0.0","11.71875"
"1573730893550","603","0.25878906","-0.9638672","0.33691406","6.875","-26.4375","-24.25"
"1573730893550","604","0.11621094","-0.9248047","0.48828125","41.5","-29.875","5.78125"
"1573730893550","605","0.095703125","-1.0068359","0.43554688","13.90625","-11.5625","-16.875"
"1573730893551","606","0.0390625","-0.9921875","0.390625","-0.8125","25.8125","-0.25"
"1573730893551","607","0.0078125","-0.90625","0.37597656","10.25","30.6875","1.5"
"1573730893551","608","0.20214844","-0.8964844","0.32421875","8.03125","23.0","-2.6875"
"1573730893552","609","0.21484375","-0.8330078","0.2998047","9.25","9.375","-0.375"
"1573730893745","610","0.17089844","-0.79003906","0.3310547","6.5625","0.84375","-6.0625"
"1573730893745","611","0.15527344","-0.828125","0.30566406","10.0","-2.21875","-4.09375"
"1573730893745","612","0.14355469","-0.8496094","0.32128906","-2.46875","2.65625","-3.90625"
"1573730893746","613","0.21875","-0.921875","0.29785156","-13.375","7.4375","-5.75"
"1573730893747","614","0.2548828","-0.9560547","0.27148438","-14.0625","1.5","-7.65625"
"1573730893747","615","0.20605469","-0.9404297","0.23242188","-20.46875","0.0","-3.25"
"1573730893747","616","0.24902344","-0.9609375","0.21777344","-19.78125","-0.875","2.0625"
"1573730893748","617","0.21679688","-0.9638672","0.20996094","-24.1875","-8.3125","2.65625"
"1573730893748","618","0.10546875","-0.95996094","0.21191406","-31.4375","2.90625","5.46875"
"1573730893748","619","0.09863281","-0.9033203","0.22460938","-38.03125","18.0625","8.46875"
"1573730894142","620","-0.028320312","-1.1337891","0.23144531","-49.6875","23.96875","10.375"
"1573730894143","621","0.005859375","-0.8984375","0.064453125","-23.21875","19.28125","-8.0"
"1573730894143","622","0.24804688","-1.0546875","0.10839844","-21.9375","13.65625","0.0"
"1573730894143","623","0.09863281","-1.0615234","0.12207031","-8.125","11.65625","-1.96875"
"1573730894144","624","0.08496094","-0.85058594","0.13378906","2.5","2.78125","5.21875"
"1573730894145","625","-0.021484375","-0.859375","0.0625","-6.0","10.96875","11.28125"
"1573730894146","626","0.07714844","-0.9560547","-0.001953125","-10.4375","11.75","8.59375"
"1573730894146","627","0.140625","-0.90625","-0.037109375","-2.28125","1.9375","2.0"
"1573730894146","628","0.0859375","-0.9355469","-0.048828125","-4.96875","-8.25","2.1875"
"1573730894147","629","0.072265625","-0.984375","-0.103515625","-9.84375","-7.875","0.96875"
"1573730894541","630","0.1484375","-0.85253906","-0.095703125","3.9375","-21.6875","-9.0625"
"1573730894542","631","0.13769531","-0.8798828","-9.765625E-4","31.78125","-26.4375","-4.59375"
"1573730894542","632","0.0068359375","-0.95410156","-0.0390625","49.96875","-14.59375","-3.25"
"1573730894542","633","0.061523438","-0.9550781","-0.080078125","36.84375","-6.125","-3.3125"
"1573730894543","634","0.24902344","-1.0263672","0.11328125","44.46875","-9.59375","-8.5625"
"1573730894543","635","0.0390625","-1.0888672","0.4814453","81.84375","-5.875","4.8125"
"1573730894543","636","-0.15039062","-1.4277344","0.59277344","14.3125","-2.46875","45.8125"
"1573730894545","637","0.22265625","-1.2509766","0.32714844","10.84375","-19.0","-19.1875"
"1573730894545","638","0.31933594","-0.734375","0.33984375","40.21875","-37.5625","-5.375"
"1573730894545","639","-0.125","-0.8154297","0.5097656","41.0","4.9375","1.6875"
"1573730894939","640","0.15820312","-1.1132812","0.48339844","-6.4375","31.59375","-7.65625"
"1573730894940","641","0.12207031","-0.9716797","0.38183594","-9.34375","23.375","-3.125"
"1573730894940","642","0.20410156","-0.79296875","0.37402344","-6.0625","8.09375","-8.4375"
"1573730894940","643","0.171875","-0.9042969","0.4501953","-6.0625","2.3125","-6.1875"
"1573730894941","644","0.11621094","-0.79589844","0.3935547","-13.75","0.15625","-4.46875"
"1573730894941","645","0.171875","-0.8261719","0.36132812","-12.09375","-2.34375","-3.25"
"1573730894941","646","0.14453125","-0.8691406","0.34277344","-16.5","0.28125","-1.0625"
"1573730894941","647","0.11816406","-0.9013672","0.3251953","-28.40625","7.75","-3.5625"
"1573730894942","648","0.16992188","-0.89160156","0.3046875","-25.65625","13.0","-0.875"
"1573730894943","649","0.20800781","-0.90722656","0.24609375","-34.1875","6.625","-0.75"
"1573730895731","650","0.23730469","-0.97558594","0.22753906","-18.375","7.5625","-0.3125"
"1573730895731","651","0.20410156","-0.88671875","0.18261719","-26.03125","7.4375","-2.03125"
"1573730895731","652","0.17773438","-0.92089844","0.16308594","-36.40625","18.96875","1.4375"
"1573730895732","653","0.20605469","-0.96484375","0.13183594","-40.90625","31.90625","2.71875"
"1573730895732","654","0.21777344","-0.9267578","0.11621094","-51.65625","28.5","-2.40625"
"1573730895733","655","0.0390625","-1.2177734","0.24121094","-73.75","57.71875","-4.65625"
"1573730895733","656","-0.13574219","-1.0722656","0.0029296875","10.0625","12.25","-8.0"
"1573730895733","657","0.28808594","-0.8769531","0.07714844","-31.375","-0.5","-7.9375"
"1573730895734","658","0.018554688","-0.9560547","0.08300781","-22.53125","-5.25","9.8125"
"1573730895734","659","-0.032226562","-1.1455078","-0.0068359375","-8.0625","17.5625","0.65625"
"1573730895930","660","0.18945312","-0.79785156","0.0126953125","-16.75","-17.53125","-8.125"
"1573730895931","661","0.0107421875","-0.81347656","0.005859375","3.65625","-13.03125","12.5"
"1573730895932","662","0.055664062","-0.9013672","-0.032226562","2.0","-5.15625","-3.375"
"1573730895932","663","0.0703125","-0.890625","-0.055664062","-2.59375","-12.03125","3.53125"
"1573730895932","664","0.0068359375","-0.9873047","-0.08886719","-16.6875","-13.5","1.375"
"1573730895933","665","0.1328125","-0.8857422","-0.13183594","1.8125","-16.875","-7.59375"
"1573730895933","666","0.17578125","-0.9033203","-0.1015625","21.59375","-26.03125","-6.1875"
"1573730895933","667","0.09863281","-0.9794922","-0.12695312","26.28125","-26.4375","-14.53125"
"1573730895934","668","0.03515625","-0.9873047","-0.09667969","20.96875","-19.90625","-9.15625"
"1573730895934","669","0.07324219","-1.0185547","-0.10253906","23.25","-21.0625","-6.65625"
"1573730896329","670","0.06933594","-1.2138672","0.0859375","14.9375","12.1875","-0.9375"
"1573730896330","671","-0.06347656","-1.4287109","0.4951172","31.1875","28.71875","37.59375"
"1573730896330","672","0.30371094","-1.1240234","0.2265625","8.09375","-30.71875","-12.15625"
"1573730896332","673","0.2685547","-0.8095703","0.43847656","44.90625","-57.03125","-14.53125"
"1573730896332","674","-0.24316406","-1.1308594","0.5234375","30.75","7.6875","15.1875"
"1573730896332","675","0.09863281","-0.98046875","0.32226562","5.78125","47.84375","-6.78125"
"1573730896332","676","0.22851562","-0.8671875","0.2529297","9.25","18.90625","-1.78125"
"1573730896333","677","0.171875","-0.8535156","0.31152344","22.125","-0.5625","-6.78125"
"1573730896333","678","0.16894531","-0.77734375","0.33496094","3.71875","-9.34375","-11.0"
"1573730896333","679","0.16601562","-0.8652344","0.32617188","0.34375","-9.0","-8.375"
"1573730896527","680","0.125","-0.83984375","0.31933594","-15.09375","-6.5","-7.40625"
"1573730896528","681","0.15136719","-0.9296875","0.29101562","-15.75","-0.4375","-3.6875"
"1573730896528","682","0.171875","-0.9814453","0.30859375","-17.84375","12.3125","2.84375"
"1573730896528","683","0.19238281","-0.9121094","0.22070312","-22.15625","12.4375","-4.59375"
"1573730896528","684","0.27148438","-0.97265625","0.20800781","-8.0","10.40625","-1.125"
"1573730896530","685","0.2265625","-1.0146484","0.16992188","-18.6875","9.75","-3.5625"
"1573730896530","686","0.25390625","-0.8330078","0.1171875","-24.6875","0.46875","-6.65625"
"1573730896530","687","0.2607422","-0.9189453","0.17871094","-21.625","4.375","2.5625"
"1573730896530","688","0.1015625","-0.93359375","0.24121094","-23.21875","21.78125","1.03125"
"1573730896531","689","-0.123046875","-1.1279297","0.21777344","-48.0","36.3125","10.1875"
"1573730896926","690","0.076171875","-0.84472656","-0.0859375","-36.6875","13.21875","-16.375"
"1573730896927","691","0.30273438","-0.9765625","0.083984375","-5.03125","-0.6875","-1.53125"
"1573730896927","692","0.015625","-1.2041016","0.0234375","-10.6875","4.6875","9.03125"
"1573730896927","693","0.20507812","-0.828125","0.06738281","-2.625","-19.90625","-9.96875"
"1573730896927","694","-0.044921875","-0.82910156","0.09863281","5.0","-14.3125","16.53125"
"1573730896928","695","-0.07421875","-1.0087891","-0.017578125","-0.1875","4.3125","10.84375"
"1573730896928","696","0.14550781","-0.88183594","-0.038085938","-17.71875","-3.0625","-3.3125"
"1573730896929","697","0.08886719","-0.93359375","-0.0703125","3.28125","-15.53125","3.34375"
"1573730896930","698","0.051757812","-0.99316406","-0.091796875","8.09375","-8.5625","-1.125"
"1573730896930","699","0.17871094","-0.93652344","-0.10644531","5.1875","-21.1875","-3.90625"
"1573730897324","700","0.20019531","-0.92578125","-0.06542969","26.28125","-26.03125","-12.96875"
"1573730897325","701","0.072265625","-0.95410156","-0.0546875","44.40625","-26.1875","-8.4375"
"1573730897325","702","0.05078125","-0.984375","-0.076171875","34.46875","-22.0625","-3.90625"
"1573730897325","703","0.16894531","-1.0341797","0.053710938","20.0","-13.25","-8.0625"
"1573730897325","704","0.087890625","-1.2216797","0.5205078","55.96875","10.375","6.03125"
"1573730897326","705","-0.061523438","-1.4414062","0.5498047","64.5","17.0625","51.0625"
"1573730897326","706","0.46972656","-0.6640625","0.33789062","46.6875","-30.03125","-40.53125"
"1573730897326","707","0.09863281","-0.95996094","0.56933594","64.25","-26.3125","11.40625"
"1573730897326","708","-0.11816406","-1.0078125","0.53222656","55.46875","17.5","-0.25"
"1573730897328","709","0.20800781","-0.734375","0.48828125","22.03125","29.53125","-1.84375"
"1573730898116","710","0.08300781","-0.97265625","0.47753906","24.40625","32.28125","6.46875"
"1573730898117","711","0.1796875","-0.75","0.4658203","32.875","4.1875","-6.59375"
"1573730898117","712","0.19921875","-0.76171875","0.46679688","4.8125","-1.59375","-1.0"
"1573730898118","713","0.12109375","-0.83203125","0.5048828","2.5625","3.71875","0.03125"
"1573730898118","714","0.16113281","-0.765625","0.46484375","-16.3125","-3.0625","0.34375"
"1573730898118","715","0.1875","-0.89453125","0.4326172","-23.8125","-3.375","0.03125"
"1573730898119","716","0.13085938","-0.88671875","0.45117188","-25.21875","-3.0","0.40625"
"1573730898119","717","0.15527344","-0.86328125","0.39941406","-32.84375","1.375","-1.25"
"1573730898119","718","0.20507812","-0.9267578","0.375","-33.53125","5.34375","0.0"
"1573730898119","719","0.14941406","-0.89453125","0.33398438","-29.125","6.21875","-3.75"
"1573730898314","720","0.14257812","-0.8652344","0.24023438","-39.03125","8.40625","-3.6875"
"1573730898316","721","0.23242188","-0.89746094","0.234375","-47.375","16.03125","-0.3125"
"1573730898317","722","0.19042969","-0.9248047","0.24609375","-52.125","20.0","2.96875"
"1573730898317","723","0.17871094","-1.1103516","0.27441406","-64.96875","33.1875","0.96875"
"1573730898317","724","0.07128906","-1.1591797","0.18652344","-38.78125","24.28125","-3.0"
"1573730898318","725","-0.13183594","-0.81933594","0.15527344","-5.5","21.34375","-4.21875"
"1573730898318","726","0.12988281","-0.76660156","0.20117188","-34.75","17.3125","-4.90625"
"1573730898318","727","0.026367188","-1.1796875","0.18945312","-22.84375","6.5","5.90625"
"1573730898318","728","0.08203125","-1.0185547","0.10449219","-8.3125","4.625","-1.90625"
"1573730898319","729","0.0859375","-0.73339844","0.18164062","-19.5","-16.125","-0.75"
"1573730898712","730","-0.046875","-0.9238281","0.022460938","-9.84375","-2.34375","17.625"
"1573730898712","731","0.10449219","-0.9248047","-0.032226562","-19.0625","3.34375","-4.78125"
"1573730898713","732","0.10253906","-0.9277344","-0.013671875","-13.9375","-7.78125","4.0"
"1573730898714","733","0.05078125","-0.953125","-0.026367188","-10.625","-16.75","-1.78125"
"1573730898714","734","0.103515625","-0.9404297","-0.10546875","6.28125","-18.875","-9.0625"
"1573730898715","735","0.16699219","-0.8876953","-0.1171875","18.0","-28.34375","-12.40625"
"1573730898715","736","0.08886719","-0.8378906","-0.0625","21.71875","-38.28125","-12.84375"
"1573730898715","737","0.0068359375","-1.0400391","0.0068359375","22.1875","-22.46875","-4.28125"
"1573730898715","738","0.072265625","-1.0830078","0.064453125","19.8125","-20.65625","-6.59375"
"1573730898716","739","0.12792969","-1.3388672","0.51953125","67.5625","-5.4375","-5.25"
"1573730899111","740","-0.11035156","-1.5244141","0.5234375","38.9375","-2.53125","49.46875"
"1573730899111","741","0.34277344","-0.7832031","0.18164062","43.4375","-25.09375","-47.875"
"1573730899111","742","0.3154297","-0.85546875","0.48242188","57.0625","-44.625","-3.3125"
"1573730899111","743","-0.13574219","-0.9326172","0.5263672","36.84375","-7.8125","-9.15625"
"1573730899112","744","0.18652344","-0.8876953","0.44628906","9.9375","26.96875","-7.78125"
"1573730899113","745","0.21582031","-0.85058594","0.40820312","23.46875","17.5625","-2.15625"
"1573730899114","746","0.15332031","-0.78515625","0.4033203","16.65625","6.5625","-8.625"
"1573730899114","747","0.17578125","-0.79003906","0.3955078","7.625","4.6875","-3.90625"
"1573730899114","748","0.16015625","-0.85839844","0.421875","1.8125","5.34375","-1.90625"
"1573730899114","749","0.21875","-0.8486328","0.38183594","2.59375","-4.09375","-4.21875"
"1573730899310","750","0.22167969","-0.89941406","0.38964844","-7.9375","-6.0","0.09375"
"1573730899310","751","0.16308594","-0.88183594","0.38183594","-10.4375","3.65625","-2.8125"
"1573730899310","752","0.19921875","-0.9003906","0.3310547","-17.65625","3.84375","-1.84375"
"1573730899311","753","0.24609375","-0.88183594","0.3017578","-26.5","3.34375","-1.90625"
"1573730899311","754","0.22460938","-0.9423828","0.28710938","-28.59375","14.03125","0.28125"
"1573730899311","755","0.21972656","-0.9609375","0.23730469","-38.53125","21.34375","2.84375"
"1573730899311","756","0.2734375","-0.96484375","0.20117188","-40.84375","24.75","-0.75"
"1573730899314","757","0.29785156","-0.92089844","0.16308594","-38.59375","16.9375","-2.09375"
"1573730899315","758","0.29003906","-0.90234375","0.18554688","-39.875","11.875","-3.6875"
"1573730899315","759","0.18164062","-1.03125","0.29882812","-60.1875","28.65625","-1.53125"
"1573730899908","760","-0.17578125","-1.1884766","0.16503906","-6.78125","20.375","2.25"
"1573730899908","761","0.16601562","-0.7441406","0.12597656","-29.3125","35.625","5.34375"
"1573730899908","762","0.16992188","-0.9433594","0.076171875","-50.3125","8.09375","-8.1875"
"1573730899909","763","0.0146484375","-1.3154297","0.08691406","-13.9375","12.875","18.78125"
"1573730899909","764","0.16699219","-0.78515625","0.15722656","0.96875","-3.75","-10.03125"
"1573730899909","765","-0.0078125","-0.734375","0.048828125","-2.6875","-4.21875","17.0"
"1573730899909","766","0.01953125","-0.984375","-0.0048828125","-4.03125","2.125","8.59375"
"1573730899909","767","0.072265625","-0.85058594","0.0029296875","-8.625","-5.09375","-0.875"
"1573730899910","768","0.038085938","-0.9667969","-0.038085938","-18.875","-0.3125","6.8125"
"1573730899911","769","0.057617188","-0.98828125","-0.06347656","-21.6875","4.5","2.0"
"1573730900105","770","0.103515625","-0.9375","-0.109375","-4.09375","-5.8125","-0.75"
"1573730900105","771","0.17089844","-0.8847656","-0.12207031","0.28125","-9.21875","-4.71875"
"1573730900105","772","0.11035156","-0.9160156","-0.08691406","14.6875","-12.90625","-12.90625"
"1573730900106","773","0.033203125","-0.9716797","-0.13183594","20.84375","-15.6875","-6.59375"
"1573730900106","774","0.11425781","-1.0986328","-0.034179688","13.21875","-12.09375","-3.625"
"1573730900106","775","0.22949219","-1.2001953","0.33007812","40.5","-18.6875","-10.75"
"1573730900106","776","-0.12695312","-1.5224609","0.5878906","80.5","-15.28125","33.6875"
"1573730900106","777","0.16796875","-0.9589844","0.21972656","47.09375","-17.59375","-18.4375"
"1573730900107","778","0.38671875","-0.6894531","0.3388672","33.375","-42.5","-19.0"
"1573730900107","779","-0.0546875","-1.1201172","0.50097656","45.21875","-5.4375","4.6875"
"1573730900504","780","0.06640625","-0.90234375","0.40820312","6.46875","21.84375","-10.28125"
"1573730900505","781","0.13964844","-0.93652344","0.3564453","28.5","34.03125","2.0625"
"1573730900505","782","0.16503906","-0.9013672","0.36035156","22.9375","13.03125","-6.1875"
"1573730900505","783","0.21289062","-0.7949219","0.37402344","14.28125","-2.40625","-5.5625"
"1573730900505","784","0.17089844","-0.8232422","0.38378906","9.9375","2.78125","-3.8125"
"1573730900505","785","0.15917969","-0.796875","0.35546875","3.34375","3.40625","-4.90625"
"1573730900506","786","0.21386719","-0.81347656","0.3779297","-10.875","4.375","-0.4375"
"1573730900506","787","0.18652344","-0.90722656","0.35351562","-19.0","10.40625","4.6875"
"1573730900506","788","0.22265625","-0.93066406","0.30859375","-25.96875","9.09375","6.6875"
"1573730900506","789","0.22460938","-0.91308594","0.26757812","-25.84375","4.5","8.03125"
