"# PR data"
"# Start time: 20191114T111804"
"# Subject: jack"
"# Activity type: Heel raises"
"# Correctness: Incorrect"
"# Notes: "
""
"timestamp","seq","accel_x","accel_y","accel_z","gyro_x","gyro_y","gyro_z"
"1573730284178","0","0.26757812","-0.9589844","-0.1953125","-22.40625","3.84375","1.75"
"1573730284181","1","0.2685547","-0.95703125","-0.1796875","-33.84375","8.09375","0.15625"
"1573730284181","2","0.29589844","-0.9482422","-0.21191406","-31.75","11.46875","-0.6875"
"1573730284182","3","0.2841797","-0.9326172","-0.21191406","-28.75","7.84375","1.15625"
"1573730284182","4","0.25976562","-0.9394531","-0.24121094","-12.03125","1.28125","-0.9375"
"1573730284182","5","0.22558594","-0.9511719","-0.19921875","-5.3125","-0.1875","-3.5"
"1573730284183","6","0.2421875","-0.9501953","-0.21386719","10.46875","2.375","-1.1875"
"1573730284183","7","0.25976562","-0.96191406","-0.21484375","-5.6875","0.90625","-2.875"
"1573730284184","8","0.2998047","-0.93359375","-0.24414062","1.8125","5.34375","-0.375"
"1573730284184","9","0.27734375","-0.9433594","-0.18945312","0.34375","8.84375","0.96875"
"1573730284576","10","0.2861328","-0.9189453","-0.20214844","-0.4375","14.75","-1.96875"
"1573730284577","11","0.33203125","-0.92089844","-0.26464844","8.40625","-3.8125","-2.28125"
"1573730284577","12","0.25683594","-0.94628906","-0.20214844","15.0","-2.46875","-5.375"
"1573730284577","13","0.28515625","-0.9511719","-0.22460938","16.28125","-5.21875","-4.90625"
"1573730284578","14","0.27441406","-0.9433594","-0.21875","17.5","-5.375","-3.1875"
"1573730284578","15","0.26367188","-0.9423828","-0.20507812","10.40625","-12.34375","-4.40625"
"1573730284578","16","0.31347656","-0.9482422","-0.2109375","18.46875","-10.09375","-3.5"
"1573730284578","17","0.3095703","-0.9501953","-0.17285156","18.65625","-13.5625","-3.8125"
"1573730284579","18","0.2861328","-0.9589844","-0.14941406","11.875","-20.15625","-5.625"
"1573730284579","19","0.31347656","-0.9658203","-0.15820312","8.65625","-27.71875","-5.4375"
"1573730284974","20","0.2734375","-0.9550781","-0.19726562","8.78125","-24.75","-5.21875"
"1573730284974","21","0.24121094","-0.9638672","-0.123046875","-4.84375","-20.46875","-2.8125"
"1573730284974","22","0.23730469","-0.9609375","-0.14160156","-6.25","-10.8125","-2.40625"
"1573730284975","23","0.2548828","-0.9707031","-0.18847656","-1.40625","-1.46875","-1.1875"
"1573730284975","24","0.2529297","-0.9580078","-0.17480469","-4.03125","1.75","1.375"
"1573730284976","25","0.26660156","-0.9423828","-0.17285156","-1.96875","3.53125","2.0625"
"1573730284977","26","0.23925781","-0.9560547","-0.16015625","-2.75","11.53125","2.0"
"1573730284977","27","0.24414062","-0.95996094","-0.14648438","-5.4375","19.15625","1.09375"
"1573730284977","28","0.26464844","-0.9501953","-0.16796875","-6.90625","9.875","0.46875"
"1573730284977","29","0.28808594","-0.9511719","-0.17578125","-6.0625","12.0","-0.5"
"1573730285372","30","0.3251953","-0.9453125","-0.16308594","0.09375","20.90625","3.53125"
"1573730285372","31","0.31835938","-0.9472656","-0.171875","2.3125","12.75","2.65625"
"1573730285372","32","0.33789062","-0.9511719","-0.19335938","-2.09375","2.5","3.90625"
"1573730285373","33","0.28808594","-0.9394531","-0.14746094","-0.1875","1.5625","3.34375"
"1573730285373","34","0.25976562","-0.9501953","-0.18066406","6.625","-0.375","0.65625"
"1573730285373","35","0.24023438","-0.96484375","-0.15429688","-4.65625","3.84375","0.0"
"1573730285373","36","0.25097656","-0.9501953","-0.13769531","-13.875","3.34375","-1.90625"
"1573730285374","37","0.26757812","-0.9707031","-0.17578125","-2.28125","6.9375","-1.0625"
"1573730285375","38","0.26367188","-0.9580078","-0.16699219","-2.625","7.75","0.09375"
"1573730285375","39","0.2861328","-0.95214844","-0.18457031","-3.4375","7.5625","0.03125"
"1573730285769","40","0.28027344","-0.95410156","-0.1796875","-1.71875","8.40625","-0.375"
"1573730285770","41","0.2705078","-0.95410156","-0.15820312","-1.96875","4.9375","0.84375"
"1573730285770","42","0.2939453","-0.9609375","-0.16699219","-1.96875","2.375","0.0"
"1573730285770","43","0.27539062","-0.9423828","-0.15625","-1.65625","1.28125","0.78125"
"1573730285770","44","0.27441406","-0.9482422","-0.1640625","1.8125","1.03125","1.5"
"1573730285771","45","0.2841797","-0.95996094","-0.16503906","5.1875","-0.8125","1.5"
"1573730285771","46","0.26757812","-0.9550781","-0.17480469","8.78125","-6.125","2.1875"
"1573730285771","47","0.25","-0.9638672","-0.15625","10.78125","-5.6875","2.0"
"1573730285771","48","0.24804688","-0.9433594","-0.16015625","5.46875","-1.34375","0.46875"
"1573730285772","49","0.25878906","-0.9794922","-0.14550781","2.25","7.375","1.8125"
"1573730286166","50","0.25390625","-0.953125","-0.123046875","-8.875","5.28125","0.34375"
"1573730286166","51","0.28320312","-0.96484375","-0.14257812","0.15625","4.6875","-0.125"
"1573730286167","52","0.26171875","-0.94921875","-0.15136719","-3.875","5.53125","0.0"
"1573730286167","53","0.27929688","-0.95703125","-0.16015625","-5.25","2.71875","-0.9375"
"1573730286167","54","0.2685547","-0.9482422","-0.14550781","-4.28125","2.25","-0.5625"
"1573730286168","55","0.24707031","-0.9580078","-0.13183594","-3.3125","1.15625","-0.6875"
"1573730286168","56","0.26171875","-0.9511719","-0.13085938","-2.21875","-2.03125","-0.9375"
"1573730286168","57","0.25585938","-0.9589844","-0.13476562","-1.65625","-2.28125","-0.9375"
"1573730286168","58","0.25976562","-0.9667969","-0.13867188","-1.25","-5.3125","-1.46875"
"1573730286169","59","0.25683594","-0.9580078","-0.14941406","0.59375","-4.65625","-1.53125"
"1573730286962","60","0.25976562","-0.95410156","-0.13183594","-0.625","-2.21875","-1.90625"
"1573730286964","61","0.25976562","-0.96191406","-0.13378906","-2.75","-3.1875","-1.71875"
"1573730286964","62","0.25390625","-0.9628906","-0.1328125","-3.6875","-3.0","-1.65625"
"1573730286965","63","0.2705078","-0.96777344","-0.16894531","4.1875","-2.34375","-1.65625"
"1573730286965","64","0.27148438","-0.96191406","-0.140625","-1.53125","-3.0625","-2.34375"
"1573730286965","65","0.26367188","-0.9560547","-0.14746094","-0.875","-7.8125","-2.34375"
"1573730286965","66","0.25683594","-0.96972656","-0.15039062","2.1875","-6.125","-1.3125"
"1573730286966","67","0.2578125","-0.95996094","-0.15039062","-0.9375","-6.0625","-1.34375"
"1573730286966","68","0.26367188","-0.9628906","-0.14941406","1.28125","-4.40625","-1.1875"
"1573730286966","69","0.25","-0.9638672","-0.15332031","1.03125","-2.59375","-0.875"
"1573730287158","70","0.26171875","-0.95703125","-0.13671875","1.03125","-0.3125","-0.625"
"1573730287158","71","0.2626953","-0.96484375","-0.15429688","2.3125","-1.0","-1.53125"
"1573730287158","72","0.25390625","-0.96484375","-0.15039062","0.0","1.03125","-1.0625"
"1573730287160","73","0.25683594","-0.96777344","-0.15722656","-2.6875","6.40625","-1.65625"
"1573730287160","74","0.27148438","-0.96875","-0.16894531","-0.5625","10.78125","-1.78125"
"1573730287160","75","0.25390625","-0.9589844","-0.14257812","-1.25","17.6875","-0.8125"
"1573730287161","76","0.25195312","-0.9560547","-0.15039062","-1.34375","18.1875","-2.59375"
"1573730287161","77","0.27246094","-0.9628906","-0.1328125","-9.71875","21.15625","-0.875"
"1573730287161","78","0.2578125","-0.96191406","-0.12597656","-5.9375","19.15625","1.3125"
"1573730287161","79","0.24023438","-0.9560547","-0.13378906","-6.4375","13.21875","-2.09375"
"1573730287559","80","0.30859375","-0.9501953","-0.15722656","-3.625","6.21875","-2.875"
"1573730287559","81","0.24414062","-0.9501953","-0.12988281","1.6875","4.5625","2.0"
"1573730287560","82","0.25195312","-0.9589844","-0.10644531","-4.15625","6.21875","-0.875"
"1573730287560","83","0.25585938","-0.93359375","-0.14453125","-0.6875","6.21875","0.84375"
"1573730287560","84","0.3310547","-0.91015625","-0.16894531","18.96875","-5.875","-4.78125"
"1573730287562","85","0.39746094","-1.0009766","-0.14550781","-0.125","-12.59375","-3.875"
"1573730287562","86","0.27929688","-0.9824219","-0.091796875","-23.03125","-5.25","-3.75"
"1573730287562","87","0.18554688","-1.0097656","-0.016601562","-7.8125","-0.1875","4.0"
"1573730287563","88","0.21386719","-0.99609375","-0.08300781","-1.0","22.9375","11.53125"
"1573730287563","89","0.2939453","-0.9296875","-0.08984375","-0.875","36.46875","13.84375"
"1573730287954","90","0.29785156","-0.8652344","-0.036132812","2.0","37.09375","20.5"
"1573730287955","91","0.3544922","-0.9111328","-0.015625","-2.03125","44.0","23.65625"
"1573730287955","92","0.26660156","-0.984375","0.0048828125","6.6875","48.15625","26.09375"
"1573730287955","93","0.07128906","-1.0576172","-0.119140625","18.90625","49.84375","36.125"
"1573730287956","94","0.0390625","-0.9560547","-0.15625","4.3125","45.09375","35.4375"
"1573730287956","95","0.3154297","-0.9345703","-0.19140625","12.375","39.46875","17.4375"
"1573730287956","96","0.19140625","-1.1220703","-0.18261719","16.84375","28.5","15.96875"
"1573730287957","97","0.30078125","-0.9785156","-0.16894531","0.28125","9.25","-1.3125"
"1573730287958","98","0.19042969","-0.9472656","-0.119140625","7.0625","-9.59375","-3.1875"
"1573730287958","99","0.0068359375","-0.97558594","-0.15039062","20.3125","-26.25","-6.0"
"1573730288352","100","0.068359375","-1.0341797","-0.078125","-10.34375","-17.84375","-5.8125"
"1573730288353","101","0.09082031","-0.95410156","-0.0703125","2.78125","-6.96875","-7.78125"
"1573730288353","102","0.125","-1.0507812","-0.060546875","-4.03125","-5.6875","-9.0"
"1573730288353","103","0.13476562","-0.95996094","-0.03125","0.90625","-8.4375","-11.125"
"1573730288354","104","0.20117188","-0.97265625","-0.060546875","-3.5625","-11.125","-11.78125"
"1573730288354","105","0.20703125","-1.0","-0.048828125","-5.09375","-14.25","-13.9375"
"1573730288354","106","0.18359375","-0.96972656","-0.038085938","8.96875","-18.875","-12.53125"
"1573730288354","107","0.18847656","-0.93359375","-0.09472656","30.4375","-28.9375","-12.78125"
"1573730288355","108","0.23046875","-0.95996094","0.109375","32.625","-13.9375","-8.8125"
"1573730288355","109","0.12109375","-0.93066406","0.072265625","26.09375","-16.75","-12.03125"
"1573730288751","110","0.23535156","-0.97265625","-0.06542969","21.59375","-20.46875","-17.59375"
"1573730288751","111","0.42773438","-1.0136719","-0.01171875","-5.625","-29.3125","-22.21875"
"1573730288752","112","0.33007812","-1.046875","0.030273438","-23.03125","-13.1875","-20.53125"
"1573730288752","113","0.2265625","-1.0419922","0.07324219","-12.09375","-15.53125","-16.96875"
"1573730288752","114","0.20800781","-0.9746094","-0.049804688","13.78125","-0.25","-9.28125"
"1573730288753","115","0.36132812","-0.8886719","-0.0029296875","6.15625","2.71875","2.0"
"1573730288753","116","0.4091797","-0.9482422","0.036132812","-12.84375","-3.1875","-0.25"
"1573730288753","117","0.3564453","-1.0048828","0.043945312","-17.84375","-7.40625","0.0"
"1573730288753","118","0.22363281","-0.96484375","0.0029296875","-17.78125","-10.9375","2.5"
"1573730288754","119","0.33398438","-0.8828125","-0.020507812","-15.15625","-9.84375","3.65625"
"1573730289148","120","0.34765625","-0.96484375","0.0087890625","-13.3125","-3.8125","8.84375"
"1573730289150","121","0.19824219","-0.96484375","-0.013671875","-12.65625","-4.59375","11.28125"
"1573730289151","122","0.27734375","-0.9472656","-0.05859375","-5.5","-3.0625","6.5625"
"1573730289151","123","0.29785156","-0.953125","-0.022460938","-10.09375","0.59375","6.5625"
"1573730289152","124","0.2783203","-0.94140625","-0.00390625","-10.875","-4.96875","5.65625"
"1573730289152","125","0.25195312","-0.953125","-0.0126953125","-1.3125","-7.875","5.78125"
"1573730289152","126","0.23730469","-0.96777344","-0.017578125","-0.4375","-7.21875","8.59375"
"1573730289153","127","0.24609375","-0.98535156","-0.09082031","3.9375","-9.96875","9.375"
"1573730289153","128","0.2841797","-0.9707031","-0.09765625","11.46875","-10.8125","13.0"
"1573730289153","129","0.041992188","-1.0361328","-0.1171875","9.6875","16.15625","16.28125"
"1573730289546","130","0.055664062","-0.97558594","-0.20019531","-4.15625","36.3125","8.84375"
"1573730289547","131","0.27148438","-1.0283203","-0.24316406","-26.8125","29.59375","2.0"
"1573730289547","132","0.16601562","-0.8925781","-0.11621094","-21.625","24.9375","-8.9375"
"1573730289548","133","0.068359375","-0.93359375","-0.041015625","-5.8125","5.59375","-7.46875"
"1573730289549","134","0.23730469","-1.1259766","-0.12597656","-27.0625","13.0","-8.5625"
"1573730289549","135","0.2705078","-0.8935547","-0.115234375","-28.28125","4.5","-3.0625"
"1573730289549","136","0.19042969","-0.98046875","-0.099609375","0.15625","-4.40625","-3.96875"
"1573730289549","137","0.1875","-0.96777344","-0.14648438","-2.40625","5.59375","-6.4375"
"1573730289550","138","0.24511719","-0.96484375","-0.08984375","-3.3125","8.53125","-6.59375"
"1573730289550","139","0.22363281","-0.9423828","-0.1015625","-4.53125","2.65625","-6.90625"
"1573730289942","140","0.22949219","-0.9746094","-0.123046875","-1.0","6.28125","-6.3125"
"1573730289942","141","0.26171875","-0.9638672","-0.1171875","-8.5","-0.375","-6.25"
"1573730289943","142","0.2685547","-0.9667969","-0.10644531","-8.6875","-1.96875","-7.03125"
"1573730289943","143","0.27929688","-0.9638672","-0.11230469","0.65625","-2.8125","-6.25"
"1573730289943","144","0.25390625","-0.9658203","-0.125","-3.625","-0.25","-6.3125"
"1573730289945","145","0.26464844","-0.9716797","-0.103515625","-7.53125","-1.34375","-4.90625"
"1573730289945","146","0.2529297","-0.9589844","-0.13085938","-9.90625","1.03125","-5.03125"
"1573730289945","147","0.25878906","-0.9589844","-0.13476562","-8.125","0.15625","-4.71875"
"1573730289946","148","0.26660156","-0.9560547","-0.1328125","-5.625","0.90625","-4.21875"
"1573730289947","149","0.25585938","-0.9511719","-0.14453125","-6.78125","2.0","-4.84375"
"1573730290340","150","0.2626953","-0.9580078","-0.15234375","-7.15625","4.625","-4.40625"
"1573730290340","151","0.27246094","-0.9580078","-0.13378906","-11.71875","3.03125","-3.875"
"1573730290341","152","0.27246094","-0.9638672","-0.16699219","1.875","6.15625","-2.40625"
"1573730290341","153","0.2763672","-0.9560547","-0.1484375","-11.0625","4.0","-2.6875"
"1573730290341","154","0.28125","-0.9472656","-0.1796875","-4.21875","-2.59375","-2.34375"
"1573730290341","155","0.28027344","-0.9453125","-0.17773438","-1.84375","-2.28125","-1.96875"
"1573730290341","156","0.2685547","-0.9345703","-0.15039062","-1.46875","-0.8125","-0.5625"
"1573730290343","157","0.27929688","-0.9628906","-0.171875","1.5","1.3125","-1.1875"
"1573730290343","158","0.25585938","-0.95703125","-0.17773438","4.8125","1.375","0.65625"
"1573730290343","159","0.27929688","-0.9482422","-0.13476562","3.21875","3.90625","0.65625"
"1573730290936","160","0.26757812","-0.9580078","-0.14355469","0.78125","0.96875","0.0"
"1573730290936","161","0.265625","-0.95996094","-0.15234375","1.21875","0.34375","-0.125"
"1573730290936","162","0.2705078","-0.95703125","-0.14453125","1.15625","-0.875","0.84375"
"1573730290936","163","0.25683594","-0.9628906","-0.14941406","2.4375","2.65625","1.03125"
"1573730290937","164","0.26660156","-0.96484375","-0.14453125","1.03125","1.09375","1.15625"
"1573730290937","165","0.26757812","-0.9628906","-0.15234375","3.59375","1.15625","1.15625"
"1573730290937","166","0.24414062","-0.95214844","-0.14550781","-0.3125","1.625","0.40625"
"1573730290937","167","0.2734375","-0.96777344","-0.13867188","3.03125","3.78125","1.3125"
"1573730290938","168","0.25976562","-0.95410156","-0.11621094","-8.4375","2.25","0.0"
"1573730290939","169","0.2734375","-0.9658203","-0.15332031","3.21875","1.8125","0.53125"
"1573730291134","170","0.25585938","-0.96484375","-0.15429688","2.65625","2.375","1.3125"
"1573730291135","171","0.25390625","-0.96875","-0.1328125","-0.0625","4.8125","2.0"
"1573730291135","172","0.26464844","-0.96484375","-0.125","5.0","6.5625","1.625"
"1573730291135","173","0.23828125","-0.9589844","-0.12890625","2.71875","4.9375","1.4375"
"1573730291136","174","0.26464844","-0.96191406","-0.125","1.5","2.84375","1.09375"
"1573730291136","175","0.24414062","-0.9580078","-0.107421875","-0.3125","1.15625","0.0"
"1573730291136","176","0.2578125","-0.9589844","-0.11621094","-1.59375","-0.6875","-0.8125"
"1573730291137","177","0.2578125","-0.9609375","-0.11425781","-1.46875","-1.90625","-0.8125"
"1573730291137","178","0.25195312","-0.96191406","-0.12890625","-2.9375","-0.625","-1.46875"
"1573730291137","179","0.24902344","-0.9628906","-0.1328125","-1.125","-1.40625","-1.3125"
"1573730291533","180","0.24902344","-0.9667969","-0.1171875","-5.375","-0.25","-1.59375"
"1573730291535","181","0.24609375","-0.9785156","-0.12695312","-4.53125","1.28125","-2.46875"
"1573730291535","182","0.25195312","-0.95996094","-0.15917969","0.03125","-1.65625","-2.9375"
"1573730291536","183","0.2578125","-0.9736328","-0.13671875","-4.96875","4.0625","-2.8125"
"1573730291536","184","0.25683594","-0.9580078","-0.14355469","-6.90625","-1.84375","-5.25"
"1573730291536","185","0.2705078","-0.9609375","-0.15234375","0.90625","-3.0","-4.03125"
"1573730291537","186","0.26464844","-0.9589844","-0.14160156","0.40625","-2.09375","-3.625"
"1573730291537","187","0.26757812","-0.9609375","-0.1328125","2.375","0.65625","-3.0625"
"1573730291537","188","0.26757812","-0.95410156","-0.11816406","2.3125","0.84375","-1.46875"
"1573730291537","189","0.26953125","-0.95214844","-0.13183594","4.125","-0.3125","-1.25"
"1573730291929","190","0.29785156","-0.98046875","-0.13964844","2.90625","0.03125","-0.9375"
"1573730291930","191","0.2626953","-0.9736328","-0.12597656","-0.125","-1.25","-1.65625"
"1573730291930","192","0.2734375","-0.9589844","-0.12011719","-1.0625","-2.8125","-1.40625"
"1573730291931","193","0.26367188","-0.96972656","-0.10644531","-3.25","-1.84375","-2.21875"
"1573730291932","194","0.27246094","-0.96484375","-0.10449219","-4.46875","-2.28125","-3.1875"
"1573730291932","195","0.27246094","-0.9658203","-0.11621094","-9.59375","-2.28125","-4.15625"
"1573730291932","196","0.25683594","-0.953125","-0.13378906","-9.0","0.21875","-3.6875"
"1573730291933","197","0.27929688","-0.9511719","-0.12402344","-8.875","-1.3125","-2.875"
"1573730291933","198","0.29492188","-0.9550781","-0.13867188","2.4375","1.5625","-1.78125"
"1573730291933","199","0.2548828","-0.9404297","-0.13671875","0.90625","-0.9375","-1.78125"
"1573730292328","200","0.28125","-0.9580078","-0.115234375","-5.15625","-1.46875","-0.8125"
"1573730292328","201","0.2861328","-0.95214844","-0.1328125","-7.34375","-1.1875","-1.90625"
"1573730292328","202","0.2841797","-0.95410156","-0.13867188","0.21875","-3.125","-1.0625"
"1573730292328","203","0.26757812","-0.9580078","-0.125","-1.0625","-2.03125","-0.5"
"1573730292329","204","0.25683594","-0.9628906","-0.10546875","-11.3125","3.15625","-0.25"
"1573730292330","205","0.27246094","-0.9609375","-0.12011719","-12.15625","3.40625","0.0"
"1573730292330","206","0.2626953","-0.96972656","-0.15039062","-1.1875","1.09375","-1.1875"
"1573730292331","207","0.26464844","-0.9580078","-0.14453125","1.09375","-0.5625","-1.3125"
"1573730292331","208","0.2607422","-0.9628906","-0.11035156","7.125","5.21875","0.09375"
"1573730292331","209","0.27539062","-0.94140625","-0.0859375","11.9375","7.5","1.625"
"1573730292726","210","0.21777344","-0.9482422","-0.059570312","10.59375","5.34375","4.1875"
"1573730292726","211","0.23535156","-0.9433594","-0.08496094","12.25","8.15625","9.5"
"1573730292727","212","0.29101562","-0.92285156","-0.12695312","28.4375","13.15625","15.71875"
"1573730292727","213","0.23535156","-0.9375","-0.125","36.0625","13.53125","20.84375"
"1573730292727","214","0.27246094","-0.9736328","-0.11621094","30.5","16.40625","22.5625"
"1573730292727","215","0.22265625","-0.9785156","-0.06347656","32.28125","20.4375","21.09375"
"1573730292727","216","0.19238281","-1.0009766","-0.0546875","23.65625","22.4375","18.0625"
"1573730292729","217","0.25585938","-0.9824219","-0.029296875","14.625","18.125","11.28125"
"1573730292729","218","0.2529297","-1.0058594","-0.034179688","17.0","14.375","8.59375"
"1573730292730","219","0.15527344","-1.0273438","0.017578125","6.9375","17.875","8.59375"
"1573730293122","220","0.1953125","-1.0302734","-0.028320312","-3.875","18.34375","4.6875"
"1573730293123","221","0.26757812","-0.9980469","-0.049804688","-5.25","10.53125","-1.78125"
"1573730293123","222","0.22070312","-0.98828125","-0.03125","-7.78125","7.1875","-3.0625"
"1573730293123","223","0.19238281","-0.97558594","-0.0107421875","-14.40625","7.0625","-4.40625"
"1573730293124","224","0.22460938","-0.99609375","-0.038085938","-15.625","-0.5","-6.125"
"1573730293124","225","0.19335938","-0.97265625","-0.045898438","-11.4375","0.40625","-4.90625"
"1573730293124","226","0.1875","-0.9472656","-0.04296875","-13.75","8.96875","-4.65625"
"1573730293124","227","0.22167969","-0.98535156","-0.06542969","-24.375","13.21875","-5.5"
"1573730293125","228","0.22753906","-0.9941406","-0.052734375","-34.75","9.625","-7.09375"
"1573730293126","229","0.23242188","-0.98046875","-0.032226562","-32.0625","-0.1875","-6.53125"
"1573730293521","230","0.25195312","-0.9941406","-0.09277344","-29.1875","-7.03125","-4.78125"
"1573730293521","231","0.22265625","-0.9824219","-0.10839844","-20.875","-9.28125","-5.75"
"1573730293522","232","0.21386719","-0.984375","-0.11621094","-23.6875","-11.90625","-6.5"
"1573730293522","233","0.21191406","-0.9824219","-0.11035156","-14.40625","-12.78125","-5.8125"
"1573730293522","234","0.20800781","-0.98828125","-0.09863281","-10.28125","-14.1875","-10.28125"
"1573730293522","235","0.23339844","-0.9716797","-0.13867188","-10.28125","-18.09375","-12.78125"
"1573730293523","236","0.24804688","-0.9511719","-0.15039062","-6.5","-21.9375","-14.71875"
"1573730293523","237","0.18652344","-0.9658203","-0.115234375","-11.0625","-14.0","-13.375"
"1573730293523","238","0.21484375","-0.94140625","-0.15234375","-8.4375","-3.375","-13.1875"
"1573730293523","239","0.25390625","-0.9355469","-0.12011719","-18.375","-6.5","-14.34375"
"1573730293917","240","0.19726562","-0.98535156","-0.14355469","-10.6875","-7.28125","-11.6875"
"1573730293918","241","0.20019531","-0.9550781","-0.15136719","-6.96875","-2.75","-10.5625"
"1573730293918","242","0.2861328","-0.953125","-0.19238281","-5.15625","-11.84375","-10.5625"
"1573730293918","243","0.2685547","-0.9609375","-0.21875","-4.78125","-3.75","-6.53125"
"1573730293919","244","0.27929688","-0.9658203","-0.17871094","-9.0625","3.34375","-0.875"
"1573730293919","245","0.23535156","-0.9550781","-0.16796875","-15.03125","8.78125","2.5"
"1573730293919","246","0.20703125","-0.9628906","-0.1796875","-13.3125","7.84375","1.75"
"1573730293919","247","0.20996094","-0.9580078","-0.19628906","-22.0625","5.28125","-1.59375"
"1573730293920","248","0.2685547","-0.93652344","-0.24804688","-0.375","8.84375","-1.96875"
"1573730293920","249","0.29003906","-0.93359375","-0.25","-1.0625","12.0","-3.96875"
"1573730294314","250","0.2626953","-0.93066406","-0.18359375","-0.0625","7.96875","-4.71875"
"1573730294315","251","0.3076172","-0.9404297","-0.19433594","8.71875","6.6875","-3.96875"
"1573730294315","252","0.30566406","-0.9453125","-0.2109375","8.59375","4.6875","-3.125"
"1573730294316","253","0.29785156","-0.9472656","-0.21972656","5.65625","0.28125","-2.34375"
"1573730294316","254","0.2890625","-0.9482422","-0.20605469","5.96875","-6.65625","-0.9375"
"1573730294317","255","0.27441406","-0.9560547","-0.20703125","8.65625","-0.9375","0.0"
"1573730294317","256","0.2626953","-0.95410156","-0.19433594","-3.0","3.53125","0.0"
"1573730294317","257","0.2705078","-0.9423828","-0.20605469","0.96875","4.0","1.3125"
"1573730294317","258","0.29101562","-0.9501953","-0.19433594","0.65625","10.375","-0.6875"
"1573730294318","259","0.2861328","-0.9550781","-0.16796875","-6.90625","10.96875","-0.25"
"1573730294714","260","0.3173828","-0.9609375","-0.17382812","-5.875","1.6875","0.0"
"1573730294715","261","0.28320312","-0.93652344","-0.18945312","0.46875","-4.84375","0.65625"
"1573730294715","262","0.27734375","-0.94140625","-0.17675781","0.96875","2.65625","0.0"
"1573730294715","263","0.28320312","-0.94921875","-0.18457031","0.65625","2.71875","0.0"
"1573730294716","264","0.28125","-0.94628906","-0.16992188","-0.5625","3.46875","0.34375"
"1573730294717","265","0.2783203","-0.9560547","-0.18457031","2.5625","1.03125","0.96875"
"1573730294717","266","0.28515625","-0.9326172","-0.16015625","-2.34375","-0.0625","0.96875"
"1573730294718","267","0.2734375","-0.9433594","-0.18359375","1.3125","1.8125","0.53125"
"1573730294718","268","0.2998047","-0.9423828","-0.19628906","4.6875","-0.1875","0.53125"
"1573730294718","269","0.31054688","-0.9267578","-0.19140625","3.15625","-2.75","0.71875"
"1573730295308","270","0.3095703","-0.9111328","-0.18554688","8.65625","-4.03125","1.6875"
"1573730295308","271","0.3125","-0.9863281","-0.22558594","5.59375","-3.125","1.15625"
"1573730295309","272","0.29882812","-0.9199219","-0.25878906","4.625","-5.9375","-1.40625"
"1573730295309","273","0.32226562","-0.92089844","-0.23242188","5.71875","-5.4375","-1.1875"
"1573730295309","274","0.3076172","-0.95214844","-0.2109375","-10.75","-6.5","-5.3125"
"1573730295310","275","0.2890625","-0.97265625","-0.19726562","-2.53125","-11.3125","-5.25"
"1573730295311","276","0.2890625","-1.0214844","-0.19140625","-6.71875","-9.90625","-6.125"
"1573730295312","277","0.32128906","-1.1386719","-0.24121094","-12.21875","-5.875","-4.78125"
"1573730295312","278","0.40039062","-1.2773438","-0.25976562","-16.8125","-3.25","-6.71875"
"1573730295312","279","0.30859375","-1.1103516","-0.21777344","3.46875","-9.21875","-3.3125"
"1573730295507","280","0.2890625","-1.0244141","-0.19628906","6.21875","-12.46875","-2.03125"
"1573730295507","281","0.23925781","-0.8300781","-0.15039062","18.71875","-10.03125","0.40625"
"1573730295508","282","0.15917969","-0.7236328","-0.123046875","21.09375","-8.3125","3.09375"
"1573730295508","283","0.23632812","-0.7216797","-0.13769531","18.1875","-10.09375","-0.6875"
"1573730295508","284","0.18261719","-0.78515625","-0.10546875","13.34375","-3.5","1.4375"
"1573730295508","285","0.29589844","-0.86621094","-0.11328125","16.46875","-9.0","-3.875"
"1573730295509","286","0.31640625","-0.9873047","-0.1328125","16.59375","-11.125","-3.0"
"1573730295509","287","0.26757812","-1.0449219","-0.13378906","17.125","-11.1875","-3.75"
"1573730295509","288","0.2890625","-0.99121094","-0.09277344","14.8125","-9.71875","-2.59375"
"1573730295510","289","0.24707031","-0.9658203","-0.09667969","10.53125","-8.375","-5.5625"
"1573730295906","290","0.24902344","-0.91796875","-0.10839844","7.1875","-5.875","-3.96875"
"1573730295907","291","0.26464844","-0.91015625","-0.09765625","3.84375","-0.3125","-6.0625"
"1573730295907","292","0.265625","-0.9482422","-0.115234375","-4.53125","-1.71875","-8.625"
"1573730295907","293","0.296875","-0.96875","-0.10644531","1.375","-3.5625","-5.25"
"1573730295908","294","0.29492188","-0.9638672","-0.09667969","18.34375","-4.28125","-2.09375"
"1573730295908","295","0.30566406","-0.9550781","-0.041015625","9.03125","0.0","-0.75"
"1573730295908","296","0.2421875","-0.9199219","0.0048828125","3.21875","3.03125","3.65625"
"1573730295908","297","0.203125","-0.9013672","0.016601562","-4.15625","10.0","1.3125"
"1573730295909","298","0.22070312","-0.8925781","-0.04296875","-2.625","10.3125","3.03125"
"1573730295909","299","0.32714844","-0.9189453","-0.055664062","-6.0625","11.75","0.78125"
"1573730296499","300","0.2607422","-0.9189453","-0.059570312","-1.25","6.8125","2.65625"
"1573730296501","301","0.28808594","-0.8857422","-0.10058594","-2.46875","8.78125","2.125"
"1573730296501","302","0.3408203","-0.9003906","-0.10546875","-5.3125","7.96875","2.125"
"1573730296502","303","0.3232422","-0.97753906","-0.08300781","-8.3125","8.84375","-0.9375"
"1573730296502","304","0.34179688","-1.0068359","-0.064453125","-5.15625","4.625","0.65625"
"1573730296502","305","0.26660156","-0.8857422","-0.07421875","5.34375","-3.5","3.59375"
"1573730296503","306","0.2841797","-1.0048828","-0.091796875","-11.90625","10.78125","-1.34375"
"1573730296503","307","0.2548828","-0.9423828","-0.08984375","-8.4375","8.96875","-1.25"
"1573730296503","308","0.24121094","-0.95410156","-0.11816406","-1.71875","12.6875","0.71875"
"1573730296504","309","0.29101562","-0.95703125","-0.14453125","-9.125","14.6875","-2.03125"
"1573730296699","310","0.2919922","-0.94628906","-0.12890625","-10.09375","15.65625","-1.71875"
"1573730296700","311","0.34960938","-0.9707031","-0.109375","-10.9375","16.71875","2.5625"
"1573730296700","312","0.2626953","-1.0205078","-0.08203125","0.90625","8.03125","4.0"
"1573730296701","313","0.25097656","-0.9707031","-0.078125","-2.9375","10.0","2.71875"
"1573730296702","314","0.27441406","-0.9589844","-0.06347656","-7.65625","6.8125","5.90625"
"1573730296702","315","0.19335938","-0.9589844","-0.11230469","-11.6875","14.09375","4.25"
"1573730296702","316","0.28808594","-1.0292969","-0.13769531","-20.53125","13.90625","1.4375"
"1573730296702","317","0.28515625","-0.984375","-0.14550781","-12.46875","6.625","0.90625"
"1573730296703","318","0.20410156","-0.9785156","-0.1015625","-10.5","11.65625","0.0"
"1573730296703","319","0.30273438","-1.0195312","-0.1328125","-12.21875","14.21875","-1.34375"
"1573730297099","320","0.328125","-0.97265625","-0.107421875","-6.78125","10.0","-0.625"
"1573730297099","321","0.26171875","-0.97265625","-0.10839844","-10.21875","3.34375","-0.875"
"1573730297099","322","0.30078125","-0.9628906","-0.15820312","-1.71875","5.53125","-1.0625"
"1573730297100","323","0.34179688","-0.90234375","-0.15429688","1.21875","0.84375","-1.65625"
"1573730297100","324","0.2607422","-0.9716797","-0.119140625","-2.03125","-4.59375","-0.6875"
"1573730297101","325","0.26953125","-0.98046875","-0.1171875","-5.21875","3.65625","-1.84375"
"1573730297102","326","0.31445312","-0.9296875","-0.14746094","-2.9375","-3.625","-1.1875"
"1573730297102","327","0.2734375","-0.9511719","-0.14550781","-0.1875","-5.15625","-3.1875"
"1573730297102","328","0.2763672","-0.94921875","-0.10546875","-9.65625","-2.03125","-3.6875"
"1573730297102","329","0.2919922","-0.9511719","-0.13378906","-10.40625","1.15625","-3.125"
"1573730297695","330","0.27539062","-0.94628906","-0.17480469","-3.0625","1.8125","-2.15625"
"1573730297695","331","0.30273438","-0.93847656","-0.15527344","-5.5625","1.3125","-0.25"
"1573730297696","332","0.29003906","-0.9375","-0.15917969","-1.1875","4.1875","-0.8125"
"1573730297696","333","0.2919922","-0.9433594","-0.19140625","0.53125","3.09375","1.21875"
"1573730297696","334","0.29492188","-0.9375","-0.17675781","-0.3125","5.84375","2.78125"
"1573730297697","335","0.296875","-0.93652344","-0.1640625","2.25","4.375","2.4375"
"1573730297697","336","0.3154297","-0.9716797","-0.18554688","2.96875","2.84375","2.5625"
"1573730297698","337","0.2783203","-0.95703125","-0.16699219","0.0","0.28125","1.6875"
"1573730297699","338","0.3203125","-0.953125","-0.19433594","3.34375","-6.4375","-3.0625"
"1573730297699","339","0.2578125","-0.9765625","-0.15820312","-1.25","-5.375","-2.21875"
"1573730297892","340","0.29296875","-1.0175781","-0.14550781","-1.46875","-3.75","-2.59375"
"1573730297893","341","0.3076172","-1.0185547","-0.1484375","-2.75","-6.65625","-2.75"
"1573730297893","342","0.2919922","-1.1044922","-0.1640625","-6.84375","-2.9375","-2.40625"
"1573730297894","343","0.3017578","-1.0888672","-0.13671875","-4.09375","-2.875","-1.53125"
"1573730297894","344","0.2939453","-1.0136719","-0.13964844","4.5","-3.75","-1.25"
"1573730297894","345","0.21875","-0.9404297","-0.09277344","-3.125","-1.96875","-0.25"
"1573730297894","346","0.22949219","-0.8847656","-0.107421875","-16.0625","1.15625","-0.875"
"1573730297895","347","0.24121094","-0.8544922","-0.12988281","-5.5","-3.4375","-1.40625"
"1573730297895","348","0.2578125","-0.9238281","-0.14550781","0.59375","-1.53125","-0.25"
"1573730297896","349","0.2998047","-0.94921875","-0.15039062","0.40625","-3.875","0.09375"
"1573730298291","350","0.296875","-0.99609375","-0.16601562","0.03125","-5.9375","0.0"
"1573730298291","351","0.2919922","-0.9638672","-0.16992188","4.5","-7.34375","-1.0625"
"1573730298292","352","0.25390625","-0.9277344","-0.15917969","5.46875","-11.90625","-0.375"
"1573730298292","353","0.27929688","-0.92871094","-0.15820312","2.5","-10.9375","-2.03125"
"1573730298292","354","0.234375","-0.890625","-0.13769531","1.28125","-9.59375","-1.34375"
"1573730298292","355","0.24121094","-0.9238281","-0.15332031","-3.1875","-8.0","-2.9375"
"1573730298293","356","0.2578125","-0.9472656","-0.13671875","-6.125","-3.4375","-2.46875"
"1573730298293","357","0.23730469","-0.92871094","-0.13964844","-6.1875","-5.25","-2.59375"
"1573730298293","358","0.24023438","-0.87597656","-0.16015625","2.125","-6.53125","-3.1875"
"1573730298295","359","0.23925781","-0.9199219","-0.1328125","0.59375","-1.3125","-0.875"
"1573730298887","360","0.22949219","-0.90722656","-0.13769531","2.78125","-0.25","-0.875"
"1573730298888","361","0.28027344","-0.99121094","-0.16894531","-1.65625","1.28125","-0.625"
"1573730298889","362","0.2861328","-1.0283203","-0.15527344","-1.0","4.625","-0.75"
"1573730298889","363","0.23828125","-0.95410156","-0.15136719","3.65625","2.3125","-2.03125"
"1573730298890","364","0.3232422","-0.8828125","-0.20117188","7.5","-6.53125","-2.46875"
"1573730298890","365","0.22460938","-0.74902344","-0.13378906","12.5625","-6.65625","3.40625"
"1573730298890","366","0.25390625","-0.8808594","-0.18457031","1.09375","2.0","-2.875"
"1573730298891","367","0.33496094","-0.8330078","-0.16113281","-0.75","2.71875","3.53125"
"1573730298891","368","0.04296875","-1.0400391","-0.08105469","-5.875","16.28125","2.25"
"1573730298892","369","0.45996094","-1.1679688","-0.18359375","-18.15625","18.46875","-10.15625"
"1573730299085","370","0.26367188","-1.0351562","-0.08203125","11.59375","1.5","8.46875"
"1573730299085","371","0.18945312","-0.9482422","-0.14453125","14.875","4.3125","-0.25"
"1573730299085","372","0.41503906","-0.95996094","-0.19238281","3.21875","3.90625","0.34375"
"1573730299087","373","0.13671875","-0.90625","-0.11035156","10.1875","1.875","2.84375"
"1573730299087","374","0.27929688","-0.9628906","-0.17285156","0.40625","7.125","-2.09375"
"1573730299087","375","0.34472656","-1.0126953","-0.10546875","0.96875","7.8125","2.25"
"1573730299088","376","0.18652344","-0.9951172","-0.09472656","8.84375","5.90625","-0.3125"
"1573730299088","377","0.2861328","-0.9863281","-0.125","10.46875","5.40625","0.53125"
"1573730299088","378","0.22949219","-0.984375","-0.09667969","2.5625","11.28125","0.34375"
"1573730299089","379","0.27929688","-0.9638672","-0.10839844","-1.125","8.84375","-3.5625"
"1573730299483","380","0.28125","-0.96875","-0.12988281","-0.625","6.75","-0.875"
"1573730299484","381","0.23535156","-1.0302734","-0.10449219","-9.0625","10.53125","-0.875"
"1573730299484","382","0.28125","-0.953125","-0.12792969","-9.65625","8.40625","-0.6875"
"1573730299484","383","0.27246094","-0.92578125","-0.13867188","5.21875","4.6875","0.90625"
"1573730299484","384","0.28515625","-0.9511719","-0.12988281","-13.625","11.21875","0.65625"
"1573730299486","385","0.31445312","-1.0136719","-0.140625","-9.71875","10.0","-3.0625"
"1573730299486","386","0.2919922","-0.9433594","-0.14550781","-1.59375","2.1875","1.4375"
"1573730299486","387","0.2548828","-0.9472656","-0.12792969","-8.9375","12.9375","0.15625"
"1573730299486","388","0.30664062","-0.921875","-0.14550781","-4.03125","9.5","-0.625"
"1573730299487","389","0.3125","-0.98046875","-0.15625","-9.53125","8.65625","-1.0625"
"1573730299879","390","0.2705078","-0.9326172","-0.1015625","-13.875","7.96875","0.46875"
"1573730299880","391","0.29785156","-0.94921875","-0.1328125","-2.875","0.40625","-1.125"
"1573730299880","392","0.29882812","-0.9609375","-0.14746094","-4.84375","5.28125","-1.0625"
"1573730299880","393","0.26660156","-0.9355469","-0.10546875","-6.1875","4.625","0.78125"
"1573730299881","394","0.27929688","-0.95410156","-0.13476562","-0.375","1.3125","0.28125"
"1573730299881","395","0.2763672","-0.9667969","-0.140625","-3.25","4.875","0.15625"
"1573730299881","396","0.2607422","-0.9814453","-0.12402344","-4.28125","5.84375","0.40625"
"1573730299882","397","0.2705078","-0.9873047","-0.14257812","-7.9375","4.625","0.0"
"1573730299882","398","0.25390625","-1.0019531","-0.13867188","-7.03125","7.4375","-0.6875"
"1573730299883","399","0.29882812","-1.0390625","-0.14453125","-1.40625","6.28125","-0.25"
"1573730300279","400","0.2890625","-1.0263672","-0.12109375","-9.53125","4.625","-1.125"
"1573730300280","401","0.28710938","-0.9589844","-0.13476562","7.25","2.5","0.09375"
"1573730300280","402","0.27246094","-0.90234375","-0.123046875","3.53125","-1.59375","1.15625"
"1573730300280","403","0.25390625","-0.8652344","-0.11035156","-0.8125","-0.625","-0.625"
"1573730300281","404","0.26367188","-0.875","-0.14257812","-3.375","-3.25","-2.28125"
"1573730300281","405","0.2890625","-0.96875","-0.13769531","-8.1875","-0.0625","-2.6875"
"1573730300281","406","0.2783203","-1.0537109","-0.125","-12.90625","5.34375","-4.21875"
"1573730300281","407","0.30078125","-1.0869141","-0.13574219","-5.09375","1.03125","-2.15625"
"1573730300282","408","0.25097656","-1.0048828","-0.12890625","0.84375","0.90625","-1.65625"
"1573730300283","409","0.2734375","-0.9238281","-0.13476562","2.0625","0.53125","-1.53125"
"1573730300676","410","0.23632812","-0.875","-0.140625","-2.03125","2.0625","-1.46875"
"1573730300676","411","0.25","-0.89160156","-0.14550781","-6.1875","4.3125","-1.90625"
"1573730300677","412","0.27734375","-0.9404297","-0.1328125","-10.03125","2.25","-2.09375"
"1573730300677","413","0.24609375","-0.984375","-0.1484375","-8.1875","0.34375","-2.40625"
"1573730300677","414","0.28515625","-0.96484375","-0.13964844","-3.5625","-2.21875","-3.0"
"1573730300677","415","0.26757812","-0.9404297","-0.14257812","0.09375","-6.59375","-1.78125"
"1573730300678","416","0.2421875","-0.94140625","-0.14550781","-0.125","-5.4375","-1.71875"
"1573730300678","417","0.26953125","-0.9199219","-0.16992188","3.46875","-2.21875","-3.5"
"1573730300678","418","0.2626953","-0.94921875","-0.15136719","-7.8125","-2.9375","-2.34375"
"1573730300678","419","0.25976562","-0.9404297","-0.16992188","-8.1875","-2.9375","-2.6875"
"1573730301072","420","0.2548828","-0.9580078","-0.15039062","-4.78125","-0.75","0.0"
"1573730301074","421","0.2998047","-0.9628906","-0.14746094","-5.6875","-0.9375","-1.0"
"1573730301075","422","0.2734375","-0.95996094","-0.20214844","0.90625","-9.125","-1.46875"
"1573730301075","423","0.3017578","-0.96484375","-0.19335938","13.09375","-16.0","-2.21875"
"1573730301075","424","0.25390625","-0.9628906","-0.16894531","5.84375","-12.90625","-1.46875"
"1573730301076","425","0.28027344","-0.95410156","-0.13769531","1.375","-1.59375","-3.1875"
"1573730301076","426","0.2578125","-0.9433594","-0.15527344","5.96875","-2.625","-1.46875"
"1573730301076","427","0.25683594","-0.9296875","-0.123046875","3.03125","2.5","-0.4375"
"1573730301076","428","0.25390625","-0.9189453","-0.1328125","0.84375","0.03125","-2.03125"
"1573730301077","429","0.28125","-0.91015625","-0.14453125","-0.875","-0.4375","-2.9375"
"1573730301664","430","0.26171875","-0.9277344","-0.12890625","-3.875","-3.5625","-3.90625"
"1573730301665","431","0.27929688","-0.9482422","-0.12695312","-1.40625","-1.53125","-4.15625"
"1573730301665","432","0.3076172","-0.94921875","-0.13671875","7.625","-5.4375","-3.875"
"1573730301665","433","0.2734375","-0.9472656","-0.12890625","4.3125","-6.5","-2.09375"
"1573730301665","434","0.2783203","-0.94628906","-0.15625","0.15625","-3.4375","-1.0625"
"1573730301666","435","0.30566406","-0.9628906","-0.14550781","-0.125","-3.4375","-1.25"
"1573730301666","436","0.24707031","-0.9785156","-0.12988281","-1.96875","-2.8125","-0.6875"
"1573730301666","437","0.23828125","-0.92089844","-0.1640625","-0.75","0.96875","-0.375"
"1573730301666","438","0.3408203","-1.0058594","-0.203125","-19.59375","8.28125","-0.25"
"1573730301666","439","0.28808594","-0.9501953","-0.14257812","-6.78125","2.3125","-1.65625"
"1573730302266","440","0.25097656","-0.8955078","-0.18554688","-1.40625","-2.21875","-0.9375"
"1573730302267","441","0.33691406","-0.93359375","-0.1796875","-5.3125","0.21875","-2.28125"
"1573730302267","442","0.24902344","-0.9003906","-0.14355469","-3.75","4.875","0.46875"
"1573730302267","443","0.3076172","-0.9609375","-0.19335938","-6.84375","5.28125","-2.21875"
"1573730302268","444","0.29003906","-0.93359375","-0.1484375","1.3125","6.03125","0.84375"
"1573730302269","445","0.25","-0.9589844","-0.16503906","-4.46875","8.65625","1.875"
"1573730302270","446","0.3359375","-0.9824219","-0.15234375","-1.96875","11.75","0.84375"
"1573730302270","447","0.12402344","-0.8857422","-0.12988281","5.90625","17.4375","1.09375"
"1573730302270","448","0.39160156","-1.0273438","-0.24121094","-12.28125","20.75","-4.15625"
"1573730302271","449","0.3310547","-0.92089844","-0.11816406","2.3125","10.46875","1.3125"
"1573730302463","450","0.24707031","-0.8808594","-0.13867188","9.8125","1.8125","-1.53125"
"1573730302463","451","0.36328125","-1.0068359","-0.16992188","-2.03125","7.75","3.90625"
"1573730302464","452","0.23632812","-0.9199219","-0.12109375","1.375","4.0625","3.40625"
"1573730302464","453","0.28808594","-0.96972656","-0.12792969","4.8125","8.15625","2.5"
"1573730302464","454","0.23925781","-1.046875","-0.13183594","-3.25","13.46875","5.0625"
"1573730302464","455","0.28222656","-0.9248047","-0.13964844","-1.90625","10.1875","3.09375"
"1573730302465","456","0.29785156","-0.96875","-0.12890625","8.28125","13.40625","1.5625"
"1573730302465","457","0.22949219","-0.9267578","-0.12402344","7.375","17.5625","2.0"
"1573730302465","458","0.29882812","-0.91796875","-0.10644531","3.34375","11.8125","1.5"
"1573730302466","459","0.36914062","-1.0292969","-0.09375","-11.96875","15.125","-1.40625"
"1573730302663","460","0.28027344","-1.0839844","-0.12402344","-4.09375","14.8125","-2.03125"
"1573730302663","461","0.2919922","-0.9394531","-0.16015625","-3.96875","0.65625","0.15625"
"1573730302663","462","0.31933594","-0.9140625","-0.14941406","-5.8125","0.03125","-1.78125"
"1573730302664","463","0.24316406","-0.9501953","-0.10644531","-13.6875","8.09375","-3.0625"
"1573730302664","464","0.27734375","-0.9716797","-0.13183594","-9.125","13.46875","-1.96875"
"1573730302664","465","0.3095703","-0.9394531","-0.14355469","-2.9375","9.4375","-0.875"
"1573730302664","466","0.30078125","-0.91503906","-0.15429688","-1.71875","3.84375","-0.9375"
"1573730302665","467","0.29296875","-0.94921875","-0.140625","-4.84375","5.53125","-0.375"
"1573730302665","468","0.34179688","-0.94921875","-0.18457031","-3.25","-1.25","-2.9375"
"1573730302665","469","0.2939453","-0.9404297","-0.18554688","-0.25","-3.75","-2.75"
"1573730303060","470","0.31933594","-0.9453125","-0.1796875","-0.4375","-4.34375","-3.125"
"1573730303061","471","0.3095703","-0.9355469","-0.17382812","-4.40625","-4.90625","-4.21875"
"1573730303061","472","0.33203125","-0.9355469","-0.19433594","-5.5625","-5.9375","-5.625"
"1573730303061","473","0.3173828","-0.9375","-0.18359375","-8.125","-7.65625","-6.25"
"1573730303061","474","0.29296875","-0.953125","-0.16308594","-5.8125","-7.71875","-4.34375"
"1573730303062","475","0.30371094","-0.9482422","-0.16601562","-4.65625","-3.6875","-3.1875"
"1573730303062","476","0.27734375","-0.92578125","-0.20800781","-1.59375","-4.78125","-1.96875"
"1573730303062","477","0.31347656","-0.953125","-0.17089844","-5.5","-2.09375","-1.78125"
"1573730303063","478","0.29882812","-0.9345703","-0.17871094","-9.65625","-3.875","-1.84375"
"1573730303063","479","0.27734375","-0.9707031","-0.16113281","-4.65625","-2.75","-1.40625"
"1573730303457","480","0.29296875","-0.9658203","-0.16308594","-5.09375","-1.84375","-0.4375"
"1573730303458","481","0.29589844","-0.93066406","-0.15332031","-3.875","-3.90625","-0.25"
"1573730303459","482","0.2861328","-0.96484375","-0.16503906","-7.21875","-1.0625","0.03125"
"1573730303459","483","0.31054688","-0.9472656","-0.16699219","-4.28125","2.3125","0.53125"
"1573730303459","484","0.3076172","-0.98828125","-0.17578125","-10.4375","3.59375","0.03125"
"1573730303460","485","0.31640625","-0.9746094","-0.19042969","-7.03125","0.84375","-0.125"
"1573730303460","486","0.31347656","-0.9550781","-0.18359375","-3.0625","0.21875","0.0"
"1573730303461","487","0.30371094","-0.93847656","-0.203125","-1.0625","-4.28125","-2.28125"
"1573730303461","488","0.3017578","-0.9453125","-0.20117188","-1.46875","-2.8125","-2.40625"
"1573730303461","489","0.3017578","-0.9560547","-0.19433594","-4.03125","-2.34375","-3.0625"
"1573730303856","490","0.3046875","-0.9667969","-0.19335938","-4.65625","-2.53125","-2.34375"
"1573730303856","491","0.2685547","-0.92578125","-0.19140625","2.375","-3.375","-1.0625"
"1573730303856","492","0.2783203","-0.91308594","-0.18945312","0.59375","-2.53125","-1.71875"
"1573730303857","493","0.28125","-0.93847656","-0.19433594","-1.53125","-1.25","-1.0"
"1573730303858","494","0.28710938","-0.9638672","-0.17285156","-7.71875","0.15625","-1.0625"
"1573730303858","495","0.28222656","-0.98046875","-0.19433594","-5.25","0.40625","-2.28125"
"1573730303858","496","0.2939453","-0.9873047","-0.20898438","0.21875","3.09375","-1.78125"
"1573730303859","497","0.2919922","-0.9238281","-0.19824219","-1.40625","2.65625","-1.53125"
"1573730303859","498","0.3046875","-0.86816406","-0.22070312","-2.6875","-0.375","-2.34375"
"1573730303859","499","0.30078125","-0.89453125","-0.22265625","1.09375","-1.59375","-0.875"
"1573730304254","500","0.3232422","-0.9248047","-0.21484375","-1.96875","-0.4375","-1.59375"
"1573730304254","501","0.3486328","-0.99902344","-0.22949219","-4.59375","1.4375","-2.40625"
"1573730304255","502","0.3232422","-0.98828125","-0.21582031","-5.875","4.375","1.6875"
"1573730304255","503","0.3232422","-1.0214844","-0.19042969","-4.71875","8.15625","-2.59375"
"1573730304255","504","0.2890625","-0.98535156","-0.19335938","0.28125","6.34375","-1.0625"
"1573730304256","505","0.2783203","-0.9033203","-0.1796875","8.84375","9.375","-2.53125"
"1573730304256","506","0.27441406","-0.8691406","-0.15527344","13.28125","5.0625","0.46875"
"1573730304256","507","0.28125","-0.8466797","-0.18261719","14.75","2.84375","0.21875"
"1573730304257","508","0.32128906","-0.890625","-0.16894531","8.15625","2.0","0.34375"
"1573730304257","509","0.2734375","-0.9296875","-0.14648438","7.0","4.0","0.46875"
"1573730304654","510","0.2763672","-0.9160156","-0.13671875","8.46875","3.78125","1.8125"
"1573730304654","511","0.28515625","-0.9628906","-0.13867188","0.90625","4.875","1.375"
"1573730304655","512","0.25976562","-0.96191406","-0.12207031","0.21875","3.65625","0.96875"
"1573730304655","513","0.3017578","-0.9277344","-0.16113281","-1.78125","0.09375","-0.625"
"1573730304655","514","0.3046875","-0.90722656","-0.15820312","-0.9375","4.6875","-0.9375"
"1573730304655","515","0.22753906","-0.82910156","-0.12207031","4.875","11.71875","2.0"
"1573730304656","516","0.33007812","-0.88964844","-0.19042969","-10.40625","8.15625","-2.21875"
"1573730304656","517","0.35058594","-0.93066406","-0.0859375","-8.5","2.4375","0.65625"
"1573730304657","518","0.13574219","-0.9082031","-0.10839844","-6.65625","-1.25","0.21875"
"1573730304657","519","0.4345703","-1.0644531","-0.20410156","-16.4375","0.28125","-7.9375"
"1573730305048","520","0.22167969","-1.0175781","-0.072265625","-4.34375","8.53125","6.46875"
"1573730305048","521","0.23828125","-0.92871094","-0.19726562","-4.59375","3.46875","-3.0625"
"1573730305048","522","0.41015625","-0.9707031","-0.20410156","-5.375","10.40625","-1.46875"
"1573730305049","523","0.20214844","-0.9160156","-0.14453125","1.3125","9.8125","3.34375"
"1573730305049","524","0.32910156","-0.9355469","-0.17382812","0.0","6.03125","2.0625"
"1573730305049","525","0.3466797","-0.9511719","-0.16796875","-3.3125","8.15625","1.8125"
"1573730305049","526","0.2861328","-1.0673828","-0.16113281","-6.375","9.625","0.0"
"1573730305049","527","0.33203125","-0.94921875","-0.18261719","-1.78125","3.65625","4.0"
"1573730305050","528","0.3095703","-0.98046875","-0.15820312","0.09375","4.0","0.46875"
"1573730305051","529","0.2841797","-0.9423828","-0.16796875","-5.375","3.65625","1.6875"
"1573730305444","530","0.31445312","-0.88671875","-0.1796875","-1.71875","-2.875","-0.5"
"1573730305445","531","0.29492188","-0.89941406","-0.16015625","-0.6875","-4.15625","-0.625"
"1573730305445","532","0.2939453","-0.99609375","-0.19140625","-11.0","2.5","-0.5625"
"1573730305445","533","0.28320312","-1.0009766","-0.15429688","-16.1875","3.40625","1.4375"
"1573730305446","534","0.28808594","-0.9863281","-0.16601562","-3.5625","0.71875","1.03125"
"1573730305446","535","0.28710938","-0.94628906","-0.18945312","8.84375","6.9375","0.40625"
"1573730305446","536","0.28222656","-0.8847656","-0.18164062","3.53125","-0.5","-0.625"
"1573730305446","537","0.2861328","-0.9169922","-0.20117188","0.0","-0.3125","0.0"
"1573730305446","538","0.3125","-0.9892578","-0.20996094","-1.90625","5.0625","0.0"
"1573730305447","539","0.32421875","-0.94140625","-0.19921875","1.09375","-3.125","-0.4375"
"1573730305842","540","0.31445312","-0.91503906","-0.20410156","10.84375","-7.875","-1.0625"
"1573730305843","541","0.31640625","-0.9267578","-0.23632812","7.3125","-3.125","-0.625"
"1573730305844","542","0.32128906","-0.9326172","-0.21679688","5.59375","-3.875","-1.125"
"1573730305844","543","0.31054688","-0.9453125","-0.21972656","0.59375","-3.75","-1.53125"
"1573730305845","544","0.32128906","-0.9296875","-0.21679688","1.375","-1.71875","-2.625"
"1573730305845","545","0.3076172","-0.9238281","-0.21777344","-3.3125","-2.8125","-3.125"
"1573730305845","546","0.31835938","-0.9345703","-0.22460938","-7.875","-2.9375","-5.21875"
"1573730305845","547","0.3154297","-0.9609375","-0.19238281","-9.125","-0.25","-4.15625"
"1573730305846","548","0.29589844","-0.95703125","-0.18261719","-6.84375","0.0","-3.4375"
"1573730305846","549","0.30078125","-0.9560547","-0.19042969","-3.8125","-0.875","-2.9375"
"1573730306241","550","0.29882812","-0.9423828","-0.16699219","-1.96875","-0.6875","-1.78125"
"1573730306241","551","0.29003906","-0.94140625","-0.16015625","-1.96875","0.09375","-1.25"
"1573730306242","552","0.2919922","-0.9355469","-0.16210938","-0.0625","-0.1875","1.3125"
"1573730306243","553","0.2890625","-0.9277344","-0.16796875","4.6875","2.4375","2.4375"
"1573730306244","554","0.2890625","-0.92871094","-0.16210938","-3.4375","1.6875","1.8125"
"1573730306244","555","0.29882812","-0.99609375","-0.17089844","-11.125","3.03125","2.84375"
"1573730306244","556","0.2919922","-1.0263672","-0.1953125","-9.84375","6.03125","0.84375"
"1573730306244","557","0.3076172","-1.0615234","-0.19433594","-9.125","6.8125","0.03125"
"1573730306244","558","0.3125","-1.0498047","-0.18652344","-9.65625","7.96875","-0.625"
"1573730306245","559","0.28320312","-0.9824219","-0.18066406","-3.1875","5.0","-0.1875"
"1573730306638","560","0.3154297","-0.9248047","-0.20605469","1.75","-0.4375","-0.8125"
"1573730306638","561","0.2890625","-0.85058594","-0.16894531","-0.9375","-1.46875","-1.25"
"1573730306639","562","0.28710938","-0.85546875","-0.21875","2.4375","-7.09375","-3.125"
"1573730306639","563","0.29296875","-0.8828125","-0.1953125","-1.53125","-6.5","-1.0625"
"1573730306639","564","0.29492188","-0.9169922","-0.20605469","-8.125","-4.53125","-3.75"
"1573730306640","565","0.30664062","-0.9638672","-0.20507812","-7.46875","-3.25","-2.53125"
"1573730306641","566","0.28125","-0.9550781","-0.19335938","-3.96875","-4.28125","-1.71875"
"1573730306641","567","0.29296875","-0.9169922","-0.20703125","-0.125","-6.90625","-3.75"
"1573730306641","568","0.29785156","-0.92871094","-0.19433594","1.28125","-6.84375","-2.09375"
"1573730306641","569","0.28320312","-0.96777344","-0.20117188","-1.25","-5.03125","-1.40625"
"1573730307035","570","0.3125","-1.03125","-0.22363281","-8.75","-2.59375","-2.59375"
"1573730307036","571","0.30664062","-1.0048828","-0.22167969","-5.75","-2.75","-2.53125"
"1573730307036","572","0.28710938","-0.96484375","-0.21484375","4.5","-2.34375","-1.53125"
"1573730307036","573","0.23925781","-0.8808594","-0.19140625","0.90625","-0.4375","-1.65625"
"1573730307036","574","0.28222656","-0.86035156","-0.2265625","-5.5","-0.6875","-3.8125"
"1573730307037","575","0.30371094","-0.88183594","-0.22363281","-0.875","-4.03125","-1.90625"
"1573730307037","576","0.2578125","-0.9003906","-0.1953125","-1.46875","-0.625","-0.625"
"1573730307039","577","0.26464844","-0.8798828","-0.21289062","1.03125","0.03125","1.03125"
"1573730307039","578","0.30664062","-0.9785156","-0.21679688","-2.09375","1.3125","-0.8125"
"1573730307040","579","0.28320312","-0.96875","-0.203125","1.5","1.15625","0.65625"
"1573730307631","580","0.30664062","-0.921875","-0.19140625","4.1875","0.09375","0.78125"
"1573730307632","581","0.26660156","-0.8808594","-0.18847656","9.09375","-4.03125","1.4375"
"1573730307632","582","0.29589844","-0.8652344","-0.20605469","5.84375","-4.28125","0.34375"
"1573730307632","583","0.2919922","-0.95996094","-0.18359375","1.28125","-0.1875","0.90625"
"1573730307633","584","0.2783203","-0.9453125","-0.20996094","-1.96875","1.03125","0.84375"
"1573730307633","585","0.28808594","-0.9404297","-0.21191406","-1.3125","-1.1875","-1.125"
"1573730307633","586","0.30664062","-0.94140625","-0.1875","0.09375","0.53125","-3.6875"
"1573730307633","587","0.2861328","-0.90722656","-0.2109375","3.9375","-2.34375","-1.125"
"1573730307634","588","0.28710938","-0.9189453","-0.19335938","0.59375","-1.3125","0.21875"
"1573730307635","589","0.29882812","-0.93066406","-0.19824219","-2.75","5.53125","-2.28125"
"1573730307830","590","0.22460938","-0.9140625","-0.18554688","2.65625","3.65625","2.65625"
"1573730307831","591","0.28515625","-0.9550781","-0.21484375","0.78125","11.71875","-3.875"
"1573730307831","592","0.30859375","-0.96972656","-0.20703125","3.65625","8.71875","0.21875"
"1573730307831","593","0.24511719","-0.9394531","-0.1484375","3.21875","8.84375","-0.8125"
"1573730307831","594","0.36132812","-0.92871094","-0.24023438","4.1875","5.0","-4.21875"
"1573730307832","595","0.29785156","-0.9345703","-0.17382812","5.90625","3.34375","2.5"
"1573730307832","596","0.296875","-0.92871094","-0.14550781","9.09375","-1.59375","-4.59375"
"1573730307832","597","0.31347656","-0.9902344","-0.16308594","12.8125","-2.75","-3.5"
"1573730307832","598","0.2685547","-0.93847656","-0.11328125","12.25","1.625","-0.5625"
"1573730307833","599","0.31347656","-0.9814453","-0.119140625","11.53125","2.71875","-3.3125"
"1573730308228","600","0.26660156","-1.0185547","-0.16113281","3.03125","6.34375","-1.125"
"1573730308230","601","0.35839844","-0.9482422","-0.1171875","3.40625","9.03125","0.34375"
"1573730308230","602","0.2763672","-0.97265625","-0.10546875","2.0625","9.8125","-0.25"
"1573730308231","603","0.34570312","-0.9628906","-0.14648438","0.28125","5.34375","-1.46875"
"1573730308231","604","0.33496094","-0.9248047","-0.11425781","5.53125","3.09375","3.34375"
"1573730308231","605","0.24121094","-1.0039062","-0.08984375","-2.28125","11.09375","2.90625"
"1573730308231","606","0.328125","-1.0224609","-0.16503906","-11.78125","11.21875","-1.0"
"1573730308232","607","0.296875","-0.9316406","-0.1328125","-5.21875","7.3125","2.78125"
"1573730308232","608","0.26660156","-0.9189453","-0.14453125","-10.34375","19.9375","0.96875"
"1573730308232","609","0.3173828","-0.9560547","-0.16503906","-27.0","19.8125","0.90625"
"1573730308625","610","0.35351562","-0.96484375","-0.17089844","-20.46875","13.21875","-1.0"
"1573730308626","611","0.2783203","-0.92871094","-0.18847656","-9.84375","6.15625","1.15625"
"1573730308626","612","0.32910156","-0.9199219","-0.15429688","-6.84375","10.125","0.0"
"1573730308626","613","0.31933594","-0.9355469","-0.1875","-6.4375","3.9375","-1.1875"
"1573730308627","614","0.3173828","-0.9277344","-0.19433594","2.59375","-1.46875","-2.09375"
"1573730308628","615","0.32128906","-0.93066406","-0.1953125","-4.28125","-4.28125","-3.4375"
"1573730308628","616","0.30566406","-0.9238281","-0.19433594","-4.03125","-5.25","-2.875"
"1573730308628","617","0.3330078","-0.9326172","-0.20410156","-6.25","-4.34375","-3.0"
"1573730308628","618","0.328125","-0.9316406","-0.20605469","-3.0625","-5.09375","-1.59375"
"1573730308629","619","0.296875","-0.9404297","-0.20507812","-3.5","-3.5","-2.34375"
"1573730309022","620","0.3173828","-0.9785156","-0.17871094","-7.9375","-1.84375","-3.4375"
"1573730309022","621","0.31933594","-0.9785156","-0.19335938","-5.21875","-3.8125","-3.1875"
"1573730309022","622","0.3154297","-1.0283203","-0.19042969","-7.59375","1.03125","-2.21875"
"1573730309023","623","0.33398438","-1.0322266","-0.19726562","-3.8125","3.9375","-1.125"
"1573730309023","624","0.3154297","-1.0195312","-0.18066406","-3.5625","2.3125","-1.0"
"1573730309025","625","0.28808594","-0.96484375","-0.1640625","-3.6875","1.03125","-1.53125"
"1573730309025","626","0.28125","-0.9082031","-0.12207031","-10.625","0.71875","-1.90625"
"1573730309025","627","0.29589844","-0.8720703","-0.1796875","-9.28125","-3.5625","-2.21875"
"1573730309025","628","0.3251953","-0.92578125","-0.19433594","-5.09375","-4.28125","-0.3125"
"1573730309026","629","0.31054688","-0.96875","-0.17578125","-5.21875","-2.15625","0.46875"
"1573730309421","630","0.27734375","-1.0039062","-0.20703125","2.3125","-3.8125","-0.5"
"1573730309421","631","0.2626953","-0.953125","-0.18261719","-3.5","-2.625","-2.8125"
"1573730309421","632","0.32226562","-0.8652344","-0.20605469","-3.8125","-2.53125","-1.90625"
"1573730309421","633","0.2939453","-0.87109375","-0.21679688","1.09375","-5.3125","-0.875"
"1573730309422","634","0.2998047","-0.90722656","-0.21972656","-4.84375","-1.90625","-2.15625"
"1573730309422","635","0.3076172","-0.9326172","-0.21484375","-10.28125","1.8125","0.21875"
"1573730309422","636","0.26757812","-0.90625","-0.22558594","-6.96875","2.78125","0.09375"
"1573730309423","637","0.33007812","-0.96777344","-0.23535156","-3.4375","1.6875","-1.46875"
"1573730309424","638","0.29296875","-0.94140625","-0.20996094","-1.84375","5.53125","-0.75"
"1573730309424","639","0.31152344","-0.91015625","-0.2265625","-0.125","0.03125","-2.21875"
"1573730309819","640","0.33203125","-0.90234375","-0.21972656","2.25","-1.53125","-2.03125"
"1573730309820","641","0.28027344","-0.92871094","-0.21582031","0.34375","0.03125","-1.65625"
"1573730309820","642","0.3173828","-0.8964844","-0.20507812","-0.1875","-1.125","-0.8125"
"1573730309820","643","0.29003906","-0.9121094","-0.20019531","1.6875","-2.59375","-0.375"
"1573730309820","644","0.29101562","-0.94433594","-0.18164062","3.03125","0.34375","1.3125"
"1573730309821","645","0.28515625","-0.94140625","-0.18847656","7.4375","-1.65625","-0.4375"
"1573730309821","646","0.34277344","-0.92089844","-0.21191406","7.625","-6.90625","-0.8125"
"1573730309821","647","0.28320312","-0.9160156","-0.16992188","6.5","-6.90625","0.28125"
"1573730309822","648","0.2861328","-0.9238281","-0.1796875","6.40625","-7.46875","0.15625"
"1573730309823","649","0.27539062","-0.9160156","-0.20507812","8.09375","-5.75","0.65625"
"1573730310217","650","0.2763672","-0.90625","-0.21289062","-0.0625","-5.4375","0.0"
"1573730310217","651","0.32910156","-0.96875","-0.17285156","-10.4375","0.28125","0.09375"
"1573730310217","652","0.24609375","-0.9941406","-0.18847656","-4.71875","1.28125","0.03125"
"1573730310218","653","0.3310547","-0.90722656","-0.24121094","-3.90625","-1.34375","-1.34375"
"1573730310218","654","0.27148438","-0.90625","-0.21289062","-3.3125","2.375","-0.4375"
"1573730310218","655","0.28125","-0.9394531","-0.21972656","-8.75","6.8125","-2.59375"
"1573730310218","656","0.3310547","-0.94628906","-0.22167969","-4.65625","5.46875","-0.875"
"1573730310219","657","0.34179688","-0.95214844","-0.1875","-1.0","6.875","2.78125"
"1573730310219","658","0.17871094","-0.9482422","-0.16601562","2.4375","11.03125","4.5625"
"1573730310219","659","0.29296875","-0.8623047","-0.25","1.4375","7.125","-1.84375"
"1573730310613","660","0.28125","-0.91015625","-0.20703125","1.15625","11.9375","0.90625"
"1573730310613","661","0.3046875","-0.8769531","-0.15722656","-0.3125","11.65625","0.28125"
"1573730310614","662","0.2998047","-0.9550781","-0.16210938","0.34375","9.375","4.5625"
"1573730310615","663","0.31054688","-1.0009766","-0.18652344","-5.6875","14.4375","2.0"
"1573730310615","664","0.3076172","-0.95996094","-0.19921875","0.34375","8.84375","4.6875"
"1573730310616","665","0.26660156","-1.0029297","-0.19335938","0.90625","12.5","0.15625"
"1573730310616","666","0.34375","-0.9609375","-0.22070312","-4.78125","10.125","-2.6875"
"1573730310616","667","0.2919922","-0.95214844","-0.2109375","3.40625","1.6875","1.4375"
"1573730310616","668","0.3046875","-0.96191406","-0.16796875","-3.125","8.84375","-0.3125"
"1573730310617","669","0.24902344","-0.9707031","-0.15332031","-0.625","12.3125","3.46875"
"1573730311009","670","0.33398438","-0.99121094","-0.234375","-9.96875","3.40625","-1.59375"
"1573730311010","671","0.3125","-0.98046875","-0.22167969","-6.25","5.84375","3.03125"
"1573730311010","672","0.24316406","-0.94628906","-0.15429688","-0.9375","10.0","2.5"
"1573730311011","673","0.29296875","-0.8955078","-0.21191406","-2.9375","3.84375","1.15625"
"1573730311012","674","0.32226562","-0.9433594","-0.21679688","-3.8125","4.0625","1.03125"
"1573730311012","675","0.31445312","-0.9814453","-0.21679688","1.6875","7.8125","0.0"
"1573730311013","676","0.28808594","-0.9296875","-0.22070312","3.34375","2.65625","1.15625"
"1573730311013","677","0.3203125","-0.90722656","-0.20507812","1.4375","0.09375","0.40625"
"1573730311013","678","0.31933594","-0.9238281","-0.21289062","-0.875","3.34375","-1.53125"
"1573730311014","679","0.30859375","-0.9316406","-0.21875","-5.375","0.65625","-2.09375"
"1573730311407","680","0.3173828","-0.9394531","-0.23730469","-5.09375","-1.0625","-3.0"
"1573730311408","681","0.32910156","-0.9199219","-0.22265625","-5.375","-2.75","-3.875"
"1573730311408","682","0.28808594","-0.94628906","-0.2109375","-4.78125","-1.0625","-3.625"
"1573730311408","683","0.3095703","-0.9550781","-0.20507812","-8.25","-0.3125","-4.46875"
"1573730311408","684","0.29492188","-0.97265625","-0.1875","-3.875","-0.375","-3.0625"
"1573730311409","685","0.3076172","-0.9580078","-0.19726562","-1.1875","1.6875","-1.96875"
"1573730311410","686","0.29296875","-0.9716797","-0.20019531","-1.90625","-0.5625","-2.6875"
"1573730311410","687","0.2890625","-1.0048828","-0.16601562","0.46875","5.0625","-0.375"
"1573730311410","688","0.31347656","-0.98828125","-0.1875","-4.78125","5.1875","-0.5"
"1573730311411","689","0.3330078","-1.0117188","-0.20117188","0.65625","2.71875","-0.125"
"1573730312201","690","0.28710938","-1.0224609","-0.18164062","-3.0","5.0625","2.0"
"1573730312202","691","0.29589844","-0.9785156","-0.18945312","-0.375","5.96875","0.0"
"1573730312202","692","0.2841797","-0.9316406","-0.19433594","0.15625","2.65625","-1.0"
"1573730312202","693","0.31835938","-0.9267578","-0.19433594","2.1875","0.71875","-0.75"
"1573730312202","694","0.27929688","-0.9326172","-0.18261719","-0.1875","2.0","-1.0"
"1573730312203","695","0.31152344","-0.9316406","-0.21386719","-6.125","-3.0625","-1.59375"
"1573730312203","696","0.30664062","-0.93652344","-0.19824219","-5.25","-1.78125","-1.3125"
"1573730312204","697","0.23730469","-0.9160156","-0.16015625","-7.65625","-2.59375","-0.9375"
"1573730312204","698","0.2626953","-0.85546875","-0.20507812","-0.4375","-3.5625","-2.8125"
"1573730312204","699","0.27539062","-0.890625","-0.2109375","-3.0625","-4.34375","-2.28125"
"1573730312397","700","0.2919922","-0.91308594","-0.19042969","-6.3125","-0.875","-2.875"
"1573730312398","701","0.28515625","-0.95410156","-0.19628906","-4.96875","0.09375","-1.59375"
"1573730312398","702","0.30078125","-0.95410156","-0.21679688","-7.46875","0.59375","-1.125"
"1573730312398","703","0.28515625","-0.92089844","-0.20410156","-5.5625","-1.34375","-2.03125"
"1573730312399","704","0.26660156","-0.88671875","-0.18554688","-7.28125","-3.125","-2.6875"
"1573730312399","705","0.26953125","-0.9013672","-0.19726562","1.3125","0.0","-0.5625"
"1573730312399","706","0.25","-0.91015625","-0.1875","-3.5625","-1.0625","-0.125"
"1573730312399","707","0.27929688","-0.9296875","-0.20898438","-4.03125","-2.46875","-0.625"
"1573730312399","708","0.3310547","-0.95214844","-0.22753906","0.90625","-7.34375","-2.59375"
"1573730312401","709","0.29003906","-0.9394531","-0.19726562","7.3125","-8.4375","0.84375"
"1573730312601","710","0.26171875","-0.9003906","-0.21484375","7.75","-9.53125","0.0"
"1573730312601","711","0.23730469","-0.86621094","-0.21972656","6.15625","-8.25","1.3125"
"1573730312601","712","0.296875","-0.9355469","-0.22558594","0.84375","-2.34375","-1.96875"
"1573730312602","713","0.30078125","-0.9902344","-0.21582031","-6.0","-0.875","-0.9375"
"1573730312602","714","0.33984375","-0.9082031","-0.24609375","3.15625","-7.46875","-3.4375"
"1573730312602","715","0.29296875","-0.9785156","-0.20410156","2.71875","-2.34375","0.65625"
"1573730312602","716","0.2763672","-0.8730469","-0.22949219","3.9375","-5.8125","-1.46875"
"1573730312603","717","0.296875","-0.9238281","-0.22558594","-0.3125","-7.59375","-1.46875"
"1573730312603","718","0.3544922","-0.9511719","-0.24023438","-6.0625","-0.8125","-4.03125"
"1573730312603","719","0.27148438","-0.9560547","-0.18652344","2.5","-5.5625","-0.6875"
"1573730313194","720","0.2578125","-0.9091797","-0.22363281","2.0","-8.5625","-3.875"
"1573730313196","721","0.3173828","-0.9091797","-0.18554688","7.4375","-3.75","-3.1875"
"1573730313197","722","0.1640625","-0.8671875","-0.1953125","7.75","-2.6875","1.5625"
"1573730313197","723","0.37597656","-0.9736328","-0.21582031","-11.375","2.3125","-4.03125"
"1573730313197","724","0.26367188","-0.9794922","-0.15136719","0.65625","8.90625","1.875"
"1573730313198","725","0.19433594","-1.0224609","-0.2109375","-2.8125","13.59375","1.75"
"1573730313198","726","0.44726562","-1.0087891","-0.22265625","-10.03125","7.96875","-0.8125"
"1573730313198","727","0.21679688","-0.9970703","-0.19238281","2.3125","4.6875","3.65625"
"1573730313198","728","0.2919922","-0.9501953","-0.21875","6.09375","7.25","-1.96875"
"1573730313198","729","0.30859375","-0.89453125","-0.21484375","7.5","3.53125","2.0"
"1573730313395","730","0.24609375","-0.90234375","-0.15625","4.5625","8.34375","-0.5625"
"1573730313395","731","0.28027344","-0.9814453","-0.19433594","2.78125","8.21875","-0.8125"
"1573730313395","732","0.3046875","-0.984375","-0.15625","5.78125","8.21875","1.75"
"1573730313397","733","0.29101562","-0.97265625","-0.15722656","11.71875","5.34375","-1.3125"
"1573730313397","734","0.28222656","-0.9824219","-0.17578125","16.9375","5.65625","-0.4375"
"1573730313397","735","0.3173828","-0.9375","-0.17871094","15.65625","4.6875","-0.5625"
"1573730313397","736","0.27539062","-0.9375","-0.15527344","16.84375","10.0625","0.21875"
"1573730313398","737","0.3046875","-0.9501953","-0.16308594","7.25","8.59375","1.4375"
"1573730313398","738","0.3359375","-0.98828125","-0.13574219","6.15625","5.21875","0.0"
"1573730313398","739","0.2939453","-0.94433594","-0.15722656","9.25","4.25","2.0"
"1573730313794","740","0.2919922","-0.9345703","-0.14746094","11.59375","6.15625","1.75"
"1573730313794","741","0.34472656","-0.95703125","-0.140625","8.84375","5.90625","1.625"
"1573730313794","742","0.31347656","-0.93652344","-0.14257812","5.40625","2.65625","-0.375"
"1573730313795","743","0.33496094","-0.94140625","-0.14355469","-0.625","4.6875","-0.1875"
"1573730313795","744","0.31445312","-0.9345703","-0.14550781","-6.1875","4.25","-1.53125"
"1573730313796","745","0.31835938","-0.9472656","-0.14746094","-12.46875","1.28125","-2.46875"
"1573730313797","746","0.32226562","-0.9189453","-0.15039062","-8.8125","0.21875","-2.21875"
"1573730313797","747","0.29785156","-0.9423828","-0.14746094","-8.4375","1.28125","-2.40625"
"1573730313797","748","0.32421875","-0.953125","-0.13867188","-12.40625","2.65625","-2.59375"
"1573730313797","749","0.29882812","-0.9433594","-0.12109375","-13.6875","2.4375","-1.1875"
"1573730314191","750","0.28710938","-0.94628906","-0.13769531","-6.375","1.03125","-1.34375"
"1573730314191","751","0.31347656","-0.93652344","-0.14941406","-7.03125","0.0","-1.125"
"1573730314192","752","0.31445312","-0.9404297","-0.14550781","-5.3125","0.90625","1.21875"
"1573730314192","753","0.29101562","-0.95410156","-0.12988281","-4.84375","1.03125","1.15625"
"1573730314192","754","0.30664062","-0.9892578","-0.13671875","-7.21875","2.0","1.09375"
"1573730314192","755","0.29785156","-1.0175781","-0.12890625","-7.09375","5.28125","0.84375"
"1573730314193","756","0.2841797","-1.0429688","-0.12695312","-9.125","7.5","0.34375"
"1573730314194","757","0.31640625","-1.0927734","-0.123046875","-11.625","10.96875","-0.25"
"1573730314194","758","0.3017578","-0.99609375","-0.13769531","-2.8125","5.59375","1.4375"
"1573730314195","759","0.2734375","-0.9560547","-0.14453125","1.75","2.25","2.375"
"1573730314784","760","0.2861328","-0.9316406","-0.13183594","-2.8125","6.40625","1.4375"
"1573730314785","761","0.265625","-0.93847656","-0.14746094","-1.84375","3.9375","-0.375"
"1573730314785","762","0.2626953","-0.9238281","-0.12792969","-4.84375","1.3125","0.34375"
"1573730314786","763","0.28222656","-0.9082031","-0.14941406","-6.84375","0.71875","-0.875"
"1573730314786","764","0.28125","-0.92578125","-0.14941406","-4.65625","-2.09375","-1.40625"
"1573730314786","765","0.2626953","-0.93847656","-0.15234375","-9.40625","-3.625","-1.96875"
"1573730314786","766","0.27441406","-0.9638672","-0.15332031","-10.21875","-2.9375","-2.875"
"1573730314786","767","0.2607422","-0.9736328","-0.16992188","-11.125","-3.4375","-3.4375"
"1573730314787","768","0.29101562","-0.9423828","-0.17675781","-5.375","-5.21875","-2.625"
"1573730314788","769","0.24902344","-0.9707031","-0.16503906","-5.75","-1.84375","-1.65625"
"1573730314987","770","0.28125","-0.92285156","-0.17871094","-2.28125","-4.28125","-3.0"
"1573730314987","771","0.28515625","-0.9199219","-0.16210938","1.3125","-7.8125","-0.75"
"1573730314987","772","0.25878906","-0.87109375","-0.15917969","3.65625","-8.0","-1.46875"
"1573730314988","773","0.25195312","-0.8300781","-0.17089844","3.65625","-6.25","-1.34375"
"1573730314988","774","0.2685547","-0.86328125","-0.16308594","-1.78125","-5.5625","0.21875"
"1573730314988","775","0.25","-0.9199219","-0.14648438","-3.5625","1.28125","0.0"
"1573730314988","776","0.296875","-0.91308594","-0.17773438","-3.5625","-0.9375","0.09375"
"1573730314989","777","0.36621094","-0.9248047","-0.14550781","-1.59375","-1.59375","0.21875"
"1573730314989","778","0.18261719","-1.0488281","-0.13671875","-0.9375","2.59375","0.96875"
"1573730314989","779","0.2578125","-0.8808594","-0.20117188","2.3125","-3.96875","-3.875"
"1573730315582","780","0.39160156","-1.0234375","-0.18652344","-3.4375","-0.0625","-1.1875"
"1573730315584","781","0.21875","-0.91503906","-0.16992188","0.34375","-2.8125","-2.9375"
"1573730315584","782","0.33984375","-0.92871094","-0.1953125","-2.34375","-7.21875","-3.96875"
"1573730315585","783","0.2578125","-0.953125","-0.1875","-0.8125","-5.15625","-1.3125"
"1573730315585","784","0.21777344","-0.91503906","-0.19433594","-1.34375","-4.53125","-1.53125"
"1573730315585","785","0.3076172","-0.9394531","-0.20898438","-5.875","-2.15625","-4.84375"
"1573730315585","786","0.29296875","-0.9609375","-0.18554688","-4.03125","-0.4375","-1.53125"
"1573730315586","787","0.24707031","-0.9560547","-0.1875","-0.4375","1.9375","0.21875"
"1573730315586","788","0.27539062","-0.94140625","-0.21386719","-4.90625","3.46875","-1.0625"
"1573730315586","789","0.29101562","-0.96777344","-0.18945312","3.09375","5.78125","-1.40625"
"1573730315780","790","0.2705078","-0.9628906","-0.16894531","4.8125","6.34375","1.625"
"1573730315780","791","0.26953125","-0.9453125","-0.16699219","10.84375","4.9375","0.28125"
"1573730315781","792","0.28710938","-0.95214844","-0.1796875","6.46875","9.9375","-0.625"
"1573730315782","793","0.2919922","-0.9746094","-0.18261719","0.34375","7.90625","-0.75"
"1573730315782","794","0.2890625","-0.9716797","-0.16113281","2.5625","5.40625","1.4375"
"1573730315783","795","0.2890625","-0.9472656","-0.1640625","5.34375","9.8125","0.34375"
"1573730315783","796","0.30273438","-0.9667969","-0.14648438","3.21875","4.875","1.3125"
"1573730315783","797","0.24511719","-0.95996094","-0.15039062","4.5625","7.5","0.40625"
"1573730315783","798","0.3251953","-0.95996094","-0.15527344","4.5625","9.8125","1.03125"
"1573730315784","799","0.32910156","-1.0371094","-0.15136719","-2.9375","11.75","-0.25"
"1573730316376","800","0.2421875","-0.96484375","-0.16015625","2.84375","10.0625","0.71875"
"1573730316377","801","0.35253906","-0.9111328","-0.16699219","-2.875","4.625","0.09375"
"1573730316377","802","0.3486328","-0.94921875","-0.19628906","-1.96875","2.84375","-3.125"
"1573730316378","803","0.30566406","-0.9482422","-0.20214844","-10.625","4.875","-2.21875"
"1573730316378","804","0.3251953","-0.93847656","-0.22167969","-16.4375","8.40625","-1.40625"
"1573730316379","805","0.3251953","-0.91308594","-0.21679688","-24.4375","6.75","0.0"
"1573730316379","806","0.3408203","-0.9316406","-0.22460938","-10.9375","7.75","-3.4375"
"1573730316379","807","0.29589844","-0.92089844","-0.23046875","-21.375","6.75","-2.75"
"1573730316379","808","0.328125","-0.92089844","-0.19921875","-19.71875","6.09375","-2.8125"
"1573730316380","809","0.3232422","-0.93847656","-0.21972656","-5.15625","5.53125","-2.625"
"1573730316575","810","0.30273438","-0.9423828","-0.20507812","-4.90625","4.875","-0.5625"
"1573730316576","811","0.32128906","-0.9550781","-0.20800781","-5.03125","4.125","-2.28125"
"1573730316576","812","0.31152344","-0.9580078","-0.1953125","-2.53125","4.5","-1.3125"
"1573730316577","813","0.296875","-0.9707031","-0.18359375","-2.8125","4.5","-0.375"
"1573730316577","814","0.31835938","-0.99902344","-0.20214844","-1.34375","3.84375","-0.875"
"1573730316577","815","0.31445312","-1.0429688","-0.18652344","-1.1875","4.1875","0.0"
"1573730316577","816","0.35351562","-1.0146484","-0.19335938","2.84375","0.03125","0.0"
"1573730316579","817","0.2890625","-0.96191406","-0.16308594","2.0","-3.125","0.78125"
"1573730316579","818","0.2919922","-0.9082031","-0.16601562","7.625","-2.46875","1.875"
"1573730316579","819","0.26660156","-0.9121094","-0.16113281","-1.0625","-2.53125","-0.125"
"1573730316972","820","0.28027344","-0.93847656","-0.171875","2.4375","0.15625","-0.5"
"1573730316973","821","0.26953125","-0.92089844","-0.16699219","1.5625","-0.25","-1.53125"
"1573730316973","822","0.32714844","-0.9667969","-0.18652344","13.09375","-1.90625","-2.53125"
"1573730316973","823","0.265625","-0.9326172","-0.17480469","15.375","-2.53125","-0.125"
"1573730316974","824","0.29101562","-0.9560547","-0.17285156","17.8125","-6.0","0.46875"
"1573730316974","825","0.26464844","-0.94433594","-0.123046875","12.625","1.6875","-0.1875"
"1573730316974","826","0.31054688","-0.96777344","-0.13574219","1.15625","2.90625","-0.8125"
"1573730316974","827","0.28515625","-0.9316406","-0.10253906","2.0","2.25","1.09375"
"1573730316975","828","0.27148438","-0.9199219","-0.12011719","-2.09375","-1.53125","0.0"
"1573730316975","829","0.3046875","-0.90722656","-0.15039062","-5.625","-3.5","0.96875"
"1573730317369","830","0.26367188","-0.9121094","-0.12695312","-7.9375","-1.25","0.0"
"1573730317370","831","0.30664062","-0.9238281","-0.14648438","-7.46875","-1.65625","-1.90625"
"1573730317370","832","0.24902344","-0.8876953","-0.15917969","-3.5625","-3.3125","-1.1875"
"1573730317370","833","0.2734375","-0.9248047","-0.16113281","-6.0","-1.40625","-1.65625"
"1573730317370","834","0.30371094","-0.97265625","-0.16113281","-10.5","1.28125","-1.25"
"1573730317371","835","0.22265625","-0.9589844","-0.115234375","-9.0625","4.625","-0.1875"
"1573730317371","836","0.29882812","-0.9453125","-0.15917969","-3.0","-0.5","-1.40625"
"1573730317371","837","0.2734375","-0.92285156","-0.15234375","-4.34375","-0.0625","-0.625"
"1573730317371","838","0.25390625","-0.9160156","-0.16894531","-3.125","-3.0","-0.8125"
"1573730317372","839","0.26171875","-0.8671875","-0.18847656","-0.5625","-5.5625","-1.53125"
"1573730317768","840","0.28320312","-0.92871094","-0.17285156","-3.875","-3.875","-2.625"
"1573730317770","841","0.29492188","-0.9550781","-0.14941406","-4.84375","-2.03125","0.78125"
"1573730317771","842","0.25195312","-0.91503906","-0.1640625","0.65625","-4.90625","-0.625"
"1573730317771","843","0.31152344","-0.93652344","-0.21484375","-1.53125","-7.8125","1.21875"
"1573730317771","844","0.265625","-0.9511719","-0.13769531","-1.125","6.09375","1.5"
"1573730317771","845","0.16210938","-0.9091797","-0.17773438","-1.90625","-1.46875","4.4375"
"1573730317772","846","0.43652344","-1.0419922","-0.23046875","-17.40625","7.3125","-5.6875"
"1573730317772","847","0.23144531","-0.9746094","-0.15429688","0.34375","0.53125","2.4375"
"1573730317772","848","0.3359375","-0.9111328","-0.1875","4.125","-6.65625","-3.375"
"1573730317773","849","0.3330078","-0.921875","-0.1875","5.53125","-5.4375","1.375"
"1573730318166","850","0.17285156","-0.9160156","-0.14550781","6.625","-2.75","1.5"
"1573730318167","851","0.33496094","-0.95703125","-0.203125","2.25","-4.46875","-0.6875"
"1573730318167","852","0.23535156","-0.9970703","-0.14746094","1.3125","4.125","3.90625"
"1573730318168","853","0.29003906","-1.0185547","-0.18066406","-5.8125","6.28125","-2.59375"
"1573730318169","854","0.36914062","-1.0175781","-0.20800781","5.90625","4.5625","-0.5625"
"1573730318169","855","0.22753906","-0.9638672","-0.140625","6.6875","4.8125","2.125"
"1573730318169","856","0.32617188","-0.92578125","-0.15820312","0.15625","5.46875","0.40625"
"1573730318169","857","0.24414062","-0.9453125","-0.17480469","3.03125","2.1875","2.3125"
"1573730318170","858","0.27929688","-0.9248047","-0.17773438","0.28125","0.96875","0.65625"
"1573730318170","859","0.2919922","-0.93066406","-0.1640625","2.65625","0.65625","-0.875"
"1573730318957","860","0.28027344","-0.9824219","-0.16503906","-2.03125","-0.5625","-1.125"
"1573730318957","861","0.31933594","-0.9794922","-0.16503906","-0.6875","-1.59375","0.84375"
"1573730318958","862","0.28027344","-0.9892578","-0.17382812","-2.6875","-0.4375","-1.40625"
"1573730318958","863","0.27734375","-0.953125","-0.18359375","0.21875","-2.34375","0.0"
"1573730318958","864","0.28710938","-0.92578125","-0.16992188","5.28125","-3.5625","0.65625"
"1573730318961","865","0.2861328","-0.92578125","-0.1796875","2.84375","0.28125","-0.625"
"1573730318962","866","0.27929688","-1.0048828","-0.18945312","1.03125","3.03125","-1.1875"
"1573730318962","867","0.2919922","-0.95410156","-0.19238281","3.59375","1.375","-1.3125"
"1573730318962","868","0.29492188","-0.9404297","-0.20410156","4.875","2.84375","-1.46875"
"1573730318963","869","0.29003906","-0.93847656","-0.20019531","-0.375","6.75","-1.3125"
"1573730319156","870","0.29589844","-0.9482422","-0.19824219","-6.4375","8.53125","-0.9375"
"1573730319157","871","0.29882812","-0.953125","-0.19140625","-9.53125","6.5","-2.53125"
"1573730319157","872","0.31445312","-0.9248047","-0.20898438","-5.625","5.53125","-2.53125"
"1573730319157","873","0.26367188","-0.94921875","-0.18261719","-10.8125","6.21875","-1.65625"
"1573730319158","874","0.28808594","-0.96191406","-0.15625","-9.21875","8.84375","-2.21875"
"1573730319158","875","0.3076172","-0.9921875","-0.18847656","-9.0625","6.75","-2.625"
"1573730319158","876","0.28515625","-0.9921875","-0.1796875","-3.625","5.46875","-1.90625"
"1573730319159","877","0.2998047","-1.0039062","-0.15820312","-3.3125","5.96875","-1.46875"
"1573730319160","878","0.29492188","-1.03125","-0.16796875","-6.1875","7.96875","-1.3125"
"1573730319160","879","0.328125","-1.0449219","-0.16894531","-4.71875","8.28125","-0.9375"
"1573730319358","880","0.3125","-1.0253906","-0.16699219","2.5625","6.15625","0.78125"
"1573730319359","881","0.28320312","-0.9628906","-0.15234375","3.34375","9.25","0.65625"
"1573730319359","882","0.2841797","-0.9160156","-0.16796875","1.375","11.53125","0.84375"
"1573730319359","883","0.27539062","-0.9355469","-0.1484375","0.84375","11.9375","0.0"
"1573730319360","884","0.26757812","-0.91796875","-0.11328125","-0.3125","8.65625","0.15625"
"1573730319360","885","0.24414062","-0.9013672","-0.16601562","-0.375","9.3125","-3.25"
"1573730319360","886","0.3330078","-0.9189453","-0.19140625","-9.59375","7.625","-3.75"
"1573730319360","887","0.265625","-0.90722656","-0.11621094","-12.15625","8.78125","-2.09375"
"1573730319360","888","0.2783203","-0.90625","-0.16699219","-8.125","2.0625","-2.875"
"1573730319362","889","0.29882812","-0.9375","-0.1484375","-4.46875","2.0625","0.15625"
"1573730319756","890","0.25390625","-0.9375","-0.13671875","-2.40625","0.84375","0.0"
"1573730319756","891","0.27148438","-0.9140625","-0.14648438","-2.03125","2.1875","-0.25"
"1573730319757","892","0.28027344","-0.92285156","-0.14550781","-0.625","3.71875","-0.5"
"1573730319757","893","0.31347656","-0.92285156","-0.15136719","-3.25","-1.78125","-0.6875"
"1573730319757","894","0.23730469","-0.9375","-0.1171875","-1.0625","-0.25","0.65625"
"1573730319757","895","0.2861328","-0.9501953","-0.13867188","-0.8125","-4.53125","-1.46875"
"1573730319758","896","0.26464844","-0.9482422","-0.14160156","1.5","-2.9375","0.0"
"1573730319758","897","0.29589844","-0.95214844","-0.1484375","-0.0625","-4.15625","-2.46875"
"1573730319758","898","0.265625","-0.96777344","-0.13574219","0.46875","-3.5625","0.21875"
"1573730319758","899","0.2548828","-0.9238281","-0.12597656","0.90625","0.34375","-0.25"
"1573730320152","900","0.2763672","-0.9433594","-0.1484375","4.1875","-0.125","0.46875"
"1573730320156","901","0.28027344","-0.95996094","-0.12695312","-0.8125","1.5","0.21875"
"1573730320156","902","0.25390625","-0.9814453","-0.1328125","0.15625","0.90625","1.09375"
"1573730320157","903","0.2919922","-0.96875","-0.13476562","0.53125","2.1875","1.3125"
"1573730320157","904","0.27929688","-0.92871094","-0.14453125","1.4375","0.34375","1.3125"
"1573730320158","905","0.2998047","-0.94628906","-0.1328125","0.40625","0.65625","0.34375"
"1573730320158","906","0.27441406","-0.93652344","-0.12890625","-1.96875","0.90625","0.65625"
"1573730320158","907","0.2626953","-0.81152344","-0.14355469","5.0","-6.65625","0.90625"
"1573730320158","908","0.28808594","-0.9638672","-0.13378906","0.0","3.21875","-0.8125"
"1573730320159","909","0.2685547","-0.89160156","-0.09863281","-7.28125","2.59375","0.15625"
"1573730320551","910","0.17285156","-0.8261719","-0.12695312","2.96875","0.53125","2.65625"
"1573730320552","911","0.32714844","-0.97753906","-0.13476562","-0.25","5.0","-1.46875"
"1573730320552","912","0.22167969","-0.9248047","-0.08984375","1.5","10.59375","6.34375"
"1573730320552","913","0.17871094","-0.96972656","-0.111328125","2.25","10.46875","1.6875"
"1573730320553","914","0.35839844","-1.0371094","-0.16796875","0.78125","7.5","1.8125"
"1573730320553","915","0.28710938","-1.1240234","-0.13183594","-3.0","11.875","2.4375"
"1573730320553","916","0.30273438","-1.0234375","-0.06640625","14.03125","-1.125","3.03125"
"1573730320553","917","0.19042969","-0.9814453","-0.0859375","28.5625","-1.90625","10.59375"
"1573730320554","918","0.24511719","-0.93847656","-0.068359375","30.3125","1.625","12.875"
"1573730320554","919","0.2841797","-0.8955078","-0.08300781","36.0625","-10.4375","14.3125"
