"# PR data"
"# Start time: 20191128T213427"
"# Subject: rim"
"# Activity type: Leg slide"
"# Correctness: Correct"
"# Notes: "
""
"timestamp","seq","accel_x","accel_y","accel_z","gyro_x","gyro_y","gyro_z"
"1574973268062","0","0.0625","-1.3837891","-0.23535156","13.5","-9.90625","-12.625"
"1574973268065","1","0.2109375","-0.88378906","-0.13183594","18.8125","-36.5625","-5.78125"
"1574973268066","2","0.35058594","-0.6738281","-0.005859375","-10.34375","-17.34375","-23.84375"
"1574973268066","3","0.24511719","-1.0068359","-0.0126953125","-37.4375","-6.21875","-19.375"
"1574973268066","4","-0.078125","-1.3798828","-0.26171875","-26.15625","3.96875","-9.875"
"1574973268066","5","-0.0029296875","-1.1005859","-0.28222656","-5.90625","-18.125","-6.375"
"1574973268067","6","0.34570312","-0.7060547","-0.059570312","-8.34375","-32.125","-15.125"
"1574973268067","7","0.36328125","-0.78515625","-0.08691406","-16.9375","3.34375","-16.40625"
"1574973268067","8","0.05078125","-1.0585938","-0.20605469","-23.71875","10.5","-11.40625"
"1574973268068","9","0.038085938","-1.0888672","-0.27148438","-7.71875","3.09375","-0.65625"
"1574973268459","10","0.23046875","-0.94921875","-0.16699219","-6.625","-3.4375","3.4375"
"1574973268459","11","0.23339844","-0.9423828","-0.16308594","-9.125","10.8125","1.65625"
"1574973268460","12","0.13671875","-0.98339844","-0.18261719","-3.6875","11.71875","5.5625"
"1574973268461","13","0.19824219","-0.96484375","-0.19921875","2.65625","1.46875","1.1875"
"1574973268461","14","0.25585938","-0.93359375","-0.18261719","3.6875","0.0","-4.4375"
"1574973268461","15","0.23339844","-1.0019531","-0.23046875","-2.78125","1.09375","-3.625"
"1574973268462","16","0.17871094","-0.984375","-0.19824219","1.65625","0.0","-0.65625"
"1574973268462","17","0.17675781","-0.95410156","-0.21386719","1.0","-2.5625","0.3125"
"1574973268462","18","0.22949219","-0.9628906","-0.21875","-2.0625","-3.125","1.84375"
"1574973268462","19","0.22167969","-0.9658203","-0.23046875","-0.65625","-3.375","-0.21875"
"1574973269054","20","0.21191406","-0.9638672","-0.20800781","-1.875","-5.25","-2.65625"
"1574973269054","21","0.20019531","-0.96777344","-0.21484375","-8.15625","-4.21875","-3.03125"
"1574973269054","22","0.21679688","-0.98046875","-0.24707031","-0.03125","-5.125","-2.0"
"1574973269055","23","0.20214844","-0.94921875","-0.22265625","-2.40625","-7.03125","-1.9375"
"1574973269055","24","0.19628906","-0.9628906","-0.23925781","-2.84375","-3.1875","-1.6875"
"1574973269056","25","0.20703125","-0.97558594","-0.2421875","-1.8125","-2.6875","-0.53125"
"1574973269057","26","0.20117188","-0.9511719","-0.23046875","-0.90625","-2.15625","-0.40625"
"1574973269057","27","0.20996094","-0.95214844","-0.23925781","-0.28125","-3.1875","-0.28125"
"1574973269057","28","0.20898438","-0.95996094","-0.23242188","0.21875","-1.03125","0.3125"
"1574973269057","29","0.20703125","-0.9580078","-0.234375","2.03125","-1.09375","0.5"
"1574973269258","30","0.21582031","-0.9550781","-0.23242188","0.28125","-1.21875","0.6875"
"1574973269258","31","0.20996094","-0.9580078","-0.22753906","-0.34375","0.0625","0.03125"
"1574973269259","32","0.19335938","-0.9511719","-0.21582031","-0.65625","2.25","-0.71875"
"1574973269259","33","0.16894531","-0.9394531","-0.16308594","-0.34375","18.25","-3.53125"
"1574973269259","34","0.18164062","-0.98046875","-0.21191406","10.34375","19.78125","-1.6875"
"1574973269259","35","0.13867188","-0.9589844","-0.24511719","19.4375","8.1875","5.6875"
"1574973269260","36","0.19335938","-0.9082031","-0.20605469","28.40625","13.0","7.71875"
"1574973269260","37","0.234375","-0.8574219","-0.14648438","45.5","5.90625","1.375"
"1574973269261","38","0.24707031","-0.9091797","-0.12890625","63.1875","5.25","-1.875"
"1574973269261","39","0.40234375","-1.0537109","-0.1796875","70.34375","-17.09375","-0.46875"
"1574973269652","40","0.42285156","-1.0986328","0.0234375","31.5625","-2.9375","-12.71875"
"1574973269653","41","0.1875","-1.0351562","-0.041992188","22.65625","-16.96875","-8.9375"
"1574973269653","42","0.13574219","-0.98339844","-0.10058594","21.875","-13.3125","11.0"
"1574973269654","43","0.27539062","-0.8955078","-0.037109375","12.96875","-12.34375","12.65625"
"1574973269654","44","0.33203125","-0.8652344","0.0546875","-0.28125","-29.84375","-4.375"
"1574973269654","45","0.140625","-0.83691406","0.0146484375","12.28125","-30.21875","-2.84375"
"1574973269654","46","0.00390625","-0.6308594","-0.14160156","19.625","-33.5625","14.3125"
"1574973269655","47","0.3017578","-0.7421875","0.051757812","-14.625","-12.40625","12.40625"
"1574973269655","48","0.38183594","-0.9824219","0.06933594","-20.96875","11.84375","-5.90625"
"1574973269657","49","0.08984375","-0.95214844","-0.06542969","4.0","3.28125","23.21875"
"1574973270050","50","-0.03515625","-0.9814453","0.17578125","6.625","20.6875","21.8125"
"1574973270053","51","0.25683594","-1.3056641","-0.047851562","7.09375","38.1875","4.78125"
"1574973270053","52","0.22851562","-1.5830078","-0.3486328","6.375","10.75","8.375"
"1574973270054","53","0.38183594","-1.3222656","-0.09667969","0.21875","-7.40625","12.46875"
"1574973270054","54","0.0625","-1.2519531","0.0068359375","-17.375","-9.28125","12.96875"
"1574973270054","55","-0.09082031","-1.4355469","-0.22167969","3.3125","-18.1875","2.34375"
"1574973270054","56","0.10253906","-1.3134766","-0.10839844","5.9375","-16.1875","9.125"
"1574973270055","57","0.4140625","-1.1259766","0.12597656","19.625","-26.9375","2.90625"
"1574973270055","58","0.4296875","-0.99121094","0.13183594","-1.625","-8.1875","-7.59375"
"1574973270055","59","0.15234375","-0.859375","-0.01171875","19.75","-30.09375","-8.09375"
"1574973270448","60","0.078125","-0.52441406","0.09765625","41.03125","-25.03125","10.59375"
"1574973270449","61","0.08886719","-0.45117188","0.09082031","42.375","-33.9375","21.4375"
"1574973270449","62","0.060546875","-0.6591797","0.07128906","2.71875","-0.6875","5.9375"
"1574973270449","63","0.125","-1.0322266","-0.017578125","-10.21875","21.34375","2.15625"
"1574973270450","64","0.21484375","-1.2753906","-0.025390625","-14.8125","24.40625","9.65625"
"1574973270450","65","0.22558594","-1.140625","-0.045898438","-12.5","8.1875","6.125"
"1574973270450","66","0.16894531","-1.0234375","0.0087890625","-21.40625","1.46875","3.9375"
"1574973270451","67","0.08886719","-1.046875","-0.08300781","-33.3125","-4.71875","-0.96875"
"1574973270451","68","0.005859375","-1.0908203","-0.09375","-20.0625","-11.125","5.5625"
"1574973270451","69","0.296875","-0.85839844","0.0625","-26.28125","-18.6875","-6.6875"
"1574973270845","70","0.34179688","-0.81152344","0.10253906","-8.21875","-16.90625","-11.09375"
"1574973270846","71","0.10546875","-1.0068359","-0.038085938","-24.75","-1.71875","-6.15625"
"1574973270846","72","-0.103515625","-1.0371094","-0.091796875","-3.9375","-3.71875","16.25"
"1574973270847","73","-0.0546875","-1.0068359","-0.057617188","-1.5625","-0.375","34.03125"
"1574973270848","74","-0.038085938","-0.94628906","-0.0068359375","5.46875","24.34375","46.03125"
"1574973270848","75","-0.0048828125","-0.9580078","0.0048828125","19.3125","45.84375","67.46875"
"1574973270848","76","0.026367188","-0.9902344","-0.18652344","-13.34375","28.625","80.28125"
"1574973270848","77","0.4404297","-1.1992188","-0.18652344","-12.625","19.78125","49.40625"
"1574973270849","78","0.20214844","-0.8691406","-0.064453125","-3.8125","-5.3125","19.0"
"1574973270849","79","-0.3486328","-0.7246094","-0.091796875","8.375","-4.8125","13.15625"
"1574973271242","80","-0.107421875","-0.7138672","-0.1953125","10.59375","-20.15625","29.125"
"1574973271242","81","0.1953125","-0.72558594","-0.11621094","-15.90625","7.4375","13.9375"
"1574973271242","82","0.038085938","-0.8027344","-0.119140625","4.84375","-23.625","-16.53125"
"1574973271243","83","-0.1640625","-0.8408203","-0.13183594","-11.21875","-39.5","-16.8125"
"1574973271243","84","-0.203125","-1.0146484","-0.22460938","-7.65625","-30.59375","-17.6875"
"1574973271244","85","0.055664062","-1.3261719","-0.103515625","-41.84375","-13.625","-10.65625"
"1574973271244","86","-0.17089844","-1.4267578","0.0625","-0.03125","-39.5","2.84375"
"1574973271245","87","-0.53027344","-1.4306641","-0.080078125","27.625","-20.5625","-2.1875"
"1574973271245","88","-0.19433594","-1.5644531","-0.22753906","1.25","34.53125","14.5"
"1574973271245","89","0.037109375","-1.4101562","-0.14648438","0.875","37.84375","6.1875"
"1574973271639","90","-0.10644531","-1.296875","-0.18066406","7.09375","2.125","-2.96875"
"1574973271640","91","-0.13476562","-1.1376953","-0.23242188","0.6875","-9.15625","-10.15625"
"1574973271640","92","-0.078125","-0.9824219","-0.19628906","-15.0","11.21875","-13.46875"
"1574973271640","93","-0.1171875","-0.8671875","-0.13574219","-18.46875","12.875","-6.625"
"1574973271641","94","-0.103515625","-0.6425781","-0.10449219","-3.46875","-3.90625","5.75"
"1574973271641","95","-9.765625E-4","-0.453125","-0.029296875","-4.0","-5.75","7.28125"
"1574973271641","96","0.14355469","-0.53808594","-0.055664062","-10.59375","-2.09375","-4.5625"
"1574973271642","97","0.25195312","-0.8183594","-0.17871094","4.71875","-27.84375","-38.84375"
"1574973271642","98","0.0","-1.0410156","-0.072265625","-18.40625","4.625","-63.15625"
"1574973271642","99","-0.09765625","-1.3535156","-0.234375","-36.0625","12.03125","-57.78125"
"1574973272038","100","-0.18554688","-1.4072266","-0.10253906","3.5","-8.375","-21.21875"
"1574973272038","101","-0.060546875","-0.85546875","-0.22753906","51.21875","-60.96875","6.8125"
"1574973272039","102","0.29589844","-0.5439453","-0.22167969","10.34375","-8.90625","-9.0625"
"1574973272039","103","0.15722656","-0.8261719","-0.1171875","-41.46875","54.125","-37.6875"
"1574973272039","104","-0.08984375","-1.2314453","-0.15820312","-10.46875","29.59375","-17.6875"
"1574973272039","105","-0.0048828125","-1.140625","-0.20898438","22.84375","-8.78125","9.1875"
"1574973272040","106","0.16699219","-0.9824219","-0.2548828","38.21875","1.09375","8.375"
"1574973272040","107","0.2998047","-0.8310547","-0.032226562","34.15625","23.625","-12.25"
"1574973272040","108","0.26953125","-0.8300781","-0.07324219","30.46875","12.09375","-29.15625"
"1574973272041","109","0.15820312","-0.9423828","-0.08105469","57.15625","-26.3125","-38.0"
"1574973272631","110","0.3544922","-0.97558594","-0.047851562","96.9375","-47.0625","-32.875"
"1574973272631","111","0.4482422","-1.1621094","0.18164062","45.25","-46.34375","-26.09375"
"1574973272632","112","0.091796875","-1.1181641","0.095703125","19.5","-78.0625","-38.125"
"1574973272632","113","-0.001953125","-1.0292969","-0.028320312","48.53125","-72.75","-12.5"
"1574973272632","114","0.057617188","-0.84277344","-0.037109375","38.53125","-40.40625","14.96875"
"1574973272632","115","0.11035156","-0.66308594","0.046875","22.96875","-39.625","31.40625"
"1574973272632","116","0.16992188","-0.47070312","-0.00390625","13.375","-33.8125","21.25"
"1574973272634","117","0.22070312","-0.6689453","0.123046875","-16.875","-10.125","20.40625"
"1574973272634","118","0.37890625","-1.2470703","0.20800781","-30.625","16.84375","-3.46875"
"1574973272634","119","0.16699219","-1.078125","0.08496094","3.6875","1.9375","23.46875"
"1574973272833","120","-0.080078125","-0.9238281","0.18554688","27.0625","-13.9375","62.15625"
"1574973272834","121","0.33691406","-0.9277344","0.18554688","-0.03125","46.5","13.75"
"1574973272835","122","0.4580078","-1.8095703","-0.23925781","-65.71875","75.375","-30.4375"
"1574973272835","123","-0.27441406","-1.6132812","-0.28808594","-2.59375","-64.53125","53.1875"
"1574973272835","124","0.12695312","-1.1699219","0.09082031","-0.84375","-60.0","24.375"
"1574973272835","125","0.16308594","-1.2148438","0.00390625","-0.53125","16.84375","-2.40625"
"1574973272835","126","9.765625E-4","-1.1855469","-0.017578125","7.09375","-10.1875","-8.09375"
"1574973272836","127","0.3046875","-1.2695312","0.06933594","-20.71875","6.84375","-7.1875"
"1574973272836","128","0.25585938","-1.2792969","0.08886719","-19.4375","-2.8125","-10.0"
"1574973272836","129","0.19433594","-1.0351562","0.01953125","12.09375","-43.875","-9.25"
"1574973273230","130","0.14257812","-0.7207031","0.20019531","13.28125","-23.25","-3.59375"
"1574973273230","131","-0.0068359375","-0.42382812","0.09082031","24.875","-6.40625","-9.0"
"1574973273230","132","0.0","-0.3828125","-0.091796875","29.625","-11.34375","-5.71875"
"1574973273231","133","0.06347656","-0.671875","-0.0078125","-8.53125","29.96875","-0.59375"
"1574973273232","134","0.10839844","-1.0537109","0.001953125","-23.0625","60.25","5.21875"
"1574973273232","135","0.07128906","-1.3554688","-0.0087890625","-33.59375","74.46875","-2.25"
"1574973273232","136","0.18945312","-1.2060547","0.047851562","-46.25","47.40625","15.21875"
"1574973273232","137","0.25","-1.0380859","0.030273438","-39.78125","27.34375","4.0625"
"1574973273233","138","0.045898438","-0.9296875","-0.087890625","-18.21875","18.125","-3.875"
"1574973273233","139","0.22558594","-0.6503906","-0.087890625","-23.96875","0.1875","-5.90625"
"1574973273627","140","0.4736328","-0.90625","0.10253906","-30.0625","12.9375","-12.0625"
"1574973273628","141","-0.1015625","-1.1757812","-0.10546875","-32.15625","32.09375","-7.125"
"1574973273628","142","-0.34570312","-1.1455078","-0.17773438","15.65625","24.28125","40.125"
"1574973273628","143","0.11425781","-0.8017578","0.0048828125","-13.59375","18.0625","62.9375"
"1574973273628","144","0.20800781","-0.8623047","0.009765625","-12.90625","44.625","45.4375"
"1574973273630","145","-0.16113281","-0.87890625","-0.22558594","44.53125","52.65625","52.34375"
"1574973273630","146","0.078125","-1.3056641","-0.23144531","12.40625","26.53125","81.25"
"1574973273630","147","0.4658203","-1.3935547","-0.22851562","-1.125","69.09375","27.5625"
"1574973273630","148","0.015625","-1.0214844","-0.016601562","-6.75","40.09375","-12.5"
"1574973273631","149","-0.1484375","-0.75390625","-0.15332031","22.53125","10.125","-5.84375"
"1574973274024","150","0.037109375","-0.6220703","-0.119140625","32.0","1.46875","10.09375"
"1574973274025","151","0.3701172","-0.5214844","-0.0068359375","8.4375","0.96875","-13.09375"
"1574973274025","152","0.11816406","-0.4716797","0.033203125","3.125","-38.9375","-36.90625"
"1574973274025","153","-0.16308594","-0.7753906","-0.12402344","-16.15625","-58.34375","-36.46875"
"1574973274025","154","-0.04296875","-1.4316406","-0.17382812","-6.8125","-14.15625","-44.65625"
"1574973274026","155","-0.0126953125","-1.2763672","-0.15917969","5.03125","-37.46875","-1.1875"
"1574973274026","156","-0.0390625","-1.2050781","-0.03125","-9.75","-37.71875","-3.6875"
"1574973274027","157","0.01953125","-1.4951172","-0.06738281","7.53125","-21.1875","-24.5"
"1574973274031","158","0.0029296875","-1.3447266","-0.068359375","11.9375","-5.9375","-4.8125"
"1574973274032","159","-0.009765625","-1.2949219","-0.14257812","3.25","8.84375","6.5"
"1574973274619","160","0.13964844","-1.3076172","-0.06738281","-13.40625","14.75","0.28125"
"1574973274620","161","0.109375","-1.2324219","-0.068359375","-3.625","-9.34375","10.53125"
"1574973274620","162","-0.06640625","-1.1748047","-0.1640625","-4.6875","-2.03125","2.46875"
"1574973274620","163","-0.041992188","-1.1240234","-0.22460938","-18.78125","-1.28125","8.75"
"1574973274620","164","0.049804688","-1.0673828","-0.20410156","-19.4375","1.6875","27.125"
"1574973274621","165","0.1015625","-0.7734375","-0.09375","-4.6875","-28.21875","39.09375"
"1574973274621","166","0.045898438","-0.39257812","0.0126953125","14.5625","-31.25","23.03125"
"1574973274621","167","-0.20898438","-0.3701172","-0.043945312","-8.03125","-3.53125","12.59375"
"1574973274621","168","0.051757812","-0.67871094","-0.2626953","15.15625","-37.78125","15.46875"
"1574973274623","169","0.39648438","-0.93847656","-9.765625E-4","5.28125","-13.96875","-33.375"
"1574973274819","170","-0.0068359375","-1.2382812","-0.24804688","-45.15625","11.59375","-62.28125"
"1574973274819","171","-0.07128906","-1.8378906","-0.01953125","-17.8125","51.09375","-46.25"
"1574973274819","172","-0.20800781","-0.98828125","-0.14160156","46.21875","-82.78125","28.78125"
"1574973274820","173","0.053710938","-0.6152344","-0.35253906","27.25","-50.0625","2.65625"
"1574973274820","174","0.22949219","-0.6113281","-0.11816406","-43.1875","33.8125","-28.0"
"1574973274820","175","0.2265625","-1.1308594","-0.045898438","-16.9375","35.9375","-33.71875"
"1574973274821","176","-0.08691406","-1.1103516","-0.09472656","30.125","-19.96875","-15.53125"
"1574973274821","177","0.0068359375","-0.9560547","-0.12402344","38.78125","-21.96875","-10.78125"
"1574973274821","178","0.16894531","-0.89160156","-0.022460938","29.8125","21.40625","-15.65625"
"1574973274821","179","0.24121094","-0.8466797","-0.0234375","47.625","-5.875","-8.40625"
"1574973275417","180","0.27929688","-1.0097656","0.0048828125","54.03125","-28.5","-18.65625"
"1574973275418","181","0.19335938","-1.2529297","-0.059570312","19.625","-17.40625","-29.53125"
"1574973275419","182","0.07519531","-1.1484375","-0.091796875","22.25","-9.03125","-8.03125"
"1574973275419","183","0.08886719","-0.82128906","0.01953125","24.5625","-19.65625","17.1875"
"1574973275419","184","0.25195312","-0.57714844","0.06542969","10.875","-30.71875","3.0"
"1574973275419","185","0.22851562","-0.6542969","0.08691406","-2.53125","-24.40625","-19.25"
"1574973275420","186","-0.001953125","-0.8154297","-0.020507812","-0.34375","-2.4375","3.0625"
"1574973275420","187","0.07324219","-0.94628906","0.013671875","-0.71875","8.78125","22.125"
"1574973275420","188","0.23828125","-1.0166016","0.11035156","-2.28125","20.25","17.71875"
"1574973275420","189","0.22265625","-0.98535156","0.12695312","1.4375","26.4375","22.25"
"1574973275615","190","0.15332031","-1.1044922","0.107421875","-0.65625","27.75","3.625"
"1574973275616","191","0.10839844","-1.6279297","-0.07519531","-21.59375","59.4375","-20.0"
"1574973275616","192","0.12695312","-1.7246094","-0.31054688","6.3125","-5.375","20.40625"
"1574973275617","193","0.32226562","-1.3388672","0.0126953125","-9.6875","-27.46875","19.25"
"1574973275617","194","0.38671875","-1.3476562","0.17285156","-22.875","-5.25","-12.90625"
"1574973275618","195","0.08105469","-1.2382812","0.046875","-5.90625","-21.0","-3.34375"
"1574973275618","196","0.056640625","-1.1035156","0.043945312","4.40625","-23.375","1.90625"
"1574973275618","197","0.1640625","-0.8720703","0.0234375","4.125","-19.125","4.71875"
"1574973275618","198","0.18554688","-0.62597656","0.08886719","8.75","-27.96875","-7.78125"
"1574973275619","199","0.18261719","-0.5449219","0.119140625","19.6875","-32.46875","-16.15625"
"1574973276014","200","0.059570312","-0.58203125","0.030273438","18.46875","-27.96875","-14.0625"
"1574973276014","201","0.0048828125","-0.8144531","-0.025390625","3.5","12.25","-12.4375"
"1574973276014","202","-0.0029296875","-1.0761719","-0.087890625","-23.125","41.875","0.3125"
"1574973276015","203","0.27148438","-1.2744141","-0.048828125","-28.78125","31.0","8.3125"
"1574973276015","204","0.31835938","-1.0185547","0.109375","-30.4375","2.4375","2.71875"
"1574973276016","205","0.078125","-1.0097656","0.024414062","-29.09375","18.96875","-2.59375"
"1574973276017","206","0.0078125","-1.015625","-0.15527344","-22.9375","4.375","1.3125"
"1574973276017","207","0.22070312","-0.9658203","-0.059570312","-18.34375","-3.0","-3.03125"
"1574973276017","208","0.375","-0.82910156","-0.041992188","-11.5625","-12.875","-0.28125"
"1574973276017","209","0.14648438","-0.9267578","-0.064453125","-29.59375","16.15625","8.03125"
"1574973276410","210","-0.19140625","-1.0654297","-0.095703125","-11.09375","21.40625","25.28125"
"1574973276411","211","-0.0078125","-1.0615234","-0.009765625","-6.875","22.53125","48.90625"
"1574973276411","212","0.14160156","-0.859375","-0.109375","7.78125","20.375","68.5625"
"1574973276411","213","0.119140625","-0.82910156","-0.17675781","2.59375","6.84375","67.09375"
"1574973276412","214","0.19140625","-1.1435547","-0.16503906","-14.0","20.5625","45.75"
"1574973276412","215","0.111328125","-1.1396484","-0.22851562","6.0","-4.15625","30.78125"
"1574973276412","216","-0.017578125","-0.9296875","-0.07910156","-0.96875","-3.59375","27.4375"
"1574973276413","217","-0.06542969","-0.6542969","-0.17285156","21.375","-33.21875","24.8125"
"1574973276414","218","0.0234375","-0.53808594","-0.078125","25.28125","-28.03125","17.90625"
"1574973276414","219","0.03515625","-0.6435547","-0.12207031","16.25","-26.9375","-7.53125"
"1574973276808","220","-0.072265625","-0.8925781","-0.20117188","-3.09375","-25.9375","-14.8125"
"1574973276808","221","-0.26757812","-1.2158203","-0.265625","-42.9375","-14.84375","-11.8125"
"1574973276808","222","0.016601562","-1.3740234","0.013671875","-26.46875","-17.46875","-3.34375"
"1574973276809","223","-0.3798828","-1.2236328","0.05859375","30.59375","-2.5","17.28125"
"1574973276809","224","-0.35742188","-1.4101562","-0.1953125","36.8125","-24.0","10.9375"
"1574973276809","225","0.0625","-1.5585938","-0.123046875","-3.28125","32.53125","-5.40625"
"1574973276809","226","-0.030273438","-1.4013672","-0.041015625","11.4375","35.9375","3.375"
"1574973276810","227","-0.17871094","-1.2197266","-0.17675781","22.65625","-0.3125","3.4375"
"1574973276810","228","-0.09472656","-1.0722656","-0.19726562","-14.0","22.53125","-18.59375"
"1574973276811","229","-0.15527344","-1.0625","-0.1171875","-15.78125","18.65625","-9.5625"
"1574973277204","230","-0.12011719","-0.9238281","-0.20019531","-8.8125","-4.78125","10.46875"
"1574973277204","231","0.09472656","-0.5878906","-0.055664062","-16.6875","-3.90625","-4.0625"
"1574973277205","232","0.080078125","-0.50878906","-0.016601562","-19.03125","0.78125","-16.34375"
"1574973277205","233","0.005859375","-0.6904297","-0.10058594","-0.84375","-16.90625","-16.15625"
"1574973277205","234","0.10839844","-0.94628906","-0.1796875","1.3125","-35.34375","-27.4375"
"1574973277205","235","0.0546875","-1.0917969","-0.1640625","-15.3125","-30.65625","-37.75"
"1574973277206","236","-0.11816406","-0.9921875","-0.119140625","-11.5625","-26.375","-37.40625"
"1574973277206","237","-0.020507812","-1.1171875","-0.18066406","1.5","-4.21875","-33.90625"
"1574973277206","238","0.13574219","-1.1533203","-0.11230469","3.75","-0.8125","-31.34375"
"1574973277206","239","-0.029296875","-0.95996094","-0.19433594","9.96875","-41.9375","-21.09375"
"1574973277998","240","0.001953125","-0.81152344","-0.23828125","-3.03125","-28.6875","-16.46875"
"1574973277999","241","0.14648438","-0.8095703","-0.16210938","-8.8125","6.34375","-23.96875"
"1574973278000","242","0.14648438","-1.0078125","-0.03125","13.9375","15.75","-23.28125"
"1574973278000","243","0.076171875","-1.0","-0.12011719","34.875","-27.21875","-11.9375"
"1574973278001","244","0.16015625","-0.9423828","-0.13671875","40.625","-13.25","-17.375"
"1574973278001","245","0.25683594","-0.9511719","-0.057617188","47.9375","-6.65625","-12.5625"
"1574973278001","246","0.25585938","-1.0888672","0.08496094","37.375","-29.5","-10.90625"
"1574973278001","247","0.24023438","-1.1220703","0.015625","29.5625","-57.8125","-20.71875"
"1574973278002","248","0.09375","-1.0332031","-0.09863281","25.65625","-40.71875","-4.8125"
"1574973278002","249","0.053710938","-0.9277344","0.045898438","22.0625","-31.1875","22.125"
"1574973278198","250","0.059570312","-0.8564453","0.026367188","20.53125","-25.9375","22.375"
"1574973278198","251","0.10644531","-0.79003906","0.06640625","16.5","-14.59375","-4.0625"
"1574973278198","252","0.0068359375","-0.62109375","-0.057617188","24.3125","-15.8125","2.28125"
"1574973278199","253","0.18164062","-0.5654297","-0.09375","28.34375","-33.09375","18.6875"
"1574973278199","254","0.5019531","-0.9267578","0.1171875","-36.40625","-1.78125","-16.15625"
"1574973278199","255","0.3359375","-1.1552734","0.078125","-31.28125","45.96875","-11.15625"
"1574973278199","256","-0.23730469","-1.171875","0.087890625","8.09375","6.40625","35.25"
"1574973278200","257","-0.0087890625","-1.2070312","0.109375","38.53125","48.625","8.09375"
"1574973278200","258","0.19042969","-1.4316406","0.03125","-1.5625","48.875","-14.3125"
"1574973278200","259","0.4267578","-1.8632812","-0.27246094","5.9375","44.1875","1.0625"
"1574973278596","260","0.140625","-1.5947266","-0.08203125","-10.09375","6.90625","11.625"
"1574973278597","261","0.22949219","-1.2451172","0.14355469","-21.59375","14.15625","-16.46875"
"1574973278597","262","0.296875","-1.0732422","0.12695312","-6.5625","-0.0625","-8.9375"
"1574973278597","263","0.34375","-0.9814453","0.12109375","-8.59375","-10.5","-5.90625"
"1574973278598","264","0.22363281","-0.8066406","0.038085938","4.28125","-19.125","-3.6875"
"1574973278599","265","0.11425781","-0.578125","0.06640625","4.96875","-16.375","-9.75"
"1574973278600","266","0.11230469","-0.5253906","0.053710938","12.84375","-25.59375","-15.46875"
"1574973278600","267","0.1171875","-0.64941406","0.016601562","4.21875","-12.34375","-8.21875"
"1574973278600","268","0.13769531","-0.88183594","-0.020507812","-14.8125","17.09375","0.8125"
"1574973278600","269","0.072265625","-1.2705078","-0.0146484375","-30.4375","43.34375","5.9375"
"1574973278795","270","0.1171875","-1.2001953","-0.053710938","-17.0","30.03125","21.6875"
"1574973278795","271","0.22558594","-1.0332031","-0.0146484375","-30.96875","13.40625","34.25"
"1574973278795","272","0.13378906","-0.98828125","-0.047851562","-62.71875","29.71875","9.0625"
"1574973278796","273","0.022460938","-1.0058594","-0.17675781","-35.0","10.125","9.84375"
"1574973278796","274","0.24902344","-0.84765625","0.091796875","-18.46875","-9.84375","9.46875"
"1574973278796","275","0.046875","-0.859375","-0.033203125","-12.0","28.8125","33.65625"
"1574973278796","276","-0.20703125","-0.94921875","-0.14453125","-9.625","40.40625","50.5625"
"1574973278797","277","-0.06640625","-1.0292969","-0.115234375","-6.875","29.59375","71.75"
"1574973278798","278","0.099609375","-0.9628906","-0.16503906","5.21875","23.0625","84.1875"
"1574973278798","279","0.26367188","-1.0839844","-0.23144531","27.3125","22.40625","67.28125"
"1574973279194","280","0.31347656","-1.1748047","-0.21386719","-17.8125","62.8125","12.59375"
"1574973279194","281","-0.1328125","-1.0976562","-0.09765625","-11.75","-1.15625","5.75"
"1574973279194","282","-0.0234375","-0.8388672","-0.14941406","27.96875","-42.71875","19.6875"
"1574973279194","283","0.087890625","-0.49121094","-0.07421875","7.46875","-22.96875","11.6875"
"1574973279195","284","-0.001953125","-0.35253906","-0.051757812","-3.15625","-26.875","6.625"
"1574973279195","285","-0.12792969","-0.6123047","-0.07714844","16.5","-25.59375","-11.28125"
"1574973279195","286","-0.125","-1.0429688","-0.2109375","12.09375","-38.59375","-31.90625"
"1574973279195","287","-0.234375","-1.1308594","-0.34960938","-8.71875","-21.75","-16.59375"
"1574973279196","288","-0.15527344","-1.0546875","0.01171875","-20.375","-10.1875","3.0625"
"1574973279197","289","-0.2939453","-1.4003906","-0.022460938","7.28125","-26.0625","-2.28125"
"1574973279786","290","-0.08203125","-1.6259766","-0.21582031","27.78125","-38.59375","2.28125"
"1574973279787","291","0.091796875","-1.5820312","-0.08984375","-11.21875","18.5","-17.4375"
"1574973279787","292","-0.0126953125","-1.5458984","0.026367188","-2.65625","17.21875","-4.6875"
"1574973279787","293","-0.11425781","-1.4511719","-0.17675781","5.6875","-7.8125","2.65625"
"1574973279787","294","-0.17089844","-1.2255859","-0.265625","-4.5625","-24.90625","-8.40625"
"1574973279788","295","-0.1953125","-1.0791016","-0.2685547","-3.59375","-8.3125","-7.90625"
"1574973279788","296","-0.13574219","-0.9267578","-0.15820312","-9.75","4.75","7.40625"
"1574973279788","297","-0.021484375","-0.5908203","-0.037109375","-0.46875","-7.09375","12.96875"
"1574973279788","298","0.08984375","-0.2919922","0.01171875","11.125","-17.9375","4.59375"
"1574973279789","299","-0.030273438","-0.37695312","-0.0126953125","-8.09375","-7.5","-10.71875"
"1574973279987","300","-0.13769531","-0.74609375","-0.107421875","1.0625","-1.96875","-16.53125"
"1574973279988","301","-0.040039062","-1.2021484","-0.2734375","-7.0625","0.25","-16.40625"
"1574973279988","302","0.13085938","-1.2382812","-0.20507812","-19.5","4.3125","-17.1875"
"1574973279989","303","0.052734375","-1.0703125","-0.10058594","6.1875","-43.28125","-28.0625"
"1574973279989","304","0.0107421875","-1.0107422","-0.087890625","-4.5625","-7.875","-33.71875"
"1574973279989","305","-0.030273438","-0.9980469","-0.10644531","1.5625","-12.15625","-24.75"
"1574973279990","306","-0.043945312","-0.94433594","-0.19824219","13.375","-12.15625","-17.375"
"1574973279990","307","-0.08203125","-0.97265625","-0.21972656","-9.6875","15.9375","-19.875"
"1574973279990","308","-0.078125","-1.0029297","-0.20605469","11.9375","15.0625","-12.84375"
"1574973279990","309","0.091796875","-0.9160156","-0.10644531","21.1875","20.5625","-19.5"
"1574973280781","310","0.2783203","-0.8574219","0.0146484375","51.96875","0.65625","-28.78125"
"1574973280781","311","0.5107422","-0.82910156","0.064453125","55.6875","-35.78125","-31.71875"
"1574973280782","312","0.3720703","-0.90234375","0.13085938","21.75","-41.21875","-39.34375"
"1574973280782","313","-0.038085938","-1.2695312","-0.020507812","33.90625","-55.5625","-43.875"
"1574973280782","314","0.05078125","-1.1796875","-0.10644531","44.875","-33.21875","-16.03125"
"1574973280783","315","0.14160156","-0.98828125","-0.09765625","33.71875","-38.875","0.6875"
"1574973280783","316","0.27148438","-0.8515625","-0.02734375","19.25","-38.53125","-0.65625"
"1574973280783","317","0.11621094","-0.7294922","0.07714844","-8.46875","-8.5","-21.34375"
"1574973280783","318","0.11035156","-0.7294922","0.033203125","-3.625","-33.6875","-13.59375"
"1574973280784","319","0.18164062","-0.7128906","0.06640625","2.84375","-31.75","1.0625"
"1574973280977","320","0.3203125","-0.8730469","0.029296875","-6.4375","-1.53125","2.84375"
"1574973280977","321","0.18261719","-0.9404297","0.041992188","-16.09375","36.0","15.65625"
"1574973280978","322","0.10449219","-1.0341797","0.15332031","13.15625","40.09375","24.9375"
"1574973280978","323","0.08496094","-1.375","0.20019531","42.875","97.28125","19.6875"
"1574973280978","324","0.19628906","-1.6074219","-0.16503906","17.25","53.46875","8.6875"
"1574973280980","325","0.5546875","-1.7529297","-0.025390625","-20.25","16.59375","-8.9375"
"1574973280980","326","0.25390625","-1.3984375","0.12597656","-3.9375","-2.3125","17.25"
"1574973280981","327","0.2626953","-1.0830078","0.119140625","-5.71875","6.59375","-6.8125"
"1574973280981","328","0.32617188","-0.9941406","0.12890625","-9.5625","1.03125","-5.59375"
"1574973280981","329","0.3388672","-0.8652344","0.07128906","-15.125","1.03125","-2.25"
"1574973281180","330","0.19335938","-0.7060547","0.032226562","-7.125","-10.9375","-1.75"
"1574973281181","331","0.15429688","-0.61035156","0.072265625","-12.3125","-5.1875","-6.625"
"1574973281181","332","0.19921875","-0.73046875","0.072265625","-9.8125","-3.4375","-9.375"
"1574973281181","333","0.16503906","-0.859375","0.049804688","-5.96875","0.40625","-2.25"
"1574973281181","334","0.13378906","-1.0126953","0.013671875","-7.375","16.28125","4.78125"
"1574973281182","335","0.12207031","-1.0820312","0.030273438","-10.34375","18.0","12.84375"
"1574973281182","336","0.23046875","-1.078125","-0.022460938","-14.1875","18.71875","16.5625"
"1574973281182","337","0.28125","-1.0097656","-0.049804688","-33.90625","4.6875","8.875"
"1574973281183","338","0.08105469","-0.9921875","-0.030273438","-22.5625","-1.03125","10.40625"
"1574973281183","339","0.171875","-0.86816406","-0.08886719","-33.125","-3.0","8.5"
"1574973281775","340","0.39941406","-0.9238281","0.080078125","-21.15625","-16.53125","-3.40625"
"1574973281775","341","0.32128906","-0.97558594","-0.087890625","-11.875","-12.875","5.40625"
"1574973281776","342","0.051757812","-1.0195312","-0.09472656","-29.9375","-1.65625","16.25"
"1574973281776","343","-0.08105469","-1.0341797","-0.09765625","-6.5","-5.3125","42.625"
"1574973281776","344","-0.11621094","-0.9736328","-0.051757812","0.21875","5.71875","65.28125"
"1574973281776","345","-0.16699219","-0.89941406","0.056640625","19.96875","37.90625","82.40625"
"1574973281777","346","0.024414062","-0.859375","-0.22265625","21.15625","5.125","106.46875"
"1574973281777","347","0.6347656","-1.3769531","-0.359375","27.5625","-5.25","66.375"
"1574973281777","348","0.31152344","-1.109375","-0.12597656","-31.40625","10.0","4.46875"
"1574973281778","349","-0.49902344","-1.0322266","-0.025390625","-3.9375","-10.25","-15.53125"
"1574973282174","350","-0.11621094","-1.0068359","-0.21289062","20.15625","-37.3125","25.34375"
"1574973282175","351","0.13671875","-0.64746094","-0.17773438","-10.65625","-19.78125","9.59375"
"1574973282175","352","0.043945312","-0.45410156","0.03125","7.71875","-34.5","-11.03125"
"1574973282175","353","-0.12207031","-0.3486328","-0.0048828125","22.46875","-56.15625","-12.84375"
"1574973282176","354","-0.328125","-0.6748047","-0.19140625","4.125","-48.90625","-18.40625"
"1574973282176","355","-0.2421875","-1.1992188","-0.22949219","-21.875","-3.0","-17.90625"
"1574973282176","356","-0.068359375","-1.140625","-0.057617188","-28.96875","-14.59375","12.90625"
"1574973282176","357","-0.20898438","-1.1503906","0.0107421875","3.5625","-47.375","13.625"
"1574973282177","358","-0.07519531","-1.6386719","-0.0859375","1.0","-32.28125","-12.3125"
"1574973282177","359","0.19140625","-1.8066406","0.06542969","1.4375","2.5","-7.4375"
"1574973282572","360","0.024414062","-1.6357422","0.08105469","32.1875","-10.3125","18.03125"
"1574973282573","361","-0.38378906","-1.4619141","-0.18847656","26.21875","-27.21875","14.78125"
"1574973282573","362","-0.35742188","-1.1826172","-0.35351562","-2.28125","-23.625","6.90625"
"1574973282573","363","-0.018554688","-0.9970703","-0.10839844","-15.90625","10.0625","-1.3125"
"1574973282573","364","-0.25683594","-0.8642578","-0.041015625","-10.15625","33.375","-10.90625"
"1574973282574","365","-0.28320312","-0.7939453","-0.13378906","-2.125","2.5","-4.375"
"1574973282574","366","-0.10058594","-0.5419922","-0.033203125","-2.46875","15.75","6.0"
"1574973282574","367","0.045898438","-0.4267578","0.036132812","-0.34375","18.0625","1.5"
"1574973282574","368","-0.0087890625","-0.59765625","-0.040039062","-3.625","28.3125","-18.53125"
"1574973282575","369","0.07519531","-1.046875","-0.17773438","1.625","12.6875","-33.71875"
