"# PR data"
"# Start time: 20191120T165857"
"# Subject: andrius"
"# Activity type: Leg slide"
"# Correctness: Correct"
"# Notes: "
""
"timestamp","seq","accel_x","accel_y","accel_z","gyro_x","gyro_y","gyro_z"
"1574269137837","0","0.16992188","-0.87109375","0.123046875","-19.84375","16.34375","-0.3125"
"1574269137838","1","0.17871094","-0.9140625","0.123046875","-19.375","15.625","1.21875"
"1574269137838","2","0.08691406","-0.93847656","0.06933594","-21.25","22.8125","2.0625"
"1574269137838","3","0.11035156","-0.9033203","0.0546875","-11.625","28.625","1.5"
"1574269137838","4","0.22460938","-0.87597656","0.07421875","-2.53125","26.71875","-0.125"
"1574269137839","5","0.25390625","-0.9238281","0.06640625","-2.53125","23.3125","1.3125"
"1574269137839","6","0.16992188","-0.90722656","0.057617188","2.65625","24.875","0.71875"
"1574269137839","7","0.17773438","-0.8847656","0.08496094","2.3125","25.25","-0.875"
"1574269137839","8","0.22949219","-0.90722656","0.0703125","2.0","18.78125","-1.0625"
"1574269137840","9","0.22558594","-0.9169922","0.059570312","1.625","18.0625","-0.625"
"1574269138234","10","0.20214844","-0.91308594","0.06640625","1.875","12.75","-1.71875"
"1574269138235","11","0.21386719","-0.9033203","0.076171875","-3.4375","9.875","-1.34375"
"1574269138235","12","0.19433594","-0.9189453","0.07714844","-0.5","4.5","-1.125"
"1574269138238","13","0.16796875","-0.9238281","0.064453125","-2.46875","4.625","0.0"
"1574269138239","14","0.16796875","-0.89160156","0.076171875","-4.09375","7.1875","2.375"
"1574269138239","15","0.16894531","-0.8925781","0.06640625","0.15625","0.65625","-1.1875"
"1574269138240","16","0.18164062","-0.9267578","0.06542969","1.03125","0.0","1.5625"
"1574269138240","17","0.14257812","-0.9013672","0.07324219","-1.78125","-3.0625","-1.1875"
"1574269138240","18","0.17089844","-0.89746094","0.08886719","13.46875","-7.9375","2.0625"
"1574269138241","19","0.15039062","-0.88964844","0.10253906","8.84375","-8.6875","2.1875"
"1574269138633","20","0.18359375","-0.87597656","0.11425781","26.59375","-22.59375","-2.34375"
"1574269138634","21","0.26171875","-0.8378906","0.15332031","37.71875","-27.46875","-5.5"
"1574269138634","22","0.19238281","-0.8857422","0.13476562","54.3125","-33.59375","-12.15625"
"1574269138634","23","0.29492188","-0.8359375","0.17089844","73.59375","-44.75","-24.0"
"1574269138634","24","0.36035156","-0.9160156","0.27734375","43.0","-59.28125","-12.46875"
"1574269138635","25","0.08203125","-1.0556641","0.2421875","13.78125","-38.34375","-7.21875"
"1574269138636","26","0.01953125","-1.109375","0.15332031","8.78125","-1.65625","-11.25"
"1574269138636","27","0.18554688","-0.8925781","0.26464844","1.375","7.125","5.0625"
"1574269138639","28","0.21972656","-0.84375","0.23925781","-2.53125","24.09375","-6.4375"
"1574269138640","29","0.375","-0.8935547","0.2890625","-11.78125","8.40625","-7.65625"
"1574269139031","30","0.23925781","-0.89746094","0.30273438","-13.125","9.4375","-4.84375"
"1574269139031","31","0.265625","-0.8701172","0.31640625","-9.125","6.21875","-12.34375"
"1574269139031","32","0.4091797","-0.86621094","0.33984375","-9.53125","-0.0625","-7.21875"
"1574269139032","33","0.20214844","-0.8925781","0.25878906","-10.5","-1.90625","-3.375"
"1574269139032","34","0.16015625","-0.88183594","0.26660156","-15.625","18.34375","-2.28125"
"1574269139032","35","0.29589844","-0.9511719","0.2890625","-5.3125","7.625","-1.65625"
"1574269139032","36","0.27734375","-0.84472656","0.19921875","-0.75","12.1875","-0.9375"
"1574269139034","37","0.15820312","-0.8876953","0.15917969","-11.625","7.0625","4.0"
"1574269139034","38","0.20800781","-0.95996094","0.17382812","-14.40625","7.1875","1.15625"
"1574269139034","39","0.2529297","-0.9482422","0.19921875","0.59375","-1.40625","-5.09375"
"1574269139427","40","0.28222656","-0.89941406","0.24902344","1.21875","2.0","-0.5"
"1574269139427","41","0.32421875","-0.8798828","0.29492188","13.53125","-4.15625","-0.125"
"1574269139428","42","0.30859375","-0.8408203","0.3173828","13.21875","-3.1875","1.15625"
"1574269139428","43","0.20117188","-0.8925781","0.21777344","11.8125","3.59375","7.6875"
"1574269139428","44","0.3173828","-0.86035156","0.29492188","4.4375","8.21875","0.03125"
"1574269139428","45","0.35546875","-0.91015625","0.23144531","11.28125","0.46875","1.5625"
"1574269139429","46","0.24121094","-0.8652344","0.25683594","6.40625","-1.1875","11.03125"
"1574269139429","47","0.22265625","-0.8701172","0.24023438","-3.5625","3.65625","5.0625"
"1574269139429","48","0.12597656","-0.94433594","0.20117188","-19.125","19.28125","16.65625"
"1574269139429","49","0.24121094","-0.890625","0.2919922","-17.78125","19.6875","18.40625"
"1574269139824","50","0.14355469","-0.94628906","0.17089844","-33.15625","16.28125","13.71875"
"1574269139825","51","0.107421875","-1.0439453","0.11816406","-25.65625","30.25","11.28125"
"1574269139825","52","0.2939453","-0.859375","0.24121094","-11.90625","28.65625","3.34375"
"1574269139825","53","0.3388672","-0.7402344","0.32226562","8.84375","13.96875","4.9375"
"1574269139826","54","0.091796875","-0.9472656","0.21289062","-18.09375","20.375","13.03125"
"1574269139826","55","0.056640625","-1.1357422","0.14453125","-33.40625","32.625","14.875"
"1574269139826","56","0.12695312","-1.0068359","0.15820312","-42.0","44.25","30.4375"
"1574269139827","57","-0.047851562","-0.828125","0.09667969","-42.75","23.25","63.40625"
"1574269139827","58","0.25585938","-0.85058594","0.19726562","-50.0625","56.125","39.78125"
"1574269139827","59","0.16992188","-1.0048828","-0.041992188","-16.25","21.90625","25.3125"
"1574269140224","60","0.15722656","-0.7285156","0.060546875","5.34375","17.0625","2.65625"
"1574269140226","61","0.28515625","-0.78515625","0.15527344","-7.65625","6.03125","-19.4375"
"1574269140226","62","-0.061523438","-1.1113281","-0.013671875","5.28125","-15.40625","-5.25"
"1574269140227","63","-0.08496094","-0.9091797","0.0","5.71875","-8.0625","-0.875"
"1574269140227","64","0.09082031","-0.796875","-0.029296875","-4.53125","-2.09375","-4.78125"
"1574269140227","65","0.09765625","-0.8388672","0.022460938","-12.34375","-17.78125","-10.625"
"1574269140228","66","0.09472656","-0.8046875","0.020507812","-18.5625","-21.4375","-28.15625"
"1574269140228","67","-0.0546875","-1.0361328","-0.005859375","-32.84375","-39.5","-27.25"
"1574269140228","68","0.0078125","-1.1181641","0.02734375","-18.6875","-18.875","-16.75"
"1574269140229","69","-0.0546875","-0.8876953","0.046875","-0.9375","-3.375","-2.15625"
"1574269140621","70","0.14257812","-0.7792969","0.032226562","2.78125","-8.8125","-3.875"
"1574269140621","71","0.21386719","-0.86328125","0.049804688","-5.15625","-3.0","-9.78125"
"1574269140621","72","0.06347656","-0.9482422","0.061523438","0.65625","-6.65625","-4.34375"
"1574269140623","73","0.009765625","-1.0332031","0.052734375","-8.6875","9.75","-6.25"
"1574269140623","74","0.09082031","-0.9785156","-0.030273438","11.03125","0.15625","5.90625"
"1574269140623","75","0.14550781","-0.8095703","0.0068359375","1.09375","7.25","4.875"
"1574269140624","76","-0.08691406","-1.0009766","-0.034179688","-22.84375","20.5","15.84375"
"1574269140624","77","0.017578125","-1.0390625","-0.056640625","10.84375","11.28125","24.8125"
"1574269140624","78","0.28027344","-0.77441406","-0.0068359375","9.9375","4.875","5.78125"
"1574269140624","79","0.05078125","-0.7714844","0.013671875","-3.4375","4.6875","11.9375"
"1574269141016","80","-0.123046875","-0.9404297","-0.024414062","-0.375","5.96875","19.21875"
"1574269141017","81","0.20214844","-0.8574219","0.049804688","10.90625","2.1875","-3.90625"
"1574269141017","82","0.043945312","-0.78222656","0.018554688","17.875","1.3125","1.75"
"1574269141017","83","0.07910156","-0.8544922","0.060546875","10.90625","2.5625","-14.0"
"1574269141018","84","0.107421875","-1.0126953","0.095703125","10.71875","5.125","-15.59375"
"1574269141019","85","0.08886719","-1.125","0.0859375","21.28125","-13.4375","-13.9375"
"1574269141019","86","0.0146484375","-0.89453125","9.765625E-4","15.78125","-10.9375","-7.65625"
"1574269141019","87","0.11425781","-0.8046875","0.017578125","8.21875","-16.4375","-19.0"
"1574269141020","88","0.3154297","-0.8955078","0.1640625","25.5","-42.1875","-22.34375"
"1574269141020","89","0.11328125","-0.90527344","0.16210938","27.03125","-54.46875","-17.40625"
"1574269141415","90","0.034179688","-0.94140625","0.13867188","27.03125","-41.09375","-19.71875"
"1574269141415","91","0.19921875","-0.91796875","0.095703125","31.0625","-32.78125","-22.90625"
"1574269141416","92","0.19042969","-0.94628906","0.24511719","-2.03125","-27.25","-14.46875"
"1574269141416","93","0.0146484375","-1.0019531","0.20117188","-5.375","-15.21875","-12.53125"
"1574269141416","94","-0.06542969","-0.99902344","0.10253906","-3.25","2.1875","-1.3125"
"1574269141416","95","0.09667969","-0.9042969","0.14648438","-6.71875","37.65625","10.1875"
"1574269141417","96","0.29589844","-0.8642578","0.18457031","-14.40625","41.84375","-3.25"
"1574269141418","97","0.31835938","-0.88378906","0.21386719","-0.3125","6.8125","-5.6875"
"1574269141418","98","0.23925781","-0.8388672","0.17675781","-11.96875","4.9375","-11.3125"
"1574269141418","99","0.22070312","-0.953125","0.1796875","-11.3125","-6.59375","-1.59375"
"1574269141813","100","0.36328125","-0.84765625","0.25976562","0.34375","-20.46875","2.0625"
"1574269141813","101","0.24511719","-0.9267578","0.10839844","-12.84375","-8.75","-2.8125"
"1574269141814","102","0.024414062","-1.0712891","0.19726562","-11.6875","-14.71875","15.5"
"1574269141814","103","0.10253906","-0.8183594","0.13769531","7.25","10.0625","5.59375"
"1574269141814","104","0.24121094","-0.8691406","0.17089844","-4.03125","3.9375","5.21875"
"1574269141814","105","0.036132812","-0.9814453","0.060546875","1.5","10.1875","7.25"
"1574269141815","106","0.19726562","-0.8925781","0.13867188","3.59375","16.53125","-1.46875"
"1574269141815","107","0.28125","-0.9042969","0.12792969","-3.875","-6.25","-4.65625"
"1574269141815","108","0.12792969","-0.99902344","0.12402344","-3.875","-1.59375","-13.625"
"1574269141816","109","0.171875","-0.8828125","0.14355469","4.75","6.5625","-9.0"
"1574269142211","110","0.22851562","-0.85546875","0.25585938","6.09375","-1.0625","-7.65625"
"1574269142211","111","0.24511719","-0.9267578","0.1875","20.25","-7.34375","-10.34375"
"1574269142211","112","0.22070312","-0.9033203","0.15332031","27.875","-15.09375","-4.71875"
"1574269142212","113","0.24707031","-0.85253906","0.24414062","22.125","-12.46875","-12.21875"
"1574269142212","114","0.18457031","-0.93847656","0.19335938","20.125","-8.6875","-7.28125"
"1574269142212","115","0.21972656","-0.9326172","0.15722656","15.25","-3.75","-3.0"
"1574269142212","116","0.21777344","-0.8720703","0.21386719","3.40625","4.1875","7.25"
"1574269142213","117","0.032226562","-0.9091797","0.15039062","-12.90625","21.78125","7.375"
"1574269142213","118","0.16015625","-0.9160156","0.21582031","-7.8125","23.25","11.15625"
"1574269142213","119","0.11230469","-1.0039062","0.18554688","-25.90625","10.65625","17.875"
"1574269142608","120","0.095703125","-0.9736328","0.119140625","-9.53125","32.15625","2.5625"
"1574269142609","121","0.2861328","-0.8261719","0.2841797","-3.625","25.9375","-0.625"
"1574269142610","122","0.3388672","-0.87402344","0.32421875","14.3125","-1.84375","2.25"
"1574269142610","123","0.055664062","-0.9140625","0.12011719","-16.0","12.4375","-3.375"
"1574269142611","124","0.059570312","-1.0048828","0.13769531","-37.4375","27.03125","9.03125"
"1574269142611","125","0.23046875","-0.9667969","0.22558594","-22.34375","22.9375","0.15625"
"1574269142611","126","0.15136719","-0.89941406","0.16210938","-20.84375","20.25","5.34375"
"1574269142612","127","-0.11816406","-0.8984375","0.09863281","-24.90625","39.59375","27.75"
"1574269142612","128","9.765625E-4","-0.8564453","0.20117188","-14.34375","53.5","40.875"
"1574269142612","129","0.1875","-0.8847656","0.09765625","-0.6875","38.5625","15.3125"
"1574269143202","130","0.07421875","-0.96777344","0.05078125","1.8125","37.8125","21.09375"
"1574269143203","131","0.21386719","-0.92871094","0.13671875","-3.75","53.5","3.09375"
"1574269143203","132","0.33007812","-0.8808594","0.15527344","23.0625","15.0625","-10.6875"
"1574269143204","133","0.060546875","-0.87890625","0.08203125","12.3125","-5.25","-2.75"
"1574269143205","134","-0.04296875","-0.921875","-0.01953125","-20.9375","0.71875","-0.4375"
"1574269143205","135","0.2578125","-0.9296875","0.11816406","7.84375","-18.6875","-13.6875"
"1574269143205","136","0.22558594","-0.9316406","0.12402344","-7.21875","-11.5","-17.96875"
"1574269143206","137","-0.24707031","-0.9375","-0.0625","0.59375","-19.5","0.71875"
"1574269143206","138","-0.025390625","-0.78222656","0.056640625","-15.6875","-17.46875","1.15625"
"1574269143206","139","0.1328125","-0.9160156","0.171875","-14.90625","11.53125","-3.90625"
"1574269143402","140","0.02734375","-1.0996094","0.0703125","-0.625","17.0","-2.59375"
"1574269143403","141","0.13085938","-0.8808594","0.19921875","9.875","-3.5625","9.6875"
"1574269143403","142","0.2265625","-0.8251953","0.19140625","-5.4375","2.0625","-1.125"
"1574269143403","143","0.13769531","-0.9658203","0.2607422","-16.625","-6.65625","-3.5625"
"1574269143403","144","0.064453125","-0.9980469","0.27539062","-16.4375","-3.6875","-5.15625"
"1574269143404","145","0.087890625","-0.9482422","0.07910156","-4.84375","0.09375","-0.25"
"1574269143405","146","0.13476562","-0.9501953","-0.013671875","-1.34375","-20.53125","14.3125"
"1574269143405","147","0.09082031","-0.8730469","0.0146484375","-9.0","-0.5","3.34375"
"1574269143405","148","-0.080078125","-0.9169922","0.01953125","-19.0625","1.375","6.34375"
"1574269143406","149","-0.08300781","-1.0078125","-0.005859375","-10.625","9.1875","17.75"
"1574269143998","150","0.015625","-0.8828125","0.0029296875","-0.5625","17.6875","9.6875"
"1574269143998","151","0.11425781","-0.78027344","0.032226562","6.46875","9.9375","5.0"
"1574269143998","152","0.08300781","-0.9199219","0.0390625","4.0","5.65625","1.625"
"1574269143999","153","-0.059570312","-0.9003906","0.01171875","-2.53125","-3.0625","1.03125"
"1574269143999","154","0.03515625","-0.8261719","0.030273438","4.1875","-2.8125","1.09375"
"1574269143999","155","0.14160156","-0.8691406","-0.001953125","-8.8125","-12.46875","-13.5625"
"1574269143999","156","-0.021484375","-0.9814453","0.10058594","-5.5","-16.625","-23.75"
"1574269144001","157","0.23046875","-0.9394531","0.22949219","11.71875","7.125","-35.84375"
"1574269144001","158","0.115234375","-1.1357422","-0.001953125","17.6875","-35.84375","-11.90625"
"1574269144002","159","-0.078125","-0.7236328","0.060546875","45.40625","-24.1875","3.90625"
"1574269144198","160","0.06542969","-0.69140625","0.06347656","-11.0625","-10.9375","-4.59375"
"1574269144198","161","0.29492188","-1.1923828","0.18554688","-0.8125","-23.5625","-27.84375"
"1574269144198","162","0.27734375","-0.84375","0.111328125","43.0625","-55.9375","-15.03125"
"1574269144199","163","0.032226562","-0.7841797","0.005859375","39.0625","-42.3125","-4.71875"
"1574269144199","164","0.16796875","-1.0214844","0.18554688","23.65625","-15.34375","-12.65625"
"1574269144199","165","0.076171875","-1.0322266","0.20898438","21.09375","-25.78125","-7.28125"
"1574269144200","166","-0.0107421875","-0.9482422","0.14257812","18.21875","0.28125","-4.21875"
"1574269144200","167","0.15136719","-0.8984375","0.17675781","-8.875","9.1875","-6.84375"
"1574269144200","168","0.23046875","-0.9140625","0.23144531","-7.9375","9.4375","-6.25"
"1574269144201","169","0.125","-0.95996094","0.17773438","-8.375","6.21875","-12.28125"
"1574269144595","170","0.22558594","-0.8935547","0.25","-3.375","6.09375","-10.875"
"1574269144596","171","0.24414062","-0.84765625","0.22460938","-10.75","-1.125","0.34375"
"1574269144596","172","0.23046875","-0.86621094","0.24023438","-15.28125","3.28125","-4.46875"
"1574269144596","173","0.25878906","-0.9189453","0.19628906","-2.6875","-3.6875","-9.53125"
"1574269144597","174","0.18457031","-0.9736328","0.21386719","-15.09375","-2.59375","-3.8125"
"1574269144597","175","0.20507812","-0.9082031","0.19433594","1.28125","-1.0","-7.9375"
"1574269144597","176","0.24804688","-0.85839844","0.19042969","3.03125","-9.0625","1.4375"
"1574269144597","177","0.12890625","-0.9111328","0.14355469","-10.75","-5.15625","-0.25"
"1574269144598","178","0.18457031","-0.94628906","0.14355469","-4.65625","-8.0625","-2.15625"
"1574269144598","179","0.17285156","-0.89941406","0.13964844","-9.65625","-9.71875","-3.8125"
"1574269144992","180","0.08984375","-0.9658203","0.14257812","-12.03125","1.9375","-7.15625"
"1574269144993","181","0.1640625","-0.9628906","0.1796875","2.5","-1.40625","-8.1875"
"1574269144993","182","0.33398438","-0.8125","0.27148438","11.34375","-0.8125","-8.4375"
"1574269144994","183","0.14160156","-0.9013672","0.19824219","7.5625","4.0","-0.6875"
"1574269144994","184","0.1953125","-0.92285156","0.18164062","11.53125","9.9375","-3.0625"
"1574269144994","185","0.29785156","-0.87402344","0.19238281","9.8125","8.28125","3.71875"
"1574269144995","186","0.22070312","-0.8886719","0.18359375","2.1875","8.71875","3.21875"
"1574269144995","187","0.2626953","-0.90722656","0.18066406","9.5","1.875","6.46875"
"1574269144995","188","0.15332031","-0.9355469","0.17285156","-0.25","11.53125","3.46875"
"1574269144995","189","0.08691406","-0.9433594","0.16210938","1.375","18.28125","17.1875"
"1574269145389","190","0.23242188","-0.8701172","0.1953125","1.09375","20.0625","5.46875"
"1574269145390","191","0.2109375","-0.8925781","0.17285156","-8.8125","20.25","10.1875"
"1574269145390","192","0.07714844","-1.0195312","0.12597656","-0.5625","10.0","13.15625"
"1574269145391","193","-0.057617188","-0.98339844","0.16992188","-12.40625","51.25","15.96875"
"1574269145391","194","0.17480469","-0.90527344","0.21484375","-12.40625","43.25","9.375"
"1574269145392","195","0.37109375","-0.8330078","0.3046875","3.90625","24.65625","2.65625"
"1574269145392","196","0.14648438","-0.87402344","0.24707031","11.40625","10.46875","6.5625"
"1574269145392","197","-0.08886719","-0.97265625","0.14941406","-19.84375","32.21875","15.3125"
"1574269145392","198","-0.078125","-1.0361328","0.19335938","-29.0625","52.90625","25.625"
"1574269145393","199","0.16015625","-0.88964844","0.1640625","9.9375","44.90625","24.09375"
"1574269145788","200","0.06640625","-0.79003906","0.12402344","-25.71875","53.34375","34.96875"
"1574269145788","201","-0.10253906","-0.87890625","0.08203125","-20.28125","51.0","22.75"
"1574269145789","202","0.22265625","-1.0097656","0.14257812","-6.1875","49.3125","2.90625"
"1574269145789","203","0.14941406","-0.9296875","0.103515625","4.6875","35.6875","-4.53125"
"1574269145789","204","0.0068359375","-0.9550781","0.10058594","-11.0625","20.5625","-1.125"
"1574269145791","205","0.095703125","-0.95996094","0.052734375","-12.09375","23.1875","5.34375"
"1574269145791","206","0.13085938","-0.84277344","0.064453125","-17.84375","13.53125","1.75"
"1574269145791","207","-0.09472656","-0.88671875","0.043945312","-5.6875","6.15625","1.3125"
"1574269145792","208","-0.11230469","-0.9042969","0.02734375","-5.21875","6.5","10.375"
"1574269145792","209","0.09667969","-0.8701172","0.0078125","-10.03125","5.53125","7.125"
"1574269146187","210","0.0625","-0.9404297","-0.046875","-9.0","-7.09375","-1.1875"
"1574269146188","211","0.040039062","-0.8886719","0.017578125","-12.84375","-9.65625","-8.25"
"1574269146188","212","-0.049804688","-0.9111328","0.057617188","-24.0625","-7.65625","-3.8125"
"1574269146188","213","0.021484375","-0.99609375","0.07128906","-16.1875","-5.75","-7.09375"
"1574269146189","214","0.20507812","-0.9042969","0.16992188","0.84375","-15.8125","-8.125"
"1574269146189","215","-0.01171875","-0.7988281","0.18066406","-6.0","-11.375","-6.53125"
"1574269146189","216","-9.765625E-4","-0.953125","0.19238281","-7.09375","-6.1875","-8.25"
"1574269146191","217","0.12792969","-0.97265625","0.15820312","6.5","-3.75","-9.34375"
"1574269146191","218","0.07714844","-0.92089844","0.1171875","11.21875","-20.34375","-8.375"
"1574269146191","219","0.0546875","-0.9160156","0.0234375","6.9375","-26.625","-4.96875"
"1574269146978","220","-0.015625","-0.86035156","-0.029296875","-1.46875","-19.78125","-0.6875"
"1574269146979","221","-0.10449219","-0.8691406","-0.0234375","-29.4375","1.4375","2.0"
"1574269146979","222","-0.095703125","-1.0195312","-0.03125","-8.875","6.5","3.71875"
"1574269146979","223","0.07128906","-0.9296875","-0.015625","5.90625","7.8125","8.84375"
"1574269146980","224","0.045898438","-0.82714844","-0.005859375","12.1875","2.90625","-0.125"
"1574269146980","225","0.015625","-0.859375","0.055664062","16.59375","-1.53125","1.8125"
"1574269146981","226","0.025390625","-0.9003906","0.0146484375","10.78125","-11.125","-14.125"
"1574269146981","227","0.10449219","-0.8232422","0.03125","12.4375","-19.96875","-14.78125"
"1574269146981","228","0.16601562","-0.7998047","0.12695312","3.53125","-23.5","-30.15625"
"1574269146982","229","0.0078125","-0.9248047","0.10644531","13.34375","-27.90625","-36.15625"
"1574269147176","230","0.08496094","-1.1054688","0.19921875","-7.46875","-23.28125","-42.3125"
"1574269147176","231","0.16601562","-1.1621094","0.056640625","18.96875","-44.375","-23.875"
"1574269147177","232","0.09765625","-0.7128906","0.103515625","42.96875","-49.09375","-21.0625"
"1574269147177","233","0.22558594","-0.61035156","0.15136719","4.625","-57.3125","-41.03125"
"1574269147177","234","0.20898438","-1.1181641","0.16113281","-3.4375","-54.53125","-15.6875"
"1574269147177","235","-0.030273438","-1.0351562","0.13769531","25.5625","-24.125","-11.375"
"1574269147177","236","0.09375","-0.8623047","0.20703125","2.3125","-9.78125","-3.875"
"1574269147178","237","0.22265625","-1.0380859","0.025390625","4.625","-5.6875","2.0625"
"1574269147178","238","0.1015625","-0.8955078","0.15136719","2.0625","14.28125","2.78125"
"1574269147178","239","0.15820312","-0.87597656","0.21777344","2.5625","12.5","-1.125"
"1574269147378","240","0.30859375","-0.91015625","0.17675781","1.15625","12.25","-7.59375"
"1574269147379","241","0.265625","-0.8876953","0.20117188","-2.59375","-0.5625","-9.71875"
"1574269147379","242","0.26171875","-0.84472656","0.20019531","-4.09375","-6.3125","-12.65625"
"1574269147380","243","0.25585938","-0.9267578","0.20410156","-11.0","-8.5","-3.90625"
"1574269147380","244","0.2578125","-0.94628906","0.20117188","-1.96875","-7.65625","-7.65625"
"1574269147380","245","0.24316406","-0.90722656","0.18945312","-0.75","-8.1875","-6.0625"
"1574269147380","246","0.18164062","-0.8925781","0.13769531","7.5625","-9.34375","0.0"
"1574269147381","247","0.17675781","-0.9082031","0.18945312","7.25","4.9375","-1.65625"
"1574269147381","248","0.22070312","-0.9375","0.16113281","1.625","0.78125","1.625"
"1574269147381","249","0.16699219","-0.91308594","0.11230469","7.90625","9.9375","-3.0625"
"1574269147776","250","0.27148438","-0.8701172","0.17675781","0.03125","3.46875","-0.5"
"1574269147777","251","0.18945312","-0.90625","0.24414062","11.28125","11.59375","0.0"
"1574269147777","252","0.21875","-0.9404297","0.23144531","40.4375","8.59375","-1.90625"
"1574269147778","253","0.28125","-0.9140625","0.25878906","42.34375","16.65625","0.65625"
"1574269147779","254","0.25097656","-0.8730469","0.32128906","26.71875","12.625","-2.09375"
"1574269147779","255","0.22851562","-0.86035156","0.29785156","19.21875","4.6875","1.15625"
"1574269147779","256","0.2861328","-0.9003906","0.2783203","11.15625","7.8125","-0.25"
"1574269147780","257","0.19140625","-0.8935547","0.28320312","4.25","9.6875","4.0"
"1574269147780","258","0.19824219","-0.93066406","0.22851562","-3.375","13.09375","0.0"
"1574269147780","259","0.17578125","-0.9111328","0.25976562","-13.4375","20.90625","13.15625"
"1574269148172","260","0.17285156","-0.9169922","0.26171875","-17.65625","16.84375","3.65625"
"1574269148173","261","0.21386719","-0.93652344","0.2548828","-22.40625","17.0","7.625"
"1574269148173","262","0.23535156","-0.8876953","0.27246094","-20.34375","13.09375","3.71875"
"1574269148173","263","0.1875","-0.86621094","0.2861328","-24.125","7.1875","2.78125"
"1574269148173","264","0.15332031","-0.9375","0.18164062","-23.09375","19.28125","7.0"
"1574269148175","265","0.19628906","-0.9921875","0.22949219","-24.6875","11.75","6.15625"
"1574269148176","266","0.13378906","-0.91796875","0.24707031","-22.125","23.78125","7.125"
"1574269148176","267","-0.001953125","-0.92285156","0.18066406","-34.1875","38.4375","20.4375"
"1574269148176","268","-0.03125","-0.92578125","0.21386719","-27.40625","44.34375","31.90625"
"1574269148177","269","0.052734375","-0.8964844","0.16308594","-19.0","61.625","37.46875"
"1574269149362","270","0.06347656","-0.9189453","0.046875","-25.28125","43.0625","40.15625"
"1574269149363","271","0.048828125","-0.9433594","0.08105469","-4.09375","55.84375","24.875"
"1574269149363","272","0.2939453","-0.8925781","0.13574219","-1.90625","38.625","13.71875"
"1574269149364","273","0.28515625","-0.8925781","0.11425781","3.90625","14.3125","-3.8125"
"1574269149364","274","0.14160156","-0.9033203","0.10839844","0.90625","-0.375","-5.3125"
"1574269149364","275","0.01171875","-0.90527344","0.076171875","-17.59375","-7.71875","1.5625"
"1574269149366","276","-0.0068359375","-0.91796875","0.029296875","-13.125","-0.0625","-2.6875"
"1574269149368","277","0.015625","-0.94628906","0.045898438","-16.875","-1.96875","-0.5"
"1574269149368","278","0.0048828125","-0.9121094","0.04296875","-13.0625","-0.875","-3.4375"
"1574269149368","279","0.02734375","-0.8847656","-0.0048828125","-6.0","-9.84375","-6.0625"
"1574269149562","280","-0.015625","-0.89453125","0.059570312","-17.96875","-1.84375","1.75"
"1574269149563","281","-0.025390625","-0.9316406","-0.0087890625","-7.28125","0.15625","-1.96875"
"1574269149563","282","0.0625","-0.86816406","0.016601562","-5.375","-6.25","-7.21875"
"1574269149564","283","0.032226562","-0.8535156","0.017578125","-13.5625","-8.125","-5.375"
"1574269149564","284","-0.0068359375","-0.92871094","0.02734375","-26.75","-1.96875","-7.03125"
"1574269149564","285","0.0126953125","-0.9433594","0.078125","-6.125","-1.25","-6.84375"
"1574269149564","286","0.12109375","-0.87109375","0.078125","-7.15625","-0.8125","-9.65625"
"1574269149565","287","0.103515625","-0.9628906","0.12109375","-2.8125","2.78125","-10.5"
"1574269149565","288","0.03515625","-0.9892578","0.12792969","12.5","1.3125","0.0"
"1574269149566","289","0.076171875","-0.9667969","0.047851562","5.84375","-2.40625","-0.75"
"1574269149760","290","0.18164062","-0.9892578","-0.013671875","4.25","-17.15625","-2.34375"
"1574269149761","291","0.03125","-0.8330078","-0.080078125","-6.0625","-24.4375","1.75"
"1574269149761","292","-0.020507812","-0.8544922","-0.041992188","-35.0","-13.03125","0.28125"
"1574269149762","293","-0.048828125","-1.0185547","-0.038085938","-23.5","-6.90625","12.0625"
"1574269149762","294","0.0107421875","-0.84765625","-0.041015625","-1.96875","-1.46875","11.9375"
"1574269149762","295","0.095703125","-0.8125","0.0107421875","-0.625","-14.40625","5.21875"
"1574269149762","296","-0.001953125","-0.86035156","0.009765625","5.96875","-9.15625","6.21875"
"1574269149763","297","-0.049804688","-0.8417969","-0.01171875","13.34375","-3.96875","-2.625"
"1574269149763","298","0.17773438","-0.8300781","0.005859375","17.125","-14.34375","-10.5"
"1574269149763","299","0.061523438","-0.90527344","0.020507812","19.53125","-5.375","-19.125"
"1574269149958","300","-0.017578125","-0.8535156","0.037109375","33.75","-12.78125","-29.625"
"1574269149959","301","0.15527344","-1.0097656","0.1484375","-2.09375","-3.75","-22.90625"
"1574269149959","302","0.049804688","-1.3222656","0.02734375","1.28125","-3.96875","-11.71875"
"1574269149959","303","0.11816406","-0.78515625","0.07910156","34.78125","-21.375","-9.15625"
"1574269149960","304","0.119140625","-0.5986328","0.016601562","-7.15625","-20.59375","-22.21875"
"1574269149960","305","0.09863281","-1.0859375","0.0859375","-21.25","-17.28125","-10.40625"
"1574269149960","306","0.046875","-1.0214844","0.11816406","16.34375","-9.84375","-13.125"
"1574269149960","307","0.10253906","-0.734375","0.15332031","23.25","-12.53125","-19.3125"
"1574269149961","308","0.24511719","-0.79589844","0.1328125","33.96875","-23.28125","-13.03125"
"1574269149961","309","0.22363281","-0.94433594","0.10546875","38.875","-36.28125","-23.40625"
"1574269150161","310","0.24707031","-1.0136719","0.1328125","44.96875","-43.40625","-27.125"
"1574269150162","311","0.15722656","-0.9394531","0.20019531","23.71875","-32.0","-16.6875"
"1574269150162","312","0.0048828125","-0.953125","0.25097656","17.8125","-8.5","-7.875"
"1574269150164","313","0.12792969","-1.0048828","0.17285156","20.1875","14.875","-7.09375"
"1574269150164","314","0.25878906","-0.9404297","0.17675781","11.03125","8.46875","-0.5"
"1574269150164","315","0.27441406","-0.8359375","0.28808594","8.15625","17.5","-6.84375"
"1574269150165","316","0.27539062","-0.8535156","0.2939453","-3.0","4.625","-2.28125"
"1574269150165","317","0.24121094","-0.95410156","0.28027344","-5.8125","11.875","-6.0"
"1574269150165","318","0.28710938","-0.8886719","0.25585938","-6.96875","14.21875","-4.34375"
"1574269150166","319","0.34472656","-0.828125","0.3173828","-13.9375","5.84375","-4.03125"
"1574269150757","320","0.24804688","-0.8730469","0.3017578","-6.5","13.78125","-3.625"
"1574269150757","321","0.18554688","-0.93359375","0.24902344","-5.375","15.5625","-3.875"
"1574269150757","322","0.25195312","-0.9111328","0.2705078","3.21875","8.84375","-6.59375"
"1574269150758","323","0.12207031","-0.90234375","0.15820312","-18.03125","16.59375","-1.46875"
"1574269150758","324","0.09082031","-0.9423828","0.09472656","-18.3125","15.5","0.71875"
"1574269150759","325","0.171875","-0.9189453","0.16796875","-13.375","7.1875","-2.34375"
"1574269150760","326","0.125","-0.9433594","0.15527344","-1.78125","4.0625","1.09375"
"1574269150760","327","0.111328125","-0.90722656","0.12402344","-1.0","11.34375","1.3125"
"1574269150761","328","0.19824219","-0.87890625","0.14941406","1.375","9.6875","2.1875"
"1574269150761","329","0.203125","-0.9091797","0.18554688","-1.90625","12.4375","6.5625"
"1574269150954","330","0.30371094","-0.8847656","0.24804688","1.8125","8.46875","-0.75"
"1574269150954","331","0.3330078","-0.8701172","0.28515625","11.59375","2.84375","0.21875"
"1574269150955","332","0.25878906","-0.9433594","0.28710938","2.375","7.90625","-0.75"
"1574269150955","333","0.2529297","-0.94628906","0.24511719","5.125","2.3125","-3.96875"
"1574269150955","334","0.29882812","-0.86621094","0.2763672","8.28125","-2.15625","-2.9375"
"1574269150955","335","0.296875","-0.8701172","0.23828125","4.0625","-10.40625","-2.8125"
"1574269150955","336","0.23242188","-0.90234375","0.2265625","4.8125","-16.75","3.90625"
"1574269150957","337","0.19042969","-0.8808594","0.21875","-6.375","-5.9375","5.21875"
"1574269150957","338","0.1875","-0.9345703","0.18945312","-17.59375","-0.6875","8.34375"
"1574269150957","339","0.10058594","-0.93359375","0.17382812","-31.375","13.21875","16.78125"
"1574269151352","340","0.1640625","-1.0214844","0.10644531","-40.40625","13.65625","15.3125"
"1574269151353","341","0.140625","-0.94628906","0.16601562","-29.0","24.28125","13.65625"
"1574269151353","342","0.3046875","-0.8535156","0.265625","-18.4375","23.0","-0.875"
"1574269151353","343","0.17285156","-0.91503906","0.19628906","-14.34375","4.875","16.78125"
"1574269151356","344","-0.14550781","-0.95410156","0.0390625","-40.84375","36.84375","26.46875"
"1574269151356","345","0.025390625","-0.9550781","0.09472656","-38.96875","57.71875","25.125"
"1574269151357","346","0.31933594","-0.9814453","0.103515625","-6.4375","40.34375","23.84375"
"1574269151357","347","0.059570312","-0.8730469","0.037109375","-5.5625","37.46875","22.75"
"1574269151357","348","0.036132812","-0.8691406","0.01953125","-25.03125","40.15625","16.09375"
"1574269151358","349","0.25390625","-0.8964844","0.09765625","-10.40625","33.0625","1.5625"
"1574269151750","350","0.18066406","-0.875","0.0390625","-1.90625","11.53125","-0.9375"
"1574269151751","351","-0.001953125","-0.91503906","0.001953125","-14.71875","6.9375","7.6875"
"1574269151751","352","0.0859375","-0.88671875","-0.0234375","-1.1875","9.4375","-5.4375"
"1574269151751","353","0.16503906","-0.8798828","-0.0107421875","13.0","-17.09375","-12.03125"
"1574269151751","354","-0.0078125","-0.9160156","0.040039062","-15.9375","4.75","-2.09375"
"1574269151751","355","-0.09082031","-0.9423828","-0.0126953125","-2.8125","12.6875","5.46875"
"1574269151752","356","0.12695312","-0.8876953","-0.0029296875","1.3125","10.375","2.125"
"1574269151752","357","0.030273438","-0.85253906","-0.00390625","0.78125","11.9375","7.90625"
"1574269151752","358","-0.044921875","-0.89453125","-0.072265625","-11.0","14.28125","7.625"
"1574269151753","359","0.14648438","-0.9277344","0.0126953125","-14.1875","20.96875","-4.53125"
"1574269152147","360","0.19433594","-0.98535156","0.041992188","-6.5","1.28125","-9.90625"
"1574269152148","361","0.028320312","-0.9160156","0.07519531","-6.375","-3.5625","-7.21875"
"1574269152149","362","0.052734375","-0.8769531","0.13671875","-4.84375","6.75","-5.6875"
"1574269152149","363","0.13867188","-0.9160156","0.10449219","-2.03125","0.46875","-1.3125"
"1574269152149","364","0.0703125","-0.9345703","0.020507812","10.53125","-8.3125","-1.65625"
"1574269152150","365","0.0703125","-0.89941406","0.041015625","1.28125","-14.25","-0.25"
"1574269152150","366","0.07324219","-0.90722656","-0.017578125","-6.65625","-18.5","-0.625"
"1574269152150","367","-0.0068359375","-0.95703125","-0.05859375","-9.125","-6.1875","0.71875"
"1574269152150","368","0.02734375","-0.9111328","0.0029296875","-8.0625","-2.46875","2.25"
"1574269152151","369","-0.01953125","-0.9277344","-0.041992188","-0.125","2.1875","11.71875"
"1574269152544","370","0.0078125","-0.8828125","-0.038085938","7.25","3.46875","10.1875"
"1574269152544","371","0.06933594","-0.8496094","-0.0146484375","5.46875","-1.0","5.65625"
"1574269152545","372","0.08300781","-0.8691406","-0.017578125","22.09375","-7.03125","2.84375"
"1574269152546","373","0.12890625","-0.86816406","0.043945312","11.65625","-8.5","-5.6875"
"1574269152546","374","-0.0048828125","-0.97558594","9.765625E-4","5.84375","-5.4375","-5.5"
"1574269152546","375","0.080078125","-0.90527344","0.016601562","20.1875","-13.1875","-9.15625"
"1574269152547","376","0.18554688","-0.859375","0.001953125","8.96875","-16.5625","-17.90625"
"1574269152547","377","0.22265625","-0.8935547","0.11425781","21.65625","-30.40625","-26.6875"
"1574269152547","378","0.24902344","-0.9013672","0.17480469","21.46875","-43.59375","-28.21875"
"1574269152548","379","-0.16601562","-1.0869141","0.111328125","12.9375","-29.9375","-8.0"
