"# PR data"
"# Start time: 20191120T170020"
"# Subject: andrius"
"# Activity type: Step ups"
"# Correctness: Correct"
"# Notes: "
""
"timestamp","seq","accel_x","accel_y","accel_z","gyro_x","gyro_y","gyro_z"
"1574269220517","0","0.17089844","-0.9042969","0.049804688","-0.0625","7.3125","-0.5"
"1574269220517","1","0.18652344","-0.90625","0.068359375","-1.25","9.3125","-1.84375"
"1574269220517","2","0.17578125","-0.93066406","0.059570312","0.65625","6.875","-0.5625"
"1574269220518","3","0.17089844","-0.9082031","0.06542969","0.03125","9.125","-1.25"
"1574269220518","4","0.17382812","-0.8955078","0.06542969","-0.5","8.40625","0.15625"
"1574269220518","5","0.18359375","-0.9248047","0.06640625","0.90625","7.375","0.46875"
"1574269220518","6","0.17675781","-0.9169922","0.059570312","1.09375","9.03125","0.34375"
"1574269220519","7","0.16992188","-0.90625","0.078125","-1.46875","6.09375","-0.5625"
"1574269220519","8","0.16894531","-0.91308594","0.06933594","-0.875","7.96875","-0.375"
"1574269220519","9","0.17578125","-0.9160156","0.06640625","-0.8125","6.8125","-1.40625"
"1574269221113","10","0.1640625","-0.9091797","0.07128906","-2.6875","7.84375","-1.65625"
"1574269221114","11","0.17480469","-0.91308594","0.053710938","-3.0625","6.09375","-1.34375"
"1574269221114","12","0.18457031","-0.91308594","0.055664062","-2.9375","9.75","-1.0625"
"1574269221115","13","0.18652344","-0.9160156","0.07714844","0.21875","8.59375","-0.4375"
"1574269221116","14","0.18066406","-0.91503906","0.06640625","-2.21875","6.625","-2.15625"
"1574269221116","15","0.17578125","-0.9013672","0.059570312","-1.46875","5.1875","-1.53125"
"1574269221116","16","0.15625","-0.9013672","0.07519531","-2.21875","7.0625","-1.90625"
"1574269221116","17","0.18945312","-0.9199219","0.060546875","-3.875","5.40625","-3.0625"
"1574269221117","18","0.18261719","-0.91796875","0.060546875","-0.875","5.59375","-0.375"
"1574269221117","19","0.16308594","-0.90527344","0.06347656","-1.25","6.8125","-0.9375"
"1574269221312","20","0.203125","-0.91503906","0.06640625","-3.4375","5.71875","0.09375"
"1574269221313","21","0.18164062","-0.91015625","0.06347656","0.65625","2.5","-0.125"
"1574269221313","22","0.17480469","-0.91015625","0.064453125","-2.40625","1.375","-0.3125"
"1574269221313","23","0.20214844","-0.9169922","0.055664062","-3.0625","1.28125","-0.75"
"1574269221314","24","0.16210938","-0.9033203","0.060546875","-4.28125","-0.4375","0.90625"
"1574269221316","25","0.16992188","-0.9199219","0.05859375","-9.28125","5.28125","-0.375"
"1574269221316","26","0.15136719","-0.9111328","0.041015625","-7.59375","4.5","1.5"
"1574269221316","27","0.107421875","-0.9160156","0.030273438","-9.71875","11.53125","3.53125"
"1574269221317","28","0.08691406","-0.91015625","0.049804688","-3.8125","21.34375","8.15625"
"1574269221317","29","0.08203125","-0.8955078","0.043945312","3.71875","21.28125","9.125"
"1574269221709","30","0.072265625","-0.91503906","-0.017578125","4.75","32.6875","7.8125"
"1574269221709","31","0.140625","-0.9140625","0.043945312","16.21875","36.0","7.90625"
"1574269221710","32","0.22753906","-0.83984375","0.1328125","27.28125","19.8125","5.46875"
"1574269221710","33","0.19042969","-0.8730469","0.08984375","28.0","11.8125","4.0"
"1574269221710","34","0.2548828","-0.98046875","0.16992188","22.625","5.90625","10.0625"
"1574269221710","35","0.21484375","-0.89160156","0.125","21.21875","15.96875","2.96875"
"1574269221711","36","0.14355469","-1.0429688","0.11425781","15.0625","22.3125","6.46875"
"1574269221712","37","0.2607422","-0.9580078","0.044921875","24.59375","19.9375","5.34375"
"1574269221712","38","0.29003906","-0.78808594","0.15722656","18.0","23.4375","4.5625"
"1574269221713","39","0.21972656","-0.8798828","0.16699219","23.0","19.6875","-2.40625"
"1574269222106","40","0.1953125","-0.93847656","0.12792969","16.65625","8.03125","2.84375"
"1574269222107","41","0.14453125","-0.92285156","0.14648438","15.0625","22.125","1.21875"
"1574269222107","42","0.22265625","-0.890625","0.16015625","7.375","19.625","1.15625"
"1574269222107","43","0.25585938","-0.859375","0.16015625","5.0625","19.03125","9.6875"
"1574269222107","44","0.2421875","-0.94433594","0.13476562","-9.21875","19.28125","1.6875"
"1574269222108","45","0.2421875","-0.9794922","0.11328125","-16.0","22.375","0.46875"
"1574269222108","46","0.32910156","-1.0947266","0.20019531","-25.46875","16.28125","-0.6875"
"1574269222108","47","0.05078125","-1.1630859","0.32128906","-10.875","15.78125","-4.46875"
"1574269222108","48","-0.14453125","-1.3691406","0.2861328","-56.21875","46.6875","18.125"
"1574269222109","49","-0.13183594","-1.6992188","0.29589844","-16.0","40.9375","9.8125"
"1574269222505","50","0.046875","-0.7910156","0.2626953","41.3125","29.78125","15.84375"
"1574269222506","51","-0.09667969","-0.61816406","0.19042969","-13.6875","2.1875","11.28125"
"1574269222506","52","-0.1015625","-1.03125","0.17871094","-31.21875","22.1875","-1.90625"
"1574269222506","53","0.07519531","-0.91015625","0.0859375","6.03125","-9.40625","-3.96875"
"1574269222507","54","0.14160156","-0.6074219","0.15527344","-13.875","-8.875","-10.34375"
"1574269222507","55","0.046875","-0.6347656","0.140625","-20.40625","-1.96875","-13.03125"
"1574269222507","56","-0.0146484375","-0.70410156","0.12109375","-9.125","-9.125","5.34375"
"1574269222507","57","-0.029296875","-0.70703125","0.091796875","-9.46875","-5.4375","-0.25"
"1574269222508","58","-0.03515625","-0.72558594","0.18554688","-4.09375","-2.28125","-6.71875"
"1574269222508","59","-0.083984375","-0.7705078","0.07910156","2.4375","-19.78125","-8.625"
"1574269222903","60","0.01953125","-0.7763672","0.0625","6.875","-23.9375","-13.03125"
"1574269222905","61","0.3466797","-0.96191406","0.33398438","2.65625","-21.3125","-22.46875"
"1574269222905","62","-0.13378906","-1.140625","0.24609375","41.5625","-23.6875","-5.5"
"1574269222905","63","-0.07324219","-0.8701172","0.32617188","32.40625","0.65625","14.9375"
"1574269222906","64","0.033203125","-0.75683594","0.31152344","6.6875","7.5625","-0.9375"
"1574269222906","65","0.27246094","-0.81152344","0.20996094","3.78125","8.03125","-14.84375"
"1574269222906","66","0.14941406","-0.8232422","0.24609375","-6.53125","-14.25","6.03125"
"1574269222906","67","-0.16992188","-0.63964844","0.26171875","0.34375","24.28125","-5.375"
"1574269222907","68","0.017578125","-0.64160156","0.21484375","-5.8125","30.9375","5.125"
"1574269222907","69","0.20019531","-0.6826172","0.17675781","12.5","30.1875","-7.9375"
"1574269223300","70","0.15625","-0.5029297","0.38183594","-7.65625","23.65625","2.65625"
"1574269223300","71","-0.03515625","-0.67089844","0.2578125","4.0","15.3125","-4.28125"
"1574269223301","72","0.0048828125","-0.6972656","0.35253906","16.15625","17.875","22.3125"
"1574269223301","73","0.0078125","-0.82421875","0.24121094","-11.78125","12.3125","0.21875"
"1574269223301","74","0.020507812","-1.3701172","0.37109375","-33.78125","30.5625","12.625"
"1574269223301","75","-0.05859375","-1.9140625","0.07714844","-9.46875","21.03125","-3.25"
"1574269223302","76","0.31640625","-1.4560547","0.12988281","36.96875","-10.40625","-18.8125"
"1574269223302","77","0.3232422","-1.0458984","0.19824219","6.6875","6.15625","-13.1875"
"1574269223302","78","-0.053710938","-1.0800781","-0.0068359375","29.59375","3.65625","17.0"
"1574269223303","79","0.10644531","-0.78222656","0.14355469","35.875","6.03125","4.25"
"1574269223697","80","0.24707031","-0.75390625","0.1171875","-14.0","7.84375","3.59375"
"1574269223698","81","0.14648438","-0.99121094","0.1171875","-20.09375","0.34375","12.5"
"1574269223698","82","0.12011719","-0.8925781","0.1796875","8.65625","-11.96875","4.0"
"1574269223698","83","0.072265625","-0.7763672","0.099609375","-1.90625","-19.0","6.46875"
"1574269223699","84","0.049804688","-0.7841797","0.059570312","-11.625","-15.40625","16.53125"
"1574269223699","85","0.046875","-0.8642578","0.06347656","-27.96875","-11.5625","7.625"
"1574269223700","86","0.0078125","-1.0048828","0.06542969","-35.71875","-14.65625","-13.5625"
"1574269223700","87","-0.024414062","-1.0527344","0.095703125","-22.40625","1.28125","-14.90625"
"1574269223700","88","-0.028320312","-1.0849609","0.28710938","-12.15625","11.53125","-11.90625"
"1574269223701","89","-0.061523438","-0.9785156","0.37304688","38.1875","6.6875","12.375"
"1574269224094","90","0.15820312","-0.6933594","0.20019531","37.53125","-4.78125","5.0625"
"1574269224095","91","0.29101562","-0.69140625","0.2265625","-10.75","-6.375","-11.71875"
"1574269224095","92","0.39941406","-1.1279297","0.15722656","-38.96875","-27.78125","-30.90625"
"1574269224095","93","0.09375","-1.2646484","0.13574219","15.78125","-23.21875","-13.75"
"1574269224096","94","-0.005859375","-0.71875","0.18164062","24.71875","-4.84375","-2.625"
"1574269224096","95","0.19238281","-0.67578125","0.21289062","-2.625","4.0625","-3.0625"
"1574269224096","96","0.26464844","-0.9736328","0.14257812","2.1875","-0.5","2.0"
"1574269224097","97","0.19726562","-0.90722656","0.19042969","21.65625","2.5","1.375"
"1574269224097","98","0.27246094","-0.8183594","0.19140625","16.21875","-6.71875","-1.25"
"1574269224097","99","0.24316406","-0.9970703","0.13183594","-2.53125","-5.625","-1.78125"
"1574269224888","100","0.12207031","-1.1191406","0.15625","-4.65625","2.375","-7.03125"
"1574269224888","101","0.19628906","-1.140625","0.19042969","-25.90625","10.40625","-13.625"
"1574269224889","102","0.36132812","-1.2871094","0.40039062","-7.34375","1.03125","-18.21875"
"1574269224889","103","0.020507812","-1.5068359","0.2734375","-23.34375","5.28125","-12.15625"
"1574269224890","104","-0.2685547","-1.3417969","0.16308594","-8.375","52.21875","-1.3125"
"1574269224890","105","0.09472656","-0.70703125","0.4140625","20.0","28.71875","21.84375"
"1574269224891","106","0.08984375","-0.6689453","0.18847656","-21.875","3.15625","3.34375"
"1574269224891","107","-0.048828125","-0.9765625","0.20214844","-21.8125","16.28125","-6.71875"
"1574269224891","108","0.083984375","-0.80078125","0.111328125","-6.59375","-4.21875","2.71875"
"1574269224892","109","0.21582031","-0.56933594","0.19824219","-22.53125","8.15625","-12.96875"
"1574269225086","110","0.11816406","-0.5986328","0.17285156","-9.96875","2.59375","-14.65625"
"1574269225086","111","0.0234375","-0.63964844","0.083984375","-17.78125","0.40625","0.96875"
"1574269225087","112","0.08984375","-0.68847656","0.16503906","-15.6875","-1.0625","0.0"
"1574269225087","113","0.0625","-0.8457031","0.15429688","2.71875","-12.96875","-8.9375"
"1574269225088","114","-0.046875","-0.9160156","0.12011719","-15.53125","-8.25","-11.5625"
"1574269225088","115","0.056640625","-0.94628906","0.045898438","-4.40625","-8.5625","-9.0"
"1574269225088","116","0.27148438","-0.8535156","0.22070312","-4.90625","-15.6875","-9.0"
"1574269225089","117","0.09472656","-1.0146484","0.21582031","-6.53125","-18.03125","-14.59375"
"1574269225089","118","0.09375","-0.9550781","0.22460938","30.875","-27.125","6.21875"
"1574269225089","119","0.15332031","-0.5878906","0.421875","21.96875","-25.40625","14.5"
"1574269225485","120","-0.044921875","-0.8251953","0.27539062","-20.34375","-18.21875","-6.53125"
"1574269225486","121","0.052734375","-1.1113281","0.10449219","-3.96875","-9.46875","-5.75"
"1574269225487","122","0.24121094","-0.85546875","0.21679688","-12.15625","-4.46875","13.28125"
"1574269225488","123","-0.09472656","-0.6845703","0.14453125","-1.59375","16.71875","-5.625"
"1574269225488","124","0.0703125","-0.609375","0.23535156","10.84375","27.15625","9.25"
"1574269225489","125","0.20117188","-0.5839844","0.1875","10.25","21.90625","11.40625"
"1574269225489","126","0.09375","-0.5839844","0.34179688","4.0","29.53125","1.6875"
"1574269225489","127","0.14160156","-0.88183594","0.24316406","-5.9375","11.21875","2.25"
"1574269225490","128","0.0126953125","-0.7871094","0.25195312","41.125","1.09375","7.25"
"1574269225490","129","0.14941406","-0.6611328","0.32226562","-12.09375","-1.40625","14.8125"
"1574269225685","130","-0.15820312","-0.9501953","0.3232422","25.0625","20.8125","23.53125"
"1574269225685","131","-0.10449219","-1.7167969","0.19238281","-56.53125","21.28125","23.0625"
"1574269225685","132","0.1796875","-1.8466797","-0.026367188","27.03125","16.84375","1.3125"
"1574269225687","133","0.4248047","-1.0869141","0.15429688","34.46875","12.25","-6.96875"
"1574269225688","134","0.15722656","-1.1816406","0.119140625","10.78125","-15.8125","9.25"
"1574269225688","135","-0.09082031","-0.9199219","0.0","50.78125","5.46875","7.625"
"1574269225688","136","0.09863281","-0.68652344","0.15527344","7.5","13.65625","4.0"
"1574269225688","137","0.15917969","-0.890625","0.16503906","-18.75","18.0625","7.8125"
"1574269225689","138","0.064453125","-1.0810547","0.036132812","-18.5625","13.21875","3.46875"
"1574269225689","139","0.16015625","-0.8642578","0.1484375","-8.5","2.78125","-4.34375"
"1574269226084","140","0.15917969","-0.65722656","0.06933594","-13.9375","-3.0","-2.75"
"1574269226084","141","0.048828125","-0.8564453","0.044921875","-29.0625","-1.59375","6.6875"
"1574269226085","142","0.05859375","-1.0644531","0.041992188","-10.8125","0.46875","0.0"
"1574269226085","143","0.001953125","-0.83496094","0.11425781","19.34375","7.25","3.34375"
"1574269226085","144","0.13867188","-0.88183594","0.19921875","-2.6875","-0.0625","-8.875"
"1574269226085","145","0.21289062","-1.1123047","0.21777344","22.875","-10.6875","-22.59375"
"1574269226086","146","0.115234375","-0.9033203","0.37695312","41.71875","-35.125","15.625"
"1574269226086","147","-0.17285156","-0.74902344","0.2763672","43.75","-24.6875","9.03125"
"1574269226086","148","0.12011719","-0.7890625","0.15625","-13.125","6.875","0.84375"
"1574269226086","149","0.4375","-1.1347656","0.31640625","-25.09375","-21.1875","-9.34375"
"1574269226878","150","0.021484375","-1.2167969","0.22949219","38.4375","-27.0","-3.4375"
"1574269226879","151","-0.0107421875","-0.7548828","0.19335938","32.75","5.90625","-3.75"
"1574269226879","152","0.15820312","-0.74316406","0.20800781","-24.6875","5.84375","3.90625"
"1574269226879","153","0.16308594","-1.0058594","0.25390625","7.375","7.90625","12.25"
"1574269226880","154","0.203125","-0.8535156","0.25195312","19.8125","6.03125","-1.90625"
"1574269226880","155","0.17578125","-0.86328125","0.25390625","2.84375","0.0","-5.25"
"1574269226880","156","0.23242188","-1.0302734","0.22070312","-2.34375","-2.875","-2.15625"
"1574269226882","157","0.16210938","-1.0703125","0.19335938","-17.96875","6.09375","-12.15625"
"1574269226882","158","0.20019531","-1.0898438","0.31445312","-37.25","6.5","-5.4375"
"1574269226883","159","0.12597656","-1.3574219","0.4091797","-44.875","5.1875","-5.4375"
"1574269227074","160","-0.18847656","-1.6972656","0.3076172","-49.875","14.8125","2.3125"
"1574269227074","161","-0.16503906","-1.1494141","0.20019531","-15.9375","36.0","10.375"
"1574269227074","162","0.036132812","-0.63378906","0.32617188","20.84375","15.0625","4.8125"
"1574269227075","163","-0.07714844","-0.6621094","0.26757812","-17.65625","-3.125","4.875"
"1574269227075","164","-0.11621094","-1.0546875","0.19042969","-4.40625","11.09375","-6.25"
"1574269227075","165","0.0703125","-0.7714844","0.115234375","-1.3125","1.15625","-4.21875"
"1574269227075","166","0.18652344","-0.5263672","0.21679688","-19.59375","0.59375","-15.46875"
"1574269227075","167","0.09667969","-0.5996094","0.18261719","-13.125","-0.25","-10.75"
"1574269227076","168","-0.02734375","-0.6689453","0.109375","-2.875","-2.34375","-5.4375"
"1574269227077","169","0.0107421875","-0.6933594","0.16601562","-23.625","-1.90625","-3.875"
"1574269227274","170","-0.00390625","-0.7734375","0.18164062","-22.15625","2.3125","-13.125"
"1574269227274","171","-0.09667969","-0.9589844","0.08203125","-2.46875","-9.71875","-13.8125"
"1574269227275","172","0.038085938","-0.875","0.06347656","5.96875","-15.59375","-9.78125"
"1574269227275","173","0.19628906","-0.828125","0.20605469","3.46875","-28.9375","-11.125"
"1574269227275","174","0.10546875","-0.98828125","0.3466797","25.0625","-26.3125","-8.5625"
"1574269227275","175","-0.05859375","-1.0322266","0.22851562","44.1875","-30.96875","8.46875"
"1574269227276","176","0.013671875","-0.6904297","0.35742188","39.40625","-9.90625","25.0625"
"1574269227276","177","0.041992188","-0.7734375","0.34960938","2.0","-1.96875","-1.78125"
"1574269227276","178","0.09863281","-1.0830078","0.25","-12.03125","0.59375","-11.5"
"1574269227276","179","0.1171875","-0.9189453","0.2705078","0.03125","-2.875","21.15625"
"1574269227872","180","-0.0087890625","-0.6435547","0.30566406","7.8125","17.1875","-3.125"
"1574269227873","181","0.053710938","-0.65527344","0.26660156","1.6875","22.5625","-3.125"
"1574269227874","182","0.12597656","-0.75097656","0.23730469","1.8125","18.96875","3.90625"
"1574269227874","183","0.052734375","-0.56347656","0.32714844","6.8125","34.09375","-9.46875"
"1574269227874","184","0.12597656","-0.5214844","0.38671875","11.03125","16.15625","3.34375"
"1574269227875","185","0.018554688","-0.71484375","0.29589844","5.34375","15.1875","-2.53125"
"1574269227875","186","0.017578125","-0.8466797","0.39257812","0.84375","20.4375","12.5"
"1574269227875","187","-0.07519531","-0.82421875","0.296875","6.46875","8.34375","7.6875"
"1574269227876","188","0.08691406","-1.2685547","0.3388672","-54.15625","27.625","8.59375"
"1574269227876","189","-0.24023438","-1.9140625","0.021484375","-23.09375","26.90625","-12.21875"
"1574269228466","190","0.20898438","-1.1523438","0.27734375","14.5","28.1875","-1.25"
"1574269228466","191","0.51660156","-0.89160156","0.29492188","24.03125","21.40625","-6.78125"
"1574269228466","192","-0.053710938","-1.1191406","0.016601562","18.34375","-8.6875","18.71875"
"1574269228468","193","-0.09863281","-0.9765625","0.041015625","-2.875","11.875","-6.1875"
"1574269228468","194","0.2998047","-0.7890625","0.12988281","-15.03125","16.34375","-8.1875"
"1574269228469","195","0.171875","-0.76660156","0.13867188","-15.28125","1.6875","2.1875"
"1574269228469","196","0.061523438","-0.97753906","0.037109375","-14.46875","-4.40625","-12.78125"
"1574269228469","197","0.13671875","-0.86328125","0.072265625","-18.3125","-2.09375","-1.84375"
"1574269228470","198","0.13964844","-0.83203125","0.083984375","-5.5","0.59375","-1.90625"
"1574269228470","199","0.16992188","-0.8808594","0.078125","-7.9375","-12.15625","-2.75"
"1574269228665","200","0.00390625","-0.93359375","0.087890625","-12.03125","-3.0625","-0.9375"
"1574269228666","201","-0.029296875","-1.0361328","0.13476562","-12.65625","-3.0625","-14.53125"
"1574269228666","202","0.099609375","-0.9970703","0.11621094","-10.15625","3.03125","-17.71875"
"1574269228666","203","0.27148438","-0.9941406","0.43554688","-17.71875","-11.625","-19.96875"
"1574269228666","204","-0.099609375","-0.9404297","0.27148438","38.625","-23.03125","-2.28125"
"1574269228668","205","-0.18066406","-0.5673828","0.12402344","32.75","-16.25","22.3125"
"1574269228668","206","0.42285156","-0.7871094","0.22460938","-54.40625","23.375","-32.5625"
"1574269228668","207","0.5263672","-1.4453125","0.20507812","-0.9375","-39.125","-10.40625"
"1574269228668","208","0.072265625","-0.9580078","0.0390625","43.1875","-13.5","-12.96875"
"1574269228669","209","-0.001953125","-0.6767578","0.095703125","-16.0","-3.8125","-7.71875"
"1574269229260","210","0.14160156","-0.93847656","0.17871094","-11.90625","23.0625","12.875"
"1574269229261","211","0.2783203","-0.9824219","0.11328125","8.15625","21.03125","0.65625"
"1574269229261","212","0.3203125","-0.75097656","0.18652344","20.84375","1.875","0.28125"
"1574269229261","213","0.28710938","-0.8339844","0.20605469","11.65625","-5.5","-1.1875"
"1574269229261","214","0.16308594","-1.0029297","0.13964844","3.21875","2.25","0.03125"
"1574269229261","215","0.3017578","-1.0302734","0.18457031","-5.21875","7.84375","-3.8125"
"1574269229262","216","0.28710938","-1.1611328","0.24609375","-21.9375","9.4375","-19.65625"
"1574269229263","217","0.01953125","-1.4648438","0.3154297","-20.21875","-3.5625","-4.65625"
"1574269229263","218","-0.09375","-1.6455078","0.20605469","-33.71875","35.5","-3.875"
"1574269229264","219","0.055664062","-1.1474609","0.31640625","5.34375","36.0625","12.75"
"1574269229460","220","-0.0126953125","-0.6171875","0.32714844","24.75","11.28125","24.75"
"1574269229460","221","-0.18261719","-0.7558594","0.15917969","-11.25","10.3125","16.65625"
"1574269229461","222","0.005859375","-0.9042969","0.12402344","-5.625","24.71875","8.46875"
"1574269229461","223","0.16894531","-0.6611328","0.11425781","-1.78125","4.8125","12.75"
"1574269229461","224","0.16699219","-0.54296875","0.22363281","-4.34375","4.5","-5.3125"
"1574269229461","225","0.07324219","-0.64941406","0.12890625","-9.78125","3.9375","-8.0"
"1574269229462","226","0.01953125","-0.7011719","0.05859375","-1.59375","7.625","-1.1875"
"1574269229462","227","0.057617188","-0.78125","0.15136719","1.15625","9.25","-5.15625"
"1574269229462","228","0.08203125","-0.9013672","0.1953125","-0.375","-8.5625","-7.78125"
"1574269229464","229","-0.0029296875","-0.9394531","0.032226562","5.28125","-14.65625","-11.5"
"1574269230055","230","0.08203125","-0.8339844","0.06738281","-8.375","-12.03125","-9.125"
"1574269230056","231","0.20703125","-0.7626953","0.34570312","-3.25","-18.625","-13.375"
"1574269230056","232","-0.0048828125","-1.0478516","0.2783203","11.34375","-11.0625","-3.5"
"1574269230056","233","-0.0087890625","-1.0302734","0.24511719","47.21875","-28.875","19.75"
"1574269230057","234","0.16992188","-0.7529297","0.31640625","26.96875","-2.75","2.5"
"1574269230057","235","0.078125","-0.90234375","0.33007812","-1.90625","-9.40625","-4.46875"
"1574269230057","236","-0.0146484375","-0.96777344","0.30664062","29.53125","-18.03125","6.6875"
"1574269230057","237","0.15429688","-0.6435547","0.3798828","18.71875","-1.40625","3.65625"
"1574269230058","238","0.103515625","-0.68847656","0.28320312","4.0625","-4.09375","-1.3125"
"1574269230058","239","0.022460938","-0.8388672","0.31054688","14.15625","10.25","8.03125"
"1574269230257","240","0.0126953125","-0.7011719","0.26660156","0.96875","5.0","1.5"
"1574269230258","241","0.056640625","-0.54003906","0.3330078","-19.25","19.28125","-6.84375"
"1574269230258","242","0.13183594","-0.7314453","0.46191406","-22.0","18.65625","-4.09375"
"1574269230259","243","-0.046875","-0.76953125","0.3095703","26.28125","-1.78125","-6.53125"
"1574269230259","244","0.06640625","-0.6503906","0.44140625","-39.5625","13.34375","8.71875"
"1574269230259","245","-0.15917969","-1.0185547","0.3388672","8.15625","11.59375","10.84375"
"1574269230260","246","0.049804688","-1.1523438","0.40429688","-51.21875","29.03125","32.09375"
"1574269230260","247","-0.15429688","-1.9111328","-0.1015625","-39.03125","17.6875","-7.40625"
"1574269230260","248","0.38867188","-1.4238281","0.25976562","-9.96875","40.34375","-7.40625"
"1574269230260","249","0.23242188","-1.0605469","0.3173828","23.90625","-8.9375","-6.90625"
"1574269230653","250","-0.11425781","-0.9326172","-0.119140625","58.6875","4.5625","15.3125"
"1574269230654","251","0.0146484375","-0.69433594","0.14746094","3.71875","24.8125","8.03125"
"1574269230654","252","0.22167969","-0.8251953","0.11328125","-9.65625","25.625","-5.25"
"1574269230655","253","0.2939453","-1.0507812","0.05859375","-17.21875","15.25","-14.90625"
"1574269230656","254","0.11621094","-0.8623047","0.25878906","10.84375","-6.375","-7.03125"
"1574269230656","255","0.0625","-0.77734375","0.10839844","0.65625","0.28125","-2.28125"
"1574269230656","256","0.078125","-0.9375","0.08984375","-16.5","6.875","9.6875"
"1574269230656","257","0.14160156","-1.0039062","0.033203125","-5.75","3.9375","9.125"
"1574269230657","258","0.109375","-0.87597656","0.1328125","-4.96875","2.78125","0.53125"
"1574269230657","259","0.024414062","-0.8408203","0.13574219","6.8125","-6.78125","5.21875"
"1574269231249","260","0.12402344","-0.8691406","0.18457031","4.9375","-15.8125","-6.78125"
"1574269231249","261","0.087890625","-0.9921875","0.23046875","-3.1875","-18.75","-23.28125"
"1574269231249","262","0.099609375","-1.0644531","0.3935547","6.625","-22.78125","9.125"
"1574269231250","263","-0.08886719","-0.80078125","0.40234375","60.34375","-28.75","22.09375"
"1574269231250","264","0.059570312","-0.72558594","0.09472656","-6.3125","-17.15625","-9.59375"
"1574269231251","265","0.3857422","-1.0556641","0.25683594","-42.3125","-22.90625","-20.03125"
"1574269231252","266","0.22460938","-1.2314453","0.36523438","13.46875","-44.875","0.65625"
"1574269231252","267","0.043945312","-0.85058594","0.18164062","38.5","-8.9375","-28.09375"
"1574269231252","268","0.08496094","-0.734375","0.11035156","-27.3125","-8.5625","-4.71875"
"1574269231253","269","0.19921875","-0.94433594","0.2626953","-20.84375","6.21875","2.71875"
"1574269231449","270","0.21484375","-0.87597656","0.2734375","16.53125","6.03125","-3.875"
"1574269231450","271","0.15332031","-0.8144531","0.21484375","7.96875","-1.90625","-0.25"
"1574269231450","272","0.1953125","-0.92285156","0.21679688","-6.1875","5.40625","0.96875"
"1574269231450","273","0.24902344","-0.9404297","0.171875","1.8125","-0.6875","5.40625"
"1574269231451","274","0.20507812","-0.9472656","0.18261719","-13.4375","7.96875","-1.0625"
"1574269231451","275","0.25390625","-1.0605469","0.20898438","-32.1875","5.84375","-9.21875"
"1574269231451","276","0.21679688","-1.2285156","0.29003906","-12.90625","0.65625","-18.875"
"1574269231453","277","-0.041992188","-1.4394531","0.36328125","-28.6875","18.28125","11.15625"
"1574269231453","278","-0.021484375","-1.5478516","0.3330078","-24.0","28.4375","6.8125"
"1574269231453","279","0.11816406","-0.9277344","0.31152344","19.46875","13.15625","13.15625"
"1574269231847","280","-0.15527344","-0.6923828","0.24023438","-16.5625","-0.4375","9.03125"
"1574269231847","281","-0.115234375","-0.8925781","0.1796875","-20.65625","19.15625","3.46875"
"1574269231847","282","0.06347656","-0.8203125","0.1796875","-12.34375","17.125","3.90625"
"1574269231848","283","0.024414062","-0.7060547","0.087890625","-11.5625","2.78125","0.09375"
"1574269231848","284","0.19335938","-0.7011719","0.12207031","-22.34375","4.75","-21.0"
"1574269231848","285","0.19921875","-0.59472656","0.19824219","-15.6875","-6.65625","-17.71875"
"1574269231848","286","-0.03125","-0.59375","0.13085938","-6.59375","-12.84375","-11.6875"
"1574269231849","287","0.0078125","-0.7597656","0.107421875","-17.65625","-1.71875","-11.375"
"1574269231849","288","0.059570312","-0.8730469","0.119140625","-19.3125","-3.4375","-1.34375"
"1574269231850","289","0.021484375","-0.859375","0.12109375","-15.53125","-6.65625","-13.3125"
"1574269232249","290","-0.06738281","-0.9121094","0.0390625","-2.8125","-9.65625","-10.4375"
"1574269232249","291","0.10058594","-0.9140625","0.18066406","6.5625","4.125","-6.53125"
"1574269232250","292","0.21875","-0.9863281","0.296875","29.03125","3.71875","-1.84375"
"1574269232250","293","0.045898438","-0.95214844","0.15625","33.5625","-23.9375","5.21875"
"1574269232251","294","0.055664062","-0.85058594","0.19921875","29.40625","-11.90625","3.09375"
"1574269232251","295","0.18847656","-0.7324219","0.32910156","19.15625","-3.1875","-2.59375"
"1574269232251","296","0.047851562","-0.89453125","0.41503906","3.9375","-14.84375","-3.5"
"1574269232252","297","-0.038085938","-0.9042969","0.2685547","18.21875","-9.59375","-2.40625"
"1574269232252","298","0.08886719","-0.7294922","0.22167969","4.9375","0.65625","16.90625"
"1574269232252","299","0.12207031","-0.7207031","0.26367188","-12.09375","18.71875","3.46875"
"1574269232641","300","0.16113281","-0.8408203","0.24316406","1.625","18.53125","1.15625"
"1574269232642","301","-0.001953125","-0.58984375","0.22558594","30.125","18.71875","18.40625"
"1574269232642","302","0.0859375","-0.40429688","0.25585938","5.0625","33.375","7.625"
"1574269232643","303","0.21875","-0.59472656","0.41210938","-1.53125","25.4375","12.0625"
"1574269232643","304","0.087890625","-0.89941406","0.28710938","8.15625","4.5625","6.03125"
"1574269232643","305","-0.015625","-0.8173828","0.4375","17.875","16.15625","8.59375"
"1574269232643","306","-0.18261719","-0.9814453","0.3984375","-25.53125","10.1875","30.3125"
"1574269232644","307","-0.17382812","-1.8789062","0.17871094","-30.96875","30.9375","-3.8125"
"1574269232644","308","0.4658203","-1.7636719","0.19726562","-5.09375","23.0","-20.03125"
"1574269232644","309","-0.14453125","-1.2988281","0.328125","29.46875","3.34375","5.21875"
"1574269233038","310","0.08105469","-1.0712891","0.13574219","43.0625","15.1875","0.15625"
"1574269233039","311","0.12890625","-0.58691406","0.109375","27.34375","7.375","27.9375"
"1574269233039","312","0.038085938","-0.5576172","0.18066406","0.46875","12.9375","12.75"
"1574269233041","313","0.18847656","-1.0439453","0.051757812","-58.375","13.0","-15.875"
"1574269233042","314","0.08203125","-1.2021484","0.109375","-20.875","-5.4375","-8.8125"
"1574269233042","315","0.10546875","-0.7832031","0.17285156","5.53125","-3.0625","-11.3125"
"1574269233042","316","0.10058594","-0.6845703","0.12207031","-19.59375","3.28125","5.78125"
"1574269233042","317","0.064453125","-0.9482422","0.018554688","-19.25","-15.34375","19.6875"
"1574269233043","318","0.052734375","-0.95410156","0.07910156","-29.875","9.3125","3.53125"
"1574269233043","319","0.078125","-0.9951172","0.046875","-13.3125","6.75","-6.125"
"1574269233437","320","0.13671875","-0.96191406","0.08105469","4.0","-18.15625","-6.25"
"1574269233438","321","0.0390625","-0.76953125","0.0703125","-0.375","-8.9375","-23.21875"
"1574269233438","322","-0.15917969","-1.0039062","0.19921875","-22.21875","-1.65625","-6.59375"
"1574269233439","323","-0.08105469","-1.1142578","0.22949219","26.28125","31.28125","2.0625"
"1574269233439","324","0.12109375","-0.55371094","0.28320312","62.90625","-14.0625","14.09375"
"1574269233440","325","0.21191406","-0.6777344","0.17773438","-20.9375","-12.53125","-17.53125"
"1574269233441","326","0.3330078","-1.4082031","0.11816406","-28.46875","-33.59375","-38.59375"
"1574269233441","327","0.20214844","-1.1230469","0.23828125","22.09375","-45.0625","-13.5625"
"1574269233441","328","0.03125","-0.75390625","0.18457031","3.59375","-13.25","-27.65625"
"1574269233442","329","0.099609375","-0.859375","0.051757812","-18.4375","-8.6875","-8.3125"
"1574269233834","330","0.23828125","-0.9785156","0.18164062","-11.375","1.625","-3.75"
"1574269233835","331","0.1796875","-0.7919922","0.21679688","17.125","-1.34375","-14.1875"
"1574269233835","332","0.16503906","-0.8222656","0.20214844","10.96875","-2.875","0.96875"
"1574269233835","333","0.23828125","-0.9472656","0.17382812","5.53125","0.15625","-3.8125"
"1574269233835","334","0.2734375","-0.88671875","0.17382812","7.96875","-7.71875","-2.46875"
"1574269233836","335","0.22949219","-1.0058594","0.18261719","-9.125","-1.3125","2.25"
"1574269233836","336","0.17773438","-1.1611328","0.16796875","-19.375","3.9375","-10.6875"
"1574269233837","337","0.21972656","-1.2861328","0.28222656","-11.96875","6.8125","-1.59375"
"1574269233838","338","0.061523438","-1.5068359","0.22363281","-33.03125","15.125","0.53125"
"1574269233838","339","0.047851562","-1.390625","0.22949219","-10.4375","43.5625","-0.125"
"1574269234230","340","0.08691406","-0.82421875","0.39941406","22.1875","33.5625","7.6875"
"1574269234231","341","-0.20996094","-0.64941406","0.24511719","20.5","9.25","12.375"
"1574269234231","342","-0.15722656","-0.8125","0.15722656","-16.4375","32.625","9.8125"
"1574269234231","343","0.19726562","-0.76953125","0.17578125","-26.3125","24.875","1.03125"
"1574269234231","344","0.19726562","-0.6953125","0.20996094","-0.6875","-0.875","-9.28125"
"1574269234232","345","0.15527344","-0.70410156","0.18457031","-4.53125","-15.53125","-12.84375"
"1574269234232","346","0.048828125","-0.734375","0.16503906","-4.21875","-8.3125","-13.8125"
"1574269234232","347","-0.0068359375","-0.8154297","0.12109375","-7.78125","0.21875","2.3125"
"1574269234232","348","0.064453125","-0.7792969","0.1484375","-8.8125","6.9375","6.8125"
"1574269234233","349","0.049804688","-0.7783203","0.16894531","-12.53125","-0.75","-2.34375"
"1574269234628","350","0.0107421875","-0.859375","0.11328125","8.65625","-9.125","-9.40625"
"1574269234629","351","0.11816406","-0.7871094","0.13671875","1.03125","-22.78125","-11.78125"
"1574269234630","352","0.30664062","-1.0126953","0.33203125","-1.59375","-26.1875","-16.96875"
"1574269234630","353","-0.043945312","-1.0820312","0.27246094","39.59375","-28.15625","4.0625"
"1574269234631","354","-0.001953125","-0.7324219","0.29589844","29.71875","3.21875","21.40625"
"1574269234631","355","0.09667969","-0.8222656","0.28320312","-23.15625","12.0","-8.5"
"1574269234631","356","0.18359375","-1.1298828","0.22949219","5.34375","-8.3125","-7.8125"
"1574269234632","357","0.17480469","-0.77246094","0.29003906","28.3125","-4.53125","5.59375"
"1574269234632","358","-0.0048828125","-0.578125","0.33789062","11.28125","6.5625","-4.78125"
"1574269234633","359","0.06933594","-0.83203125","0.29003906","-12.09375","20.6875","2.25"
"1574269235026","360","0.14746094","-0.9453125","0.18261719","21.40625","12.25","6.46875"
"1574269235027","361","0.07519531","-0.5546875","0.31347656","18.90625","29.90625","3.09375"
"1574269235027","362","0.18847656","-0.57910156","0.359375","-6.25","18.96875","12.625"
"1574269235027","363","0.103515625","-0.76953125","0.29882812","27.9375","13.59375","5.59375"
"1574269235028","364","0.087890625","-0.6640625","0.3125","-3.25","10.78125","13.03125"
"1574269235028","365","-0.048828125","-0.7109375","0.39453125","8.34375","15.0625","13.71875"
"1574269235028","366","0.07421875","-0.76464844","0.39648438","1.3125","12.9375","25.1875"
"1574269235028","367","-0.013671875","-1.0478516","0.3671875","-6.53125","12.5625","8.84375"
"1574269235028","368","-0.2763672","-1.9140625","0.04296875","-55.5","-8.3125","10.375"
"1574269235029","369","0.34960938","-1.4521484","0.33789062","-7.15625","46.4375","-0.625"
"1574269235423","370","0.1015625","-1.3554688","0.37402344","14.5625","-15.46875","13.0"
"1574269235423","371","-0.16699219","-1.1064453","-0.07421875","45.21875","42.34375","2.25"
"1574269235423","372","0.21777344","-0.56640625","0.18066406","19.34375","28.84375","10.1875"
"1574269235426","373","0.21875","-0.43554688","0.296875","1.3125","22.8125","-9.59375"
"1574269235426","374","0.20214844","-1.0556641","0.036132812","-44.3125","-3.0","-11.71875"
"1574269235426","375","0.029296875","-1.2607422","0.22363281","-21.375","-6.96875","-9.90625"
"1574269235427","376","0.030273438","-0.71972656","0.20898438","3.15625","-7.46875","-8.625"
"1574269235427","377","0.07128906","-0.7060547","0.15820312","-10.75","8.21875","9.03125"
"1574269235427","378","0.087890625","-1.0810547","0.024414062","-27.71875","-8.875","12.0625"
"1574269235427","379","0.13574219","-0.9501953","0.10058594","-8.9375","0.0","-13.8125"
"1574269235821","380","0.041992188","-0.7363281","0.1328125","5.34375","-12.40625","-12.21875"
"1574269235822","381","0.1015625","-0.8408203","0.2734375","-23.6875","-17.90625","-24.6875"
"1574269235822","382","0.051757812","-1.0859375","0.2783203","0.40625","-8.375","-29.75"
"1574269235822","383","0.083984375","-1.1123047","0.37402344","19.40625","-25.09375","25.75"
"1574269235822","384","-0.20019531","-0.86816406","0.20214844","52.71875","-15.15625","12.5"
"1574269235824","385","0.34277344","-0.5810547","0.11621094","-14.53125","15.0","-17.21875"
"1574269235824","386","0.44921875","-1.1455078","0.19824219","-50.1875","-40.40625","-6.71875"
"1574269235825","387","-0.00390625","-1.2089844","0.24414062","45.46875","-17.34375","-13.6875"
"1574269235825","388","0.091796875","-0.6777344","0.18261719","23.96875","1.8125","-10.6875"
"1574269235825","389","0.2109375","-0.75683594","0.22167969","-29.125","4.375","-2.28125"
"1574269236218","390","0.2861328","-1.0234375","0.18359375","-2.28125","0.78125","-2.875"
"1574269236218","391","0.21484375","-0.83691406","0.2421875","13.53125","-10.4375","-9.34375"
"1574269236219","392","0.15136719","-0.8671875","0.25","3.9375","-13.4375","-3.8125"
"1574269236219","393","0.27734375","-0.92578125","0.18164062","-7.21875","-4.78125","-1.59375"
"1574269236219","394","0.18261719","-1.0380859","0.17480469","-19.65625","-3.375","-5.375"
"1574269236219","395","0.17871094","-1.1484375","0.20019531","-23.625","11.09375","-4.09375"
"1574269236220","396","0.19824219","-1.1796875","0.44140625","-24.0625","9.09375","1.03125"
"1574269236220","397","-0.049804688","-1.5947266","0.21777344","-59.84375","18.65625","-1.0625"
"1574269236220","398","-0.0234375","-1.5078125","0.14550781","-15.34375","45.53125","2.5625"
"1574269236220","399","0.15917969","-0.76464844","0.3642578","33.75","26.90625","2.125"
"1574269236617","400","-0.078125","-0.5654297","0.23535156","8.59375","1.5","9.25"
"1574269236617","401","-0.0625","-0.8779297","0.18261719","-19.78125","21.03125","8.03125"
"1574269236617","402","0.11816406","-0.8154297","0.12890625","-4.53125","11.875","-0.4375"
"1574269236617","403","0.14550781","-0.66015625","0.1484375","-1.40625","-1.125","-1.1875"
"1574269236618","404","0.109375","-0.64746094","0.14941406","-5.15625","-3.25","-10.9375"
"1574269236618","405","0.057617188","-0.70410156","0.14648438","-13.25","-2.34375","-1.0625"
"1574269236618","406","0.06933594","-0.73046875","0.10644531","-10.40625","-4.53125","-6.96875"
"1574269236618","407","0.125","-0.8417969","0.140625","-8.25","1.28125","-12.78125"
"1574269236619","408","0.048828125","-0.8203125","0.17382812","-15.8125","-10.8125","-9.90625"
"1574269236620","409","-0.032226562","-0.88183594","0.115234375","-6.53125","-17.28125","-11.625"
"1574269237014","410","-0.005859375","-0.90527344","0.12695312","-6.0625","-13.125","-5.3125"
"1574269237015","411","0.13671875","-0.9296875","0.26171875","-12.96875","-10.28125","-5.15625"
"1574269237015","412","0.1015625","-1.0566406","0.18652344","20.3125","-12.78125","-5.9375"
"1574269237015","413","0.09277344","-0.78125","0.21582031","45.875","-28.15625","13.0"
"1574269237016","414","0.044921875","-0.6425781","0.23925781","15.0","-18.21875","8.15625"
"1574269237016","415","0.16796875","-0.9199219","0.375","-15.9375","3.46875","4.125"
"1574269237016","416","0.06738281","-1.1679688","0.3017578","7.0625","-19.125","7.90625"
"1574269237016","417","-0.0048828125","-0.8730469","0.20996094","25.3125","-0.8125","5.125"
"1574269237017","418","0.095703125","-0.6152344","0.20214844","-11.71875","7.84375","10.59375"
"1574269237017","419","0.15917969","-0.7636719","0.296875","-22.21875","16.15625","1.21875"
"1574269237806","420","0.017578125","-0.76953125","0.21679688","8.21875","5.21875","4.4375"
"1574269237808","421","0.099609375","-0.65625","0.23828125","-10.5625","25.4375","-3.3125"
"1574269237808","422","0.056640625","-0.66015625","0.28027344","-1.46875","24.59375","6.5625"
"1574269237809","423","0.049804688","-0.6230469","0.31640625","-2.8125","17.0","11.15625"
"1574269237809","424","0.044921875","-0.6738281","0.3515625","-13.9375","20.0","-1.84375"
"1574269237809","425","9.765625E-4","-0.859375","0.28808594","-0.1875","2.71875","13.71875"
"1574269237809","426","-0.12988281","-1.0029297","0.27539062","18.21875","17.1875","14.5"
"1574269237810","427","-0.03515625","-1.5478516","0.16113281","-45.4375","4.5","-5.09375"
"1574269237810","428","-0.08886719","-1.7978516","-0.036132812","19.21875","37.8125","0.53125"
"1574269237810","429","0.44140625","-1.0234375","0.13183594","7.8125","30.625","-2.59375"
"1574269238004","430","0.29296875","-1.0703125","0.20605469","10.59375","5.34375","-1.125"
"1574269238004","431","-0.28027344","-1.1210938","-0.059570312","34.59375","13.03125","4.75"
"1574269238005","432","0.061523438","-0.8652344","0.115234375","13.96875","23.0","4.375"
"1574269238006","433","0.30859375","-0.68066406","0.07714844","-15.8125","22.25","5.65625"
"1574269238007","434","0.15332031","-0.99316406","0.032226562","-18.25","-0.0625","7.375"
"1574269238007","435","0.08691406","-1.0273438","0.076171875","-0.625","2.125","-6.4375"
"1574269238007","436","0.2548828","-0.74902344","0.10644531","-0.8125","-17.71875","-8.625"
"1574269238007","437","0.13476562","-0.765625","0.08496094","-14.1875","-22.65625","-2.09375"
"1574269238008","438","-0.11621094","-0.91796875","-0.01171875","-14.125","-5.6875","6.21875"
"1574269238008","439","0.033203125","-0.9404297","0.037109375","-16.5625","14.21875","7.5"
"1574269238207","440","0.15527344","-0.88964844","0.15332031","-3.125","12.875","-2.9375"
"1574269238207","441","0.08300781","-0.9824219","0.08691406","2.0625","-1.90625","-16.9375"
"1574269238207","442","0.029296875","-1.0957031","0.22851562","6.75","-8.3125","-27.71875"
"1574269238207","443","0.037109375","-1.0205078","0.19140625","29.40625","-21.1875","2.5625"
"1574269238208","444","-0.12207031","-0.71777344","0.24902344","48.375","-28.28125","20.375"
"1574269238209","445","0.19042969","-0.61621094","0.09472656","-12.71875","7.3125","-25.65625"
"1574269238209","446","0.4658203","-1.1523438","0.23925781","-50.0625","-27.40625","-21.4375"
"1574269238210","447","-0.059570312","-1.1982422","0.21972656","32.46875","-1.78125","-3.25"
"1574269238210","448","0.061523438","-0.74609375","0.21582031","44.84375","7.625","-11.4375"
"1574269238210","449","0.25390625","-0.71972656","0.11621094","-12.28125","-2.21875","-0.75"
"1574269238800","450","0.23828125","-0.98339844","0.23925781","0.90625","12.625","-1.71875"
"1574269238801","451","0.12988281","-0.8574219","0.2109375","9.9375","2.65625","-3.125"
"1574269238801","452","0.19726562","-0.8613281","0.21191406","12.1875","-4.15625","-5.09375"
"1574269238801","453","0.34960938","-0.97558594","0.18164062","2.1875","-13.1875","-6.1875"
"1574269238801","454","0.12792969","-1.0107422","0.18066406","0.09375","-10.09375","-1.90625"
"1574269238802","455","0.14355469","-1.1367188","0.25097656","-33.21875","0.0","-11.625"
"1574269238802","456","0.2529297","-1.2861328","0.31445312","-12.84375","-12.59375","-7.28125"
"1574269238803","457","-0.033203125","-1.4707031","0.16601562","-14.40625","0.21875","0.53125"
"1574269238804","458","-0.083984375","-1.3554688","0.28320312","-19.65625","39.84375","6.46875"
"1574269238804","459","0.16894531","-0.8105469","0.42285156","26.96875","36.59375","7.0"
"1574269239000","460","-0.022460938","-0.6669922","0.31054688","8.46875","4.5625","8.03125"
"1574269239001","461","-0.18847656","-0.8847656","0.17773438","-5.25","26.71875","0.65625"
"1574269239001","462","0.12207031","-0.78222656","0.1640625","1.5625","20.1875","10.59375"
"1574269239001","463","0.23242188","-0.65234375","0.19042969","4.1875","10.84375","-3.875"
"1574269239001","464","0.19921875","-0.65527344","0.19628906","-10.28125","-3.0625","-17.65625"
"1574269239002","465","0.08300781","-0.6923828","0.18652344","-9.125","-12.53125","-15.8125"
"1574269239002","466","0.048828125","-0.7792969","0.15917969","-15.21875","-4.84375","-10.28125"
"1574269239002","467","0.13476562","-0.84277344","0.18554688","-11.0625","-9.53125","-7.34375"
"1574269239002","468","0.045898438","-0.8466797","0.14746094","-16.875","-18.625","-3.75"
"1574269239004","469","-0.06738281","-0.85253906","0.15332031","-7.78125","-16.1875","-0.4375"
"1574269239993","470","0.072265625","-0.84472656","0.15820312","-20.53125","-14.40625","-3.0625"
"1574269239993","471","0.25","-0.94433594","0.23144531","-9.0625","-30.59375","-4.84375"
"1574269239994","472","0.10644531","-1.0849609","0.2861328","-3.4375","-25.90625","-4.40625"
"1574269239994","473","0.0078125","-0.9003906","0.28222656","13.65625","-13.1875","17.4375"
"1574269239994","474","0.12207031","-0.74316406","0.30664062","-1.65625","13.59375","14.15625"
"1574269239994","475","0.103515625","-0.9794922","0.15332031","-27.71875","-4.09375","-14.65625"
"1574269239995","476","0.24023438","-1.0009766","0.25878906","-1.0625","-10.03125","-5.4375"
"1574269239995","477","0.14453125","-0.64453125","0.28808594","2.59375","-15.21875","0.96875"
"1574269239995","478","-0.0625","-0.6513672","0.21875","-15.75","0.59375","-11.25"
"1574269239995","479","0.103515625","-0.99902344","0.16308594","-19.53125","16.15625","6.5625"
"1574269240190","480","0.13574219","-0.6826172","0.16015625","15.96875","4.5625","-5.15625"
"1574269240191","481","0.18359375","-0.3779297","0.2548828","-3.125","12.4375","-13.6875"
"1574269240192","482","0.17578125","-0.77246094","0.3017578","-26.75","5.84375","-3.5625"
"1574269240192","483","0.048828125","-0.8535156","0.16699219","29.28125","-8.4375","-1.0"
"1574269240192","484","0.060546875","-0.49804688","0.3623047","-2.8125","20.0","9.03125"
"1574269240193","485","-0.0625","-0.8359375","0.36035156","4.5625","18.125","23.3125"
"1574269240194","486","0.05078125","-1.0673828","0.29785156","28.84375","29.65625","35.09375"
"1574269240194","487","-0.0126953125","-1.2890625","0.08203125","-5.625","32.03125","4.8125"
"1574269240194","488","0.049804688","-1.9140625","0.06738281","-14.84375","36.65625","6.6875"
"1574269240195","489","0.39746094","-1.3847656","0.17773438","50.78125","32.34375","10.375"
"1574269240195","490","-0.030273438","-1.1669922","0.099609375","22.5625","12.625","8.71875"
"1574269240195","491","0.11230469","-0.94140625","0.0048828125","41.84375","24.59375","12.1875"
"1574269240195","492","0.17285156","-0.53027344","0.13378906","1.625","21.90625","9.375"
"1574269240196","493","0.076171875","-0.70703125","0.059570312","-2.09375","16.90625","-3.125"
"1574269240196","494","0.20898438","-1.1503906","0.016601562","-28.8125","6.75","1.875"
"1574269240196","495","0.24316406","-0.9794922","0.1640625","5.125","4.9375","-13.875"
"1574269240196","496","0.10839844","-0.71972656","0.17089844","7.84375","-10.28125","-7.34375"
"1574269240197","497","0.07324219","-0.85546875","0.08886719","-9.90625","-9.96875","7.8125"
"1574269240197","498","0.11425781","-1.0185547","0.037109375","-20.28125","0.84375","4.6875"
"1574269240197","499","0.15332031","-0.96875","0.13183594","-16.1875","2.78125","-8.375"
"1574269240592","500","0.038085938","-0.86328125","0.048828125","-3.96875","-1.40625","-6.65625"
"1574269240593","501","0.119140625","-0.83203125","0.14453125","-9.46875","-10.4375","-20.09375"
"1574269240593","502","0.057617188","-0.94433594","0.26464844","-7.46875","-7.40625","-31.03125"
"1574269240593","503","0.24316406","-1.2578125","0.18554688","12.1875","-28.6875","-4.96875"
"1574269240593","504","-0.25683594","-0.74121094","0.3857422","80.3125","-36.28125","39.71875"
"1574269240595","505","0.091796875","-0.52246094","0.16601562","-4.15625","25.1875","-12.21875"
"1574269240595","506","0.69921875","-1.3652344","0.10449219","-76.5625","-40.90625","-19.4375"
"1574269240595","507","0.048828125","-1.2324219","0.23339844","51.6875","-25.40625","-4.78125"
"1574269240596","508","-0.13183594","-0.5361328","0.23730469","26.46875","11.8125","-15.59375"
"1574269240596","509","0.2421875","-0.68359375","0.18652344","-30.09375","5.71875","9.5"
"1574269240989","510","0.3154297","-1.1347656","0.19042969","-11.0","-1.0","-3.375"
"1574269240990","511","0.171875","-0.91308594","0.19726562","8.65625","-2.34375","-8.125"
"1574269240990","512","0.17285156","-0.79785156","0.23925781","6.21875","-14.46875","-3.8125"
"1574269240990","513","0.28320312","-0.953125","0.20507812","-3.90625","-11.4375","-8.375"
"1574269240991","514","0.2529297","-0.92578125","0.19433594","-1.0","-14.84375","-1.46875"
"1574269240991","515","0.13476562","-1.0683594","0.22460938","-6.375","-7.71875","-4.84375"
"1574269240991","516","0.2265625","-1.2451172","0.2939453","-15.59375","0.34375","-8.0625"
"1574269240993","517","0.13183594","-1.4628906","0.34765625","-16.875","-11.0625","-2.03125"
"1574269240993","518","-0.08105469","-1.5039062","0.21875","-12.46875","19.15625","0.53125"
"1574269240996","519","-0.030273438","-1.0058594","0.28320312","-9.78125","36.46875","6.09375"
"1574269241387","520","0.07128906","-0.6542969","0.36132812","12.1875","21.96875","10.46875"
"1574269241388","521","-0.00390625","-0.6533203","0.21972656","-4.21875","15.375","10.84375"
"1574269241388","522","-0.024414062","-0.8457031","0.12988281","-13.25","27.21875","-0.1875"
"1574269241388","523","0.109375","-0.8154297","0.14746094","-9.53125","20.4375","3.53125"
"1574269241388","524","0.234375","-0.64160156","0.15625","-7.71875","8.84375","-1.125"
"1574269241389","525","0.111328125","-0.6386719","0.15527344","-12.09375","3.15625","-8.0"
"1574269241389","526","0.0068359375","-0.6904297","0.13964844","-12.21875","2.90625","1.6875"
"1574269241389","527","0.08203125","-0.81640625","0.1328125","-15.8125","2.1875","3.59375"
"1574269241390","528","0.08105469","-0.8769531","0.08984375","-10.8125","-0.375","-3.5625"
"1574269241391","529","0.041015625","-0.9199219","0.1171875","-15.59375","-4.28125","-4.34375"
"1574269241789","530","0.02734375","-0.93066406","0.08105469","-10.6875","-12.03125","-8.125"
"1574269241789","531","0.046875","-0.8876953","0.11230469","-0.3125","-11.375","-9.84375"
"1574269241790","532","0.0390625","-0.95214844","0.16992188","-13.1875","-11.0625","-8.125"
"1574269241790","533","0.0625","-0.98535156","0.18652344","17.5625","-3.875","-8.25"
"1574269241791","534","0.21679688","-0.72753906","0.22363281","41.65625","-30.46875","4.25"
"1574269241791","535","0.15136719","-0.69140625","0.2421875","5.0625","-23.9375","1.875"
"1574269241791","536","0.08886719","-1.0302734","0.2763672","-22.90625","-14.34375","1.09375"
"1574269241792","537","0.0859375","-1.2597656","0.19433594","-2.40625","-19.78125","-6.0"
"1574269241792","538","0.17480469","-0.87109375","0.18261719","15.78125","-6.59375","-3.125"
"1574269241792","539","0.16015625","-0.6308594","0.21972656","-11.78125","-15.03125","1.375"
"1574269242376","540","0.087890625","-0.9013672","0.234375","-18.75","-6.90625","-3.90625"
"1574269242378","541","0.13476562","-0.8720703","0.20019531","-2.40625","-0.0625","-5.03125"
"1574269242379","542","0.03515625","-0.56933594","0.22460938","12.625","11.40625","-4.34375"
"1574269242379","543","0.016601562","-0.47070312","0.22558594","-1.125","14.09375","6.34375"
"1574269242379","544","0.11425781","-0.61816406","0.23632812","-11.78125","30.1875","6.03125"
"1574269242380","545","0.24609375","-0.8310547","0.24804688","-11.71875","10.0","2.78125"
"1574269242380","546","0.03515625","-0.7011719","0.24316406","28.625","4.125","-3.5"
"1574269242380","547","0.09863281","-0.59472656","0.37890625","-11.0","1.9375","15.1875"
"1574269242381","548","-0.21191406","-1.0107422","0.21484375","23.96875","9.6875","17.0"
"1574269242381","549","-0.0126953125","-1.3134766","0.24511719","-12.03125","40.5625","24.875"
"1574269242578","550","0.26464844","-1.859375","0.037109375","-27.1875","15.65625","-9.59375"
"1574269242579","551","0.068359375","-1.5664062","-0.046875","27.4375","39.59375","9.6875"
"1574269242579","552","0.2734375","-1.0068359","0.125","22.4375","30.125","1.8125"
"1574269242580","553","0.14160156","-0.98046875","0.08496094","9.25","15.625","5.90625"
"1574269242580","554","0.0234375","-1.0810547","-0.056640625","27.03125","12.1875","-1.3125"
"1574269242581","555","0.21386719","-0.80859375","0.083984375","-14.3125","11.53125","-11.1875"
"1574269242581","556","0.18652344","-0.7011719","0.14550781","-11.5625","1.6875","-2.8125"
"1574269242581","557","0.01953125","-0.8701172","0.059570312","-11.625","-1.90625","1.375"
"1574269242582","558","0.13867188","-0.9160156","0.013671875","-6.78125","2.96875","-4.78125"
"1574269242582","559","0.15917969","-0.80078125","0.06933594","-21.0625","4.1875","2.78125"
"1574269243370","560","0.11035156","-0.87402344","0.034179688","8.15625","-6.65625","-1.0"
"1574269243370","561","0.20703125","-0.92871094","0.09863281","10.3125","-8.4375","-5.4375"
"1574269243370","562","0.0048828125","-0.8730469","0.08886719","9.09375","-9.15625","-4.59375"
"1574269243371","563","-0.087890625","-0.9248047","0.072265625","9.1875","-4.40625","-4.65625"
"1574269243371","564","0.15820312","-0.921875","0.2548828","2.0625","-4.28125","-10.875"
"1574269243371","565","0.3388672","-1.2880859","0.20019531","-1.1875","-18.4375","-12.15625"
"1574269243372","566","-0.3828125","-0.93066406","0.29296875","80.1875","-47.125","38.4375"
"1574269243372","567","0.15722656","-0.32226562","0.14941406","10.0625","15.625","-7.59375"
"1574269243372","568","0.6425781","-1.0722656","0.19335938","-92.375","-18.875","-31.21875"
"1574269243373","569","0.10449219","-1.4931641","0.33789062","28.125","-27.25","1.15625"
"1574269243374","570","0.009765625","-0.69140625","0.16699219","37.875","-1.90625","-25.03125"
"1574269243374","571","0.08886719","-0.70214844","0.11816406","-25.84375","-1.78125","-3.90625"
"1574269243375","572","0.31347656","-1.0400391","0.18261719","-31.03125","15.625","3.78125"
"1574269243375","573","0.24023438","-0.83496094","0.1875","15.5","-2.53125","-11.3125"
"1574269243375","574","0.19433594","-0.78027344","0.26660156","9.1875","-9.78125","-5.4375"
"1574269243376","575","0.23632812","-0.95214844","0.15917969","6.21875","-8.0625","-4.03125"
"1574269243376","576","0.26953125","-0.9160156","0.1953125","4.6875","-6.65625","3.78125"
"1574269243376","577","0.26464844","-0.9765625","0.21679688","-4.21875","-7.03125","-1.1875"
"1574269243377","578","0.21582031","-1.1386719","0.17773438","-19.125","-1.84375","-10.09375"
"1574269243377","579","0.07910156","-1.2451172","0.3017578","-22.0625","5.28125","-0.375"
"1574269243771","580","0.115234375","-1.4902344","0.2763672","-17.53125","9.09375","-2.34375"
"1574269243771","581","-0.0859375","-1.4306641","0.19140625","2.5","35.1875","4.875"
"1574269243771","582","0.091796875","-0.8535156","0.3642578","16.40625","31.78125","10.46875"
"1574269243772","583","0.052734375","-0.6308594","0.29003906","13.28125","9.9375","20.75"
"1574269243772","584","-0.10449219","-0.8613281","0.15234375","-15.40625","25.5625","4.875"
"1574269243772","585","0.056640625","-0.83984375","0.14257812","-9.0","25.25","-0.8125"
"1574269243772","586","0.20214844","-0.62597656","0.17675781","-10.75","19.09375","-3.625"
"1574269243772","587","0.22265625","-0.6171875","0.17480469","-19.96875","2.25","-18.5"
"1574269243773","588","0.10253906","-0.7470703","0.123046875","-31.375","-6.125","-13.125"
"1574269243774","589","0.020507812","-0.81347656","0.115234375","-22.59375","0.21875","-6.1875"
"1574269244169","590","0.061523438","-0.83496094","0.099609375","-6.1875","2.25","-4.53125"
"1574269244170","591","0.171875","-0.8105469","0.11328125","-13.5","3.84375","-5.21875"
"1574269244170","592","0.055664062","-0.88183594","0.06738281","-12.34375","-11.0","-3.8125"
"1574269244170","593","9.765625E-4","-0.91503906","0.076171875","-10.8125","-5.4375","-1.0625"
"1574269244171","594","0.015625","-0.8388672","0.08105469","-2.53125","-2.8125","-0.375"
"1574269244171","595","0.16601562","-0.85058594","0.18457031","11.34375","-12.28125","-5.875"
"1574269244171","596","0.2109375","-1.0625","0.17480469","-0.25","-15.53125","-12.09375"
"1574269244171","597","0.07714844","-1.0449219","0.20019531","30.375","-35.90625","4.25"
"1574269244172","598","0.076171875","-0.64160156","0.20996094","30.1875","-15.9375","14.09375"
"1574269244172","599","0.22070312","-0.73535156","0.35253906","-29.125","-7.28125","-6.25"
"1574269244569","600","0.13085938","-1.2148438","0.17675781","-17.53125","-24.125","-1.3125"
"1574269244570","601","0.09667969","-0.98828125","0.18945312","8.21875","-0.8125","-0.5625"
"1574269244571","602","0.14355469","-0.6533203","0.1953125","-9.0625","-12.90625","2.4375"
"1574269244571","603","0.16992188","-0.85058594","0.19140625","-22.21875","-0.4375","-6.0"
"1574269244571","604","0.099609375","-0.93066406","0.16210938","-3.3125","6.625","-2.21875"
"1574269244572","605","0.045898438","-0.6640625","0.21972656","4.75","13.03125","-0.1875"
"1574269244572","606","0.06542969","-0.5019531","0.23828125","16.40625","26.46875","5.34375"
"1574269244572","607","0.12792969","-0.53808594","0.22265625","6.28125","19.75","12.25"
"1574269244573","608","0.14648438","-0.6933594","0.22949219","-0.75","14.21875","-5.3125"
"1574269244573","609","0.052734375","-0.71191406","0.34375","5.90625","16.65625","17.4375"
"1574269244964","610","-0.12402344","-0.68652344","0.21582031","22.625","9.125","16.21875"
"1574269244964","611","0.08300781","-0.8339844","0.38671875","-9.46875","50.9375","18.65625"
"1574269244965","612","0.19921875","-1.7392578","0.016601562","-40.40625","17.6875","2.3125"
"1574269244967","613","-0.14648438","-1.7255859","-0.00390625","-10.75","46.3125","22.1875"
"1574269244967","614","0.29882812","-1.265625","0.16796875","-6.65625","27.28125","13.59375"
"1574269244968","615","0.20703125","-1.4453125","0.016601562","29.03125","1.5","2.0"
"1574269244968","616","-0.051757812","-1.0742188","-0.16894531","45.9375","2.0625","12.375"
"1574269244968","617","0.13867188","-0.61621094","0.07324219","11.15625","13.15625","2.4375"
"1574269244969","618","0.24023438","-0.6533203","0.083984375","-6.375","7.75","-11.5625"
"1574269244969","619","0.11425781","-0.9746094","0.095703125","-32.3125","-0.875","-12.53125"
