"# PR data"
"# Start time: 20191120T165653"
"# Subject: andrius"
"# Activity type: Shoulder press"
"# Correctness: Correct"
"# Notes: "
""
"timestamp","seq","accel_x","accel_y","accel_z","gyro_x","gyro_y","gyro_z"
"1574269013618","0","0.10839844","-0.890625","0.052734375","-0.8125","-5.25","-5.21875"
"1574269013618","1","0.17480469","-0.92578125","0.037109375","-3.3125","-2.53125","-4.15625"
"1574269013619","2","0.1640625","-0.9121094","0.038085938","1.03125","1.625","-5.9375"
"1574269013619","3","0.15234375","-0.8984375","0.044921875","-1.71875","5.59375","-3.5"
"1574269013619","4","0.16308594","-0.9267578","0.038085938","-1.25","10.96875","-4.09375"
"1574269013620","5","0.18359375","-0.90234375","0.030273438","-2.625","13.46875","-2.09375"
"1574269013620","6","0.19335938","-0.90722656","0.029296875","-4.21875","14.4375","1.5"
"1574269013620","7","0.17773438","-0.91796875","0.030273438","-4.34375","16.90625","2.375"
"1574269013620","8","0.20410156","-0.890625","0.051757812","-2.46875","18.71875","1.875"
"1574269013621","9","0.1640625","-0.921875","0.049804688","-4.40625","18.78125","2.84375"
"1574269014212","10","0.20898438","-0.91015625","0.017578125","0.90625","15.71875","-0.6875"
"1574269014213","11","0.20800781","-0.9160156","0.025390625","-4.09375","18.84375","2.65625"
"1574269014213","12","0.18261719","-0.91308594","0.048828125","-6.53125","18.125","-2.28125"
"1574269014214","13","0.24121094","-0.9033203","0.0068359375","-4.78125","12.9375","-0.6875"
"1574269014215","14","0.19042969","-0.9345703","0.016601562","-6.65625","14.3125","2.0"
"1574269014215","15","0.14941406","-0.9091797","0.038085938","-0.125","16.90625","-0.25"
"1574269014216","16","0.18164062","-0.8847656","0.01171875","-2.03125","18.0","-2.28125"
"1574269014216","17","0.19824219","-0.9160156","0.017578125","-3.4375","15.78125","0.65625"
"1574269014216","18","0.17871094","-0.9013672","0.021484375","0.65625","17.1875","0.28125"
"1574269014217","19","0.20214844","-0.89160156","0.025390625","-2.53125","18.46875","-0.125"
"1574269014613","20","0.19824219","-0.9111328","0.021484375","-2.03125","15.65625","-0.5"
"1574269014613","21","0.20507812","-0.9033203","0.029296875","1.5625","10.71875","-1.34375"
"1574269014614","22","0.203125","-0.9033203","0.037109375","-0.375","9.1875","-0.8125"
"1574269014614","23","0.20117188","-0.90722656","0.03515625","1.625","6.5625","-1.34375"
"1574269014614","24","0.20800781","-0.9013672","0.02734375","-0.25","-0.25","-1.59375"
"1574269014615","25","0.2109375","-0.9003906","0.016601562","-3.96875","0.15625","-0.75"
"1574269014616","26","0.203125","-0.91503906","0.025390625","-4.03125","-0.6875","-0.75"
"1574269014616","27","0.19628906","-0.9042969","0.04296875","-3.125","-2.6875","-1.78125"
"1574269014616","28","0.18457031","-0.89941406","0.028320312","-4.15625","-5.21875","-1.90625"
"1574269014617","29","0.19238281","-0.9082031","0.013671875","-2.21875","-3.375","-1.40625"
"1574269014813","30","0.20214844","-0.9082031","0.02734375","-3.1875","-3.5625","-1.78125"
"1574269014814","31","0.18359375","-0.9013672","0.029296875","-4.65625","-5.5","-1.71875"
"1574269014820","32","0.18652344","-0.9140625","0.0126953125","-0.5","-4.84375","-0.5"
"1574269014821","33","0.19628906","-0.9121094","0.0234375","0.40625","-2.9375","-1.3125"
"1574269014821","34","0.18945312","-0.9033203","0.01171875","1.4375","-3.96875","-1.1875"
"1574269014821","35","0.18652344","-0.90527344","0.021484375","-1.90625","-2.21875","-0.5"
"1574269014822","36","0.18164062","-0.9121094","0.016601562","1.5625","-1.46875","-1.0"
"1574269014823","37","0.19628906","-0.91015625","0.018554688","0.15625","-0.3125","-1.125"
"1574269014823","38","0.18261719","-0.90625","0.017578125","-1.90625","-0.25","-0.5625"
"1574269014824","39","0.18847656","-0.90625","0.024414062","-0.0625","1.28125","-1.40625"
"1574269015604","40","0.20214844","-0.90527344","0.020507812","-3.5625","0.90625","-1.46875"
"1574269015604","41","0.19335938","-0.9121094","0.01171875","-2.46875","0.21875","-1.90625"
"1574269015605","42","0.19433594","-0.89453125","0.0087890625","-1.25","1.28125","-2.6875"
"1574269015605","43","0.1796875","-0.9033203","0.03125","0.96875","0.15625","-1.59375"
"1574269015605","44","0.18945312","-0.90234375","0.033203125","-3.0","1.5","-2.40625"
"1574269015605","45","0.20019531","-0.8857422","-0.0087890625","-1.3125","0.40625","-2.59375"
"1574269015606","46","0.18652344","-0.9091797","0.03515625","-3.6875","-3.5625","-2.46875"
"1574269015606","47","0.18457031","-0.9238281","0.0029296875","2.0625","-2.53125","-3.125"
"1574269015606","48","0.20996094","-0.9238281","0.0048828125","4.625","-6.59375","-3.25"
"1574269015607","49","0.20800781","-0.91308594","0.021484375","0.96875","-5.6875","-2.21875"
"1574269015802","50","0.20507812","-0.89453125","0.0107421875","2.125","-7.21875","-1.78125"
"1574269015803","51","0.21679688","-0.9042969","0.02734375","-4.28125","-6.375","-2.15625"
"1574269015803","52","0.20117188","-0.9091797","0.009765625","-3.4375","-6.90625","-2.09375"
"1574269015804","53","0.20996094","-0.8955078","-0.001953125","-0.5","-8.1875","-1.125"
"1574269015804","54","0.19042969","-0.8984375","-0.0029296875","2.90625","-3.25","-2.59375"
"1574269015804","55","0.22167969","-0.91796875","-0.001953125","3.40625","0.40625","-2.28125"
"1574269015804","56","0.22558594","-0.8886719","0.017578125","3.21875","0.40625","0.0"
"1574269015805","57","0.171875","-0.8935547","0.044921875","-7.40625","3.71875","-2.46875"
"1574269015805","58","0.15722656","-0.9199219","0.044921875","-6.125","4.625","-4.90625"
"1574269015805","59","0.19238281","-0.8876953","0.064453125","-3.875","-1.0","-4.21875"
"1574269016202","60","0.15234375","-0.9345703","0.059570312","-6.65625","0.28125","-8.875"
"1574269016204","61","0.21875","-0.91308594","0.03515625","-9.90625","0.59375","-4.53125"
"1574269016205","62","0.20800781","-0.92871094","0.0146484375","-8.125","0.40625","-3.25"
"1574269016205","63","0.16601562","-0.90234375","0.017578125","-4.65625","0.40625","-4.28125"
"1574269016205","64","0.1953125","-0.90234375","0.038085938","-9.96875","6.09375","-4.15625"
"1574269016206","65","0.24023438","-0.89941406","-0.028320312","-8.5","6.40625","-1.96875"
"1574269016206","66","0.21484375","-0.90722656","-0.032226562","-2.875","4.625","-0.1875"
"1574269016206","67","0.26171875","-0.8720703","-0.0703125","-1.25","9.09375","1.3125"
"1574269016206","68","0.3095703","-0.93359375","-0.0126953125","-4.96875","-0.75","6.8125"
"1574269016207","69","0.23046875","-0.8876953","-0.029296875","-3.6875","1.75","1.03125"
"1574269016400","70","0.18945312","-0.8779297","-0.024414062","1.4375","-0.75","0.78125"
"1574269016400","71","0.22753906","-0.89746094","-0.07519531","3.71875","1.875","-3.5625"
"1574269016401","72","0.16503906","-0.8955078","-0.005859375","-2.21875","8.09375","-2.625"
"1574269016402","73","0.20410156","-0.8779297","-0.040039062","3.34375","6.6875","-2.15625"
"1574269016402","74","0.21582031","-0.90234375","0.016601562","-3.1875","4.0","-0.8125"
"1574269016402","75","0.2265625","-0.89746094","-0.051757812","0.03125","1.03125","-2.625"
"1574269016403","76","0.19335938","-0.8984375","0.0068359375","-0.5625","3.59375","-1.96875"
"1574269016403","77","0.24316406","-0.9013672","-0.033203125","-3.125","2.0625","-2.28125"
"1574269016403","78","0.21777344","-0.8828125","-0.0087890625","0.34375","-2.75","-2.09375"
"1574269016403","79","0.21582031","-0.8876953","-0.01171875","-6.125","2.59375","-3.4375"
"1574269016996","80","0.2529297","-0.89746094","-0.0126953125","-5.75","-6.4375","-1.78125"
"1574269016997","81","0.23730469","-0.859375","-0.056640625","2.125","-9.78125","-3.0"
"1574269016997","82","0.20117188","-0.88183594","0.020507812","-8.625","-1.0","-3.5"
"1574269016998","83","0.29492188","-0.92089844","-0.07324219","8.40625","-11.0","2.125"
"1574269016998","84","0.19433594","-0.8515625","-0.025390625","3.84375","-7.21875","-0.625"
"1574269016999","85","0.17480469","-0.91503906","0.016601562","-1.71875","8.78125","-0.3125"
"1574269017000","86","0.20605469","-0.88964844","-0.043945312","5.90625","8.21875","-1.25"
"1574269017000","87","0.234375","-0.88964844","-0.0068359375","3.03125","9.9375","4.0625"
"1574269017001","88","0.25097656","-0.93652344","-0.072265625","12.25","8.34375","7.8125"
"1574269017001","89","0.2734375","-0.8457031","0.0859375","-2.53125","12.0","10.46875"
"1574269017195","90","0.12402344","-0.9248047","-0.059570312","15.5625","0.90625","7.6875"
"1574269017196","91","0.18359375","-0.93359375","0.078125","-10.03125","11.21875","4.5625"
"1574269017196","92","0.18261719","-0.9375","-0.0107421875","17.4375","6.15625","3.34375"
"1574269017196","93","0.24804688","-0.89453125","0.08203125","-11.5625","2.59375","2.65625"
"1574269017196","94","0.17089844","-0.90625","-0.041992188","7.5","-7.03125","1.5"
"1574269017197","95","0.12890625","-0.9160156","0.05859375","6.15625","-0.875","-3.5625"
"1574269017197","96","0.21679688","-0.9082031","0.059570312","-1.90625","1.6875","-2.15625"
"1574269017198","97","0.16601562","-0.8847656","0.001953125","1.3125","-5.3125","-6.71875"
"1574269017198","98","0.22265625","-0.92871094","0.021484375","-3.5625","2.3125","0.65625"
"1574269017199","99","0.18554688","-0.9423828","0.059570312","-4.46875","-1.53125","-3.75"
"1574269017594","100","0.20800781","-0.87402344","0.009765625","5.21875","5.21875","1.4375"
"1574269017595","101","0.23632812","-0.91503906","0.0546875","-9.96875","5.28125","1.875"
"1574269017595","102","0.11621094","-0.8769531","0.013671875","11.75","-1.1875","-5.8125"
"1574269017597","103","0.21777344","-0.96191406","0.0029296875","11.15625","11.28125","2.0625"
"1574269017598","104","0.2919922","-0.90527344","0.041015625","1.5625","5.34375","2.65625"
"1574269017598","105","0.18945312","-0.8310547","0.06738281","-2.21875","-1.65625","-2.03125"
"1574269017598","106","0.16796875","-0.90234375","-0.0068359375","7.75","-4.15625","1.75"
"1574269017598","107","0.171875","-0.96875","0.0126953125","18.46875","-6.5","-1.71875"
"1574269017599","108","0.18066406","-0.91015625","0.08300781","15.125","-5.3125","-7.21875"
"1574269017601","109","0.18847656","-0.8779297","0.099609375","-4.15625","-6.125","-1.90625"
"1574269018192","110","0.14941406","-0.8955078","0.08496094","-8.3125","2.0","1.5"
"1574269018192","111","0.15136719","-0.92089844","0.057617188","-5.03125","4.625","0.71875"
"1574269018193","112","0.20019531","-0.9248047","0.064453125","-4.78125","3.9375","-2.09375"
"1574269018193","113","0.18652344","-0.8984375","0.07519531","6.46875","6.09375","-1.46875"
"1574269018193","114","0.19726562","-0.93359375","0.057617188","-0.375","7.96875","-3.125"
"1574269018194","115","0.19140625","-0.9111328","0.072265625","-1.125","3.28125","-5.8125"
"1574269018194","116","0.20117188","-0.89160156","0.05859375","-2.46875","2.71875","-3.6875"
"1574269018194","117","0.22460938","-0.9375","0.029296875","0.0","4.125","-3.5625"
"1574269018194","118","0.2109375","-0.9326172","0.06347656","-2.75","2.0","-0.5625"
"1574269018195","119","0.22070312","-0.875","0.05078125","2.65625","-4.84375","-0.4375"
"1574269018390","120","0.22265625","-0.89941406","0.0625","-0.4375","-2.875","4.5625"
"1574269018391","121","0.18261719","-0.94433594","0.061523438","-3.5625","-9.125","-1.90625"
"1574269018391","122","0.19824219","-0.88671875","0.041992188","0.96875","-5.25","2.71875"
"1574269018391","123","0.15429688","-0.9267578","0.061523438","-0.25","-1.96875","-3.8125"
"1574269018392","124","0.22753906","-0.90234375","0.049804688","-2.28125","3.59375","0.40625"
"1574269018392","125","0.20800781","-0.89746094","0.072265625","-4.84375","-2.46875","1.4375"
"1574269018392","126","0.18457031","-0.89746094","0.0625","-13.625","2.96875","-2.03125"
"1574269018393","127","0.19140625","-0.9003906","0.047851562","-7.78125","-0.5","-1.90625"
"1574269018393","128","0.19726562","-0.9111328","0.047851562","-10.5","-1.0","-4.40625"
"1574269018393","129","0.16894531","-0.91503906","0.057617188","-7.78125","-2.09375","-3.375"
"1574269018786","130","0.15136719","-0.91503906","0.060546875","-7.875","2.65625","-4.46875"
"1574269018787","131","0.17773438","-0.90234375","0.049804688","-12.09375","2.90625","-2.21875"
"1574269018787","132","0.20996094","-0.9472656","0.049804688","-11.90625","0.03125","-3.5625"
"1574269018788","133","0.18554688","-0.89941406","0.02734375","-11.4375","2.1875","-4.15625"
"1574269018788","134","0.203125","-0.8935547","0.005859375","-20.875","7.75","-4.78125"
"1574269018789","135","0.2421875","-0.90625","-0.03125","-13.5","7.0625","0.15625"
"1574269018789","136","0.22265625","-0.89746094","-0.040039062","-11.375","3.40625","-2.875"
"1574269018789","137","0.21289062","-0.90234375","-0.044921875","-2.75","3.84375","2.84375"
"1574269018790","138","0.25585938","-0.8701172","-0.053710938","1.15625","1.5","0.21875"
"1574269018790","139","0.17675781","-0.921875","0.0087890625","-7.46875","7.3125","0.46875"
"1574269019378","140","0.21191406","-0.89160156","-0.08203125","0.03125","4.6875","1.375"
"1574269019379","141","0.21386719","-0.86621094","-0.025390625","-6.0625","8.15625","0.15625"
"1574269019379","142","0.24023438","-0.8955078","-0.068359375","-3.1875","5.28125","2.0"
"1574269019379","143","0.20605469","-0.88671875","-0.07324219","4.9375","2.71875","-1.84375"
"1574269019380","144","0.18554688","-0.88671875","0.020507812","-7.78125","5.1875","-0.5625"
"1574269019381","145","0.18945312","-0.92089844","-0.064453125","3.15625","-4.21875","-3.125"
"1574269019381","146","0.19238281","-0.8886719","-0.03515625","-0.25","0.96875","-1.71875"
"1574269019382","147","0.20605469","-0.8925781","-0.041992188","1.5625","2.4375","-1.78125"
"1574269019382","148","0.2421875","-0.9013672","-0.009765625","0.0","-3.0625","0.65625"
"1574269019382","149","0.18847656","-0.8886719","-0.024414062","0.90625","-2.8125","-2.8125"
"1574269019581","150","0.24023438","-0.88964844","-0.0546875","4.0625","-9.28125","-2.09375"
"1574269019582","151","0.1953125","-0.8769531","0.013671875","-2.875","-4.15625","-2.03125"
"1574269019582","152","0.26367188","-0.87109375","-0.06640625","3.53125","-5.03125","-0.9375"
"1574269019582","153","0.15917969","-0.9199219","-0.016601562","2.78125","3.78125","0.28125"
"1574269019582","154","0.22363281","-0.90527344","-0.053710938","8.84375","1.75","-2.625"
"1574269019583","155","0.23242188","-0.8964844","0.028320312","1.75","12.5","4.6875"
"1574269019583","156","0.2548828","-0.9326172","-0.049804688","14.875","-1.34375","4.4375"
"1574269019584","157","0.13378906","-0.87597656","0.0107421875","6.5625","9.8125","3.90625"
"1574269019585","158","0.1953125","-0.9199219","-0.034179688","19.8125","8.34375","3.21875"
"1574269019585","159","0.24023438","-0.9248047","0.080078125","-4.03125","15.625","6.46875"
"1574269019979","160","0.17871094","-0.890625","-0.005859375","5.71875","-2.8125","3.90625"
"1574269019980","161","0.15917969","-0.9355469","0.044921875","6.03125","1.21875","5.0"
"1574269019980","162","0.18554688","-0.94921875","0.0390625","1.28125","-1.53125","-3.0"
"1574269019980","163","0.12597656","-0.9003906","0.064453125","17.6875","-3.5","-2.28125"
"1574269019980","164","0.17382812","-0.89746094","0.041992188","2.0625","1.8125","-1.59375"
"1574269019981","165","0.16113281","-0.9199219","0.07128906","-0.5625","8.09375","-3.5"
"1574269019981","166","0.15039062","-0.88964844","0.047851562","4.125","12.5","-1.65625"
"1574269019981","167","0.19628906","-0.93847656","0.0625","-5.15625","11.34375","-5.21875"
"1574269019981","168","0.17285156","-0.9160156","0.07128906","3.21875","7.0","-6.3125"
"1574269019983","169","0.18652344","-0.8671875","0.05078125","0.90625","15.0625","-2.8125"
"1574269020375","170","0.23242188","-0.9140625","0.02734375","-0.875","7.4375","0.90625"
"1574269020376","171","0.22460938","-0.9482422","0.072265625","-3.4375","14.21875","0.84375"
"1574269020376","172","0.28808594","-0.87597656","0.036132812","-6.90625","3.15625","12.1875"
"1574269020376","173","0.12792969","-0.9169922","0.030273438","5.1875","-1.34375","-2.09375"
"1574269020376","174","0.20800781","-0.8828125","0.045898438","8.03125","6.34375","2.71875"
"1574269020377","175","0.21386719","-0.8779297","0.072265625","0.09375","-2.21875","-0.5"
"1574269020377","176","0.20898438","-0.96191406","0.0625","-2.21875","-9.84375","2.0"
"1574269020377","177","0.15429688","-0.9316406","0.043945312","0.71875","-11.5","-1.78125"
"1574269020377","178","0.14941406","-0.87890625","0.083984375","-4.90625","2.0625","-3.90625"
"1574269020378","179","0.1953125","-0.90625","0.10644531","-11.25","0.46875","-0.5625"
"1574269020773","180","0.17285156","-0.9453125","0.0146484375","-5.4375","-3.875","0.0"
"1574269020774","181","0.14746094","-0.8955078","0.06542969","-1.65625","2.0","-1.40625"
"1574269020774","182","0.19628906","-0.88183594","0.06542969","-1.96875","0.21875","-1.96875"
"1574269020774","183","0.1796875","-0.91796875","0.05078125","-2.15625","-0.5625","-2.15625"
"1574269020775","184","0.12890625","-0.9248047","0.06542969","-2.625","3.28125","-2.75"
"1574269020775","185","0.15527344","-0.90625","0.060546875","-6.96875","2.84375","-2.625"
"1574269020775","186","0.20117188","-0.9140625","0.064453125","-6.78125","6.75","-2.875"
"1574269020775","187","0.1875","-0.9375","0.009765625","1.3125","3.09375","-3.25"
"1574269020776","188","0.19726562","-0.890625","0.030273438","2.125","0.78125","-3.0625"
"1574269020776","189","0.24707031","-0.90625","0.034179688","1.6875","4.75","0.71875"
"1574269021172","190","0.20507812","-0.9199219","-9.765625E-4","0.65625","-1.84375","-3.1875"
"1574269021172","191","0.18066406","-0.89941406","0.032226562","0.40625","-3.25","-6.125"
"1574269021172","192","0.18652344","-0.89941406","0.0234375","6.6875","0.53125","-6.0625"
"1574269021174","193","0.21777344","-0.8984375","0.029296875","-2.6875","2.0625","-5.6875"
"1574269021174","194","0.22851562","-0.9111328","0.028320312","-4.34375","3.53125","-2.875"
"1574269021175","195","0.2109375","-0.8955078","0.029296875","-1.71875","3.15625","-1.65625"
"1574269021175","196","0.19238281","-0.8925781","0.047851562","-6.0625","12.5625","-3.25"
"1574269021175","197","0.23144531","-0.890625","0.041015625","-8.25","10.65625","-1.78125"
"1574269021176","198","0.21679688","-0.91015625","0.02734375","-1.96875","2.59375","-2.625"
"1574269021176","199","0.20898438","-0.89746094","0.06347656","-2.8125","4.875","-1.96875"
"1574269021569","200","0.17285156","-0.89941406","0.0546875","-3.875","-2.28125","-2.53125"
"1574269021570","201","0.16210938","-0.9013672","0.05859375","-3.375","-2.21875","-2.875"
"1574269021570","202","0.20996094","-0.9238281","0.05078125","-10.34375","2.84375","0.34375"
"1574269021570","203","0.20996094","-0.953125","0.036132812","-2.21875","-1.25","1.3125"
"1574269021571","204","0.19433594","-0.9042969","0.043945312","-4.21875","-1.125","-1.71875"
"1574269021572","205","0.23339844","-0.9121094","0.015625","-6.4375","-0.6875","0.40625"
"1574269021573","206","0.23535156","-0.91503906","9.765625E-4","-4.90625","-1.3125","-2.625"
"1574269021573","207","0.1953125","-0.8808594","0.025390625","-16.5","6.625","-3.0625"
"1574269021573","208","0.22851562","-0.9189453","-0.0703125","-15.875","-7.21875","2.0625"
"1574269021573","209","0.21386719","-0.9111328","-0.029296875","-5.9375","8.65625","0.46875"
"1574269021967","210","0.25","-0.8857422","-0.013671875","0.84375","1.6875","4.8125"
"1574269021967","211","0.18945312","-0.8955078","-0.06738281","2.90625","1.375","1.3125"
"1574269021967","212","0.2265625","-0.9033203","0.041992188","-10.625","3.59375","3.90625"
"1574269021968","213","0.21777344","-0.9140625","-0.055664062","3.15625","-5.21875","3.46875"
"1574269021968","214","0.19238281","-0.8535156","-0.018554688","-4.28125","1.625","4.5625"
"1574269021968","215","0.13867188","-0.9169922","-0.022460938","-3.0","0.0","1.5"
"1574269021968","216","0.18945312","-0.9013672","0.0029296875","-6.78125","8.65625","-1.59375"
"1574269021970","217","0.18261719","-0.89453125","-0.022460938","-4.53125","1.4375","-1.0625"
"1574269021970","218","0.1953125","-0.9033203","-0.03125","-0.4375","7.3125","-2.09375"
"1574269021971","219","0.19726562","-0.90527344","-0.005859375","-1.125","4.375","-3.0625"
"1574269022363","220","0.20605469","-0.9033203","-0.020507812","-2.15625","2.71875","-0.5625"
"1574269022363","221","0.21289062","-0.90234375","-0.016601562","-0.0625","-5.5625","0.65625"
"1574269022363","222","0.18847656","-0.8857422","-0.029296875","1.6875","-4.65625","-2.625"
"1574269022363","223","0.21386719","-0.8925781","-0.026367188","1.09375","-9.0","-2.46875"
"1574269022364","224","0.22558594","-0.89453125","-0.03515625","1.9375","-3.3125","-1.0625"
"1574269022364","225","0.16992188","-0.86816406","-0.029296875","-0.4375","-3.0","-3.1875"
"1574269022364","226","0.24609375","-0.95703125","-0.01171875","2.125","2.96875","1.3125"
"1574269022364","227","0.10449219","-0.8701172","-0.041015625","5.78125","0.84375","-3.96875"
"1574269022365","228","0.22167969","-0.9511719","-0.001953125","1.375","8.28125","-0.8125"
"1574269022366","229","0.22558594","-0.8857422","-0.02734375","12.9375","2.0625","-0.1875"
"1574269022760","230","0.17675781","-0.91503906","0.044921875","3.21875","9.9375","1.3125"
"1574269022760","231","0.17089844","-0.90234375","-0.05078125","10.46875","8.59375","2.65625"
"1574269022761","232","0.23535156","-0.90527344","0.0859375","-6.5","12.6875","4.0"
"1574269022761","233","0.19042969","-0.8925781","-0.021484375","9.75","-3.75","4.375"
"1574269022761","234","0.18945312","-0.93359375","0.046875","4.9375","4.4375","2.3125"
"1574269022761","235","0.16894531","-0.92871094","0.018554688","8.65625","-2.8125","-0.5625"
"1574269022762","236","0.15722656","-0.9013672","0.055664062","1.9375","-3.125","-6.1875"
"1574269022762","237","0.17089844","-0.9003906","0.028320312","4.375","-0.625","-2.40625"
"1574269022762","238","0.19335938","-0.90722656","0.07128906","-6.96875","3.15625","-2.34375"
"1574269022763","239","0.12109375","-0.91308594","0.05078125","-0.5625","-0.0625","-7.59375"
"1574269023356","240","0.16601562","-0.92089844","0.009765625","11.8125","8.71875","-5.21875"
"1574269023357","241","0.22265625","-0.89941406","0.043945312","6.28125","15.71875","-2.59375"
"1574269023357","242","0.18359375","-0.89941406","0.0703125","6.46875","18.53125","-3.4375"
"1574269023358","243","0.22558594","-0.875","0.06933594","0.96875","15.4375","0.96875"
"1574269023358","244","0.26757812","-0.9277344","0.05078125","-2.875","15.65625","5.21875"
"1574269023358","245","0.16113281","-0.9433594","0.0048828125","8.84375","14.625","1.875"
"1574269023358","246","0.21875","-0.91308594","0.057617188","2.0","12.5","3.21875"
"1574269023359","247","0.20898438","-0.8720703","0.10253906","0.71875","8.34375","5.0"
"1574269023359","248","0.203125","-0.9033203","0.08105469","-4.96875","5.84375","3.46875"
"1574269023359","249","0.21777344","-0.9658203","0.0625","-9.84375","-11.78125","7.90625"
"1574269023556","250","0.15429688","-0.89160156","0.08886719","-2.21875","-16.5","2.3125"
"1574269023556","251","0.13574219","-0.9013672","0.08984375","-1.3125","-10.21875","-3.4375"
"1574269023556","252","0.16796875","-0.92578125","0.08691406","-7.78125","-0.4375","-3.4375"
"1574269023558","253","0.15527344","-0.93652344","0.051757812","-0.375","-0.8125","-2.09375"
"1574269023558","254","0.15332031","-0.8886719","0.07128906","-0.375","1.5625","-2.625"
"1574269023558","255","0.16601562","-0.90625","0.07128906","0.0","5.59375","-2.6875"
"1574269023559","256","0.17285156","-0.9121094","0.060546875","-2.40625","5.59375","-2.6875"
"1574269023559","257","0.18164062","-0.91015625","0.055664062","-7.78125","2.375","-4.65625"
"1574269023559","258","0.19628906","-0.90527344","0.07128906","-4.15625","0.09375","-4.90625"
"1574269023560","259","0.19628906","-0.9013672","0.064453125","-9.46875","4.3125","-4.96875"
"1574269023954","260","0.2109375","-0.9238281","0.0546875","-7.09375","-0.5","-3.875"
"1574269023955","261","0.18847656","-0.9296875","0.01953125","-2.15625","-2.8125","-5.21875"
"1574269023955","262","0.19921875","-0.9042969","0.051757812","-7.28125","-1.71875","-4.84375"
"1574269023955","263","0.22265625","-0.9082031","0.048828125","-8.5","-8.125","-4.78125"
"1574269023955","264","0.18164062","-0.9267578","0.038085938","-10.28125","-9.65625","-8.3125"
"1574269023957","265","0.17578125","-0.8955078","0.0048828125","-6.96875","-12.46875","-7.53125"
"1574269023957","266","0.20605469","-0.89746094","-0.0068359375","-7.78125","-4.03125","-9.46875"
"1574269023958","267","0.265625","-0.9082031","-0.00390625","-3.625","-0.1875","-4.09375"
"1574269023958","268","0.22070312","-0.8828125","-0.015625","0.78125","0.71875","-5.5"
"1574269023958","269","0.22851562","-0.9003906","-0.018554688","3.21875","4.4375","-1.78125"
"1574269024351","270","0.234375","-0.8876953","-0.0107421875","7.5","4.125","-3.5"
"1574269024351","271","0.23339844","-0.9091797","0.037109375","3.09375","7.125","-2.59375"
"1574269024352","272","0.23242188","-0.89453125","-0.0068359375","3.78125","0.53125","-4.21875"
"1574269024352","273","0.24707031","-0.8857422","0.04296875","-6.65625","4.0","-4.15625"
"1574269024352","274","0.25390625","-0.9111328","-0.01171875","4.0625","4.1875","-1.0"
"1574269024352","275","0.23339844","-0.9013672","0.08105469","-3.875","3.9375","-1.0625"
"1574269024353","276","0.19726562","-0.87890625","0.013671875","-2.03125","1.6875","-3.625"
"1574269024354","277","0.23339844","-0.9248047","0.07324219","-4.65625","-3.875","2.1875"
"1574269024354","278","0.21191406","-0.89941406","-0.00390625","-3.125","3.46875","-2.8125"
"1574269024354","279","0.18554688","-0.9160156","0.080078125","-7.8125","-4.15625","3.21875"
"1574269024748","280","0.22070312","-0.9433594","0.005859375","1.15625","1.625","-2.28125"
"1574269024749","281","0.23144531","-0.9003906","0.0048828125","1.03125","4.3125","1.15625"
"1574269024749","282","0.25390625","-0.89746094","0.04296875","-12.28125","2.84375","4.0625"
"1574269024749","283","0.22070312","-0.91308594","-0.020507812","-1.90625","0.71875","3.09375"
"1574269024750","284","0.23339844","-0.9189453","0.01171875","-11.5","9.75","5.65625"
"1574269024750","285","0.23144531","-0.84765625","-0.043945312","-0.5625","-0.5625","4.4375"
"1574269024750","286","0.22070312","-0.8857422","-0.001953125","-14.1875","4.5","5.53125"
"1574269024750","287","0.22558594","-0.91308594","-0.02734375","-5.03125","-0.4375","0.46875"
"1574269024751","288","0.1875","-0.8828125","0.0068359375","-2.625","2.71875","-1.125"
"1574269024751","289","0.23632812","-0.87890625","-0.024414062","-7.8125","0.46875","0.40625"
"1574269025347","290","0.20019531","-0.921875","-0.016601562","-1.3125","3.65625","-1.0"
"1574269025348","291","0.171875","-0.8642578","-0.0048828125","-5.21875","3.53125","-2.40625"
"1574269025348","292","0.18847656","-0.93359375","-0.040039062","1.3125","4.375","-2.28125"
"1574269025348","293","0.23632812","-0.87890625","0.016601562","-3.90625","6.9375","-1.53125"
"1574269025349","294","0.18945312","-0.90722656","-0.0390625","0.84375","-3.5625","-0.4375"
"1574269025349","295","0.20214844","-0.8828125","0.005859375","-7.09375","4.625","-2.28125"
"1574269025349","296","0.21777344","-0.8798828","-0.045898438","0.34375","-1.90625","-0.875"
"1574269025350","297","0.21582031","-0.93652344","-0.0048828125","1.3125","0.03125","-1.84375"
"1574269025350","298","0.24609375","-0.8515625","-0.025390625","1.5625","-6.53125","-2.9375"
"1574269025350","299","0.19140625","-0.9013672","-0.038085938","4.0","2.5625","3.03125"
"1574269025545","300","0.21289062","-0.9042969","-0.0087890625","-12.65625","7.4375","-2.46875"
"1574269025547","301","0.17089844","-0.89160156","-0.076171875","14.5625","-3.375","2.375"
"1574269025548","302","0.20214844","-0.9013672","0.03125","-13.03125","21.71875","-2.09375"
"1574269025548","303","0.3017578","-0.9550781","-0.03515625","15.78125","-2.9375","7.125"
"1574269025548","304","0.14746094","-0.84375","0.049804688","-10.21875","18.46875","0.90625"
"1574269025549","305","0.19824219","-0.9589844","-0.0625","5.71875","-4.09375","8.28125"
"1574269025549","306","0.20507812","-0.91503906","0.053710938","-3.3125","16.78125","2.3125"
"1574269025549","307","0.22851562","-0.921875","0.0","2.59375","-2.46875","5.90625"
"1574269025550","308","0.19042969","-0.90625","-0.018554688","10.65625","-2.40625","5.21875"
"1574269025550","309","0.17285156","-0.9082031","0.0087890625","4.375","1.625","3.90625"
"1574269025940","310","0.19140625","-0.91015625","-0.001953125","18.34375","7.8125","4.375"
"1574269025941","311","0.21777344","-0.93359375","0.10546875","3.21875","7.625","2.96875"
"1574269025941","312","0.14648438","-0.9013672","0.0107421875","4.625","-4.34375","-2.9375"
"1574269025943","313","0.12988281","-0.890625","0.03125","-0.0625","-2.625","-3.8125"
"1574269025943","314","0.15039062","-0.9453125","-0.005859375","8.40625","-7.28125","-8.3125"
"1574269025943","315","0.23632812","-0.8798828","0.06738281","5.59375","6.5625","-8.0"
"1574269025944","316","0.18554688","-0.9003906","0.0390625","5.34375","1.15625","-6.53125"
"1574269025944","317","0.23046875","-0.90625","0.08691406","-9.21875","9.3125","-7.53125"
"1574269025944","318","0.23144531","-0.89941406","-0.0068359375","-0.5625","2.90625","-0.1875"
"1574269025944","319","0.14550781","-0.9355469","0.024414062","0.84375","-2.40625","-8.0"
"1574269026338","320","0.23730469","-0.9111328","0.022460938","12.0625","13.03125","2.5625"
"1574269026339","321","0.18164062","-0.8876953","0.08105469","-1.65625","2.3125","-3.96875"
"1574269026339","322","0.25097656","-0.89453125","0.01953125","15.71875","11.28125","3.09375"
"1574269026339","323","0.2783203","-0.9375","0.053710938","-6.71875","2.84375","4.75"
"1574269026340","324","0.20019531","-0.9169922","0.09472656","4.0","-5.4375","-2.34375"
"1574269026340","325","0.14355469","-0.8701172","0.08984375","10.375","0.21875","1.09375"
"1574269026341","326","0.1875","-0.9355469","0.08496094","6.15625","-1.90625","-1.78125"
"1574269026341","327","0.20117188","-0.9189453","0.06738281","15.90625","-2.21875","-1.46875"
"1574269026342","328","0.18359375","-0.92089844","0.12011719","5.34375","2.90625","2.65625"
"1574269026342","329","0.18261719","-0.8925781","0.11425781","-1.65625","5.28125","2.71875"
"1574269026932","330","0.1875","-0.921875","0.0859375","2.5","2.65625","2.5"
"1574269026933","331","0.21289062","-0.8964844","0.103515625","-2.875","3.59375","1.375"
"1574269026933","332","0.15917969","-0.92871094","0.08691406","0.03125","1.5625","-1.1875"
"1574269026933","333","0.21386719","-0.9003906","0.10839844","0.28125","1.09375","-2.21875"
"1574269026933","334","0.17382812","-0.91796875","0.08886719","-3.25","-3.75","-3.25"
"1574269026934","335","0.17578125","-0.9082031","0.09277344","1.375","-3.5625","-2.875"
"1574269026934","336","0.18359375","-0.8876953","0.1015625","-4.65625","-3.375","-3.90625"
"1574269026935","337","0.18554688","-0.9394531","0.107421875","-7.34375","1.5625","-3.125"
"1574269026936","338","0.19238281","-0.93847656","0.08496094","-4.34375","0.34375","-1.46875"
"1574269026936","339","0.18457031","-0.9238281","0.07324219","-5.09375","-1.53125","-3.90625"
"1574269027134","340","0.21386719","-0.88671875","0.076171875","-8.4375","1.6875","-1.78125"
"1574269027135","341","0.21289062","-0.92285156","0.036132812","-2.9375","1.5625","-2.9375"
"1574269027135","342","0.19628906","-0.92285156","0.052734375","-3.3125","-2.40625","-5.625"
"1574269027135","343","0.21191406","-0.8847656","0.0625","-6.5","-1.71875","-5.3125"
"1574269027135","344","0.21972656","-0.89941406","0.04296875","-6.125","1.75","-4.96875"
"1574269027136","345","0.21875","-0.91503906","0.037109375","-6.4375","5.28125","-4.28125"
"1574269027136","346","0.234375","-0.8935547","0.040039062","-5.375","3.40625","0.28125"
"1574269027136","347","0.21484375","-0.88964844","0.055664062","-1.84375","4.5","-4.90625"
"1574269027136","348","0.20703125","-0.8828125","0.072265625","-10.5","6.625","-3.8125"
"1574269027138","349","0.20898438","-0.9189453","0.057617188","-9.78125","0.40625","-2.8125"
"1574269027728","350","0.22851562","-0.90625","0.052734375","-12.46875","6.03125","-1.78125"
"1574269027729","351","0.1953125","-0.921875","0.043945312","-10.28125","0.21875","-1.34375"
"1574269027730","352","0.19921875","-0.90625","0.055664062","-8.9375","5.84375","-1.40625"
"1574269027730","353","0.25585938","-0.90234375","0.045898438","-19.3125","4.25","-2.15625"
"1574269027730","354","0.2578125","-0.93066406","0.0029296875","-8.625","-4.59375","0.21875"
"1574269027730","355","0.19726562","-0.8798828","0.0029296875","-22.34375","5.1875","-3.125"
"1574269027731","356","0.26367188","-0.90722656","-0.024414062","-9.84375","-3.0","2.375"
"1574269027731","357","0.2548828","-0.8886719","-0.08300781","-1.40625","-9.0","-0.75"
"1574269027731","358","0.16894531","-0.88183594","-0.00390625","-0.5","-0.5625","-0.125"
"1574269027732","359","0.2265625","-0.8691406","-0.064453125","6.5","-0.5625","0.65625"
"1574269027928","360","0.22851562","-0.8984375","0.0048828125","-12.03125","7.0625","-1.0625"
"1574269027929","361","0.24316406","-0.9160156","-0.047851562","-0.5","-3.125","6.46875"
"1574269027930","362","0.18945312","-0.8886719","-0.021484375","-2.15625","3.15625","0.78125"
"1574269027930","363","0.16699219","-0.8720703","-0.009765625","-7.65625","2.84375","1.15625"
"1574269027930","364","0.18457031","-0.9033203","-0.06738281","-0.0625","5.0625","-2.09375"
"1574269027930","365","0.21582031","-0.91308594","-0.005859375","-6.0","8.53125","-0.4375"
"1574269027931","366","0.21972656","-0.9091797","-0.015625","-0.625","0.71875","0.34375"
"1574269027931","367","0.16894531","-0.8876953","-0.0068359375","-3.90625","5.46875","0.78125"
"1574269027931","368","0.25976562","-0.8769531","-0.043945312","-6.125","-6.90625","5.21875"
"1574269027932","369","0.18359375","-0.9160156","-0.045898438","-2.625","0.59375","-2.09375"
"1574269028326","370","0.21582031","-0.89160156","-0.051757812","6.09375","-8.1875","0.03125"
"1574269028326","371","0.21679688","-0.85839844","-0.0107421875","-3.0","1.09375","-2.53125"
"1574269028327","372","0.25683594","-0.890625","-0.038085938","4.9375","-11.625","4.0"
"1574269028328","373","0.13964844","-0.89941406","-0.043945312","1.625","2.125","-1.34375"
"1574269028328","374","0.20117188","-0.89453125","-0.022460938","5.90625","0.0","1.5"
"1574269028328","375","0.19628906","-0.90625","-0.0390625","7.125","10.0625","2.90625"
"1574269028329","376","0.17675781","-0.9453125","0.0126953125","5.0","7.625","-2.21875"
"1574269028329","377","0.19335938","-0.875","-0.03125","2.4375","19.75","0.28125"
"1574269028329","378","0.17382812","-0.9091797","0.028320312","9.25","5.21875","0.0"
"1574269028330","379","0.19433594","-0.9296875","-0.021484375","5.34375","23.375","-1.1875"
"1574269028724","380","0.24609375","-0.9160156","0.057617188","-1.3125","7.3125","2.84375"
"1574269028725","381","0.20410156","-0.9042969","0.0107421875","5.78125","15.71875","-0.3125"
"1574269028725","382","0.18554688","-0.9326172","0.01171875","10.375","0.40625","2.4375"
"1574269028725","383","0.17089844","-0.88964844","0.029296875","11.59375","3.34375","-1.1875"
"1574269028725","384","0.18652344","-0.9042969","0.06347656","2.0","6.46875","-3.375"
"1574269028727","385","0.21972656","-0.9111328","0.0146484375","8.46875","4.875","-0.9375"
"1574269028727","386","0.171875","-0.9189453","0.024414062","15.625","5.59375","0.03125"
"1574269028727","387","0.20898438","-0.91308594","0.068359375","-1.90625","21.09375","1.3125"
"1574269028728","388","0.18847656","-0.89160156","0.078125","6.8125","4.3125","0.09375"
"1574269028728","389","0.16308594","-0.875","0.068359375","-0.875","2.25","-7.9375"
"1574269029318","390","0.24804688","-0.95703125","0.048828125","-1.71875","5.59375","-0.875"
"1574269029319","391","0.19726562","-0.87597656","0.0546875","-2.03125","-6.25","-5.25"
"1574269029319","392","0.21386719","-0.87890625","0.057617188","-6.84375","5.96875","-1.65625"
"1574269029319","393","0.1875","-0.92089844","0.028320312","-0.1875","1.6875","-1.59375"
"1574269029319","394","0.20214844","-0.9042969","0.053710938","-0.75","10.40625","-1.0625"
"1574269029320","395","0.23535156","-0.9042969","0.04296875","-7.21875","4.25","3.90625"
"1574269029320","396","0.26171875","-0.93652344","0.04296875","-5.09375","2.0","2.4375"
"1574269029320","397","0.16992188","-0.8984375","0.041992188","-1.34375","-2.53125","-0.75"
"1574269029321","398","0.2265625","-0.875","0.048828125","-9.96875","-5.5625","0.84375"
"1574269029321","399","0.21289062","-0.9296875","0.029296875","-5.5","-7.65625","1.6875"
"1574269029519","400","0.16113281","-0.9423828","0.026367188","0.03125","-8.5625","-3.5"
"1574269029520","401","0.20410156","-0.8798828","0.0625","0.0","-5.09375","0.40625"
"1574269029520","402","0.17382812","-0.9472656","0.048828125","2.0625","-2.09375","-1.40625"
"1574269029520","403","0.16308594","-0.89453125","0.04296875","-0.625","-0.6875","0.96875"
"1574269029520","404","0.18164062","-0.91503906","0.046875","-2.28125","5.1875","0.09375"
"1574269029521","405","0.1796875","-0.9111328","0.029296875","-2.6875","1.03125","-0.4375"
"1574269029521","406","0.17675781","-0.9091797","0.048828125","-4.90625","1.03125","-0.125"
"1574269029521","407","0.1796875","-0.9033203","0.060546875","-6.84375","3.9375","-1.46875"
"1574269029522","408","0.16308594","-0.90527344","0.044921875","-8.625","2.125","-3.1875"
"1574269029522","409","0.17773438","-0.8955078","0.02734375","-7.34375","3.65625","-3.25"
"1574269030115","410","0.18261719","-0.9355469","0.025390625","-6.59375","5.28125","-3.96875"
"1574269030116","411","0.19433594","-0.92871094","0.01171875","-2.53125","5.71875","-5.75"
"1574269030116","412","0.22363281","-0.87402344","0.026367188","-3.125","2.84375","-3.1875"
"1574269030116","413","0.22460938","-0.9267578","0.0","-4.90625","-1.25","-2.28125"
"1574269030117","414","0.21191406","-0.91015625","0.0107421875","-2.40625","-5.625","-4.65625"
"1574269030117","415","0.20214844","-0.8779297","-0.0048828125","-3.5625","-5.03125","-4.96875"
"1574269030117","416","0.21582031","-0.9189453","0.0","-2.75","-4.59375","-5.03125"
"1574269030117","417","0.21777344","-0.90234375","-0.0126953125","-0.5","-4.78125","-3.75"
"1574269030117","418","0.21875","-0.890625","-0.001953125","-1.34375","-0.0625","-1.96875"
"1574269030118","419","0.20410156","-0.89453125","-0.00390625","3.28125","-0.4375","-3.625"
"1574269030314","420","0.21875","-0.88964844","0.0068359375","3.34375","3.09375","-1.90625"
"1574269030315","421","0.22070312","-0.9091797","0.013671875","1.5","2.65625","-1.0625"
"1574269030315","422","0.234375","-0.9033203","0.00390625","4.0625","2.25","-1.71875"
"1574269030315","423","0.20996094","-0.8955078","0.03515625","-1.25","3.34375","-1.59375"
"1574269030316","424","0.19824219","-0.90234375","0.016601562","3.90625","2.0","-1.1875"
"1574269030316","425","0.20214844","-0.90234375","0.087890625","-9.84375","8.15625","-2.46875"
"1574269030316","426","0.16113281","-0.9033203","0.016601562","-2.40625","1.9375","-3.5"
"1574269030316","427","0.23242188","-0.9423828","0.05859375","-15.21875","6.09375","-0.125"
"1574269030317","428","0.25878906","-0.95996094","-0.0107421875","3.84375","-2.28125","-2.46875"
"1574269030317","429","0.20410156","-0.87109375","0.038085938","-6.3125","4.1875","-0.375"
"1574269030713","430","0.2265625","-0.89941406","0.033203125","-15.03125","0.03125","-2.9375"
"1574269030713","431","0.21972656","-0.91308594","-0.01171875","-9.15625","2.0625","-0.8125"
"1574269030714","432","0.22460938","-0.8769531","-0.05078125","-3.96875","8.15625","-2.34375"
"1574269030715","433","0.26757812","-0.89160156","-0.043945312","0.03125","1.625","0.84375"
"1574269030715","434","0.25585938","-0.93359375","-0.015625","3.59375","7.5","-0.9375"
"1574269030716","435","0.23339844","-0.8964844","9.765625E-4","0.71875","0.78125","2.90625"
"1574269030716","436","0.20800781","-0.8417969","-0.009765625","-6.84375","5.0625","0.34375"
"1574269030717","437","0.18554688","-0.92285156","-0.028320312","-7.59375","2.4375","-3.3125"
"1574269030717","438","0.26464844","-0.93652344","-0.0087890625","-7.9375","4.8125","0.65625"
"1574269030717","439","0.24707031","-0.86328125","-0.055664062","1.6875","-1.0625","2.96875"
"1574269031109","440","0.17578125","-0.890625","-0.0087890625","-5.75","2.78125","-1.78125"
"1574269031110","441","0.21386719","-0.9160156","0.0068359375","-1.40625","2.90625","-1.78125"
"1574269031110","442","0.21875","-0.88378906","-0.029296875","-0.75","0.03125","-1.84375"
"1574269031110","443","0.21972656","-0.9296875","-9.765625E-4","-4.21875","1.28125","0.34375"
"1574269031111","444","0.21289062","-0.85839844","-0.041015625","0.90625","1.03125","0.21875"
"1574269031112","445","0.20996094","-0.9013672","-0.00390625","-0.6875","-0.9375","-0.375"
"1574269031112","446","0.234375","-0.87109375","-0.06933594","7.5","-1.0625","0.21875"
"1574269031113","447","0.24609375","-0.89453125","0.03125","-0.5625","2.71875","1.625"
"1574269031113","448","0.23339844","-0.87402344","-0.043945312","1.8125","-5.9375","1.625"
"1574269031113","449","0.16699219","-0.8779297","-0.0107421875","-3.0","1.6875","0.21875"
"1574269031507","450","0.18847656","-0.95996094","-0.06542969","1.6875","9.9375","-4.21875"
"1574269031507","451","0.24121094","-0.8779297","0.03515625","-11.125","11.21875","2.0"
"1574269031507","452","0.21386719","-0.91308594","-0.040039062","5.53125","7.375","0.28125"
"1574269031508","453","0.23632812","-0.9375","0.0146484375","-9.65625","12.0","7.25"
"1574269031508","454","0.21289062","-0.91796875","-0.0126953125","1.28125","-1.0","2.3125"
"1574269031509","455","0.17382812","-0.88183594","-0.001953125","-4.03125","5.1875","3.53125"
"1574269031509","456","0.18652344","-0.93847656","-0.015625","3.59375","-5.8125","-0.5"
"1574269031510","457","0.20898438","-0.91503906","0.013671875","0.90625","5.65625","-1.34375"
"1574269031511","458","0.22070312","-0.9033203","-0.00390625","2.0","-9.28125","0.65625"
"1574269031511","459","0.18066406","-0.9082031","0.0029296875","8.53125","-2.6875","-2.28125"
"1574269031903","460","0.18847656","-0.9033203","-0.001953125","0.28125","-0.1875","-0.75"
"1574269031904","461","0.21972656","-0.89746094","0.0078125","1.09375","5.34375","1.625"
"1574269031904","462","0.19238281","-0.8876953","-0.018554688","1.3125","2.78125","0.65625"
"1574269031904","463","0.14257812","-0.9111328","0.005859375","-0.1875","6.5","-3.90625"
"1574269031904","464","0.20605469","-0.90234375","-0.001953125","2.1875","8.46875","-1.96875"
"1574269031905","465","0.23144531","-0.89941406","0.013671875","-1.84375","5.34375","-2.21875"
"1574269031905","466","0.23046875","-0.8984375","-0.017578125","-2.6875","1.09375","0.84375"
"1574269031905","467","0.20605469","-0.88964844","-0.017578125","-1.25","-0.875","0.0"
"1574269031905","468","0.19824219","-0.88964844","-0.016601562","1.3125","6.46875","0.78125"
"1574269031907","469","0.25","-0.89941406","-0.0146484375","0.90625","2.71875","2.0625"
"1574269032302","470","0.20214844","-0.8876953","-0.048828125","12.0625","6.21875","3.03125"
"1574269032302","471","0.18945312","-0.90234375","0.05078125","0.65625","12.25","3.90625"
"1574269032303","472","0.203125","-0.9140625","0.029296875","-0.5625","7.1875","1.03125"
"1574269032303","473","0.21777344","-0.9169922","0.0146484375","-1.34375","1.15625","5.53125"
"1574269032303","474","0.18164062","-0.92089844","0.016601562","-0.0625","2.4375","4.0625"
"1574269032303","475","0.16503906","-0.9355469","0.061523438","7.1875","-2.9375","3.65625"
"1574269032304","476","0.15332031","-0.8886719","0.060546875","10.40625","-1.96875","-1.0"
"1574269032304","477","0.14257812","-0.90527344","0.08496094","3.09375","2.5625","-1.25"
"1574269032304","478","0.18261719","-0.9169922","0.029296875","1.3125","11.9375","0.71875"
"1574269032305","479","0.18847656","-0.91796875","0.068359375","-0.375","15.5","0.34375"
"1574269032699","480","0.15429688","-0.91015625","0.04296875","0.0","14.5","-2.15625"
"1574269032701","481","0.17578125","-0.8964844","0.036132812","3.21875","9.03125","-2.59375"
"1574269032702","482","0.19238281","-0.90234375","0.07128906","4.125","-1.59375","-5.21875"
"1574269032702","483","0.1484375","-0.90625","0.07519531","5.71875","-8.5","-6.5"
"1574269032702","484","0.16992188","-0.9316406","0.061523438","3.59375","-5.3125","-2.59375"
"1574269032703","485","0.17382812","-0.9189453","0.07714844","5.0","-0.625","-5.75"
"1574269032703","486","0.18164062","-0.93847656","0.046875","0.0","1.375","-5.03125"
"1574269032703","487","0.20019531","-0.9238281","0.0703125","-8.4375","7.0625","-2.875"
"1574269032703","488","0.19433594","-0.9160156","0.049804688","-8.75","0.15625","-4.90625"
"1574269032704","489","0.19921875","-0.9003906","0.038085938","-12.84375","3.28125","-6.4375"
"1574269033097","490","0.19628906","-0.9091797","0.026367188","-13.6875","3.59375","-9.15625"
"1574269033097","491","0.24023438","-0.890625","0.0","-8.1875","3.84375","-8.4375"
"1574269033097","492","0.24804688","-0.8955078","-0.0087890625","-10.75","2.71875","-8.1875"
"1574269033099","493","0.26953125","-0.9082031","0.001953125","-3.625","3.65625","-5.375"
"1574269033099","494","0.21875","-0.8857422","0.005859375","-4.03125","1.28125","-6.0"
"1574269033100","495","0.23144531","-0.89160156","0.0029296875","1.3125","3.34375","-5.4375"
"1574269033100","496","0.21289062","-0.8828125","0.005859375","0.34375","4.4375","-9.0"
"1574269033100","497","0.25","-0.9003906","0.016601562","3.90625","6.03125","-6.4375"
"1574269033100","498","0.27734375","-0.8886719","0.03515625","-0.9375","2.375","-6.3125"
"1574269033101","499","0.25585938","-0.8964844","0.026367188","0.34375","-1.65625","-1.84375"
"1574269033494","500","0.24804688","-0.9091797","0.045898438","-0.875","-1.59375","-2.625"
"1574269033494","501","0.24511719","-0.9013672","0.046875","-5.6875","-3.875","-0.875"
"1574269033494","502","0.2265625","-0.90527344","0.0546875","-9.28125","-4.71875","1.8125"
"1574269033495","503","0.17089844","-0.9355469","0.009765625","-11.78125","1.28125","-2.59375"
"1574269033495","504","0.2685547","-0.92578125","-0.0107421875","-3.1875","-1.65625","-1.3125"
"1574269033496","505","0.2607422","-0.9042969","-0.0068359375","5.46875","4.0","-2.875"
"1574269033497","506","0.27929688","-0.8964844","0.06542969","-1.53125","0.40625","0.15625"
"1574269033497","507","0.18652344","-0.87890625","-0.0087890625","-5.21875","0.21875","-2.9375"
"1574269033497","508","0.27246094","-0.890625","-0.0068359375","-4.03125","0.59375","-1.125"
"1574269033498","509","0.27539062","-0.9013672","-0.01953125","-2.28125","4.625","2.125"
"1574269033891","510","0.27929688","-0.87890625","-0.001953125","0.65625","8.28125","7.8125"
"1574269033891","511","0.24511719","-0.8808594","-0.00390625","-8.8125","-0.375","2.5625"
"1574269033892","512","0.25097656","-0.8964844","-0.033203125","-7.03125","3.15625","8.46875"
"1574269033892","513","0.22070312","-0.9140625","0.0146484375","-5.5","-0.5","2.0"
"1574269033892","514","0.19433594","-0.87109375","-0.029296875","-0.25","5.59375","-0.3125"
"1574269033892","515","0.25","-0.8828125","9.765625E-4","-9.65625","4.375","-0.375"
"1574269033893","516","0.24414062","-0.9160156","-0.020507812","-1.90625","3.15625","0.21875"
"1574269033894","517","0.21191406","-0.87109375","-0.030273438","-0.875","1.6875","-0.375"
"1574269033895","518","0.18554688","-0.88671875","0.013671875","-2.59375","0.46875","-2.9375"
"1574269033895","519","0.2685547","-0.91015625","-0.053710938","2.96875","3.34375","-2.75"
"1574269034288","520","0.26367188","-0.8964844","-0.0078125","-0.9375","-4.84375","1.3125"
"1574269034288","521","0.21679688","-0.8828125","-0.025390625","3.34375","-3.25","-3.4375"
"1574269034289","522","0.24121094","-0.88964844","-0.016601562","0.96875","-4.53125","-0.125"
"1574269034289","523","0.26660156","-0.90234375","0.001953125","7.3125","-6.125","-1.3125"
"1574269034289","524","0.13769531","-0.85839844","-0.024414062","-0.0625","0.78125","-4.15625"
"1574269034290","525","0.26660156","-0.9082031","-0.01953125","-0.5625","2.0","-0.5"
"1574269034290","526","0.21875","-0.9003906","-0.015625","2.90625","8.84375","-2.09375"
"1574269034291","527","0.26367188","-0.9199219","0.01953125","4.3125","2.375","2.96875"
"1574269034291","528","0.22949219","-0.89453125","-0.018554688","1.21875","13.15625","1.6875"
"1574269034292","529","0.23046875","-0.8847656","0.026367188","-0.5625","4.8125","2.25"
"1574269034687","530","0.25","-0.9003906","0.0107421875","9.03125","11.15625","3.40625"
"1574269034688","531","0.16015625","-0.9160156","0.0048828125","1.5625","2.4375","-0.6875"
"1574269034688","532","0.2421875","-0.9238281","0.040039062","3.90625","12.625","1.21875"
"1574269034688","533","0.24414062","-0.94433594","0.017578125","3.15625","-2.40625","-0.125"
"1574269034689","534","0.21191406","-0.9091797","0.038085938","6.15625","-1.125","-0.5625"
"1574269034689","535","0.16992188","-0.9042969","0.0703125","5.96875","-1.3125","-0.125"
"1574269034689","536","0.22558594","-0.9003906","0.0146484375","5.28125","-4.40625","0.03125"
"1574269034690","537","0.23339844","-0.92871094","0.064453125","2.125","-7.65625","-0.875"
"1574269034690","538","0.15039062","-0.8935547","0.051757812","0.46875","-1.90625","-4.03125"
"1574269034690","539","0.19726562","-0.89941406","0.036132812","3.34375","2.25","-3.4375"
"1574269035281","540","0.22460938","-0.9160156","0.02734375","4.3125","1.3125","-1.65625"
"1574269035282","541","0.17285156","-0.90722656","0.07128906","1.375","4.4375","-6.25"
"1574269035282","542","0.25878906","-0.8730469","0.0234375","4.9375","11.8125","1.6875"
"1574269035283","543","0.22753906","-0.90722656","0.043945312","-1.40625","5.40625","-2.9375"
"1574269035283","544","0.3017578","-0.87597656","0.0126953125","-2.8125","8.84375","6.21875"
"1574269035283","545","0.23046875","-0.9082031","0.041015625","-1.46875","1.5","2.0625"
"1574269035284","546","0.2265625","-0.8984375","0.03125","-3.8125","6.15625","1.375"
"1574269035284","547","0.25390625","-0.8876953","0.032226562","0.84375","2.71875","2.5625"
"1574269035284","548","0.26464844","-0.90722656","0.038085938","-4.15625","2.0625","-0.25"
"1574269035285","549","0.23925781","-0.8955078","0.041992188","1.75","-3.75","3.65625"
"1574269035482","550","0.20507812","-0.8984375","0.044921875","-3.5625","-2.8125","-1.59375"
"1574269035482","551","0.22167969","-0.91308594","0.064453125","1.03125","-4.09375","0.40625"
"1574269035483","552","0.15917969","-0.94628906","0.06738281","-2.6875","-0.6875","-3.5625"
"1574269035484","553","0.20214844","-0.9003906","0.047851562","6.03125","-0.3125","-1.40625"
"1574269035484","554","0.22851562","-0.91796875","0.072265625","-1.59375","0.96875","0.65625"
"1574269035485","555","0.17578125","-0.92871094","0.0703125","1.03125","-0.6875","-0.625"
"1574269035485","556","0.19433594","-0.8886719","0.068359375","-0.4375","1.28125","-1.0"
"1574269035485","557","0.19726562","-0.9140625","0.068359375","1.75","1.09375","-0.3125"
"1574269035486","558","0.21484375","-0.89941406","0.0703125","-2.9375","0.21875","0.40625"
"1574269035486","559","0.20214844","-0.90722656","0.060546875","-3.25","0.84375","-1.3125"
"1574269035878","560","0.18945312","-0.90234375","0.07714844","-5.03125","0.40625","-0.6875"
"1574269035878","561","0.15234375","-0.8984375","0.057617188","-5.4375","5.46875","-2.75"
"1574269035878","562","0.18359375","-0.9248047","0.07128906","-6.59375","4.625","-3.875"
"1574269035878","563","0.22851562","-0.9316406","0.052734375","-3.8125","4.75","-2.9375"
"1574269035879","564","0.22753906","-0.9082031","0.04296875","-0.5625","1.03125","-0.6875"
"1574269035879","565","0.21484375","-0.90527344","0.04296875","-2.9375","1.5","-3.75"
"1574269035880","566","0.23242188","-0.9082031","0.022460938","-6.375","0.96875","-2.34375"
"1574269035880","567","0.24707031","-0.9033203","0.0078125","-3.4375","2.59375","-1.84375"
"1574269035880","568","0.22558594","-0.8984375","0.016601562","-8.9375","-0.1875","-3.125"
"1574269035880","569","0.24609375","-0.8955078","-0.001953125","-4.34375","0.65625","-1.34375"
"1574269036276","570","0.2529297","-0.89941406","-9.765625E-4","-3.75","1.4375","-1.34375"
"1574269036276","571","0.24023438","-0.8925781","-0.001953125","-0.1875","-0.25","-1.40625"
"1574269036276","572","0.25097656","-0.8847656","0.015625","-1.84375","0.65625","-1.0625"
"1574269036277","573","0.23144531","-0.9042969","0.01953125","-1.25","-0.9375","-3.3125"
"1574269036277","574","0.23339844","-0.8886719","0.0087890625","2.84375","-0.875","-3.6875"
"1574269036277","575","0.2109375","-0.8955078","0.053710938","-0.625","1.75","-2.6875"
"1574269036277","576","0.203125","-0.89453125","0.022460938","-1.46875","0.03125","-2.875"
"1574269036278","577","0.21289062","-0.9199219","0.060546875","-7.59375","2.59375","-1.0"
"1574269036278","578","0.15820312","-0.8925781","0.028320312","-6.59375","5.1875","-3.0"
"1574269036278","579","0.22753906","-0.9433594","0.03125","-6.25","7.0625","2.0"
"1574269036674","580","0.22949219","-0.91796875","0.026367188","0.78125","2.90625","-3.6875"
"1574269036674","581","0.20800781","-0.9111328","0.07519531","-5.875","7.3125","1.09375"
"1574269036675","582","0.21972656","-0.8876953","-0.03125","-4.09375","3.28125","-2.03125"
"1574269036675","583","0.28320312","-0.93066406","0.029296875","-3.96875","1.6875","2.5625"
"1574269036675","584","0.24121094","-0.87597656","0.0048828125","-6.90625","3.40625","-0.8125"
"1574269036675","585","0.25097656","-0.8828125","0.032226562","-3.75","-0.875","2.71875"
"1574269036676","586","0.22265625","-0.90234375","-0.057617188","6.40625","-1.0625","-0.6875"
"1574269036676","587","0.21972656","-0.91308594","0.0048828125","-0.6875","7.5625","0.0"
"1574269036676","588","0.2734375","-0.875","0.018554688","-2.28125","4.6875","4.125"
"1574269036678","589","0.23046875","-0.890625","-0.0234375","0.84375","0.21875","2.96875"
"1574269037072","590","0.17480469","-0.8857422","0.030273438","-9.0625","-1.34375","-0.8125"
"1574269037073","591","0.17675781","-0.8984375","-0.01171875","-0.625","5.40625","-0.1875"
"1574269037073","592","0.21289062","-0.91308594","-0.018554688","-5.6875","-0.5","-2.53125"
"1574269037073","593","0.22558594","-0.9121094","0.013671875","1.5625","1.03125","4.0"
"1574269037074","594","0.19824219","-0.89453125","-0.018554688","-0.75","5.28125","-1.65625"
"1574269037074","595","0.21582031","-0.90527344","0.033203125","-5.15625","-1.90625","3.46875"
"1574269037074","596","0.17480469","-0.8935547","-0.036132812","-2.03125","4.125","-5.3125"
"1574269037074","597","0.27246094","-0.8886719","0.017578125","-7.09375","5.40625","1.6875"
"1574269037075","598","0.18164062","-0.8886719","-0.047851562","1.3125","-4.28125","-7.15625"
"1574269037075","599","0.27929688","-0.89160156","0.0","0.28125","8.84375","-0.5"
"1574269037668","600","0.265625","-0.9033203","-0.022460938","4.5","-11.84375","-0.6875"
"1574269037669","601","0.24511719","-0.87597656","0.015625","-4.90625","2.96875","-1.1875"
"1574269037670","602","0.18847656","-0.90722656","-0.018554688","-1.0","-7.15625","-4.40625"
"1574269037671","603","0.111328125","-0.9042969","-0.026367188","7.125","10.25","-6.3125"
"1574269037671","604","0.2734375","-0.921875","0.045898438","-9.59375","18.46875","-1.53125"
"1574269037671","605","0.3173828","-0.85839844","-0.036132812","8.46875","13.84375","5.53125"
"1574269037672","606","0.14941406","-0.9160156","0.0390625","-1.78125","13.09375","1.375"
"1574269037672","607","0.20996094","-0.91503906","-0.0029296875","2.90625","22.125","3.90625"
"1574269037672","608","0.24316406","-0.87890625","0.01953125","4.9375","6.875","4.875"
"1574269037673","609","0.265625","-0.9472656","0.07324219","6.34375","13.0","3.59375"
"1574269037866","610","0.18652344","-0.94140625","0.0390625","-2.625","1.4375","2.4375"
"1574269037866","611","0.18164062","-0.9345703","0.0078125","15.1875","2.0625","5.46875"
"1574269037866","612","0.1875","-0.89453125","0.11425781","-6.96875","7.96875","1.15625"
"1574269037868","613","0.18359375","-0.89941406","0.0029296875","4.6875","-8.1875","-1.53125"
"1574269037868","614","0.16210938","-0.9296875","0.041015625","-1.1875","3.15625","-3.1875"
"1574269037868","615","0.22753906","-0.88964844","0.037109375","-4.40625","1.03125","-2.9375"
"1574269037869","616","0.203125","-0.8925781","0.051757812","-10.03125","2.59375","-2.625"
"1574269037870","617","0.20117188","-0.90625","0.0","-2.53125","-2.03125","-2.28125"
"1574269037870","618","0.20019531","-0.91308594","0.001953125","1.15625","-0.75","-6.96875"
"1574269037871","619","0.2626953","-0.8769531","0.0107421875","-0.75","4.25","-2.6875"
"1574269038264","620","0.25585938","-0.8798828","0.00390625","-1.0","1.3125","-0.1875"
"1574269038265","621","0.27246094","-0.9326172","0.017578125","1.3125","-3.0625","1.03125"
"1574269038265","622","0.18066406","-0.8886719","0.026367188","-0.25","-4.09375","0.65625"
"1574269038265","623","0.23144531","-0.8847656","-0.00390625","6.03125","0.03125","0.09375"
"1574269038266","624","0.25195312","-0.93652344","0.038085938","0.21875","-4.03125","0.15625"
"1574269038267","625","0.203125","-0.90234375","0.020507812","4.3125","-5.25","1.21875"
"1574269038268","626","0.15527344","-0.890625","0.044921875","5.125","3.90625","-0.375"
"1574269038268","627","0.1875","-0.9296875","0.030273438","4.25","6.28125","-0.5625"
"1574269038269","628","0.21875","-0.92089844","0.057617188","0.46875","7.8125","1.03125"
"1574269038269","629","0.18066406","-0.9121094","0.06347656","-6.53125","5.28125","1.03125"
"1574269038662","630","0.1953125","-0.8857422","0.051757812","-7.09375","5.34375","1.6875"
"1574269038663","631","0.20996094","-0.921875","0.048828125","-5.375","2.59375","3.90625"
"1574269038663","632","0.16699219","-0.9042969","0.05078125","-1.1875","2.0625","-0.8125"
"1574269038663","633","0.17382812","-0.9111328","0.040039062","0.90625","7.0","0.78125"
"1574269038663","634","0.20410156","-0.9326172","0.044921875","-2.28125","8.53125","0.28125"
"1574269038664","635","0.19628906","-0.9013672","0.052734375","-2.8125","8.84375","-2.15625"
"1574269038664","636","0.21972656","-0.9199219","0.013671875","-0.3125","8.09375","-1.53125"
"1574269038665","637","0.21875","-0.91015625","0.03125","-5.5","4.5","-3.4375"
"1574269038666","638","0.17578125","-0.90625","0.0234375","-2.09375","4.0625","-5.09375"
"1574269038666","639","0.21191406","-0.89453125","0.041015625","-5.9375","3.9375","-3.625"
"1574269039059","640","0.19921875","-0.9013672","0.037109375","-5.625","4.0","-4.21875"
"1574269039060","641","0.22363281","-0.89941406","0.0068359375","-9.34375","7.5","-3.875"
"1574269039060","642","0.23730469","-0.8876953","0.018554688","-9.59375","6.625","-2.09375"
"1574269039060","643","0.21191406","-0.90527344","-0.01171875","-0.75","8.53125","-2.875"
"1574269039060","644","0.25878906","-0.9013672","0.009765625","-4.34375","7.625","-2.46875"
"1574269039061","645","0.22363281","-0.90234375","0.015625","1.875","1.4375","-1.59375"
"1574269039061","646","0.24511719","-0.8857422","9.765625E-4","1.03125","0.46875","-1.96875"
"1574269039061","647","0.24609375","-0.9042969","0.0087890625","0.84375","-5.6875","-0.875"
"1574269039061","648","0.19140625","-0.8779297","0.032226562","-2.53125","-2.34375","-4.28125"
"1574269039063","649","0.20019531","-0.92089844","0.033203125","-3.96875","-4.78125","-2.75"
"1574269039456","650","0.20898438","-0.8935547","0.038085938","-6.96875","-2.03125","-1.78125"
"1574269039456","651","0.14453125","-0.8964844","0.034179688","-10.8125","-1.1875","-2.40625"
"1574269039456","652","0.20605469","-0.95703125","0.015625","-4.59375","-1.0625","0.15625"
"1574269039457","653","0.23046875","-0.9267578","0.024414062","-0.1875","-1.46875","-2.625"
"1574269039457","654","0.16796875","-0.89160156","-0.0146484375","8.65625","-8.6875","-3.96875"
"1574269039457","655","0.2783203","-0.9111328","0.034179688","-1.0625","-1.65625","1.625"
"1574269039457","656","0.29492188","-0.8964844","-0.028320312","2.0","-6.0","5.21875"
"1574269039458","657","0.16210938","-0.8828125","0.0029296875","-2.625","-8.125","3.65625"
"1574269039458","658","0.19042969","-0.9111328","-0.049804688","2.3125","-1.71875","3.09375"
"1574269039458","659","0.23046875","-0.890625","0.045898438","-0.875","2.0","3.21875"
"1574269039854","660","0.2734375","-0.8847656","-0.041015625","3.03125","-0.25","9.5"
"1574269039855","661","0.22949219","-0.90234375","0.009765625","-9.125","-4.34375","9.03125"
"1574269039856","662","0.13183594","-0.8964844","0.0068359375","-5.03125","-0.5625","-0.25"
"1574269039856","663","0.15722656","-0.86816406","-0.01953125","-8.125","1.8125","1.21875"
"1574269039856","664","0.20019531","-0.9375","0.0","-5.8125","3.53125","-1.59375"
"1574269039857","665","0.21191406","-0.8955078","-0.0068359375","-2.625","3.59375","-2.21875"
"1574269039857","666","0.17285156","-0.8769531","-0.0068359375","-0.5","2.71875","0.09375"
"1574269039857","667","0.22167969","-0.9121094","9.765625E-4","-4.53125","5.59375","-0.5"
"1574269039857","668","0.18261719","-0.88964844","-0.013671875","1.4375","-4.09375","-1.34375"
"1574269039858","669","0.1953125","-0.87597656","-0.033203125","3.59375","2.65625","-3.75"
"1574269040252","670","0.21972656","-0.9169922","-0.020507812","4.9375","-1.34375","-4.03125"
"1574269040252","671","0.18847656","-0.8564453","0.001953125","3.71875","-1.65625","-5.3125"
"1574269040252","672","0.19921875","-0.9160156","0.015625","-0.8125","5.53125","-3.125"
"1574269040254","673","0.22167969","-0.89453125","-0.06542969","8.28125","2.84375","0.03125"
"1574269040254","674","0.16113281","-0.90722656","0.06738281","-6.96875","13.34375","-0.9375"
"1574269040255","675","0.2109375","-0.89746094","-0.056640625","5.21875","7.90625","2.25"
"1574269040255","676","0.23925781","-0.89453125","0.05078125","-9.46875","14.28125","1.09375"
"1574269040255","677","0.20507812","-0.91796875","-0.028320312","-0.4375","9.09375","4.875"
"1574269040256","678","0.19335938","-0.8925781","0.017578125","-5.09375","10.1875","0.28125"
"1574269040256","679","0.19140625","-0.9042969","0.034179688","3.03125","-2.15625","1.3125"
"1574269040649","680","0.12207031","-0.8984375","0.06542969","-25.21875","19.15625","-10.75"
"1574269040650","681","0.28710938","-0.93652344","-0.056640625","3.40625","-13.3125","0.96875"
"1574269040650","682","0.21875","-0.92285156","0.0126953125","5.84375","-5.5625","-6.59375"
"1574269040651","683","0.12890625","-0.92578125","-0.009765625","9.1875","-11.25","-2.9375"
"1574269040651","684","0.18945312","-0.87890625","0.040039062","5.34375","-5.09375","-3.6875"
"1574269040652","685","0.203125","-0.8886719","0.024414062","0.09375","-5.25","-4.28125"
"1574269040653","686","0.18261719","-0.93359375","-0.01171875","-0.75","-5.8125","-2.40625"
"1574269040653","687","0.1875","-0.8857422","9.765625E-4","5.53125","0.90625","-2.75"
"1574269040653","688","0.18261719","-0.90527344","0.048828125","-9.40625","3.53125","-5.75"
"1574269040654","689","0.21679688","-0.8935547","-0.0234375","2.84375","1.5","-4.78125"
"1574269041442","690","0.25","-0.88964844","0.032226562","-13.8125","8.09375","-1.40625"
"1574269041442","691","0.19824219","-0.91796875","-0.041992188","6.5","-1.0","-0.625"
"1574269041443","692","0.21679688","-0.91503906","0.001953125","-1.90625","8.40625","-0.6875"
"1574269041443","693","0.24121094","-0.8691406","-0.00390625","8.03125","5.0625","2.78125"
"1574269041443","694","0.21777344","-0.92089844","0.017578125","-2.75","11.21875","1.3125"
"1574269041444","695","0.2607422","-0.89160156","0.009765625","5.59375","5.0625","6.21875"
"1574269041444","696","0.19921875","-0.9169922","0.025390625","-4.15625","1.625","1.15625"
"1574269041445","697","0.20605469","-0.8935547","0.0078125","2.84375","3.21875","2.3125"
"1574269041445","698","0.22167969","-0.9296875","0.0107421875","4.625","-2.40625","-1.59375"
"1574269041446","699","0.17578125","-0.9140625","0.0390625","7.90625","1.15625","-3.0"
"1574269041640","700","0.15039062","-0.8935547","0.057617188","4.6875","4.4375","-1.78125"
"1574269041641","701","0.17773438","-0.92089844","0.041992188","2.0","9.03125","-2.53125"
"1574269041641","702","0.203125","-0.91503906","0.061523438","-0.25","9.75","-1.3125"
"1574269041641","703","0.21484375","-0.91015625","0.051757812","-6.1875","6.9375","1.3125"
"1574269041641","704","0.1796875","-0.90625","0.030273438","-0.0625","2.71875","0.84375"
"1574269041641","705","0.20019531","-0.90722656","0.048828125","-0.4375","4.25","1.15625"
"1574269041642","706","0.18652344","-0.90625","0.05078125","-2.6875","-0.8125","-1.90625"
"1574269041642","707","0.18164062","-0.8857422","0.03125","-1.84375","1.5","-3.25"
"1574269041642","708","0.23339844","-0.9482422","0.040039062","-4.46875","1.09375","-1.84375"
"1574269041644","709","0.19042969","-0.921875","0.044921875","-4.34375","-0.625","-4.34375"
"1574269041841","710","0.1875","-0.88671875","0.0234375","-5.21875","0.65625","-3.0"
"1574269041841","711","0.22265625","-0.9111328","0.0107421875","-4.78125","0.59375","-4.40625"
"1574269041841","712","0.21582031","-0.91015625","0.0126953125","-4.53125","2.375","-4.46875"
"1574269041842","713","0.21191406","-0.9042969","0.015625","-1.90625","3.53125","-3.90625"
"1574269041842","714","0.23242188","-0.8808594","0.022460938","-10.03125","3.46875","-2.625"
"1574269041842","715","0.23730469","-0.8955078","-0.032226562","0.90625","2.84375","-2.15625"
"1574269041842","716","0.24511719","-0.89453125","-0.018554688","1.03125","5.0","-2.21875"
"1574269041843","717","0.25878906","-0.8720703","-0.005859375","2.1875","5.21875","1.09375"
"1574269041843","718","0.24804688","-0.89941406","0.018554688","1.6875","2.5","-1.71875"
"1574269041843","719","0.20410156","-0.8964844","0.001953125","6.5625","1.09375","0.09375"
"1574269042240","720","0.20898438","-0.8955078","0.046875","0.15625","2.0","-0.875"
"1574269042242","721","0.21972656","-0.90527344","0.032226562","-2.53125","3.28125","-1.125"
"1574269042243","722","0.20898438","-0.9091797","0.057617188","-6.125","0.21875","0.78125"
"1574269042243","723","0.16894531","-0.8955078","0.0703125","-7.875","-3.0","-2.21875"
"1574269042243","724","0.17773438","-0.9345703","0.057617188","-14.96875","-0.4375","-1.34375"
"1574269042243","725","0.23046875","-0.9472656","0.020507812","-7.875","-3.90625","-1.34375"
"1574269042244","726","0.19921875","-0.90625","0.033203125","-4.96875","-1.53125","-1.3125"
"1574269042244","727","0.18066406","-0.9033203","0.01171875","-2.875","0.28125","-2.59375"
"1574269042244","728","0.15136719","-0.8925781","0.016601562","-5.09375","6.5","-5.8125"
"1574269042245","729","0.2705078","-0.91308594","-0.034179688","-2.8125","9.875","-1.90625"
"1574269042637","730","0.23242188","-0.88183594","-0.01171875","4.1875","7.90625","1.5"
"1574269042637","731","0.2890625","-0.90234375","-0.0146484375","-8.5625","9.625","0.0"
"1574269042638","732","0.27441406","-0.88671875","-0.0068359375","0.40625","-0.5625","8.71875"
"1574269042639","733","0.21875","-0.8828125","-0.01953125","-11.5","1.4375","0.40625"
"1574269042640","734","0.24023438","-0.92578125","-0.0546875","-5.03125","-4.78125","5.78125"
"1574269042640","735","0.22363281","-0.87109375","0.0078125","-9.78125","-2.40625","0.84375"
"1574269042640","736","0.15136719","-0.8828125","-0.048828125","0.34375","-3.25","-1.65625"
"1574269042641","737","0.20410156","-0.8955078","-0.024414062","-0.5625","1.09375","-2.53125"
"1574269042641","738","0.23730469","-0.89453125","-0.041015625","2.0625","2.5625","-1.65625"
"1574269042641","739","0.18359375","-0.89160156","0.017578125","0.15625","-0.125","-0.6875"
"1574269043428","740","0.18359375","-0.8955078","-0.037109375","2.0625","0.09375","-2.28125"
"1574269043429","741","0.20214844","-0.90722656","-0.0146484375","1.03125","2.65625","-3.25"
"1574269043429","742","0.2578125","-0.8876953","-0.055664062","2.65625","2.3125","-1.34375"
"1574269043430","743","0.21191406","-0.890625","0.02734375","0.96875","-0.3125","-0.5625"
"1574269043430","744","0.17480469","-0.87597656","-0.049804688","-4.28125","2.25","-6.78125"
"1574269043430","745","0.29785156","-0.8984375","-0.0078125","-1.59375","1.5625","4.75"
"1574269043431","746","0.20605469","-0.8876953","-0.06738281","-2.9375","-2.40625","-5.3125"
"1574269043431","747","0.22363281","-0.88671875","0.0029296875","-1.0625","0.09375","5.78125"
"1574269043431","748","0.13867188","-0.87402344","-0.06640625","-1.53125","10.3125","-4.78125"
"1574269043432","749","0.2919922","-0.9091797","0.01953125","-3.1875","5.96875","4.6875"
"1574269043627","750","0.203125","-0.88671875","-0.051757812","-0.8125","11.09375","-2.34375"
"1574269043628","751","0.22851562","-0.9082031","0.030273438","-7.15625","2.90625","7.5"
"1574269043628","752","0.21875","-0.9248047","-0.055664062","3.78125","2.0","3.34375"
"1574269043628","753","0.23046875","-0.8964844","0.026367188","-1.1875","-3.0","3.90625"
"1574269043628","754","0.15429688","-0.9277344","0.0078125","-0.6875","-4.65625","-0.75"
"1574269043629","755","0.16796875","-0.90722656","-0.0048828125","0.21875","-7.28125","-1.40625"
"1574269043629","756","0.18164062","-0.90527344","0.00390625","-3.3125","2.1875","-2.875"
"1574269043630","757","0.21191406","-0.90527344","0.0","-2.75","-4.09375","-3.4375"
"1574269043631","758","0.17480469","-0.91015625","-0.00390625","-2.6875","-1.84375","-3.6875"
"1574269043631","759","0.18457031","-0.8857422","-0.028320312","1.8125","2.78125","-1.3125"
"1574269044027","760","0.15820312","-0.89941406","-0.024414062","-0.3125","5.1875","-5.5625"
"1574269044028","761","0.23046875","-0.90234375","-0.017578125","-1.78125","6.21875","-4.21875"
"1574269044028","762","0.19726562","-0.90527344","0.0068359375","-2.15625","3.46875","-4.09375"
"1574269044028","763","0.2421875","-0.86035156","-0.040039062","0.84375","5.0","0.21875"
"1574269044029","764","0.19042969","-0.9375","-0.043945312","-2.53125","4.5","0.21875"
"1574269044029","765","0.26367188","-0.90527344","-0.032226562","-0.625","7.5","1.15625"
"1574269044029","766","0.24316406","-0.85546875","-0.03515625","1.9375","-0.75","1.75"
"1574269044030","767","0.1640625","-0.9091797","-0.020507812","-0.0625","0.03125","-2.15625"
"1574269044030","768","0.22167969","-0.9511719","-0.018554688","2.0","-3.6875","-0.1875"
"1574269044031","769","0.21679688","-0.8886719","0.0","5.1875","-8.0625","-3.25"
