"# PR data"
"# Start time: 20191120T143744"
"# Subject: aggie"
"# Activity type: Bicep curl"
"# Correctness: Incorrect"
"# Notes: "
""
"timestamp","seq","accel_x","accel_y","accel_z","gyro_x","gyro_y","gyro_z"
"1574260664919","0","-0.08691406","-0.99316406","-0.17480469","0.90625","3.90625","3.21875"
"1574260664919","1","-0.125","-1.015625","-0.16894531","0.0","2.71875","0.28125"
"1574260664919","2","-0.13378906","-1.0146484","-0.13378906","-0.6875","-1.71875","0.15625"
"1574260664920","3","-0.13085938","-1.0166016","-0.12597656","0.46875","0.28125","-2.15625"
"1574260664920","4","-0.1484375","-0.98339844","-0.11035156","-3.3125","0.59375","-5.25"
"1574260664920","5","-0.16503906","-0.96875","-0.123046875","-0.125","1.28125","-7.15625"
"1574260664920","6","-0.12011719","-0.9472656","-0.17578125","6.5625","3.78125","-2.875"
"1574260664921","7","-0.056640625","-1.0253906","-0.18945312","4.8125","1.625","3.59375"
"1574260664921","8","-0.123046875","-1.0283203","-0.13085938","-2.59375","0.0","2.4375"
"1574260664921","9","-0.1484375","-0.9746094","-0.109375","-4.59375","-3.3125","-1.0"
"1574260665119","10","-0.12792969","-0.98535156","-0.1328125","-0.0625","-6.53125","-1.0625"
"1574260665119","11","-0.171875","-1.0283203","-0.12695312","-9.0","-4.59375","-8.375"
"1574260665119","12","-0.11816406","-0.9951172","-0.12890625","-4.71875","3.59375","-12.34375"
"1574260665120","13","-0.119140625","-0.9316406","-0.15234375","-2.8125","5.71875","-14.0625"
"1574260665121","14","-0.061523438","-0.9970703","-0.17382812","-1.65625","7.3125","-3.5"
"1574260665121","15","-0.12109375","-1.0195312","-0.16894531","3.21875","5.59375","-4.28125"
"1574260665121","16","-0.08984375","-0.9863281","-0.15722656","5.46875","2.84375","-1.90625"
"1574260665122","17","-0.08984375","-0.98535156","-0.14160156","5.125","4.1875","-0.8125"
"1574260665122","18","-0.103515625","-1.0068359","-0.12597656","5.0625","5.34375","2.0625"
"1574260665122","19","-0.12011719","-1.0","-0.14160156","3.46875","5.0625","0.28125"
"1574260665517","20","-0.11328125","-1.0039062","-0.13671875","7.25","4.4375","0.78125"
"1574260665518","21","-0.091796875","-1.0097656","-0.1328125","8.71875","6.03125","1.09375"
"1574260665518","22","-0.05859375","-0.96875","-0.12109375","0.90625","6.15625","2.96875"
"1574260665518","23","-0.10449219","-1.0576172","-0.11816406","-0.25","-2.875","4.375"
"1574260665518","24","-0.13867188","-0.96972656","-0.103515625","-4.59375","1.28125","-0.8125"
"1574260665522","25","-0.109375","-1.0107422","-0.13085938","1.8125","2.0","-2.59375"
"1574260665523","26","-0.0859375","-0.9824219","-0.111328125","0.96875","1.5","-2.40625"
"1574260665523","27","-0.107421875","-1.0078125","-0.103515625","-1.71875","2.1875","1.5625"
"1574260665523","28","-0.115234375","-1.0097656","-0.11816406","-1.3125","3.28125","1.03125"
"1574260665524","29","-0.11621094","-0.98828125","-0.11816406","0.21875","2.0","-0.8125"
"1574260665913","30","-0.09375","-1.0058594","-0.10644531","1.4375","4.5625","-1.46875"
"1574260665914","31","-0.10449219","-0.9980469","-0.09667969","0.96875","4.6875","-2.21875"
"1574260665914","32","-0.091796875","-1.0107422","-0.107421875","-1.0","2.25","-0.875"
"1574260665915","33","-0.115234375","-0.9794922","-0.109375","-4.28125","1.9375","-1.96875"
"1574260665915","34","-0.103515625","-1.0","-0.12011719","-0.875","2.59375","-0.75"
"1574260665915","35","-0.123046875","-1.0058594","-0.103515625","-1.96875","1.375","-2.75"
"1574260665915","36","-0.11328125","-1.0019531","-0.115234375","-1.25","2.96875","-1.46875"
"1574260665917","37","-0.09667969","-0.99902344","-0.10839844","-4.03125","3.03125","-1.78125"
"1574260665918","38","-0.09863281","-1.0029297","-0.12597656","-5.8125","-0.25","-0.4375"
"1574260665919","39","-0.10449219","-0.984375","-0.12011719","-3.375","-5.25","1.09375"
"1574260666510","40","-0.09667969","-0.99902344","-0.12597656","-4.96875","-2.59375","1.5"
"1574260666510","41","-0.11035156","-1.0351562","-0.115234375","-7.09375","-6.4375","2.3125"
"1574260666511","42","-0.13867188","-0.9785156","-0.14550781","0.28125","-6.78125","-1.71875"
"1574260666511","43","-0.10449219","-1.0019531","-0.13085938","-2.8125","-1.3125","-1.90625"
"1574260666511","44","-0.12402344","-0.99316406","-0.12695312","-1.84375","-1.40625","-1.78125"
"1574260666511","45","-0.09472656","-0.9921875","-0.125","-5.5","0.90625","2.1875"
"1574260666512","46","-0.10839844","-1.0195312","-0.14257812","-5.375","0.34375","1.03125"
"1574260666512","47","-0.13671875","-0.98339844","-0.14746094","-1.65625","-1.0625","-1.90625"
"1574260666512","48","-0.111328125","-1.0019531","-0.14160156","0.90625","0.09375","-2.21875"
"1574260666516","49","-0.103515625","-0.9921875","-0.115234375","-2.875","1.3125","-1.34375"
"1574260666708","50","-0.10449219","-0.9941406","-0.15136719","-2.9375","-0.25","0.46875"
"1574260666708","51","-0.12695312","-0.99316406","-0.14355469","-3.90625","1.5625","-1.46875"
"1574260666708","52","-0.11816406","-1.0068359","-0.13671875","-5.03125","5.0625","-1.125"
"1574260666708","53","-0.13476562","-0.9863281","-0.140625","0.09375","2.25","-3.5625"
"1574260666709","54","-0.076171875","-0.98535156","-0.1328125","-4.34375","3.9375","0.0"
"1574260666709","55","-0.115234375","-1.0087891","-0.15039062","-7.59375","2.71875","0.28125"
"1574260666709","56","-0.12597656","-0.9970703","-0.16503906","-3.8125","3.71875","-1.40625"
"1574260666709","57","-0.1171875","-0.9873047","-0.16796875","0.09375","6.6875","-3.4375"
"1574260666710","58","-0.10839844","-1.0175781","-0.14648438","2.84375","10.1875","-3.6875"
"1574260666710","59","-0.09765625","-0.984375","-0.14550781","0.65625","12.25","-2.6875"
"1574260667303","60","-0.1015625","-1.0126953","-0.15234375","-1.40625","10.40625","-1.71875"
"1574260667304","61","-0.09277344","-0.9824219","-0.14453125","-5.21875","8.40625","-1.40625"
"1574260667304","62","-0.11328125","-1.0058594","-0.15429688","0.71875","5.0625","-1.71875"
"1574260667305","63","-0.11230469","-0.9902344","-0.16601562","4.6875","6.8125","-4.59375"
"1574260667305","64","-0.08984375","-1.0117188","-0.13964844","5.40625","9.375","-4.78125"
"1574260667305","65","-0.103515625","-0.98535156","-0.14160156","1.75","4.6875","-3.3125"
"1574260667305","66","-0.08984375","-0.99902344","-0.13085938","-3.0625","6.21875","-1.0"
"1574260667306","67","-0.09082031","-1.0039062","-0.13964844","-3.0625","3.15625","-0.3125"
"1574260667306","68","-0.109375","-0.9863281","-0.15429688","0.96875","-0.1875","-1.40625"
"1574260667306","69","-0.10058594","-1.0029297","-0.14257812","2.5625","2.78125","-2.09375"
"1574260667504","70","-0.10253906","-0.9980469","-0.13085938","2.375","5.65625","-3.125"
"1574260667504","71","-0.07714844","-1.0029297","-0.13769531","-0.75","3.9375","-1.40625"
"1574260667504","72","-0.083984375","-1.0","-0.14160156","-1.46875","1.15625","-0.25"
"1574260667505","73","-0.11035156","-0.97558594","-0.13378906","-1.25","4.9375","-1.125"
"1574260667506","74","-0.09765625","-1.0087891","-0.13964844","1.3125","4.6875","-2.09375"
"1574260667506","75","-0.09082031","-0.9794922","-0.12402344","-0.875","6.03125","-2.8125"
"1574260667506","76","-0.09082031","-1.0126953","-0.14941406","3.34375","4.9375","-1.46875"
"1574260667506","77","-0.083984375","-1.0048828","-0.12890625","1.625","2.78125","-1.1875"
"1574260667507","78","-0.08203125","-1.0019531","-0.11425781","-0.9375","2.25","1.09375"
"1574260667507","79","-0.091796875","-0.9970703","-0.14160156","-1.90625","1.9375","-0.625"
"1574260667901","80","-0.10253906","-0.9921875","-0.125","-2.21875","0.40625","-0.625"
"1574260667901","81","-0.08300781","-1.0166016","-0.13378906","-6.90625","2.71875","-0.4375"
"1574260667902","82","-0.10644531","-0.9824219","-0.12109375","-7.34375","2.25","-1.53125"
"1574260667902","83","-0.08300781","-0.99609375","-0.14648438","-7.875","2.84375","-1.25"
"1574260667902","84","-0.091796875","-0.9902344","-0.14648438","-9.0","6.09375","-1.40625"
"1574260667902","85","-0.091796875","-1.0058594","-0.15429688","-4.65625","4.5","-1.125"
"1574260667903","86","-0.087890625","-0.9892578","-0.16015625","-4.21875","4.5","-2.59375"
"1574260667903","87","-0.06933594","-1.0087891","-0.15722656","-2.46875","2.5","-0.875"
"1574260667903","88","-0.08886719","-0.9970703","-0.16113281","-5.5","0.09375","-0.9375"
"1574260667904","89","-0.068359375","-0.9902344","-0.17285156","-2.09375","-2.03125","0.28125"
"1574260668299","90","-0.11621094","-1.0","-0.16113281","0.46875","-0.3125","-1.65625"
"1574260668299","91","-0.076171875","-0.98339844","-0.16015625","2.65625","3.21875","-1.1875"
"1574260668299","92","-0.09765625","-1.0234375","-0.15527344","2.1875","0.46875","-1.71875"
"1574260668300","93","-0.07714844","-0.98046875","-0.14648438","1.375","0.15625","0.34375"
"1574260668300","94","-0.09375","-0.9921875","-0.14648438","-2.59375","-1.34375","1.6875"
"1574260668300","95","-0.078125","-0.9873047","-0.16113281","-3.625","3.28125","3.40625"
"1574260668300","96","-0.107421875","-0.9921875","-0.16503906","-1.125","-2.40625","1.09375"
"1574260668302","97","-0.078125","-0.9941406","-0.16601562","-0.125","-0.1875","2.3125"
"1574260668302","98","-0.10058594","-0.9951172","-0.15332031","-2.6875","2.90625","0.28125"
"1574260668302","99","-0.107421875","-1.0087891","-0.15820312","1.4375","-5.6875","0.0"
"1574260668697","100","-0.1015625","-0.9794922","-0.14746094","-5.21875","1.625","-0.625"
"1574260668697","101","-0.07910156","-1.0126953","-0.16210938","-1.96875","0.09375","1.8125"
"1574260668698","102","-0.11230469","-1.0029297","-0.1640625","-4.03125","-0.0625","1.21875"
"1574260668698","103","-0.10449219","-0.9941406","-0.14746094","-4.09375","-2.03125","0.0"
"1574260668698","104","-0.13671875","-0.9873047","-0.16601562","-2.75","1.03125","-1.46875"
"1574260668698","105","-0.12011719","-0.99609375","-0.17773438","-1.46875","4.5","-1.25"
"1574260668699","106","-0.11816406","-0.99121094","-0.15917969","1.15625","6.46875","-1.34375"
"1574260668699","107","-0.083984375","-1.0195312","-0.15527344","-1.59375","0.59375","1.5625"
"1574260668699","108","-0.115234375","-0.96875","-0.14453125","-12.65625","4.9375","0.84375"
"1574260668700","109","-0.09082031","-1.0244141","-0.1640625","-12.78125","0.0","-0.375"
"1574260669093","110","-0.12207031","-0.9892578","-0.17285156","-4.28125","-6.0","-2.28125"
"1574260669093","111","-0.11328125","-0.98339844","-0.16601562","-2.21875","-5.5625","-3.25"
"1574260669093","112","-0.11621094","-0.99121094","-0.19140625","0.21875","-2.6875","-3.0"
"1574260669094","113","-0.11035156","-1.0019531","-0.19042969","0.65625","-1.90625","-2.03125"
"1574260669094","114","-0.08886719","-0.9873047","-0.16992188","-1.84375","-0.25","-0.25"
"1574260669094","115","-0.111328125","-0.9951172","-0.18164062","-3.3125","-1.0625","-0.3125"
"1574260669094","116","-0.107421875","-0.99609375","-0.1875","-0.5","-1.0625","0.28125"
"1574260669095","117","-0.11328125","-0.9980469","-0.171875","-0.6875","-0.0625","-0.875"
"1574260669095","118","-0.09765625","-0.98046875","-0.19042969","-0.4375","4.1875","-1.0625"
"1574260669095","119","-0.09863281","-1.0078125","-0.17675781","-1.40625","5.34375","-1.65625"
"1574260669691","120","-0.099609375","-0.9951172","-0.19921875","2.90625","4.5625","-1.84375"
"1574260669692","121","-0.10058594","-1.0048828","-0.17871094","2.65625","7.375","-2.75"
"1574260669693","122","-0.0859375","-0.984375","-0.1796875","1.21875","14.15625","-2.8125"
"1574260669693","123","-0.12695312","-1.0087891","-0.18359375","4.0625","7.25","-4.03125"
"1574260669693","124","-0.09277344","-0.9814453","-0.17285156","2.65625","9.03125","-3.5625"
"1574260669694","125","-0.09277344","-1.0009766","-0.16894531","-1.0625","7.75","-3.4375"
"1574260669694","126","-0.091796875","-0.9873047","-0.17578125","-7.40625","9.4375","-2.40625"
"1574260669694","127","-0.087890625","-0.9980469","-0.17089844","-3.0625","7.84375","-1.1875"
"1574260669695","128","-0.09375","-0.99609375","-0.17089844","0.78125","4.0","-0.9375"
"1574260669695","129","-0.099609375","-0.9863281","-0.17578125","-0.8125","2.59375","-0.9375"
"1574260669889","130","-0.09082031","-1.0058594","-0.171875","-2.46875","1.375","-1.65625"
"1574260669890","131","-0.083984375","-0.9921875","-0.171875","-9.59375","2.0625","-1.34375"
"1574260669890","132","-0.11621094","-0.9902344","-0.16015625","-10.40625","5.46875","-2.875"
"1574260669891","133","-0.10839844","-0.9873047","-0.17773438","-0.625","5.71875","-3.875"
"1574260669891","134","-0.103515625","-0.98828125","-0.17578125","-3.25","6.03125","-3.6875"
"1574260669892","135","-0.0859375","-1.0107422","-0.20703125","-0.875","5.34375","-1.96875"
"1574260669892","136","-0.09472656","-0.96875","-0.18261719","0.03125","8.59375","-0.9375"
"1574260669892","137","-0.07324219","-0.99609375","-0.19042969","1.3125","8.59375","1.375"
"1574260669892","138","-0.08886719","-0.9863281","-0.19628906","6.46875","10.84375","2.1875"
"1574260669893","139","-0.048828125","-0.9746094","-0.18164062","4.8125","13.40625","3.65625"
"1574260670286","140","-0.06738281","-1.0087891","-0.20117188","-2.15625","7.0625","3.34375"
"1574260670286","141","-0.07324219","-0.984375","-0.18359375","0.15625","14.3125","3.53125"
"1574260670287","142","-0.060546875","-0.9951172","-0.19726562","-1.84375","4.8125","2.4375"
"1574260670287","143","-0.0625","-0.99121094","-0.19433594","-2.28125","-3.0","2.1875"
"1574260670287","144","-0.068359375","-0.98828125","-0.18457031","-0.375","2.3125","2.0"
"1574260670289","145","-0.0234375","-0.9873047","-0.18554688","0.78125","-7.28125","-0.25"
"1574260670289","146","-0.13476562","-1.0263672","-0.14648438","7.96875","-12.59375","-0.875"
"1574260670290","147","-0.087890625","-0.95703125","-0.15722656","2.3125","-21.5","-6.0"
"1574260670290","148","-0.16601562","-1.0058594","-0.13671875","2.3125","-14.96875","-9.125"
"1574260670290","149","-0.17382812","-0.9765625","-0.12792969","6.5","-6.65625","-7.78125"
"1574260670683","150","-0.1015625","-1.0019531","-0.14746094","-0.125","-4.53125","-3.0625"
"1574260670684","151","-0.107421875","-1.0058594","-0.17480469","-4.59375","4.75","2.4375"
"1574260670684","152","-0.10449219","-1.0097656","-0.18457031","-5.15625","-0.375","6.46875"
"1574260670684","153","-0.099609375","-1.0263672","-0.12988281","-8.1875","-9.40625","3.03125"
"1574260670685","154","-0.12597656","-0.95996094","-0.16113281","-4.84375","-5.625","2.0"
"1574260670685","155","-0.091796875","-1.0185547","-0.18652344","1.03125","0.71875","0.0"
"1574260670685","156","-0.11035156","-0.9902344","-0.17089844","-0.0625","4.8125","-3.1875"
"1574260670686","157","-0.076171875","-0.9951172","-0.16113281","-0.6875","6.15625","-2.21875"
"1574260670686","158","-0.08984375","-0.9921875","-0.17089844","-4.53125","7.3125","-5.15625"
"1574260670686","159","-0.09667969","-1.0087891","-0.17089844","-2.28125","6.09375","-2.8125"
"1574260671080","160","-0.08691406","-0.9941406","-0.18359375","-4.28125","5.28125","-3.25"
"1574260671081","161","-0.1171875","-0.9941406","-0.15039062","-4.71875","5.28125","-4.84375"
"1574260671081","162","-0.06738281","-0.9970703","-0.18066406","-3.4375","-1.0625","-3.375"
"1574260671081","163","-0.099609375","-1.0078125","-0.17285156","-3.8125","1.6875","-3.4375"
"1574260671082","164","-0.09082031","-0.99316406","-0.17578125","-2.53125","0.71875","-3.625"
"1574260671082","165","-0.087890625","-0.99902344","-0.17675781","0.34375","-1.3125","-2.9375"
"1574260671082","166","-0.091796875","-0.9892578","-0.18261719","2.3125","-1.3125","-2.9375"
"1574260671083","167","-0.07910156","-0.99121094","-0.17871094","4.6875","2.0","-1.59375"
"1574260671083","168","-0.107421875","-0.9951172","-0.15820312","2.5","4.6875","-2.8125"
"1574260671084","169","-0.07128906","-0.98828125","-0.16210938","2.125","3.34375","-1.71875"
"1574260671479","170","-0.053710938","-0.96972656","-0.15136719","3.21875","7.90625","-2.15625"
"1574260671480","171","-0.061523438","-1.0253906","-0.15820312","4.0","-1.34375","1.8125"
"1574260671480","172","-0.080078125","-0.9824219","-0.13867188","-3.3125","-1.34375","0.65625"
"1574260671480","173","-0.09863281","-1.0195312","-0.171875","1.8125","-0.625","-0.75"
"1574260671480","174","-0.09375","-0.9736328","-0.15234375","-1.90625","1.3125","-1.84375"
"1574260671481","175","-0.08984375","-1.0136719","-0.15527344","-0.6875","6.625","-1.71875"
"1574260671481","176","-0.10644531","-0.9970703","-0.171875","-1.78125","9.875","-3.90625"
"1574260671481","177","-0.06933594","-0.9824219","-0.17773438","-0.375","6.75","-2.15625"
"1574260671482","178","-0.047851562","-1.0117188","-0.15917969","-2.8125","3.53125","-1.53125"
"1574260671482","179","-0.072265625","-0.98046875","-0.15722656","-1.96875","1.5625","0.96875"
"1574260672074","180","-0.08886719","-0.9902344","-0.15136719","-0.3125","4.375","-0.75"
"1574260672075","181","-0.06542969","-0.99316406","-0.14941406","-0.4375","1.9375","-1.65625"
"1574260672075","182","-0.07714844","-1.0068359","-0.16308594","-1.53125","-0.0625","-1.65625"
"1574260672075","183","-0.07910156","-0.984375","-0.17675781","-2.34375","-2.28125","-4.03125"
"1574260672076","184","-0.09472656","-0.9921875","-0.15039062","-1.65625","1.375","-3.1875"
"1574260672076","185","-0.061523438","-0.99316406","-0.1875","2.65625","5.125","-2.09375"
"1574260672076","186","-0.0859375","-1.0","-0.15527344","3.71875","7.25","-2.59375"
"1574260672076","187","-0.087890625","-1.0058594","-0.140625","-1.25","3.15625","0.0"
"1574260672077","188","-0.08300781","-0.9970703","-0.15722656","-0.4375","5.1875","0.90625"
"1574260672077","189","-0.08105469","-0.98828125","-0.18554688","2.5","7.25","0.65625"
"1574260672273","190","-0.08300781","-1.015625","-0.16503906","4.375","10.25","0.40625"
"1574260672273","191","-0.015625","-1.0","-0.12402344","-4.03125","11.65625","4.8125"
"1574260672274","192","-0.09277344","-1.0078125","-0.14941406","-6.53125","3.15625","2.71875"
"1574260672275","193","-0.07910156","-0.96972656","-0.17382812","-2.53125","-1.84375","2.1875"
"1574260672276","194","-0.076171875","-1.0078125","-0.14941406","-0.0625","5.53125","0.40625"
"1574260672276","195","-0.07324219","-0.98046875","-0.16015625","0.21875","2.96875","-1.34375"
"1574260672276","196","-0.059570312","-1.0224609","-0.171875","0.96875","0.40625","0.46875"
"1574260672276","197","-0.09472656","-0.98046875","-0.12597656","-6.5","0.71875","-1.78125"
"1574260672277","198","-0.08984375","-0.9863281","-0.19238281","-3.5625","-6.53125","0.0"
"1574260672278","199","-0.07421875","-0.99316406","-0.14453125","-0.4375","3.59375","2.375"
"1574260672673","200","-0.0859375","-1.0019531","-0.16113281","-4.09375","-4.15625","-1.1875"
"1574260672673","201","-0.08300781","-0.9970703","-0.15917969","-6.65625","-0.875","1.3125"
"1574260672674","202","-0.123046875","-0.97753906","-0.17675781","-3.96875","-4.34375","-4.71875"
"1574260672674","203","-0.06933594","-1.0195312","-0.15136719","-4.90625","-1.125","0.15625"
"1574260672674","204","-0.12695312","-0.9814453","-0.171875","0.96875","0.40625","-2.8125"
"1574260672676","205","-0.056640625","-1.015625","-0.15332031","-2.03125","8.40625","2.0625"
"1574260672676","206","-0.076171875","-0.97265625","-0.18164062","-2.21875","1.6875","-1.65625"
"1574260672676","207","-0.064453125","-1.0068359","-0.1796875","-5.03125","0.71875","2.78125"
"1574260672677","208","-0.14453125","-1.0107422","-0.17871094","7.5","1.4375","-5.5"
"1574260672677","209","-0.017578125","-0.96191406","-0.14941406","0.40625","6.6875","-0.5625"
"1574260673069","210","-0.11328125","-1.0136719","-0.17285156","-0.375","-5.25","-6.65625"
"1574260673069","211","-0.111328125","-0.9736328","-0.15039062","-1.59375","5.46875","-1.0"
"1574260673069","212","-0.10253906","-1.0234375","-0.20214844","4.625","-3.90625","-5.21875"
"1574260673070","213","-0.056640625","-0.9716797","-0.12988281","-5.4375","6.5","0.53125"
"1574260673070","214","-0.1015625","-1.0273438","-0.17382812","0.28125","5.46875","-2.75"
"1574260673070","215","-0.041015625","-0.97265625","-0.13183594","-10.09375","4.0625","3.34375"
"1574260673070","216","-0.05859375","-0.99609375","-0.21191406","-0.0625","-2.75","0.65625"
"1574260673071","217","-0.111328125","-1.0625","-0.16210938","-0.0625","-1.3125","-1.125"
"1574260673072","218","-0.06933594","-0.8984375","-0.14550781","-0.3125","5.71875","-6.0625"
"1574260673072","219","-0.0703125","-1.0458984","-0.15332031","-1.65625","11.09375","-1.46875"
"1574260673465","220","-0.041992188","-1.0029297","-0.20117188","2.5","-1.125","-0.5"
"1574260673466","221","-0.07519531","-1.015625","-0.16992188","-1.84375","0.90625","-0.875"
"1574260673466","222","-0.14257812","-0.97753906","-0.171875","9.125","2.3125","-9.78125"
"1574260673466","223","-0.10058594","-0.95996094","-0.10839844","1.3125","17.0625","-6.90625"
"1574260673467","224","-0.0146484375","-1.0429688","-0.1875","4.0","2.0","-0.1875"
"1574260673467","225","-0.0703125","-1.0302734","-0.16113281","1.28125","-3.25","-1.71875"
"1574260673467","226","-0.1640625","-0.9472656","-0.16015625","1.9375","-1.46875","-4.28125"
"1574260673467","227","-0.009765625","-1.0117188","-0.12695312","-7.03125","18.96875","0.15625"
"1574260673468","228","-0.08300781","-0.9707031","-0.16015625","-7.15625","16.28125","-1.65625"
"1574260673468","229","-0.029296875","-1.0361328","-0.17285156","-1.78125","10.65625","0.09375"
"1574260673863","230","-0.021484375","-1.0234375","-0.13378906","-10.28125","-6.96875","0.03125"
"1574260673864","231","-0.12988281","-0.9707031","-0.16113281","-1.71875","-6.78125","-2.6875"
"1574260673864","232","-0.06933594","-0.95214844","-0.17089844","-0.125","8.53125","-0.5"
"1574260673864","233","-0.06347656","-1.0537109","-0.15722656","2.0625","10.0625","-3.25"
"1574260673865","234","-0.024414062","-0.9785156","-0.16601562","-2.59375","0.59375","2.0625"
"1574260673865","235","-0.08105469","-0.9970703","-0.15917969","-2.875","-1.96875","3.71875"
"1574260673865","236","-0.1484375","-1.0078125","-0.18945312","-1.71875","-4.40625","0.84375"
"1574260673865","237","-0.0546875","-0.953125","-0.13378906","-9.28125","14.28125","-1.40625"
"1574260673866","238","-0.038085938","-1.0546875","-0.18164062","-11.6875","-1.71875","3.21875"
"1574260673866","239","-0.06640625","-0.98339844","-0.22167969","-7.03125","-6.4375","0.84375"
"1574260674262","240","-0.055664062","-1.0029297","-0.013671875","-16.0625","-22.53125","2.375"
"1574260674264","241","-0.12207031","-0.9667969","-0.21875","-36.34375","-49.75","3.34375"
"1574260674264","242","-0.06640625","-0.9589844","-0.22265625","-21.8125","-15.46875","-0.25"
"1574260674264","243","-0.1015625","-1.0615234","-0.26367188","-11.375","-20.03125","-4.28125"
"1574260674265","244","-0.047851562","-0.9316406","-0.23730469","-5.6875","-18.5625","-7.65625"
"1574260674265","245","-0.07910156","-0.9980469","-0.23828125","-4.65625","-7.9375","-3.3125"
"1574260674265","246","-0.119140625","-0.98828125","-0.27734375","2.96875","-3.875","-6.375"
"1574260674265","247","-0.0546875","-0.9941406","-0.27441406","13.65625","-3.625","-1.71875"
"1574260674266","248","-0.045898438","-0.9765625","-0.22753906","23.0625","6.46875","3.59375"
"1574260674266","249","-0.10546875","-0.9589844","-0.23144531","22.625","23.4375","6.46875"
"1574260674857","250","-0.140625","-1.0449219","-0.10839844","-7.65625","2.96875","-4.03125"
"1574260674858","251","-0.036132812","-0.9628906","-0.18945312","-8.9375","6.40625","-2.15625"
"1574260674858","252","-0.037109375","-1.03125","-0.20117188","-6.1875","6.9375","0.21875"
"1574260674859","253","-0.083984375","-0.9785156","-0.20117188","-5.625","0.28125","-0.375"
"1574260674860","254","-0.059570312","-0.9765625","-0.17285156","-15.53125","2.125","-3.875"
"1574260674860","255","-0.12792969","-0.98535156","-0.2607422","1.03125","-8.0","-3.5"
"1574260674860","256","-0.15234375","-0.9746094","-0.17285156","-2.6875","3.15625","-6.71875"
"1574260674861","257","-0.015625","-1.0029297","-0.25878906","-4.09375","2.96875","2.4375"
"1574260674861","258","-0.09472656","-0.99609375","-0.20800781","-8.25","4.125","0.96875"
"1574260674861","259","-0.103515625","-1.0117188","-0.23046875","0.03125","2.4375","-0.375"
"1574260675056","260","-0.080078125","-0.9609375","-0.17382812","-4.78125","7.5625","-4.40625"
"1574260675056","261","-0.09472656","-0.98339844","-0.22949219","-6.53125","1.09375","-4.59375"
"1574260675056","262","-0.06347656","-0.98828125","-0.20703125","-11.25","-5.8125","-3.4375"
"1574260675056","263","-0.037109375","-0.98046875","-0.2626953","-7.8125","-7.46875","0.71875"
"1574260675057","264","-0.10546875","-1.0039062","-0.2265625","-2.6875","-4.28125","-4.84375"
"1574260675058","265","-0.078125","-0.97753906","-0.26953125","2.5","4.125","-4.71875"
"1574260675058","266","-0.08105469","-0.9892578","-0.23242188","6.8125","15.71875","-4.40625"
"1574260675059","267","-0.032226562","-0.97558594","-0.29492188","17.75","21.53125","1.5625"
"1574260675059","268","-0.06542969","-1.0126953","-0.23046875","24.59375","35.5","0.03125"
"1574260675059","269","-0.06933594","-1.0039062","-0.15527344","18.84375","33.84375","-5.9375"
"1574260675847","270","-0.0546875","-1.0029297","-0.15917969","6.15625","20.3125","-8.1875"
"1574260675848","271","-0.03125","-0.9873047","-0.17382812","-11.4375","11.65625","-4.28125"
"1574260675848","272","-0.09082031","-1.0117188","-0.18847656","-12.96875","1.28125","-6.71875"
"1574260675849","273","-0.09863281","-0.98535156","-0.17285156","-6.53125","2.1875","-7.9375"
"1574260675849","274","-0.013671875","-0.96875","-0.19140625","-6.3125","5.96875","-6.78125"
"1574260675849","275","-0.017578125","-0.9716797","-0.19238281","-13.9375","5.96875","-3.3125"
"1574260675850","276","-0.01171875","-0.98339844","-0.23339844","-0.0625","-4.21875","1.375"
"1574260675851","277","-0.06542969","-0.9765625","-0.17480469","1.5625","0.65625","-0.5"
"1574260675852","278","-0.0234375","-1.0195312","-0.22851562","0.0","-10.21875","-0.1875"
"1574260675852","279","-0.037109375","-0.96972656","-0.22265625","1.3125","-9.15625","-1.25"
"1574260676443","280","-0.01953125","-0.9628906","-0.22167969","4.75","-2.625","3.65625"
"1574260676444","281","-0.053710938","-1.0117188","-0.22167969","1.8125","-3.75","4.0"
"1574260676444","282","-0.08496094","-1.0195312","-0.052734375","-16.375","-33.34375","8.03125"
"1574260676444","283","-0.14746094","-0.90527344","-0.23144531","-27.0","-45.84375","3.90625"
"1574260676444","284","-0.041015625","-0.9765625","-0.28125","-16.5625","-18.25","4.375"
"1574260676445","285","-0.048828125","-1.0371094","-0.26660156","-8.0","-16.3125","-2.03125"
"1574260676445","286","-0.06347656","-0.9482422","-0.2841797","-4.59375","-6.53125","-5.9375"
"1574260676445","287","-0.08105469","-1.0009766","-0.26367188","0.0","6.8125","-3.625"
"1574260676446","288","-0.03125","-1.0058594","-0.24902344","1.09375","10.90625","-0.4375"
"1574260676447","289","-0.119140625","-0.96484375","-0.23925781","-1.78125","10.125","-2.6875"
"1574260676448","290","-0.06347656","-0.9794922","-0.2529297","0.90625","12.375","-1.0"
"1574260676449","291","-0.080078125","-0.9921875","-0.21972656","4.3125","16.53125","-0.8125"
"1574260676450","292","-0.041015625","-0.9707031","-0.24511719","7.5","17.0","1.15625"
"1574260676450","293","-0.048828125","-1.0009766","-0.25097656","11.71875","9.8125","0.65625"
"1574260676450","294","-0.064453125","-0.9863281","-0.22363281","13.15625","12.375","-1.59375"
"1574260676450","295","-0.029296875","-1.0019531","-0.23144531","15.71875","17.0625","-3.25"
"1574260676451","296","-0.03125","-0.9902344","-0.23730469","10.375","17.625","-5.875"
"1574260676451","297","-0.06640625","-1.0087891","-0.20605469","-0.875","28.1875","-7.53125"
"1574260676451","298","-0.056640625","-0.9863281","-0.19433594","-7.53125","28.0","-12.59375"
"1574260676451","299","-0.048828125","-0.98828125","-0.19824219","-9.34375","21.15625","-11.96875"
"1574260676646","300","-0.045898438","-0.97265625","-0.20996094","-6.59375","20.0","-10.9375"
"1574260676648","301","-0.0146484375","-0.99902344","-0.20800781","-2.8125","9.4375","-7.28125"
"1574260676648","302","-0.029296875","-0.9863281","-0.21191406","-4.71875","8.65625","-6.71875"
"1574260676649","303","-0.025390625","-0.98535156","-0.21582031","-7.28125","8.65625","-4.21875"
"1574260676649","304","-0.02734375","-0.9863281","-0.22558594","-4.03125","5.1875","-2.6875"
"1574260676649","305","-0.03515625","-0.9658203","-0.22265625","2.3125","12.0625","-0.6875"
"1574260676649","306","-0.0029296875","-0.9609375","-0.24023438","9.125","20.96875","2.3125"
"1574260676650","307","0.056640625","-0.9785156","-0.23339844","6.03125","25.5625","7.625"
"1574260676650","308","0.06347656","-0.98046875","-0.24316406","-1.96875","10.78125","11.8125"
"1574260676650","309","0.001953125","-0.98046875","-0.21875","0.28125","9.5625","14.75"
"1574260677044","310","0.044921875","-1.0175781","-0.234375","2.1875","-8.625","13.15625"
"1574260677044","311","-0.060546875","-0.99902344","-0.23242188","9.75","-11.25","4.6875"
"1574260677045","312","-0.043945312","-0.9970703","-0.19238281","2.90625","-5.625","2.65625"
"1574260677045","313","-0.08105469","-1.0292969","-0.19726562","12.9375","-16.0","2.125"
"1574260677045","314","-0.0625","-0.9560547","-0.14550781","-2.34375","-21.125","4.9375"
"1574260677046","315","-0.0859375","-1.0185547","-0.18066406","3.28125","-15.28125","8.15625"
"1574260677046","316","-0.052734375","-1.0068359","-0.1953125","-1.0","-12.65625","8.28125"
"1574260677046","317","-0.0703125","-0.9951172","-0.14550781","-3.5625","-14.84375","5.0"
"1574260677046","318","-0.09375","-0.99316406","-0.17285156","3.65625","-11.84375","2.375"
"1574260677047","319","-0.09082031","-1.0009766","-0.18554688","3.28125","-9.71875","0.71875"
"1574260677836","320","-0.076171875","-0.98828125","-0.17773438","3.15625","-6.3125","1.875"
"1574260677837","321","-0.09765625","-1.0224609","-0.16210938","1.375","-6.1875","0.65625"
"1574260677837","322","-0.1171875","-0.9921875","-0.171875","3.65625","-1.65625","1.6875"
"1574260677838","323","-0.072265625","-0.98828125","-0.17675781","-2.21875","5.0","1.3125"
"1574260677838","324","-0.08203125","-1.0039062","-0.16894531","-0.375","3.9375","2.4375"
"1574260677840","325","-0.091796875","-1.0068359","-0.18359375","0.15625","-1.125","1.3125"
"1574260677841","326","-0.07324219","-1.0126953","-0.17773438","11.34375","-2.09375","2.1875"
"1574260677841","327","-0.048828125","-0.9921875","-0.15136719","23.71875","4.5625","4.375"
"1574260677842","328","-0.09765625","-0.9873047","-0.08300781","25.75","6.875","5.34375"
"1574260677842","329","-0.11621094","-0.9980469","-0.1171875","5.59375","4.1875","4.4375"
"1574260677842","330","-0.12890625","-1.0","-0.13867188","-0.875","5.59375","3.59375"
"1574260677842","331","-0.12988281","-0.99609375","-0.13671875","5.21875","9.8125","0.53125"
"1574260677843","332","-0.11816406","-1.0078125","-0.13085938","7.5","7.5","0.34375"
"1574260677843","333","-0.119140625","-0.99902344","-0.12207031","1.21875","5.78125","-1.90625"
"1574260677843","334","-0.12207031","-0.99902344","-0.08496094","4.6875","6.09375","-1.53125"
"1574260677843","335","-0.099609375","-0.9941406","-0.091796875","-4.90625","4.625","-2.09375"
"1574260677844","336","-0.09863281","-0.9824219","-0.08984375","-5.25","-0.5625","1.375"
"1574260677844","337","-0.14160156","-0.96777344","-0.09375","-2.34375","6.625","0.96875"
"1574260677844","338","-0.140625","-1.0351562","-0.11816406","3.59375","6.6875","-2.46875"
"1574260677845","339","-0.109375","-0.98046875","-0.10546875","0.90625","14.875","-7.40625"
"1574260678236","340","-0.056640625","-0.9941406","-0.08105469","-11.96875","15.90625","-3.0"
"1574260678236","341","-0.07324219","-1.015625","-0.11328125","-14.96875","7.4375","-2.625"
"1574260678237","342","-0.125","-0.9814453","-0.140625","-5.8125","0.90625","-1.40625"
"1574260678237","343","-0.099609375","-1.0039062","-0.15429688","1.75","7.6875","-5.25"
"1574260678237","344","-0.095703125","-0.99609375","-0.125","3.90625","8.03125","-8.375"
"1574260678237","345","-0.09082031","-0.9794922","-0.12597656","-1.0625","12.0","-7.03125"
"1574260678238","346","-0.04296875","-1.0273438","-0.119140625","-2.625","13.90625","-2.46875"
"1574260678238","347","-0.1171875","-1.0078125","-0.13378906","-11.625","6.8125","-3.96875"
"1574260678238","348","-0.099609375","-0.98535156","-0.16992188","-0.3125","1.6875","-1.53125"
"1574260678239","349","-0.033203125","-0.9970703","-0.1328125","-10.03125","8.21875","-3.625"
"1574260678634","350","-0.08691406","-0.9765625","-0.13378906","-8.1875","5.96875","-4.53125"
"1574260678634","351","-0.08300781","-1.0292969","-0.16015625","1.625","5.21875","-3.125"
"1574260678635","352","-0.07714844","-0.98535156","-0.16503906","1.6875","6.09375","-5.375"
"1574260678635","353","-0.08691406","-1.0224609","-0.13085938","-3.0625","8.84375","-2.625"
"1574260678635","354","-0.10449219","-0.9707031","-0.15625","-3.1875","9.625","-3.125"
"1574260678635","355","-0.09082031","-1.015625","-0.15429688","-0.375","13.53125","-2.21875"
"1574260678636","356","0.026367188","-1.0126953","-0.115234375","-5.25","10.40625","1.6875"
"1574260678636","357","-0.03515625","-0.9824219","-0.11425781","-14.46875","4.125","1.09375"
"1574260678637","358","-0.08886719","-0.9902344","-0.18164062","-5.5","0.71875","3.21875"
"1574260678637","359","-0.09082031","-0.98046875","-0.18164062","4.5625","8.03125","-3.4375"
"1574260679031","360","-0.051757812","-1.0068359","-0.16894531","6.46875","2.5","-2.34375"
"1574260679032","361","-0.061523438","-1.0048828","-0.13964844","3.15625","-1.0","-1.0625"
"1574260679033","362","-0.055664062","-1.0039062","-0.13085938","-0.4375","-2.28125","1.03125"
"1574260679033","363","-0.083984375","-0.9892578","-0.16015625","-5.15625","-1.25","0.34375"
"1574260679033","364","-0.076171875","-1.0146484","-0.15429688","0.03125","0.90625","-1.71875"
"1574260679033","365","-0.08105469","-0.9765625","-0.14355469","-0.75","4.0625","-2.8125"
"1574260679034","366","-0.07910156","-1.0146484","-0.15234375","1.15625","3.21875","-0.875"
"1574260679034","367","-0.057617188","-1.0068359","-0.13183594","-3.125","7.96875","-0.75"
"1574260679034","368","-0.060546875","-0.9941406","-0.15625","-2.6875","4.9375","-0.125"
"1574260679034","369","-0.059570312","-0.9980469","-0.14550781","-3.375","3.03125","1.09375"
"1574260679624","370","-0.0625","-0.9951172","-0.14453125","0.46875","2.5625","0.34375"
"1574260679624","371","-0.06347656","-0.9824219","-0.16601562","-3.0625","1.3125","-2.8125"
"1574260679624","372","-0.047851562","-1.0058594","-0.14453125","-0.4375","3.28125","0.09375"
"1574260679625","373","-0.09277344","-1.0039062","-0.16210938","1.28125","-1.0625","-2.40625"
"1574260679626","374","-0.06542969","-1.0009766","-0.14550781","-1.78125","-1.59375","0.0"
"1574260679626","375","-0.060546875","-0.99902344","-0.15527344","-4.34375","-1.3125","-0.25"
"1574260679626","376","-0.064453125","-1.0117188","-0.14550781","-5.3125","-3.6875","0.0"
"1574260679626","377","-0.0390625","-0.98535156","-0.17578125","-7.15625","-7.09375","0.03125"
"1574260679627","378","-0.068359375","-1.0107422","-0.15625","-0.4375","-7.8125","-1.125"
"1574260679627","379","-0.115234375","-0.98339844","-0.1640625","3.28125","-8.0625","-4.78125"
"1574260679826","380","-0.08691406","-1.0136719","-0.16210938","2.125","-4.28125","-4.59375"
"1574260679827","381","-0.07910156","-0.9794922","-0.13378906","-4.53125","1.9375","-4.84375"
"1574260679827","382","0.001953125","-1.0322266","-0.18554688","-5.4375","-8.625","0.96875"
"1574260679827","383","-0.11230469","-0.97753906","-0.140625","-9.90625","-3.96875","-4.84375"
"1574260679828","384","-0.068359375","-0.98046875","-0.17871094","-5.8125","-0.0625","-0.5"
"1574260679829","385","-0.06738281","-1.0009766","-0.18261719","0.90625","-2.6875","-2.34375"
"1574260679829","386","-0.057617188","-1.0029297","-0.17871094","0.59375","-3.125","-0.375"
"1574260679830","387","-0.072265625","-1.0107422","-0.1640625","0.03125","1.375","-2.53125"
"1574260679830","388","-0.08105469","-0.9794922","-0.18164062","-1.1875","1.09375","-1.90625"
"1574260679830","389","-0.068359375","-0.9970703","-0.17285156","0.15625","4.3125","-2.6875"
"1574260680818","390","-0.059570312","-0.99316406","-0.16699219","-1.71875","0.21875","-1.96875"
"1574260680818","391","-0.0390625","-1.0136719","-0.17871094","-0.3125","-1.1875","0.09375"
"1574260680819","392","-0.053710938","-0.99316406","-0.16992188","-5.03125","-0.4375","-0.75"
"1574260680819","393","-0.046875","-1.0146484","-0.17089844","-2.59375","-2.8125","1.375"
"1574260680819","394","-0.099609375","-0.98046875","-0.17285156","-0.8125","-0.5","-2.9375"
"1574260680820","395","-0.08984375","-1.0058594","-0.16113281","0.84375","2.96875","-2.28125"
"1574260680820","396","-0.059570312","-1.0009766","-0.17675781","-2.59375","1.9375","-1.71875"
"1574260680822","397","-0.06933594","-0.9941406","-0.17089844","3.59375","-0.5","-0.8125"
"1574260680822","398","-0.0546875","-0.9921875","-0.16308594","1.9375","-0.3125","0.40625"
"1574260680823","399","-0.06640625","-1.0078125","-0.16796875","0.78125","3.46875","0.28125"
"1574260681015","400","-0.0546875","-1.0117188","-0.16210938","-0.8125","3.9375","0.03125"
"1574260681015","401","-0.06738281","-0.9951172","-0.13769531","-2.9375","3.59375","-1.125"
"1574260681016","402","-0.083984375","-1.0078125","-0.14648438","-3.1875","8.09375","-2.40625"
"1574260681016","403","-0.08203125","-0.98828125","-0.14746094","-3.25","1.9375","-2.59375"
"1574260681016","404","-0.07910156","-0.9970703","-0.16992188","-1.78125","-0.0625","-4.78125"
"1574260681016","405","-0.09082031","-0.99609375","-0.15722656","-3.8125","1.8125","-4.09375"
"1574260681017","406","-0.05078125","-0.9814453","-0.1640625","-6.4375","10.40625","-3.0"
"1574260681017","407","-0.06738281","-0.99609375","-0.15332031","-5.9375","7.1875","-1.53125"
"1574260681017","408","-0.051757812","-0.9980469","-0.16308594","-11.25","10.125","-2.03125"
"1574260681017","409","-0.053710938","-1.0058594","-0.18457031","-7.09375","5.28125","-1.84375"
"1574260681213","410","-0.041992188","-0.9902344","-0.18945312","-4.96875","1.28125","-0.625"
"1574260681214","411","-0.041015625","-0.99902344","-0.19042969","-6.3125","1.9375","-0.1875"
"1574260681214","412","-0.0546875","-1.0019531","-0.19042969","-3.5","1.375","0.40625"
"1574260681214","413","-0.068359375","-0.9970703","-0.18554688","-4.59375","-1.53125","-0.25"
"1574260681215","414","-0.07324219","-0.9902344","-0.18945312","-3.875","-0.6875","-1.3125"
"1574260681215","415","-0.049804688","-1.0078125","-0.18847656","-7.09375","-0.0625","-1.34375"
"1574260681215","416","-0.059570312","-0.97753906","-0.19042969","-7.46875","-2.03125","-1.90625"
"1574260681215","417","-0.06347656","-0.9902344","-0.21191406","-0.0625","-2.03125","0.28125"
"1574260681216","418","-0.078125","-0.9902344","-0.20996094","0.65625","2.78125","-2.46875"
"1574260681216","419","-0.0546875","-0.99121094","-0.19433594","3.34375","2.5","0.71875"
"1574260681417","420","-0.03515625","-0.9970703","-0.1953125","-2.28125","-0.375","3.03125"
"1574260681418","421","-0.09277344","-0.99316406","-0.18945312","-1.84375","1.8125","-0.5"
"1574260681419","422","-0.055664062","-0.9892578","-0.21972656","0.96875","-0.375","2.3125"
"1574260681419","423","-0.059570312","-0.99316406","-0.20117188","-0.0625","3.84375","1.375"
"1574260681419","424","-0.048828125","-0.99121094","-0.19726562","-2.625","5.71875","1.75"
"1574260681420","425","-0.022460938","-0.9794922","-0.2265625","-3.96875","2.90625","5.65625"
"1574260681420","426","-0.068359375","-1.0009766","-0.21875","-3.0625","1.9375","3.59375"
"1574260681420","427","-0.0390625","-0.9707031","-0.21875","-4.21875","3.53125","3.90625"
"1574260681420","428","-0.038085938","-1.0283203","-0.22070312","-2.53125","-3.75","2.1875"
"1574260681421","429","-0.049804688","-0.96875","-0.20800781","-11.25","1.15625","0.46875"
"1574260682011","430","-0.08203125","-0.9501953","-0.265625","3.15625","-6.71875","1.625"
"1574260682012","431","-0.1328125","-1.046875","-0.24414062","12.5625","-1.71875","1.8125"
"1574260682012","432","0.0107421875","-0.98535156","-0.18554688","-3.1875","-6.5","1.6875"
"1574260682013","433","-0.030273438","-0.9921875","-0.15917969","-12.46875","-17.28125","7.625"
"1574260682013","434","-0.17578125","-0.97265625","-0.20019531","-2.09375","-17.15625","5.21875"
"1574260682014","435","-0.2109375","-0.9873047","-0.21875","14.8125","-13.8125","-1.84375"
"1574260682014","436","-0.15234375","-0.99609375","-0.18359375","22.3125","-5.03125","-5.03125"
"1574260682014","437","-0.140625","-0.99609375","-0.16308594","18.96875","4.125","-3.3125"
"1574260682014","438","-0.11035156","-1.0068359","-0.16308594","9.5","11.53125","2.65625"
"1574260682015","439","-0.10546875","-1.0126953","-0.15234375","0.34375","14.3125","5.34375"
"1574260682211","440","-0.119140625","-0.99902344","-0.14453125","-1.78125","13.09375","4.1875"
"1574260682211","441","-0.095703125","-1.0078125","-0.16015625","0.78125","12.25","2.3125"
"1574260682212","442","-0.08691406","-0.9951172","-0.17871094","3.03125","10.71875","1.4375"
"1574260682212","443","-0.09375","-1.0117188","-0.16601562","0.0","8.15625","1.03125"
"1574260682212","444","-0.08496094","-1.0087891","-0.15820312","-4.96875","7.96875","1.09375"
"1574260682214","445","-0.103515625","-1.0126953","-0.1640625","-5.3125","2.96875","-2.03125"
"1574260682214","446","-0.10058594","-0.9658203","-0.16503906","-1.46875","-0.0625","-4.21875"
"1574260682214","447","-0.072265625","-0.99316406","-0.15136719","2.4375","-1.125","-6.375"
"1574260682215","448","-0.1171875","-1.0068359","-0.15039062","-0.4375","-2.46875","-10.6875"
"1574260682215","449","-0.09765625","-0.9785156","-0.15722656","-1.96875","-3.5625","-8.6875"
"1574260682608","450","-0.10253906","-0.9970703","-0.1640625","-2.59375","-2.53125","-4.65625"
"1574260682608","451","-0.08300781","-1.0048828","-0.14746094","-2.46875","-3.0","-3.3125"
"1574260682609","452","-0.09375","-0.99316406","-0.13574219","-4.21875","-3.625","-1.90625"
"1574260682609","453","-0.061523438","-0.99316406","-0.15527344","-2.09375","-9.0","2.125"
"1574260682609","454","-0.08300781","-0.9951172","-0.19335938","1.3125","-10.8125","2.0"
"1574260682609","455","-0.11621094","-0.9902344","-0.16113281","-1.65625","-3.625","-0.5625"
"1574260682610","456","-0.09082031","-1.0","-0.16699219","3.9375","-4.96875","-0.5625"
"1574260682611","457","-0.12109375","-0.9863281","-0.140625","2.375","-1.71875","-1.96875"
"1574260682611","458","-0.09667969","-1.0068359","-0.140625","0.15625","-1.1875","-2.15625"
"1574260682611","459","-0.083984375","-0.9941406","-0.17578125","2.25","-1.96875","-0.9375"
"1574260683006","460","-0.10546875","-1.0097656","-0.16308594","1.09375","0.0","-1.96875"
"1574260683006","461","-0.060546875","-0.99121094","-0.15527344","1.8125","1.375","-1.0625"
"1574260683007","462","-0.08300781","-1.0146484","-0.12988281","0.09375","0.65625","0.21875"
"1574260683007","463","-0.08105469","-0.99902344","-0.13085938","-0.3125","-4.96875","-0.125"
"1574260683007","464","-0.09472656","-0.9824219","-0.140625","1.5625","-6.3125","-0.625"
"1574260683007","465","-0.08984375","-0.9824219","-0.1328125","-0.75","-9.96875","-1.53125"
"1574260683008","466","-0.13574219","-1.0039062","-0.14160156","4.6875","-7.78125","-2.46875"
"1574260683008","467","-0.11035156","-1.0068359","-0.13574219","-3.375","-1.78125","-5.21875"
"1574260683008","468","-0.091796875","-1.0029297","-0.14648438","2.0625","1.8125","-3.875"
"1574260683009","469","-0.09472656","-0.9892578","-0.12890625","1.875","1.3125","-2.75"
"1574260683405","470","-0.09375","-1.0048828","-0.119140625","-0.8125","3.03125","-0.625"
"1574260683405","471","-0.11425781","-0.95703125","-0.11230469","0.21875","4.25","0.65625"
"1574260683405","472","-0.14257812","-0.97753906","-0.119140625","-0.1875","7.625","0.71875"
"1574260683406","473","-0.107421875","-1.0029297","-0.15527344","3.34375","9.125","-0.5625"
"1574260683406","474","-0.057617188","-1.0117188","-0.14160156","3.03125","15.84375","0.28125"
"1574260683406","475","-0.060546875","-1.0205078","-0.13378906","-2.40625","14.15625","0.34375"
"1574260683406","476","-0.07324219","-1.0126953","-0.13671875","-7.09375","9.1875","1.75"
"1574260683407","477","-0.08691406","-0.9892578","-0.15039062","-5.375","6.21875","0.71875"
"1574260683407","478","-0.09082031","-1.0039062","-0.107421875","-1.96875","7.75","-0.5625"
"1574260683407","479","-0.07421875","-1.0087891","-0.13085938","-13.1875","2.5","-0.1875"
"1574260683802","480","-0.11425781","-0.9970703","-0.14160156","-6.0625","1.28125","-2.34375"
"1574260683803","481","-0.08886719","-0.98339844","-0.15234375","-7.65625","1.28125","-1.40625"
"1574260683804","482","-0.11328125","-0.9892578","-0.17871094","-5.5625","4.25","-2.09375"
"1574260683804","483","-0.10449219","-1.0058594","-0.15039062","-4.65625","7.4375","-2.8125"
"1574260683805","484","-0.10449219","-0.9814453","-0.15917969","-3.25","8.28125","-2.09375"
"1574260683805","485","-0.07519531","-0.98339844","-0.1796875","4.125","7.5625","-1.84375"
"1574260683805","486","-0.078125","-1.0087891","-0.16601562","9.8125","11.28125","-3.90625"
"1574260683806","487","-0.049804688","-0.9863281","-0.12695312","2.375","7.375","-2.03125"
"1574260683806","488","-0.08886719","-0.99609375","-0.13085938","-5.4375","4.5","-0.75"
"1574260683806","489","-0.06640625","-1.0146484","-0.17285156","1.9375","-1.53125","2.5625"
"1574260684398","490","-0.091796875","-0.9921875","-0.14160156","-2.625","-2.03125","0.28125"
"1574260684398","491","-0.08105469","-0.99121094","-0.15625","-7.40625","-0.375","0.84375"
"1574260684399","492","-0.07519531","-1.0175781","-0.16796875","0.71875","-2.03125","0.65625"
"1574260684400","493","-0.08691406","-0.97558594","-0.14550781","-1.59375","2.84375","-0.9375"
"1574260684400","494","-0.06542969","-1.0263672","-0.171875","-1.84375","-1.0","-2.28125"
"1574260684401","495","-0.13476562","-0.98046875","-0.13671875","0.78125","-1.125","-6.3125"
"1574260684401","496","-0.08300781","-0.984375","-0.15136719","-1.78125","12.1875","-6.1875"
"1574260684401","497","-0.080078125","-0.9951172","-0.15722656","0.34375","10.0625","-9.125"
"1574260684402","498","-0.06347656","-0.99902344","-0.12988281","-0.375","5.71875","-5.21875"
"1574260684402","499","-0.064453125","-1.0029297","-0.16113281","-3.5","-0.5","-2.9375"
"1574260684596","500","-0.095703125","-0.9951172","-0.15136719","-5.09375","-0.9375","-3.875"
"1574260684596","501","-0.06542969","-1.0039062","-0.18652344","2.71875","2.125","-1.96875"
"1574260684596","502","-0.06933594","-1.0185547","-0.17089844","-0.9375","-0.0625","-4.34375"
"1574260684597","503","-0.06738281","-0.9921875","-0.15039062","-4.15625","1.5625","-3.25"
"1574260684597","504","-0.061523438","-1.0175781","-0.15527344","-1.125","-0.3125","-2.34375"
"1574260684598","505","-0.09277344","-0.9736328","-0.15722656","-1.40625","5.40625","-3.625"
"1574260684598","506","-0.044921875","-1.0107422","-0.171875","-2.59375","6.8125","-1.3125"
"1574260684599","507","-0.059570312","-1.0029297","-0.15820312","-3.5","5.1875","-0.8125"
"1574260684599","508","-0.06640625","-1.0009766","-0.16601562","-5.21875","4.5","-0.1875"
"1574260684599","509","-0.068359375","-0.9892578","-0.17285156","-2.03125","5.71875","-1.0"
"1574260684994","510","-0.056640625","-0.9970703","-0.17480469","1.21875","3.21875","-0.375"
"1574260684995","511","-0.06933594","-0.9921875","-0.15332031","-0.625","4.1875","-1.53125"
"1574260684995","512","-0.061523438","-1.0048828","-0.1484375","0.34375","6.6875","-0.875"
"1574260684995","513","-0.068359375","-0.9980469","-0.17089844","-0.0625","5.40625","-1.3125"
"1574260684995","514","-0.06738281","-0.9980469","-0.17285156","-1.90625","5.96875","-1.46875"
"1574260684996","515","-0.07128906","-0.9941406","-0.16503906","-1.84375","4.75","-1.0"
"1574260684996","516","-0.06738281","-1.0","-0.15332031","-1.1875","4.1875","-0.125"
"1574260684996","517","-0.055664062","-0.99121094","-0.15625","-3.625","5.1875","-0.25"
"1574260684997","518","-0.0546875","-1.0009766","-0.16601562","-1.84375","2.71875","-0.9375"
"1574260684997","519","-0.045898438","-0.9873047","-0.1640625","-3.5","4.375","-0.9375"
"1574260685394","520","-0.057617188","-1.0039062","-0.18554688","-0.75","0.78125","-0.875"
"1574260685395","521","-0.072265625","-0.9902344","-0.17480469","2.0","4.25","0.09375"
"1574260685395","522","-0.06640625","-1.0009766","-0.15527344","2.1875","6.875","0.46875"
"1574260685395","523","-0.08203125","-1.0009766","-0.14648438","2.0","7.25","-0.4375"
"1574260685396","524","-0.06738281","-0.9902344","-0.15332031","-2.46875","5.71875","-0.25"
"1574260685396","525","-0.046875","-1.0048828","-0.16308594","-0.125","5.84375","0.65625"
"1574260685396","526","-0.0625","-1.0068359","-0.16992188","-0.8125","2.25","0.03125"
"1574260685396","527","-0.06933594","-0.9667969","-0.17382812","-0.0625","-0.25","-1.1875"
"1574260685397","528","-0.072265625","-1.0166016","-0.14941406","-3.5625","5.46875","-2.28125"
"1574260685398","529","-0.09277344","-0.98828125","-0.15429688","-3.25","2.59375","-3.96875"
"1574260685987","530","-0.04296875","-1.0019531","-0.17285156","1.28125","-0.5","-1.84375"
"1574260685988","531","-0.0546875","-1.0195312","-0.15234375","0.28125","1.375","-1.53125"
"1574260685988","532","-0.07421875","-0.99121094","-0.14453125","-0.625","3.40625","-1.25"
"1574260685988","533","-0.060546875","-0.9765625","-0.15527344","-0.5","6.15625","0.71875"
"1574260685989","534","-0.049804688","-1.0185547","-0.14941406","-0.6875","6.40625","2.0"
"1574260685989","535","-0.103515625","-0.98535156","-0.14355469","-5.625","5.46875","0.15625"
"1574260685989","536","-0.07324219","-1.0009766","-0.16894531","-1.59375","6.03125","1.09375"
"1574260685990","537","-0.05078125","-1.0009766","-0.16601562","-4.53125","3.15625","1.75"
"1574260685990","538","-0.06640625","-1.0117188","-0.16894531","-4.90625","1.28125","3.21875"
"1574260685990","539","-0.07519531","-0.97558594","-0.171875","-4.34375","4.375","1.3125"
"1574260686386","540","-0.076171875","-1.0029297","-0.18261719","2.375","5.21875","3.65625"
"1574260686387","541","-0.047851562","-0.984375","-0.15429688","1.21875","3.59375","6.46875"
"1574260686388","542","-0.08203125","-0.9296875","-0.091796875","-7.34375","-10.8125","13.84375"
"1574260686388","543","-0.1015625","-1.0400391","-0.23632812","-19.25","-34.25","17.5625"
"1574260686388","544","-0.06542969","-0.94921875","-0.21484375","-10.5625","-12.09375","9.5"
"1574260686389","545","-0.103515625","-1.0302734","-0.20703125","-11.1875","-8.9375","1.3125"
"1574260686389","546","-0.10449219","-1.0009766","-0.20898438","-3.4375","-7.15625","-1.84375"
"1574260686389","547","-0.12792969","-0.9814453","-0.21386719","0.34375","-0.125","-1.71875"
"1574260686390","548","-0.0546875","-0.9511719","-0.24414062","0.65625","3.40625","2.1875"
"1574260686390","549","-0.05078125","-1.0068359","-0.22949219","1.6875","-2.34375","6.6875"
"1574260686783","550","-0.034179688","-1.0263672","-0.19335938","0.21875","-8.625","8.46875"
"1574260686784","551","-0.1015625","-0.9951172","-0.16503906","2.125","-22.53125","-1.59375"
"1574260686784","552","-0.2841797","-0.953125","-0.17480469","16.28125","-19.25","-10.28125"
"1574260686785","553","-0.21679688","-1.0019531","-0.1484375","23.71875","-6.90625","-11.0"
"1574260686786","554","-0.13964844","-0.9863281","-0.12597656","8.15625","-2.34375","-11.1875"
"1574260686786","555","-0.13964844","-1.0175781","-0.13964844","-2.875","-2.8125","2.0"
"1574260686786","556","-0.1875","-1.0292969","-0.13476562","-18.4375","-15.03125","3.21875"
"1574260686786","557","-0.13085938","-0.9667969","-0.16894531","-12.28125","1.75","2.5625"
"1574260686787","558","-0.14355469","-1.0039062","-0.17382812","-4.46875","9.4375","-0.1875"
"1574260686787","559","-0.13476562","-0.96191406","-0.16992188","6.8125","17.3125","-3.5"
"1574260687181","560","-0.12109375","-0.99902344","-0.14941406","9.03125","22.3125","-0.375"
"1574260687181","561","-0.08203125","-0.9824219","-0.17480469","2.71875","18.71875","6.09375"
"1574260687182","562","-0.087890625","-1.0107422","-0.16796875","-4.53125","12.8125","3.09375"
"1574260687182","563","-0.091796875","-1.0048828","-0.15136719","-3.375","6.8125","0.65625"
"1574260687182","564","-0.09667969","-1.0117188","-0.13964844","-11.125","-11.25","-5.5625"
"1574260687183","565","-0.11328125","-0.9501953","-0.16308594","-9.15625","-11.90625","-8.5625"
"1574260687184","566","-0.08203125","-1.0078125","-0.16308594","-2.8125","-10.9375","-3.6875"
"1574260687184","567","-0.123046875","-0.96777344","-0.20898438","9.1875","-12.46875","-4.90625"
"1574260687184","568","-0.14257812","-0.9824219","-0.17285156","19.625","-8.625","0.03125"
"1574260687185","569","-0.080078125","-0.99121094","-0.12988281","11.34375","-1.71875","8.34375"
"1574260687577","570","-0.11621094","-0.99121094","-0.13867188","10.78125","-9.0","1.3125"
"1574260687578","571","-0.13867188","-1.0224609","-0.11816406","10.3125","-5.9375","-1.59375"
"1574260687578","572","-0.107421875","-0.98828125","-0.11621094","6.75","-4.78125","-2.34375"
"1574260687579","573","-0.1484375","-1.0126953","-0.12792969","3.65625","-4.34375","-4.21875"
"1574260687579","574","-0.12695312","-0.9863281","-0.12402344","0.53125","3.90625","-0.6875"
"1574260687579","575","-0.12988281","-1.015625","-0.10253906","-5.75","0.65625","0.34375"
"1574260687579","576","-0.13671875","-0.97753906","-0.109375","-12.65625","-7.15625","-2.28125"
"1574260687581","577","-0.08984375","-0.9980469","-0.109375","-9.84375","-3.96875","-2.75"
"1574260687581","578","-0.14257812","-0.99121094","-0.15234375","-8.125","-6.1875","-5.6875"
"1574260687582","579","-0.13183594","-0.9824219","-0.15039062","-7.53125","0.84375","-6.78125"
"1574260688174","580","-0.10058594","-1.0058594","-0.140625","-0.5625","4.5","-3.0"
"1574260688174","581","-0.12988281","-0.984375","-0.13769531","2.96875","4.875","-1.34375"
"1574260688175","582","-0.18164062","-1.0322266","-0.06542969","-17.09375","-14.3125","-2.59375"
"1574260688175","583","-0.12695312","-0.96191406","-0.13964844","-15.40625","-4.65625","-3.375"
"1574260688175","584","-0.11328125","-1.0224609","-0.15527344","-12.28125","-0.0625","-4.34375"
"1574260688175","585","-0.09277344","-1.0039062","-0.20800781","-5.5","9.75","-1.71875"
"1574260688176","586","-0.08886719","-0.98828125","-0.19628906","-0.125","9.4375","-3.6875"
"1574260688176","587","-0.07910156","-0.9921875","-0.20507812","12.9375","10.46875","0.65625"
"1574260688176","588","-0.057617188","-0.9863281","-0.140625","10.25","25.0","6.21875"
"1574260688178","589","-0.17675781","-1.0019531","-0.08300781","-17.59375","-13.75","-4.78125"
"1574260688968","590","-0.10839844","-0.9355469","-0.15429688","-9.15625","1.5","-2.53125"
"1574260688968","591","-0.12011719","-1.0253906","-0.16699219","-11.5","-1.84375","-6.0625"
"1574260688969","592","-0.046875","-0.96972656","-0.21875","-6.65625","4.75","-3.96875"
"1574260688969","593","-0.064453125","-0.9873047","-0.21679688","0.90625","2.5","-3.0625"
"1574260688969","594","-0.10839844","-0.9814453","-0.1953125","6.03125","2.0","-3.5"
"1574260688970","595","-0.07519531","-1.0185547","-0.19433594","14.75","2.3125","-3.125"
"1574260688970","596","-0.10449219","-0.99902344","-0.11621094","16.53125","9.125","-9.71875"
"1574260688970","597","-0.125","-0.9794922","-0.08203125","-9.0","-2.8125","-7.9375"
"1574260688970","598","-0.051757812","-0.98828125","-0.18066406","-1.40625","3.15625","0.65625"
"1574260688971","599","-0.10449219","-1.0214844","-0.16699219","1.4375","0.40625","-3.0"
"1574260689364","600","-0.0625","-0.99902344","-0.1875","2.375","5.34375","-0.9375"
"1574260689365","601","-0.057617188","-1.0107422","-0.099609375","-4.03125","-4.84375","-2.75"
"1574260689366","602","-0.12695312","-0.9609375","-0.17871094","-4.59375","-4.34375","-4.28125"
"1574260689366","603","-0.064453125","-1.0136719","-0.15136719","-3.3125","-0.4375","-4.84375"
"1574260689366","604","-0.08203125","-0.9873047","-0.14941406","-0.125","1.9375","-5.8125"
"1574260689367","605","-0.09277344","-1.0078125","-0.14648438","-0.75","-1.40625","-3.4375"
"1574260689367","606","-0.10839844","-0.97753906","-0.16796875","-5.625","2.0625","-3.0"
"1574260689367","607","-0.09082031","-1.0234375","-0.16601562","-3.90625","6.5","-0.5625"
"1574260689368","608","-0.08984375","-0.99316406","-0.171875","-2.53125","7.84375","-0.5625"
"1574260689368","609","-0.068359375","-0.99316406","-0.15429688","-5.375","8.65625","0.90625"
"1574260689368","610","-0.09277344","-0.984375","-0.18261719","-2.34375","10.125","0.53125"
"1574260689368","611","-0.06933594","-1.0087891","-0.17480469","-1.96875","12.1875","0.65625"
"1574260689369","612","-0.055664062","-0.9941406","-0.15625","-3.125","1.6875","1.8125"
"1574260689369","613","-0.095703125","-0.99121094","-0.14941406","-4.90625","-1.1875","-1.3125"
"1574260689369","614","-0.072265625","-0.9824219","-0.17382812","-0.4375","4.25","1.09375"
"1574260689370","615","-0.078125","-0.99121094","-0.16699219","1.15625","3.34375","-1.0"
"1574260689370","616","-0.07128906","-1.0","-0.14648438","-1.1875","5.1875","0.21875"
"1574260689370","617","-0.059570312","-0.98046875","-0.17285156","0.03125","3.21875","-1.71875"
"1574260689370","618","-0.06542969","-0.9736328","-0.17773438","-0.1875","5.0","1.09375"
"1574260689371","619","-0.0703125","-0.99902344","-0.1875","3.53125","5.59375","3.21875"
"1574260689564","620","-0.048828125","-1.0117188","-0.16992188","6.8125","2.5625","3.21875"
"1574260689565","621","-0.11621094","-1.0263672","-0.13085938","9.1875","-2.6875","-1.53125"
"1574260689565","622","-0.11425781","-1.0351562","-0.103515625","-2.9375","-5.21875","-1.0625"
"1574260689565","623","-0.09277344","-1.0527344","-0.11230469","-12.09375","-7.46875","-6.0"
"1574260689566","624","-0.12792969","-0.9794922","-0.13378906","-9.59375","-3.5","-11.5"
"1574260689567","625","-0.12988281","-0.8798828","-0.099609375","-9.84375","10.3125","-9.65625"
"1574260689567","626","-0.03515625","-0.98339844","-0.28027344","6.03125","4.25","4.3125"
"1574260689567","627","0.021484375","-1.0546875","-0.23046875","12.375","9.03125","3.78125"
"1574260689567","628","-0.12890625","-1.0371094","-0.16015625","12.5","7.125","-0.8125"
"1574260689568","629","-0.10839844","-0.9941406","-0.13574219","7.90625","32.8125","-4.84375"
"1574260690160","630","0.0029296875","-0.9902344","-0.1171875","5.78125","25.0","0.03125"
"1574260690161","631","-0.095703125","-0.9941406","-0.13378906","11.9375","7.8125","1.4375"
"1574260690161","632","-0.055664062","-0.98828125","-0.13476562","8.03125","11.71875","-0.5"
"1574260690161","633","-0.06738281","-0.9892578","-0.09765625","13.84375","15.65625","-2.21875"
"1574260690162","634","-0.076171875","-1.015625","-0.103515625","10.71875","2.0","0.65625"
"1574260690162","635","-0.055664062","-0.98828125","-0.08300781","6.46875","4.4375","-1.59375"
"1574260690162","636","-0.07714844","-0.9785156","-0.109375","6.28125","-7.09375","5.46875"
"1574260690163","637","-0.09765625","-0.9873047","-0.11035156","6.03125","1.21875","2.90625"
"1574260690164","638","-0.111328125","-1.0117188","-0.024414062","2.65625","37.71875","1.21875"
"1574260690164","639","-0.0078125","-0.99121094","0.0126953125","-27.90625","4.25","13.28125"
"1574260690556","640","-0.20117188","-0.95703125","-0.1484375","-56.15625","-41.9375","6.8125"
"1574260690557","641","0.0068359375","-1.0419922","-0.19824219","-26.625","-10.03125","4.8125"
"1574260690557","642","-0.09667969","-0.99609375","-0.20410156","-14.0","-2.75","-3.0"
"1574260690557","643","-0.09277344","-0.99609375","-0.18164062","-6.84375","1.625","-6.53125"
"1574260690558","644","-0.07324219","-0.99121094","-0.20214844","2.0625","10.0625","-7.21875"
"1574260690558","645","-0.068359375","-0.9941406","-0.18847656","12.9375","11.15625","-3.96875"
"1574260690558","646","-0.0703125","-0.99609375","-0.1953125","24.59375","16.9375","-4.34375"
"1574260690558","647","-0.091796875","-1.0185547","-0.13867188","21.53125","27.875","-6.4375"
"1574260690559","648","-0.08691406","-1.0107422","-0.080078125","6.5625","31.0625","-7.71875"
"1574260690559","649","-0.091796875","-1.0107422","-0.107421875","2.78125","19.34375","-6.65625"
"1574260690758","650","-0.068359375","-1.0068359","-0.11425781","-3.5","10.53125","-7.53125"
"1574260690759","651","-0.09472656","-1.0","-0.1328125","3.59375","9.03125","-7.65625"
"1574260690759","652","-0.076171875","-0.9951172","-0.109375","0.03125","15.625","-5.5625"
"1574260690759","653","-0.08105469","-1.0048828","-0.111328125","-2.15625","19.8125","-5.6875"
"1574260690759","654","-0.034179688","-0.9951172","-0.099609375","-7.40625","17.8125","-2.40625"
"1574260690760","655","-0.02734375","-0.9980469","-0.12402344","-8.25","10.65625","-0.75"
"1574260690760","656","-0.049804688","-1.0117188","-0.13867188","-0.875","3.15625","-0.6875"
"1574260690760","657","-0.032226562","-0.9892578","-0.125","-4.15625","2.125","-0.5625"
"1574260690760","658","-0.022460938","-0.97753906","-0.15722656","-0.5","3.28125","-1.0"
"1574260690761","659","0.034179688","-1.0283203","-0.12890625","-7.21875","-3.3125","2.25"
"1574260691156","660","-0.064453125","-0.99316406","-0.14746094","-3.75","-7.8125","-1.0625"
"1574260691157","661","-0.10253906","-0.9736328","-0.15136719","1.9375","-0.125","-4.03125"
"1574260691158","662","-0.021484375","-1.0322266","-0.13964844","0.28125","-1.46875","-1.59375"
"1574260691158","663","-0.057617188","-0.9941406","-0.12890625","-0.25","-4.46875","-4.09375"
"1574260691158","664","-0.07128906","-1.0039062","-0.13378906","0.0","1.8125","-1.125"
"1574260691159","665","0.0126953125","-1.015625","-0.1484375","-6.65625","3.9375","0.71875"
"1574260691159","666","-0.0068359375","-0.9814453","-0.1328125","-12.96875","-4.65625","5.125"
"1574260691159","667","-0.0146484375","-0.9785156","-0.15234375","-12.03125","-8.9375","4.5625"
"1574260691159","668","-0.061523438","-0.9863281","-0.20019531","-1.90625","-11.71875","0.90625"
"1574260691160","669","-0.04296875","-1.0009766","-0.19433594","5.1875","-9.125","0.71875"
"1574260691552","670","-0.015625","-0.9873047","-0.1484375","0.65625","-8.875","1.875"
"1574260691552","671","-0.048828125","-0.9951172","-0.16503906","0.96875","-10.4375","2.65625"
"1574260691552","672","-0.1171875","-0.9814453","-0.14355469","4.1875","-13.8125","2.125"
"1574260691553","673","-0.16503906","-0.9863281","-0.13476562","9.75","-3.875","-1.71875"
"1574260691554","674","-0.171875","-1.0058594","-0.1015625","13.53125","8.59375","-0.125"
"1574260691554","675","-0.08300781","-1.0273438","-0.07324219","5.59375","13.40625","11.59375"
"1574260691554","676","-0.055664062","-1.0332031","-0.08105469","-5.9375","8.40625","17.1875"
"1574260691554","677","-0.083984375","-0.9716797","-0.125","-4.65625","2.96875","17.625"
"1574260691555","678","-0.12695312","-1.0097656","-0.123046875","0.46875","7.8125","14.09375"
"1574260691555","679","-0.10839844","-0.99902344","-0.14550781","5.21875","9.375","10.1875"
"1574260691952","680","-0.057617188","-1.0185547","-0.13085938","4.6875","0.40625","8.46875"
"1574260691952","681","-0.12402344","-1.0166016","-0.123046875","-7.65625","1.15625","6.875"
"1574260691952","682","-0.13183594","-0.9980469","-0.125","0.0","9.8125","7.90625"
"1574260691953","683","-0.14257812","-0.97265625","-0.12011719","4.75","13.71875","2.0625"
"1574260691953","684","-0.16113281","-1.0029297","-0.09863281","5.0","11.53125","2.0625"
"1574260691954","685","-0.13964844","-1.0029297","-0.109375","-0.25","11.65625","1.5"
"1574260691955","686","-0.11816406","-0.99316406","-0.11425781","1.4375","7.375","-0.5625"
"1574260691955","687","-0.123046875","-0.9902344","-0.10839844","0.84375","6.5625","-0.8125"
"1574260691955","688","-0.15527344","-0.9951172","-0.08886719","-3.625","6.625","-0.6875"
"1574260691955","689","-0.1484375","-0.98828125","-0.11816406","-2.9375","6.75","-2.21875"
"1574260692350","690","-0.13574219","-1.0","-0.12890625","-0.1875","1.5","-5.4375"
"1574260692350","691","-0.13574219","-0.9902344","-0.12207031","-0.3125","4.5","-6.96875"
"1574260692350","692","-0.12011719","-0.9921875","-0.13183594","-1.71875","2.5","-6.0625"
"1574260692351","693","-0.12109375","-0.99902344","-0.11425781","-6.96875","5.1875","-5.75"
"1574260692351","694","-0.103515625","-0.99609375","-0.12792969","-6.125","1.3125","-2.03125"
"1574260692351","695","-0.13964844","-1.0","-0.16210938","-6.25","5.0625","-2.15625"
"1574260692351","696","-0.14160156","-1.0","-0.11425781","-1.40625","3.53125","-1.46875"
"1574260692353","697","-0.14941406","-0.99121094","-0.12207031","8.21875","11.59375","-12.15625"
"1574260692353","698","-0.08105469","-1.0205078","-0.14453125","6.03125","8.46875","-6.5"
"1574260692353","699","-0.1015625","-1.0087891","-0.119140625","0.65625","6.875","-5.9375"
"1574260692745","700","-0.123046875","-0.98535156","-0.099609375","-6.1875","10.3125","2.3125"
"1574260692746","701","-0.15234375","-0.97558594","-0.14941406","-8.375","3.9375","3.34375"
"1574260692746","702","-0.091796875","-1.0019531","-0.11621094","-2.28125","13.59375","3.09375"
"1574260692746","703","-0.068359375","-1.0048828","-0.1328125","0.28125","8.28125","-0.25"
"1574260692747","704","-0.12890625","-0.99316406","-0.12011719","4.4375","9.125","-3.5625"
"1574260692747","705","-0.06738281","-1.0292969","-0.12792969","-0.1875","4.9375","-2.6875"
"1574260692747","706","-0.10644531","-0.98339844","-0.125","1.3125","4.5625","-6.5"
"1574260692747","707","-0.12988281","-0.9921875","-0.12597656","0.84375","6.6875","-5.15625"
"1574260692748","708","-0.06738281","-0.9941406","-0.109375","-1.59375","1.15625","-1.46875"
"1574260692748","709","-0.07421875","-1.0078125","-0.107421875","-10.4375","2.59375","1.75"
"1574260693142","710","-0.13964844","-0.984375","-0.15722656","-4.59375","-5.21875","0.09375"
"1574260693142","711","-0.1484375","-1.0273438","-0.14453125","1.4375","-1.25","-3.96875"
"1574260693143","712","-0.080078125","-0.9433594","-0.12402344","3.03125","7.6875","-4.96875"
"1574260693143","713","-0.08300781","-1.046875","-0.12792969","-4.03125","4.875","0.65625"
"1574260693143","714","-0.14550781","-0.99121094","-0.12597656","-8.3125","3.03125","-1.34375"
"1574260693143","715","-0.0703125","-0.9765625","-0.123046875","-7.40625","7.96875","5.0"
"1574260693144","716","-0.13378906","-1.0214844","-0.15039062","-3.1875","3.53125","-0.5"
"1574260693144","717","-0.015625","-0.99121094","-0.1484375","-10.5625","-0.5625","4.375"
"1574260693144","718","-0.16699219","-0.9863281","-0.14160156","-3.0625","-1.78125","-2.03125"
"1574260693144","719","-0.103515625","-1.0136719","-0.15332031","5.0625","2.96875","-1.34375"
"1574260693541","720","-0.13085938","-1.0117188","-0.15136719","5.90625","0.53125","-6.375"
"1574260693542","721","-0.10839844","-0.9736328","-0.11425781","-2.03125","8.78125","-4.34375"
"1574260693542","722","-0.06542969","-1.0166016","-0.1328125","-8.1875","13.46875","1.375"
"1574260693542","723","-0.020507812","-1.0019531","-0.14550781","-20.21875","0.90625","2.5"
"1574260693543","724","-0.10839844","-0.96875","-0.16113281","-6.375","-7.40625","1.03125"
"1574260693543","725","-0.15722656","-1.0742188","-0.18164062","7.96875","-14.40625","-9.28125"
"1574260693543","726","-0.19628906","-0.91308594","-0.15234375","10.46875","2.5","-16.125"
"1574260693543","727","-0.0390625","-1.0029297","-0.14648438","-6.53125","19.46875","1.625"
"1574260693543","728","-0.07421875","-1.0322266","-0.13085938","-17.90625","21.15625","0.53125"
"1574260693544","729","-0.048828125","-0.9550781","-0.18066406","-16.0625","16.46875","4.6875"
"1574260694134","730","-0.072265625","-1.0498047","-0.2265625","3.9375","-22.40625","3.21875"
"1574260694134","731","-0.18945312","-0.94921875","-0.14160156","9.625","-9.65625","-6.65625"
"1574260694135","732","-0.09375","-0.96875","-0.14453125","6.03125","5.78125","-0.75"
"1574260694136","733","-0.12109375","-1.0244141","-0.17480469","2.0","18.40625","-5.21875"
"1574260694136","734","-9.765625E-4","-1.0068359","-0.15625","-9.46875","7.84375","1.15625"
"1574260694137","735","-0.07128906","-1.0136719","-0.171875","-15.15625","-12.15625","3.03125"
"1574260694137","736","-0.13964844","-1.0009766","-0.16796875","2.90625","-10.40625","1.6875"
"1574260694137","737","-0.171875","-0.93847656","-0.1640625","3.21875","2.5625","-2.9375"
"1574260694137","738","-0.076171875","-1.0244141","-0.20410156","5.0","13.53125","0.65625"
"1574260694138","739","-0.07421875","-1.0292969","-0.16210938","-4.84375","13.21875","-1.84375"
"1574260694335","740","0.01953125","-0.9814453","-0.14941406","-10.5","-1.65625","4.5625"
"1574260694335","741","-0.16601562","-0.99902344","-0.16503906","-6.65625","-13.375","2.0"
"1574260694336","742","-0.15332031","-0.9345703","-0.13964844","-3.625","3.9375","-2.6875"
"1574260694336","743","-0.08886719","-1.0078125","-0.18554688","0.40625","9.5","-3.8125"
"1574260694336","744","-0.09472656","-1.0458984","-0.16308594","-6.1875","6.09375","-4.90625"
"1574260694336","745","-0.08300781","-0.9902344","-0.17480469","-9.28125","-4.34375","-0.5"
"1574260694337","746","-0.07421875","-0.9658203","-0.18847656","-6.125","-7.8125","-0.5625"
"1574260694337","747","-0.07519531","-0.9980469","-0.19433594","-2.875","-5.21875","2.84375"
"1574260694338","748","-0.17871094","-0.9628906","-0.15527344","-8.375","9.875","-5.03125"
"1574260694338","749","-0.10058594","-0.9970703","-0.19140625","5.59375","9.125","-4.78125"
"1574260694733","750","-0.083984375","-1.0146484","-0.20996094","4.75","-3.1875","-2.59375"
"1574260694734","751","-0.0546875","-0.96484375","-0.17773438","-3.8125","-6.90625","3.09375"
"1574260694734","752","-0.021484375","-1.0908203","-0.17285156","2.0","-7.9375","3.65625"
"1574260694734","753","-0.16503906","-0.91308594","-0.13964844","-15.46875","-10.09375","-1.3125"
"1574260694734","754","-0.10644531","-0.9814453","-0.23828125","-3.8125","-1.90625","3.46875"
"1574260694735","755","-0.16503906","-1.0048828","-0.20605469","5.125","1.875","-3.6875"
"1574260694735","756","-0.103515625","-1.0048828","-0.203125","6.625","-0.3125","-3.75"
"1574260694736","757","-0.029296875","-1.0048828","-0.18457031","-1.90625","-1.125","1.15625"
"1574260694737","758","-0.140625","-0.9814453","-0.20996094","0.90625","-1.84375","0.46875"
"1574260694737","759","-0.13574219","-0.99902344","-0.15234375","-2.15625","5.46875","-5.25"
"1574260695130","760","-0.08496094","-0.96484375","-0.171875","-3.5","8.96875","-4.03125"
"1574260695130","761","-0.0390625","-1.0302734","-0.19824219","-5.03125","6.625","-3.5625"
"1574260695131","762","-0.09667969","-0.97753906","-0.19921875","-0.375","-5.625","-2.875"
"1574260695131","763","-0.12402344","-0.98828125","-0.19824219","0.28125","-7.03125","-4.59375"
"1574260695131","764","-0.13378906","-0.96484375","-0.16699219","4.4375","1.5","-7.65625"
"1574260695131","765","-0.109375","-1.0039062","-0.18652344","0.71875","9.9375","-6.25"
"1574260695132","766","-0.041015625","-1.0048828","-0.17089844","-5.375","8.40625","-2.75"
"1574260695132","767","-0.057617188","-1.0107422","-0.20996094","-5.25","-1.25","0.15625"
"1574260695132","768","-0.056640625","-1.0087891","-0.18945312","-4.65625","-5.4375","4.6875"
"1574260695133","769","-0.10644531","-0.97558594","-0.17285156","-11.96875","2.375","0.34375"
"1574260695527","770","-0.049804688","-0.97265625","-0.2265625","-2.28125","1.375","2.1875"
"1574260695527","771","-0.19238281","-0.97265625","-0.22363281","0.96875","3.21875","-4.28125"
"1574260695528","772","-0.046875","-1.0068359","-0.19042969","7.4375","-12.09375","-0.6875"
"1574260695528","773","-0.057617188","-1.0068359","-0.18066406","0.59375","-22.84375","-0.6875"
"1574260695528","774","-0.041992188","-1.0302734","-0.21191406","7.84375","-6.65625","2.96875"
"1574260695528","775","-0.16015625","-0.9707031","-0.15234375","-4.65625","-7.15625","-0.1875"
"1574260695529","776","-0.15722656","-0.96972656","-0.111328125","-9.46875","-7.03125","2.71875"
"1574260695529","777","-0.10839844","-0.9433594","-0.14746094","-12.90625","-17.46875","-4.46875"
"1574260695529","778","-0.047851562","-0.9980469","-0.28125","-3.625","-17.40625","1.4375"
"1574260695529","779","-0.22851562","-1.0195312","-0.15332031","-9.34375","-14.65625","-7.78125"
"1574260695925","780","-0.078125","-0.98339844","-0.21386719","-4.78125","-2.15625","-1.0"
"1574260695927","781","-0.13574219","-0.96191406","-0.1953125","-1.71875","7.1875","-5.375"
"1574260695927","782","-0.119140625","-0.99121094","-0.203125","-4.84375","8.15625","-2.625"
"1574260695927","783","-0.06933594","-0.9658203","-0.20800781","0.15625","4.375","-2.9375"
"1574260695928","784","-0.07910156","-1.0185547","-0.21484375","2.125","-0.3125","-0.4375"
"1574260695928","785","-0.109375","-0.9716797","-0.18457031","0.40625","3.46875","-3.75"
"1574260695928","786","-0.09667969","-0.9941406","-0.21484375","-0.4375","3.15625","2.0"
"1574260695928","787","-0.11230469","-0.9716797","-0.21289062","-7.875","1.28125","2.25"
"1574260695929","788","-0.09765625","-1.0136719","-0.18164062","-9.59375","3.03125","2.65625"
"1574260695929","789","-0.14453125","-0.99121094","-0.24609375","-11.4375","-10.9375","1.5625"
"1574260696323","790","-0.087890625","-0.96875","-0.24316406","-9.34375","3.28125","1.03125"
"1574260696324","791","-0.09765625","-0.9902344","-0.24902344","-1.40625","0.03125","1.8125"
"1574260696324","792","-0.091796875","-0.98535156","-0.23925781","-0.75","4.375","-0.5625"
"1574260696326","793","-0.091796875","-0.98046875","-0.24902344","4.0625","5.0625","-2.15625"
"1574260696326","794","-0.10449219","-0.99902344","-0.24121094","12.25","5.78125","-6.1875"
"1574260696327","795","-0.08203125","-0.9951172","-0.21972656","17.3125","14.09375","-7.9375"
"1574260696327","796","-0.10644531","-1.0244141","-0.18652344","11.8125","12.875","-8.75"
"1574260696327","797","-0.11035156","-0.984375","-0.1640625","8.46875","6.5625","-8.8125"
"1574260696327","798","-0.09765625","-0.9863281","-0.19726562","0.71875","0.28125","-5.21875"
"1574260696328","799","-0.10839844","-1.0117188","-0.15917969","-8.5625","10.96875","-4.28125"
"1574260696721","800","-0.038085938","-0.9873047","-0.18945312","-6.4375","8.96875","-0.3125"
"1574260696722","801","-0.07714844","-0.9794922","-0.18652344","-2.09375","4.25","-1.59375"
"1574260696722","802","-0.047851562","-0.98046875","-0.18457031","-5.09375","1.28125","2.125"
"1574260696722","803","-0.07324219","-1.0078125","-0.20019531","3.59375","-4.53125","1.375"
"1574260696722","804","-0.10839844","-0.95996094","-0.18359375","3.84375","-4.03125","0.84375"
"1574260696724","805","-0.06347656","-0.98828125","-0.20019531","-2.59375","-5.375","0.15625"
"1574260696724","806","-0.09667969","-0.9980469","-0.18945312","-6.78125","-1.84375","-1.25"
"1574260696725","807","-0.046875","-1.03125","-0.23828125","-0.4375","-3.375","0.09375"
"1574260696725","808","-0.09863281","-0.9902344","-0.19042969","-1.53125","-1.34375","-4.90625"
"1574260696725","809","-0.07519531","-0.9980469","-0.19628906","-1.1875","1.8125","-1.0625"
"1574260697117","810","-0.08691406","-0.96484375","-0.1875","-3.4375","-0.625","-1.0625"
"1574260697117","811","-0.052734375","-1.0078125","-0.17382812","-5.15625","-5.3125","2.3125"
"1574260697118","812","-0.05859375","-0.9902344","-0.19335938","-6.59375","-4.90625","0.0"
"1574260697118","813","-0.09765625","-1.0009766","-0.22460938","-5.25","-9.84375","-2.625"
"1574260697118","814","-0.078125","-0.9951172","-0.22558594","-8.8125","-1.65625","-0.9375"
"1574260697118","815","-0.041015625","-0.98339844","-0.22460938","-7.46875","-7.34375","-1.90625"
"1574260697119","816","-0.11328125","-0.9892578","-0.21386719","-4.59375","-9.28125","-2.21875"
"1574260697120","817","-0.07324219","-0.96484375","-0.23046875","-1.53125","-2.9375","2.0"
"1574260697120","818","-0.125","-1.0146484","-0.20410156","2.375","0.03125","-0.3125"
"1574260697120","819","-0.125","-0.9785156","-0.20898438","1.625","2.65625","-3.3125"
"1574260697515","820","-0.09082031","-0.9980469","-0.19628906","-1.25","7.96875","-1.1875"
"1574260697515","821","-0.11816406","-1.0214844","-0.23535156","0.15625","5.59375","-0.4375"
"1574260697515","822","-0.08984375","-0.9560547","-0.20507812","-0.625","6.5","-0.625"
"1574260697516","823","-0.06640625","-1.0166016","-0.18554688","-1.0","5.59375","4.5625"
"1574260697516","824","-0.040039062","-0.9580078","-0.17675781","-12.40625","0.90625","4.25"
"1574260697516","825","-0.103515625","-0.9863281","-0.25195312","-6.1875","-14.65625","0.78125"
"1574260697516","826","-0.115234375","-0.9892578","-0.234375","7.84375","-8.8125","-2.59375"
"1574260697517","827","-0.111328125","-1.0","-0.21582031","6.9375","-3.125","-5.8125"
"1574260697517","828","-0.12988281","-0.96777344","-0.16210938","0.03125","-2.09375","-7.78125"
"1574260697517","829","-0.07910156","-0.9824219","-0.23046875","7.125","5.21875","3.21875"
"1574260698308","830","-0.044921875","-1.0322266","-0.22851562","2.125","0.84375","6.21875"
"1574260698309","831","-0.12109375","-1.0058594","-0.19726562","-2.53125","0.15625","3.78125"
"1574260698309","832","-0.10058594","-0.9746094","-0.19140625","-0.625","-5.09375","1.375"
"1574260698309","833","-0.09667969","-0.9873047","-0.1796875","-1.40625","-7.9375","-1.53125"
"1574260698310","834","-0.10546875","-0.9707031","-0.20800781","3.15625","-5.6875","-1.71875"
"1574260698310","835","-0.11425781","-0.99121094","-0.18945312","3.28125","-2.75","-0.375"
"1574260698310","836","-0.16992188","-1.0019531","-0.18847656","2.65625","5.125","-3.25"
"1574260698310","837","-0.12695312","-0.9921875","-0.20898438","6.03125","6.28125","1.03125"
"1574260698311","838","-0.07421875","-1.0195312","-0.19726562","2.0","4.25","2.4375"
"1574260698311","839","-0.13574219","-0.9785156","-0.1875","0.71875","7.25","0.40625"
"1574260698506","840","-0.111328125","-0.99902344","-0.1796875","-1.1875","9.875","0.53125"
"1574260698507","841","-0.11816406","-0.9716797","-0.1484375","-9.21875","5.96875","-1.34375"
"1574260698507","842","-0.1171875","-0.96972656","-0.20507812","-9.96875","1.75","-3.1875"
"1574260698508","843","-0.0625","-1.0166016","-0.20800781","-7.875","1.6875","-2.75"
"1574260698508","844","-0.0703125","-0.9892578","-0.21777344","-5.5625","-2.40625","-5.875"
"1574260698508","845","-0.083984375","-1.0175781","-0.21875","-5.21875","-3.0625","-3.6875"
"1574260698509","846","-0.103515625","-0.96484375","-0.23144531","-2.75","-4.34375","-2.8125"
"1574260698509","847","-0.14648438","-0.9902344","-0.19433594","-2.34375","4.3125","-0.875"
"1574260698509","848","-0.115234375","-0.96972656","-0.20800781","-1.40625","12.1875","-0.25"
"1574260698510","849","-0.09863281","-0.99316406","-0.20898438","3.53125","8.71875","-2.59375"
"1574260698709","850","-0.08984375","-0.9902344","-0.19433594","2.1875","9.03125","-4.71875"
"1574260698710","851","-0.08203125","-0.9824219","-0.20507812","1.875","8.28125","-2.6875"
"1574260698710","852","-0.09277344","-1.0078125","-0.1875","-1.125","5.46875","-0.8125"
"1574260698711","853","-0.09667969","-0.984375","-0.19726562","-2.46875","7.4375","0.34375"
"1574260698712","854","-0.10546875","-0.9863281","-0.203125","-3.0","2.1875","2.3125"
"1574260698712","855","-0.10644531","-0.9892578","-0.21582031","4.8125","3.40625","-0.4375"
"1574260698712","856","-0.0703125","-0.98828125","-0.20800781","0.90625","3.03125","1.5625"
"1574260698712","857","-0.10644531","-0.9902344","-0.18652344","-0.1875","1.6875","-0.875"
"1574260698713","858","-0.10546875","-1.0117188","-0.19726562","2.125","5.21875","-0.5"
"1574260698713","859","-0.041992188","-0.9736328","-0.1796875","-8.125","3.59375","0.84375"
"1574260699105","860","-0.087890625","-0.9921875","-0.23144531","-5.9375","2.78125","6.03125"
"1574260699105","861","-0.12402344","-1.0058594","-0.2529297","12.3125","-6.0625","1.21875"
"1574260699106","862","-0.15039062","-0.96972656","-0.13769531","7.0625","-0.625","-4.15625"
"1574260699106","863","-0.0390625","-0.98535156","-0.19042969","2.96875","2.5","-1.90625"
"1574260699106","864","-0.083984375","-1.0146484","-0.19140625","4.25","-3.25","-3.1875"
"1574260699107","865","-0.09277344","-0.99609375","-0.21289062","4.0625","-10.5625","0.78125"
"1574260699107","866","-0.12207031","-1.0048828","-0.14257812","-4.40625","-2.625","2.0"
"1574260699108","867","-0.13378906","-0.96875","-0.19238281","0.65625","-1.90625","-2.34375"
"1574260699108","868","-0.12597656","-0.9980469","-0.17285156","-1.71875","4.8125","-3.5625"
"1574260699108","869","-0.10449219","-0.97265625","-0.18261719","-1.65625","4.375","-0.6875"
"1574260699700","870","-0.12402344","-1.0126953","-0.18359375","0.09375","9.375","0.84375"
"1574260699701","871","-0.087890625","-1.0166016","-0.19433594","-1.59375","10.3125","2.71875"
"1574260699701","872","-0.036132812","-0.953125","-0.16992188","-0.875","13.09375","3.71875"
"1574260699701","873","-0.12695312","-1.0478516","-0.19140625","2.125","-5.25","0.78125"
"1574260699701","874","-0.08984375","-0.9375","-0.16992188","-1.1875","-2.9375","0.15625"
"1574260699702","875","-0.14648438","-1.0400391","-0.16699219","-0.625","-8.3125","-1.90625"
"1574260699702","876","-0.068359375","-0.97753906","-0.1953125","-8.6875","0.03125","-2.46875"
"1574260699703","877","-0.15039062","-1.0244141","-0.19433594","-6.125","-3.0625","-1.84375"
"1574260699703","878","-0.119140625","-0.96191406","-0.19726562","-3.625","5.96875","0.71875"
"1574260699704","879","-0.13183594","-0.9921875","-0.20507812","0.21875","4.0","3.21875"
"1574260699900","880","-0.052734375","-0.9638672","-0.17773438","-13.3125","2.84375","8.34375"
"1574260699901","881","-0.1328125","-1.0117188","-0.22851562","-1.40625","-6.71875","4.5625"
"1574260699901","882","-0.18847656","-0.9970703","-0.20605469","-1.40625","2.65625","-7.46875"
"1574260699901","883","-0.1015625","-0.98046875","-0.19726562","-2.875","4.125","-7.65625"
"1574260699901","884","-0.07714844","-0.9921875","-0.19140625","-5.375","-2.15625","-5.15625"
"1574260699901","885","-0.11816406","-0.9736328","-0.22070312","-1.0","-6.125","-1.1875"
"1574260699902","886","-0.09765625","-1.0029297","-0.20703125","-1.25","-2.6875","1.3125"
"1574260699902","887","-0.095703125","-0.9863281","-0.20605469","-0.8125","0.34375","-3.875"
"1574260699902","888","-0.10644531","-0.9951172","-0.20214844","1.5","-5.3125","-1.40625"
"1574260699904","889","-0.13085938","-0.9765625","-0.19140625","0.71875","-1.65625","-1.59375"
"1574260700495","890","-0.11621094","-0.98046875","-0.21386719","-2.59375","3.9375","0.0"
"1574260700496","891","-0.103515625","-1.0253906","-0.17773438","-5.3125","6.5","-0.875"
"1574260700496","892","-0.15234375","-0.9716797","-0.20410156","-0.375","0.96875","-3.5"
"1574260700496","893","-0.111328125","-0.9921875","-0.19628906","-5.09375","0.34375","-0.625"
"1574260700497","894","-0.115234375","-0.9785156","-0.18652344","-4.34375","4.8125","-3.0"
"1574260700497","895","-0.09472656","-0.99121094","-0.21289062","-1.78125","0.46875","-1.90625"
"1574260700497","896","-0.1328125","-0.984375","-0.21875","1.3125","4.0","-2.875"
"1574260700497","897","-0.078125","-0.96484375","-0.20214844","-1.84375","9.1875","3.03125"
"1574260700498","898","-0.059570312","-0.9892578","-0.24023438","0.46875","3.21875","9.9375"
"1574260700498","899","-0.11035156","-1.0390625","-0.21386719","3.9375","-1.84375","8.90625"
"1574260700694","900","-0.17675781","-1.0292969","-0.18554688","1.625","-3.8125","0.78125"
"1574260700696","901","-0.18261719","-0.9667969","-0.14648438","-3.375","1.4375","-7.40625"
"1574260700696","902","-0.14648438","-0.9511719","-0.16699219","-0.5625","4.125","-5.21875"
"1574260700696","903","-0.13964844","-0.9736328","-0.18652344","-0.625","10.125","-5.5625"
"1574260700696","904","-0.059570312","-1.0087891","-0.21777344","-1.3125","9.3125","-0.5625"
"1574260700697","905","-0.11035156","-1.03125","-0.22851562","-5.25","17.0","-8.5"
"1574260700697","906","-0.11425781","-0.99316406","-0.23632812","-0.8125","22.75","-10.34375"
"1574260700698","907","-0.068359375","-0.96875","-0.20898438","0.90625","20.8125","-7.59375"
"1574260700698","908","-0.07324219","-1.0019531","-0.18164062","-1.0","20.1875","-6.125"
"1574260700698","909","-0.11230469","-0.97265625","-0.16699219","-4.09375","14.75","-5.375"
"1574260701093","910","-0.083984375","-0.98339844","-0.1953125","-6.65625","10.96875","-3.875"
"1574260701093","911","-0.07519531","-0.99609375","-0.21484375","1.75","9.25","-7.875"
"1574260701094","912","-0.046875","-0.9980469","-0.20507812","7.0","5.21875","-6.3125"
"1574260701095","913","-0.080078125","-0.97558594","-0.21777344","2.71875","5.59375","-4.28125"
"1574260701095","914","-0.10839844","-1.0009766","-0.19238281","-2.34375","13.21875","-2.28125"
"1574260701096","915","-0.06347656","-0.9921875","-0.20507812","-3.4375","8.28125","-1.71875"
"1574260701096","916","-0.072265625","-0.98828125","-0.18847656","-10.4375","8.65625","-2.21875"
"1574260701096","917","-0.06542969","-1.0048828","-0.1953125","-13.3125","4.625","-2.15625"
"1574260701096","918","-0.091796875","-0.99121094","-0.17089844","-6.0","5.53125","-6.90625"
"1574260701097","919","-0.057617188","-0.9638672","-0.21972656","-0.4375","1.5625","-5.9375"
"1574260701685","920","-0.055664062","-0.9667969","-0.24609375","4.125","-0.3125","-2.09375"
"1574260701685","921","-0.05859375","-0.984375","-0.20898438","5.71875","-0.25","-0.5"
"1574260701685","922","-0.0390625","-0.98828125","-0.19824219","4.625","-8.1875","2.125"
"1574260701686","923","-0.05078125","-0.98535156","-0.21386719","5.0625","-7.9375","5.90625"
"1574260701686","924","-0.045898438","-1.0029297","-0.203125","1.5625","-7.875","6.9375"
"1574260701687","925","-0.07128906","-1.0019531","-0.18847656","-1.125","-5.15625","3.90625"
"1574260701687","926","-0.05859375","-0.9814453","-0.2109375","2.0625","-8.6875","2.125"
"1574260701688","927","-0.07910156","-1.0136719","-0.203125","8.53125","-13.1875","3.03125"
"1574260701688","928","-0.11425781","-0.99121094","-0.19238281","6.21875","-17.90625","3.09375"
"1574260701688","929","-0.07910156","-1.0263672","-0.17871094","18.46875","-24.78125","0.28125"
"1574260702481","930","-0.07128906","-0.98046875","-0.16601562","21.09375","-24.4375","-4.09375"
"1574260702482","931","-0.015625","-0.97558594","-0.16796875","12.1875","-15.59375","0.09375"
"1574260702485","932","-0.0703125","-0.9941406","-0.15136719","7.75","-9.71875","3.21875"
"1574260702486","933","-0.08984375","-0.9824219","-0.1484375","1.6875","-12.03125","6.28125"
"1574260702486","934","-0.13476562","-0.99609375","-0.14648438","-1.78125","0.65625","4.0"
"1574260702486","935","-0.15722656","-1.0107422","-0.16699219","5.53125","5.90625","1.5625"
"1574260702487","936","-0.11425781","-1.0097656","-0.15722656","0.84375","10.71875","0.03125"
"1574260702487","937","-0.10644531","-0.9794922","-0.13183594","0.28125","9.9375","0.71875"
"1574260702487","938","-0.10546875","-0.99902344","-0.14746094","1.09375","7.125","3.90625"
"1574260702488","939","-0.09277344","-0.9951172","-0.13476562","-3.75","4.25","3.71875"
"1574260702488","940","-0.08691406","-1.0058594","-0.12792969","1.8125","8.71875","3.71875"
"1574260702489","941","-0.103515625","-0.9970703","-0.1171875","2.0","11.15625","2.3125"
"1574260702489","942","-0.13964844","-0.96875","-0.103515625","0.65625","5.65625","-0.875"
"1574260702489","943","-0.17871094","-0.99609375","-0.13085938","3.59375","7.25","0.65625"
"1574260702490","944","-0.119140625","-0.98535156","-0.12890625","-0.5","7.3125","1.8125"
"1574260702490","945","-0.1171875","-1.0253906","-0.14160156","-0.4375","3.03125","1.5"
"1574260702490","946","-0.11328125","-1.0087891","-0.125","3.09375","4.8125","0.34375"
"1574260702491","947","-0.11425781","-0.98535156","-0.115234375","0.0","6.5625","2.1875"
"1574260702491","948","-0.119140625","-0.9970703","-0.12402344","1.15625","4.0","4.0"
"1574260702491","949","-0.12695312","-1.0048828","-0.10839844","-2.875","3.15625","2.3125"
"1574260702682","950","-0.14453125","-0.98535156","-0.10839844","-0.0625","5.1875","3.53125"
"1574260702682","951","-0.12792969","-0.9873047","-0.12207031","-5.4375","9.3125","3.90625"
"1574260702682","952","-0.12890625","-1.0068359","-0.13574219","-1.34375","1.5","0.15625"
"1574260702683","953","-0.12597656","-1.0068359","-0.12988281","3.46875","0.65625","-0.1875"
"1574260702683","954","-0.1171875","-1.0068359","-0.1171875","-1.53125","1.75","-1.0"
"1574260702683","955","-0.09082031","-0.9785156","-0.10839844","-3.25","-0.6875","1.75"
"1574260702683","956","-0.14257812","-0.99316406","-0.10253906","-5.8125","-2.53125","2.5625"
"1574260702683","957","-0.14746094","-0.9941406","-0.12792969","-2.8125","-3.3125","1.3125"
"1574260702684","958","-0.15136719","-0.9970703","-0.12207031","-0.4375","-2.46875","-2.28125"
"1574260702684","959","-0.15917969","-0.98046875","-0.123046875","0.53125","0.21875","-3.5625"
"1574260703277","960","-0.14257812","-1.0126953","-0.12597656","1.375","0.65625","-2.28125"
"1574260703279","961","-0.15429688","-0.9824219","-0.125","2.125","2.5625","-4.03125"
"1574260703279","962","-0.11816406","-1.0097656","-0.14160156","2.90625","8.59375","-1.25"
"1574260703279","963","-0.11230469","-1.0136719","-0.13867188","4.1875","13.28125","-2.21875"
"1574260703280","964","-0.13183594","-1.0087891","-0.12011719","7.125","9.25","-3.875"
"1574260703280","965","-0.16015625","-0.9794922","-0.09765625","5.0625","14.9375","-5.5"
"1574260703280","966","-0.13085938","-1.0019531","-0.09472656","2.71875","14.28125","-5.5"
"1574260703281","967","-0.1328125","-0.99609375","-0.09765625","2.0","7.375","-6.59375"
"1574260703281","968","-0.10253906","-1.0097656","-0.107421875","-2.21875","10.65625","-6.4375"
"1574260703281","969","-0.091796875","-1.0029297","-0.11230469","-5.375","7.96875","-5.5625"
"1574260703478","970","-0.107421875","-1.0234375","-0.125","-4.28125","6.09375","-5.6875"
"1574260703479","971","-0.1171875","-0.99316406","-0.12011719","-3.5","7.625","-5.6875"
"1574260703479","972","-0.10839844","-0.984375","-0.09667969","-4.15625","8.65625","-4.78125"
"1574260703480","973","-0.11328125","-0.99902344","-0.091796875","-2.875","5.53125","-4.78125"
"1574260703481","974","-0.09667969","-0.9824219","-0.09765625","0.46875","5.125","-6.3125"
"1574260703481","975","-0.103515625","-0.98535156","-0.103515625","0.03125","2.0","-5.3125"
"1574260703481","976","-0.08203125","-1.0126953","-0.091796875","-0.9375","4.875","-6.53125"
"1574260703481","977","-0.0625","-1.0117188","-0.13183594","5.0625","0.09375","-3.90625"
"1574260703482","978","-0.103515625","-0.9794922","-0.10546875","1.3125","2.25","-3.4375"
"1574260703482","979","-0.06738281","-1.0351562","-0.103515625","4.8125","4.3125","-2.34375"
"1574260703876","980","-0.1015625","-0.9638672","-0.099609375","-1.46875","4.9375","-4.90625"
"1574260703876","981","-0.06542969","-1.0117188","-0.1015625","2.5625","9.125","-0.8125"
"1574260703877","982","-0.10449219","-0.9863281","-0.076171875","-2.15625","9.75","-0.875"
"1574260703877","983","-0.091796875","-1.0087891","-0.09863281","-0.6875","8.09375","2.125"
"1574260703877","984","-0.103515625","-0.95703125","-0.09082031","-7.46875","9.4375","0.03125"
"1574260703878","985","-0.030273438","-1.0097656","-0.111328125","-7.53125","8.78125","7.8125"
"1574260703879","986","-0.095703125","-1.0009766","-0.12695312","-9.0625","5.84375","0.90625"
"1574260703879","987","-0.12109375","-1.0351562","-0.13769531","3.46875","1.5","-0.5625"
"1574260703879","988","-0.025390625","-0.94628906","-0.13183594","-2.53125","11.875","-0.25"
"1574260703880","989","-0.1015625","-1.0361328","-0.09765625","-11.71875","5.0","8.15625"
"1574260704470","990","-0.06738281","-1.0488281","-0.15820312","-3.1875","-8.1875","0.84375"
"1574260704471","991","-0.057617188","-0.92089844","-0.10253906","-6.5","-18.25","1.375"
"1574260704471","992","-0.12792969","-1.0527344","-0.16601562","1.5625","-12.09375","1.875"
"1574260704471","993","-0.11816406","-0.9560547","-0.11328125","-2.15625","-1.125","-1.0"
"1574260704472","994","-0.10253906","-0.9746094","-0.11328125","-8.625","12.5625","-2.59375"
"1574260704472","995","-0.06347656","-1.0429688","-0.12792969","-8.875","-2.09375","2.71875"
"1574260704472","996","-0.0859375","-0.9794922","-0.14746094","-3.25","-13.375","0.40625"
"1574260704473","997","-0.14941406","-0.96875","-0.17382812","-0.3125","-5.375","4.375"
"1574260704473","998","-0.17089844","-0.99902344","-0.16601562","9.03125","8.15625","-1.125"
"1574260704473","999","-0.11230469","-1.0146484","-0.12792969","0.21875","10.375","-7.09375"
"1574260704669","1000","-0.051757812","-1.0019531","-0.13183594","1.5","-1.71875","0.90625"
"1574260704669","1001","-0.16503906","-1.0009766","-0.13671875","1.75","17.4375","5.46875"
"1574260704670","1002","-0.099609375","-0.9550781","-0.08984375","-18.4375","30.0","4.3125"
"1574260704670","1003","-0.041015625","-1.0302734","-0.14355469","-27.96875","-0.0625","9.6875"
"1574260704670","1004","-0.12695312","-0.99609375","-0.20898438","-6.96875","-6.375","2.96875"
"1574260704670","1005","-0.12988281","-1.0068359","-0.1875","5.96875","-12.59375","2.0"
"1574260704671","1006","-0.12402344","-0.96777344","-0.15722656","5.78125","3.65625","-3.5"
"1574260704671","1007","-0.125","-1.0205078","-0.16210938","10.78125","-0.25","-1.34375"
"1574260704671","1008","-0.14160156","-0.9892578","-0.13671875","4.6875","0.03125","-5.03125"
"1574260704672","1009","-0.103515625","-1.0332031","-0.115234375","8.96875","-0.25","-6.3125"
"1574260705266","1010","-0.19140625","-0.95214844","-0.15332031","9.09375","-1.1875","-6.71875"
"1574260705267","1011","-0.1015625","-1.0429688","-0.103515625","9.125","19.21875","-4.71875"
"1574260705267","1012","-0.07910156","-0.9785156","-0.08300781","-9.84375","1.6875","1.625"
"1574260705267","1013","-0.05859375","-1.0380859","-0.15429688","1.15625","-0.4375","3.53125"
"1574260705268","1014","-0.2685547","-0.92089844","-0.07519531","-9.71875","5.71875","-8.0"
"1574260705268","1015","-0.0126953125","-1.0332031","-0.140625","-0.3125","7.0625","6.03125"
"1574260705268","1016","-0.14355469","-0.9902344","-0.16601562","-0.8125","-17.78125","-1.125"
"1574260705268","1017","-0.041015625","-1.0039062","-0.14746094","0.96875","2.5625","0.90625"
"1574260705269","1018","-0.1484375","-1.0224609","-0.099609375","3.65625","1.8125","-7.21875"
"1574260705269","1019","-0.047851562","-0.953125","-0.11621094","-6.25","-2.9375","2.65625"
"1574260705465","1020","-0.24023438","-0.97265625","-0.13085938","-3.875","1.3125","-4.53125"
"1574260705467","1021","-0.078125","-1.0263672","-0.14746094","3.34375","11.15625","-1.59375"
"1574260705467","1022","-0.1015625","-0.9892578","-0.1640625","12.3125","-7.03125","-2.6875"
"1574260705467","1023","-0.0859375","-1.0458984","-0.10449219","6.9375","2.65625","-1.25"
"1574260705468","1024","-0.14648438","-0.9375","-0.07519531","-8.125","14.8125","-5.375"
"1574260705468","1025","-0.11328125","-1.0234375","-0.13574219","-2.46875","11.65625","-3.5625"
"1574260705468","1026","-0.0546875","-1.0019531","-0.10253906","-5.25","8.96875","1.03125"
"1574260705469","1027","-0.1796875","-0.9824219","-0.1328125","0.46875","10.1875","0.0"
"1574260705469","1028","0.0068359375","-1.078125","-0.10644531","-5.5625","19.75","9.375"
"1574260705469","1029","-0.26660156","-0.96777344","-0.107421875","-23.40625","8.53125","-2.03125"
"1574260705864","1030","-0.10449219","-0.9921875","-0.061523438","-9.84375","14.09375","-5.09375"
"1574260705865","1031","-0.14941406","-0.93359375","-0.16015625","-8.5625","-10.40625","-8.0625"
"1574260705865","1032","-0.087890625","-1.0175781","-0.17089844","6.8125","-4.15625","-2.875"
"1574260705867","1033","-0.09082031","-1.0078125","-0.16699219","-1.25","-0.5","-5.03125"
"1574260705867","1034","-0.13769531","-1.0039062","-0.12792969","0.21875","6.9375","-3.1875"
"1574260705867","1035","-0.083984375","-0.98339844","-0.12988281","-1.125","0.21875","7.8125"
"1574260705868","1036","-0.061523438","-1.0009766","-0.14550781","-4.78125","-5.75","15.3125"
"1574260705868","1037","-0.13574219","-1.0039062","-0.14453125","-3.25","-6.3125","10.84375"
"1574260705868","1038","-0.06640625","-0.9814453","-0.15625","-7.9375","-9.71875","8.28125"
"1574260705868","1039","-0.125","-1.0","-0.14160156","-5.375","-9.84375","1.6875"
"1574260706261","1040","-0.13378906","-1.0","-0.16992188","5.0625","-15.21875","2.1875"
"1574260706261","1041","-0.14550781","-1.0087891","-0.16210938","5.40625","-10.625","-5.09375"
"1574260706261","1042","-0.12402344","-0.98535156","-0.123046875","9.875","-9.53125","-0.5625"
"1574260706262","1043","-0.17578125","-1.0068359","-0.13964844","1.9375","-6.375","-3.0"
"1574260706262","1044","-0.12890625","-0.97265625","-0.12890625","2.1875","2.4375","-4.28125"
"1574260706263","1045","-0.087890625","-0.9970703","-0.10546875","-5.03125","0.65625","0.84375"
"1574260706264","1046","-0.13085938","-1.0097656","-0.13671875","-4.09375","2.4375","-2.40625"
"1574260706264","1047","-0.10546875","-0.9941406","-0.15039062","-3.75","3.28125","-2.75"
"1574260706264","1048","-0.14257812","-1.0009766","-0.125","-3.0","3.28125","-4.28125"
"1574260706264","1049","-0.13085938","-0.99902344","-0.14257812","-1.125","7.1875","-4.15625"
"1574260706658","1050","-0.12597656","-0.9863281","-0.15234375","1.875","4.5625","-5.625"
"1574260706658","1051","-0.12011719","-1.0078125","-0.14746094","-3.125","7.75","-3.0"
"1574260706658","1052","-0.12988281","-0.99609375","-0.16113281","-6.59375","14.09375","-7.34375"
"1574260706658","1053","-0.10839844","-0.9873047","-0.13085938","-5.5625","16.90625","-5.09375"
"1574260706659","1054","-0.10058594","-1.0019531","-0.15136719","-9.21875","13.59375","-4.53125"
"1574260706659","1055","-0.12597656","-0.984375","-0.15820312","0.15625","11.15625","-3.96875"
"1574260706659","1056","-0.07519531","-0.99609375","-0.12207031","1.625","5.21875","-1.25"
"1574260706661","1057","-0.09765625","-0.9892578","-0.15527344","0.28125","2.0","0.90625"
"1574260706661","1058","-0.1171875","-1.0087891","-0.16796875","-2.34375","4.5","0.28125"
"1574260706662","1059","-0.109375","-0.98828125","-0.15527344","-0.5625","4.75","1.375"
"1574260707054","1060","-0.09667969","-0.9941406","-0.14746094","2.3125","4.0","0.09375"
"1574260707055","1061","-0.10644531","-0.99316406","-0.13867188","1.75","1.875","-1.65625"
"1574260707055","1062","-0.10253906","-0.9980469","-0.13964844","5.125","0.28125","-4.09375"
"1574260707055","1063","-0.12011719","-0.99121094","-0.13085938","6.03125","1.15625","-5.625"
"1574260707055","1064","-0.072265625","-1.0039062","-0.11425781","5.84375","-2.34375","-2.53125"
"1574260707056","1065","-0.09863281","-0.99316406","-0.13378906","0.15625","-6.84375","0.34375"
"1574260707056","1066","-0.119140625","-1.0048828","-0.10253906","-6.3125","1.375","0.34375"
"1574260707056","1067","-0.10058594","-1.0029297","-0.15039062","-1.3125","0.21875","1.3125"
"1574260707057","1068","-0.1171875","-0.98828125","-0.12890625","-0.375","-0.8125","2.65625"
"1574260707057","1069","-0.103515625","-0.98828125","-0.11328125","-3.6875","-0.4375","2.25"
"1574260707454","1070","-0.13574219","-1.0009766","-0.14160156","0.53125","0.28125","1.625"
"1574260707455","1071","-0.099609375","-1.0097656","-0.14160156","2.1875","1.8125","2.0"
"1574260707455","1072","-0.11230469","-0.99609375","-0.15429688","-0.6875","0.59375","-0.25"
"1574260707455","1073","-0.10253906","-0.99902344","-0.115234375","-0.9375","5.71875","-0.8125"
"1574260707456","1074","-0.10058594","-0.9892578","-0.12890625","0.84375","-2.53125","1.5"
"1574260707456","1075","-0.13378906","-1.0175781","-0.12109375","1.4375","-0.8125","1.8125"
"1574260707456","1076","-0.125","-0.98046875","-0.125","-0.4375","-1.46875","1.3125"
"1574260707456","1077","-0.1328125","-0.98828125","-0.1328125","-0.8125","0.46875","0.78125"
"1574260707457","1078","-0.11328125","-1.0195312","-0.115234375","2.96875","-5.5","4.0"
"1574260707457","1079","-0.14648438","-0.9746094","-0.11816406","-3.1875","-4.78125","1.3125"
"1574260707851","1080","-0.10546875","-0.9794922","-0.123046875","1.5625","-1.125","2.78125"
"1574260707853","1081","-0.16015625","-1.0195312","-0.12597656","3.9375","-10.34375","2.375"
"1574260707853","1082","-0.12011719","-0.96972656","-0.11230469","-1.96875","-7.59375","4.1875"
"1574260707853","1083","-0.125","-1.0","-0.115234375","-1.46875","-10.625","3.21875"
"1574260707854","1084","-0.16308594","-1.0117188","-0.111328125","-0.9375","-8.5625","1.5"
"1574260707854","1085","-0.111328125","-0.9902344","-0.123046875","0.21875","-7.71875","1.75"
"1574260707854","1086","-0.13769531","-1.0136719","-0.12597656","-2.46875","-10.21875","0.03125"
"1574260707855","1087","-0.14648438","-1.0","-0.09863281","-7.65625","0.15625","-2.53125"
"1574260707855","1088","-0.11816406","-0.984375","-0.119140625","-9.21875","0.71875","-2.53125"
"1574260707855","1089","-0.171875","-1.0058594","-0.119140625","-7.03125","-1.34375","-2.28125"
"1574260708446","1090","-0.19824219","-0.9863281","-0.12988281","-0.25","5.71875","-3.75"
"1574260708446","1091","-0.1328125","-0.9921875","-0.123046875","-1.84375","12.8125","-3.4375"
"1574260708447","1092","-0.12890625","-1.0009766","-0.11230469","-1.90625","14.5625","-3.25"
"1574260708448","1093","-0.13574219","-1.0009766","-0.1328125","2.0625","12.0625","-1.59375"
"1574260708448","1094","-0.11816406","-0.9980469","-0.15039062","8.90625","12.75","-2.15625"
"1574260708449","1095","-0.11816406","-1.0205078","-0.1328125","9.03125","17.625","-5.5"
"1574260708449","1096","-0.12402344","-0.9873047","-0.12597656","6.03125","18.1875","-6.59375"
"1574260708449","1097","-0.10449219","-0.98828125","-0.12792969","-6.71875","15.90625","-1.34375"
"1574260708449","1098","-0.107421875","-1.0214844","-0.09277344","-6.25","15.625","-0.8125"
"1574260708450","1099","-0.09667969","-0.9951172","-0.09765625","-12.53125","9.3125","-0.3125"
"1574260708644","1100","-0.12890625","-0.9794922","-0.13378906","-13.1875","-2.59375","0.71875"
"1574260708645","1101","-0.1640625","-1.0009766","-0.14257812","-6.4375","-1.96875","-0.1875"
"1574260708645","1102","-0.15039062","-0.98046875","-0.14746094","-0.8125","1.75","-5.5625"
"1574260708645","1103","-0.15332031","-0.9970703","-0.115234375","2.25","5.0","-8.0625"
"1574260708645","1104","-0.11816406","-1.0039062","-0.13964844","2.65625","7.25","-6.71875"
"1574260708647","1105","-0.13183594","-1.0146484","-0.1171875","1.15625","8.28125","-5.25"
"1574260708647","1106","-0.123046875","-0.9794922","-0.11230469","-8.375","12.6875","-3.25"
"1574260708648","1107","-0.12109375","-0.99902344","-0.14355469","-6.25","11.09375","-0.875"
"1574260708648","1108","-0.119140625","-0.99902344","-0.13769531","-7.03125","8.96875","-1.40625"
"1574260708648","1109","-0.10058594","-1.0009766","-0.14257812","-4.53125","4.8125","-1.0"
"1574260709044","1110","-0.091796875","-1.0009766","-0.13867188","0.0","4.75","-1.59375"
"1574260709044","1111","-0.107421875","-0.9941406","-0.14941406","2.25","4.125","-1.84375"
"1574260709044","1112","-0.0859375","-0.99902344","-0.15332031","-0.8125","2.71875","-2.09375"
"1574260709045","1113","-0.10058594","-1.0126953","-0.13574219","-3.0625","1.15625","-2.28125"
"1574260709045","1114","-0.10546875","-0.9824219","-0.15527344","-2.6875","-0.0625","-3.125"
"1574260709045","1115","-0.103515625","-0.9863281","-0.13867188","-5.5","4.125","-2.59375"
"1574260709046","1116","-0.080078125","-1.0107422","-0.16308594","-7.46875","5.28125","-0.5625"
"1574260709046","1117","-0.09765625","-1.0029297","-0.1640625","-5.4375","-2.59375","-0.25"
"1574260709046","1118","-0.09765625","-0.9941406","-0.14453125","-10.03125","-3.0625","-0.75"
"1574260709048","1119","-0.12109375","-0.96972656","-0.17089844","-8.9375","-4.96875","-1.34375"
"1574260709441","1120","-0.171875","-0.9863281","-0.17675781","-2.46875","0.0","-4.71875"
"1574260709441","1121","-0.115234375","-0.9863281","-0.18359375","5.40625","9.9375","-8.625"
"1574260709441","1122","-0.030273438","-1.0097656","-0.18261719","4.0625","11.9375","-3.5625"
"1574260709442","1123","-0.055664062","-1.0175781","-0.17675781","-2.9375","6.5","1.75"
"1574260709442","1124","-0.095703125","-0.96972656","-0.16015625","-5.8125","0.40625","6.6875"
"1574260709442","1125","-0.12109375","-1.0039062","-0.14941406","-4.28125","-0.3125","5.78125"
"1574260709442","1126","-0.10253906","-0.97753906","-0.18164062","-0.0625","-1.96875","-0.75"
"1574260709443","1127","-0.12109375","-0.98535156","-0.17382812","1.8125","5.34375","-7.9375"
"1574260709443","1128","-0.055664062","-0.9863281","-0.17578125","3.53125","7.25","-5.3125"
"1574260709444","1129","-0.111328125","-1.0244141","-0.17773438","5.21875","6.6875","-0.9375"
"1574260709838","1130","-0.068359375","-0.97558594","-0.16210938","3.03125","8.71875","3.78125"
"1574260709838","1131","-0.13574219","-1.0185547","-0.16503906","11.15625","0.53125","2.4375"
"1574260709838","1132","-0.14160156","-1.0078125","-0.16894531","13.09375","-6.0","-0.625"
"1574260709839","1133","-0.08300781","-0.9277344","-0.11816406","3.46875","6.15625","-3.4375"
"1574260709839","1134","-0.029296875","-1.0039062","-0.13964844","14.375","10.46875","4.75"
"1574260709839","1135","-0.109375","-1.0195312","-0.16796875","10.25","8.84375","7.375"
"1574260709839","1136","-0.13378906","-1.0302734","-0.09667969","8.46875","2.5","1.6875"
"1574260709840","1137","-0.09375","-0.97265625","-0.09277344","3.9375","-0.9375","0.03125"
"1574260709840","1138","-0.037109375","-1.0166016","-0.14355469","-0.625","-7.8125","6.6875"
"1574260709840","1139","-0.109375","-0.95410156","-0.12890625","-12.59375","7.96875","3.53125"
"1574260710234","1140","-0.171875","-1.0185547","-0.13476562","-1.46875","13.46875","-2.53125"
"1574260710235","1141","-0.1328125","-1.0019531","-0.111328125","-6.0625","5.34375","-5.8125"
"1574260710235","1142","-0.09667969","-1.0273438","-0.15917969","-0.1875","-11.125","-0.25"
"1574260710236","1143","-0.10449219","-0.9609375","-0.125","0.59375","-5.03125","2.5"
"1574260710236","1144","-0.13476562","-0.9921875","-0.12207031","-6.375","9.09375","-1.125"
"1574260710236","1145","-0.15820312","-1.0136719","-0.1015625","-9.90625","16.21875","-4.40625"
"1574260710236","1146","-0.10546875","-0.98339844","-0.123046875","-8.3125","6.15625","-3.75"
"1574260710237","1147","-0.047851562","-1.0429688","-0.17285156","-3.0","-11.4375","3.46875"
"1574260710237","1148","-0.111328125","-0.9814453","-0.12890625","-10.75","-0.9375","3.21875"
"1574260710237","1149","-0.11621094","-0.9628906","-0.1484375","-11.4375","2.5","0.40625"
"1574260711028","1150","-0.19628906","-1.0","-0.16015625","1.5625","-2.75","-8.3125"
"1574260711029","1151","-0.076171875","-1.0117188","-0.13769531","-2.34375","-0.875","-1.53125"
"1574260711029","1152","-0.06347656","-1.0537109","-0.14257812","-1.3125","-10.8125","0.53125"
"1574260711030","1153","-0.16894531","-0.9580078","-0.14941406","-13.375","-9.0","4.1875"
"1574260711031","1154","-0.171875","-0.9814453","-0.16992188","8.09375","-2.28125","-0.625"
"1574260711031","1155","-0.09375","-0.96875","-0.11816406","-3.75","2.0625","2.375"
"1574260711032","1156","-0.061523438","-1.0175781","-0.1875","-7.65625","-5.875","4.5625"
"1574260711032","1157","-0.123046875","-1.0087891","-0.17773438","3.53125","-10.75","4.75"
"1574260711033","1158","-0.14550781","-0.9892578","-0.1328125","1.9375","-15.09375","0.34375"
"1574260711033","1159","-0.171875","-1.0019531","-0.11328125","6.09375","0.71875","-5.6875"
"1574260711226","1160","-0.140625","-0.95703125","-0.08300781","-16.8125","7.5","-8.5"
"1574260711227","1161","-0.11035156","-1.0058594","-0.21679688","-15.6875","-12.65625","-4.34375"
"1574260711227","1162","-0.056640625","-1.0283203","-0.22363281","0.90625","-11.625","-1.3125"
"1574260711227","1163","-0.1328125","-0.9667969","-0.171875","-5.3125","-6.65625","-4.71875"
"1574260711227","1164","-0.13476562","-1.0078125","-0.14160156","-3.1875","-1.125","-6.0625"
"1574260711229","1165","-0.171875","-0.96875","-0.1796875","-3.5","-0.1875","-11.78125"
"1574260711229","1166","-0.12695312","-1.0048828","-0.16015625","6.03125","7.25","-8.4375"
"1574260711229","1167","-0.12890625","-0.97558594","-0.15234375","-5.21875","9.75","-7.59375"
"1574260711229","1168","-0.044921875","-1.0410156","-0.19921875","4.75","3.65625","-0.375"
"1574260711230","1169","-0.15527344","-0.94433594","-0.16308594","2.375","5.78125","-0.875"
"1574260711428","1170","-0.056640625","-1.0693359","-0.111328125","9.125","37.09375","1.15625"
"1574260711428","1171","-0.17773438","-0.9511719","-0.140625","-13.3125","14.6875","-5.8125"
"1574260711428","1172","-0.01171875","-1.0185547","-0.24902344","-5.625","-12.46875","-1.65625"
"1574260711429","1173","-0.064453125","-1.0341797","-0.18457031","0.84375","-6.0","6.21875"
"1574260711429","1174","-0.12597656","-0.9199219","-0.15722656","-7.59375","-4.21875","-0.375"
"1574260711429","1175","-0.16015625","-0.9921875","-0.1875","11.21875","-0.375","-0.875"
"1574260711429","1176","-0.041992188","-1.0146484","-0.15429688","8.28125","0.34375","0.40625"
"1574260711431","1177","-0.13574219","-0.9824219","-0.1015625","-4.53125","2.4375","-3.5625"
"1574260711432","1178","-0.087890625","-0.9970703","-0.16699219","5.0625","-5.15625","-2.03125"
"1574260711432","1179","-0.14160156","-0.99609375","-0.17089844","-1.1875","-2.09375","-2.9375"
"1574260711826","1180","-0.11035156","-1.0136719","-0.13476562","-0.75","3.59375","-1.125"
"1574260711826","1181","-0.13085938","-0.9628906","-0.12597656","-1.46875","6.625","-2.625"
"1574260711826","1182","-0.09472656","-1.0058594","-0.17773438","-3.6875","9.09375","-0.875"
"1574260711827","1183","-0.087890625","-0.99609375","-0.13574219","-2.03125","8.15625","1.15625"
"1574260711827","1184","-0.111328125","-0.9902344","-0.1484375","3.21875","0.28125","0.34375"
"1574260711827","1185","-0.09667969","-0.98828125","-0.14550781","-3.25","7.75","-2.09375"
"1574260711827","1186","-0.09472656","-1.0117188","-0.16894531","0.09375","3.90625","-2.28125"
"1574260711828","1187","-0.10839844","-0.9863281","-0.13378906","-0.125","3.9375","-3.125"
"1574260711828","1188","-0.08105469","-1.0019531","-0.1640625","-2.625","3.34375","-1.84375"
"1574260711829","1189","-0.10253906","-0.98339844","-0.16699219","-2.34375","3.15625","-1.78125"
"1574260712420","1190","-0.1015625","-0.9794922","-0.16796875","4.25","2.78125","-6.0625"
"1574260712421","1191","-0.10253906","-1.0068359","-0.13476562","3.65625","2.125","-4.65625"
"1574260712421","1192","-0.057617188","-0.99609375","-0.13769531","3.15625","-1.78125","-1.0625"
"1574260712421","1193","-0.06542969","-1.0185547","-0.12890625","-0.625","-3.375","0.78125"
"1574260712421","1194","-0.078125","-1.0361328","-0.13671875","-5.5","-4.78125","2.0"
"1574260712422","1195","-0.08691406","-0.9824219","-0.14941406","-6.78125","-6.84375","0.90625"
"1574260712422","1196","-0.1171875","-0.9980469","-0.13867188","-8.1875","-6.125","-1.46875"
"1574260712422","1197","-0.08203125","-0.9785156","-0.17480469","-6.78125","-2.03125","0.09375"
"1574260712423","1198","-0.107421875","-1.0009766","-0.17480469","3.03125","-2.40625","2.84375"
"1574260712423","1199","-0.087890625","-0.99902344","-0.17382812","1.28125","-2.34375","5.21875"
"1574260712619","1200","-0.06933594","-0.9921875","-0.17285156","1.625","-3.25","5.59375"
"1574260712620","1201","-0.14453125","-0.9951172","-0.13964844","0.96875","-4.53125","3.78125"
"1574260712621","1202","-0.09082031","-0.9482422","-0.1640625","-1.65625","0.03125","5.78125"
"1574260712621","1203","-0.107421875","-1.0029297","-0.15527344","2.5","-1.40625","5.21875"
"1574260712621","1204","-0.13378906","-1.0351562","-0.14550781","3.21875","0.28125","2.0625"
"1574260712622","1205","-0.0625","-0.9902344","-0.14355469","1.03125","-1.84375","2.0"
"1574260712622","1206","-0.12597656","-1.0039062","-0.13867188","-5.03125","-3.75","-1.0625"
"1574260712622","1207","-0.11328125","-0.99316406","-0.14160156","-2.9375","-8.5625","-0.6875"
"1574260712622","1208","-0.16210938","-0.9716797","-0.15136719","-4.03125","-6.84375","-5.8125"
"1574260712623","1209","-0.15429688","-1.0039062","-0.15820312","-0.8125","0.0","-8.1875"
"1574260713215","1210","-0.09765625","-0.98828125","-0.15820312","-2.59375","1.375","-5.4375"
"1574260713215","1211","-0.09667969","-1.0302734","-0.16601562","-3.25","3.59375","-2.15625"
"1574260713216","1212","-0.12011719","-1.0058594","-0.16113281","-4.09375","3.03125","-0.625"
"1574260713216","1213","-0.13867188","-0.97265625","-0.16992188","-1.0625","6.9375","-0.5625"
"1574260713217","1214","-0.13574219","-0.9667969","-0.14550781","5.21875","19.40625","-1.65625"
"1574260713217","1215","-0.1328125","-1.0117188","-0.13769531","2.5625","13.71875","2.65625"
"1574260713218","1216","-0.12792969","-1.0058594","-0.15917969","1.4375","11.28125","0.53125"
"1574260713218","1217","-0.06738281","-1.0136719","-0.13378906","-2.21875","11.65625","3.09375"
"1574260713218","1218","-0.103515625","-0.99609375","-0.14160156","-9.0","4.75","3.09375"
"1574260713218","1219","-0.12011719","-0.95996094","-0.13964844","-6.71875","1.6875","2.4375"
"1574260713812","1220","-0.14257812","-1.0126953","-0.16992188","5.46875","-2.625","1.03125"
"1574260713813","1221","-0.18066406","-0.9814453","-0.11816406","-1.71875","0.28125","-2.6875"
"1574260713813","1222","-0.12109375","-0.97265625","-0.140625","3.71875","3.21875","-1.84375"
"1574260713813","1223","-0.103515625","-1.0117188","-0.14648438","1.8125","4.6875","-1.0"
"1574260713814","1224","-0.140625","-1.0244141","-0.14453125","-5.09375","-0.8125","-3.8125"
"1574260713815","1225","-0.13769531","-0.97558594","-0.15332031","4.875","3.40625","-2.9375"
"1574260713816","1226","-0.12597656","-0.9941406","-0.12597656","3.59375","7.625","-1.40625"
"1574260713816","1227","-0.14746094","-0.9892578","-0.11621094","-4.90625","10.0","0.34375"
"1574260713817","1228","-0.13378906","-0.9892578","-0.12402344","-7.21875","13.09375","2.375"
"1574260713817","1229","-0.11816406","-1.0039062","-0.171875","-2.21875","7.84375","0.34375"
"1574260714010","1230","-0.1171875","-0.99902344","-0.13378906","-9.28125","6.875","-1.46875"
"1574260714010","1231","-0.09375","-1.0107422","-0.15722656","-12.53125","4.875","-1.53125"
"1574260714011","1232","-0.115234375","-0.9921875","-0.15722656","-8.125","0.34375","-2.53125"
"1574260714011","1233","-0.125","-0.9560547","-0.15039062","-7.40625","7.1875","-3.96875"
"1574260714011","1234","-0.123046875","-0.9892578","-0.20507812","-1.40625","8.78125","-1.65625"
"1574260714011","1235","-0.1171875","-1.0009766","-0.20214844","0.34375","3.40625","-0.5"
"1574260714012","1236","-0.12109375","-0.9980469","-0.16503906","-2.59375","5.28125","-0.125"
"1574260714013","1237","-0.11621094","-0.9892578","-0.15917969","-1.46875","6.15625","1.03125"
"1574260714013","1238","-0.12890625","-0.9902344","-0.18554688","2.5625","3.21875","-0.5625"
"1574260714014","1239","-0.13671875","-0.9921875","-0.19140625","9.6875","0.71875","-2.34375"
"1574260714209","1240","-0.14257812","-0.9785156","-0.15332031","8.71875","9.25","-5.6875"
"1574260714210","1241","-0.059570312","-1.0214844","-0.13769531","0.21875","17.75","-0.4375"
"1574260714210","1242","-0.056640625","-1.0224609","-0.15039062","-14.59375","2.90625","0.65625"
"1574260714210","1243","-0.13769531","-0.98046875","-0.17675781","-3.125","-1.84375","2.375"
"1574260714211","1244","-0.1484375","-0.984375","-0.19335938","7.4375","-4.84375","0.15625"
"1574260714211","1245","-0.13183594","-0.9902344","-0.14941406","5.78125","1.4375","-1.71875"
"1574260714211","1246","-0.1015625","-1.0019531","-0.15429688","3.34375","2.65625","-0.8125"
"1574260714211","1247","-0.103515625","-1.0019531","-0.17285156","2.96875","3.59375","-3.4375"
"1574260714212","1248","-0.09082031","-1.0078125","-0.16894531","3.34375","5.40625","-1.65625"
"1574260714213","1249","-0.09765625","-0.9941406","-0.14941406","-3.90625","-0.0625","-2.34375"
"1574260714607","1250","-0.09375","-1.0107422","-0.15820312","-1.78125","1.6875","-0.4375"
"1574260714608","1251","-0.11425781","-0.97265625","-0.16796875","-5.5","1.9375","-3.125"
"1574260714608","1252","-0.1015625","-1.0","-0.16601562","2.125","1.5","-1.90625"
"1574260714608","1253","-0.115234375","-0.98046875","-0.14648438","-5.3125","3.9375","-4.71875"
"1574260714608","1254","-0.095703125","-1.0009766","-0.18164062","1.5","1.75","-2.40625"
"1574260714609","1255","-0.10449219","-0.9941406","-0.14941406","1.09375","1.3125","-2.625"
"1574260714609","1256","-0.0859375","-0.9951172","-0.16015625","-1.0","3.28125","-0.75"
"1574260714609","1257","-0.095703125","-0.9951172","-0.14550781","-3.375","-0.0625","-0.6875"
"1574260714609","1258","-0.091796875","-0.9902344","-0.15722656","-2.15625","-0.8125","0.09375"
"1574260714610","1259","-0.09863281","-0.9863281","-0.16015625","-0.1875","-1.78125","-0.6875"
"1574260715005","1260","-0.10058594","-0.9921875","-0.16796875","2.5","-3.875","-0.5"
"1574260715007","1261","-0.10253906","-0.99121094","-0.15917969","-0.875","-2.875","-1.125"
"1574260715007","1262","-0.09667969","-0.9951172","-0.1640625","-1.0","-0.9375","0.96875"
"1574260715008","1263","-0.078125","-1.0048828","-0.16992188","-3.1875","3.46875","2.5625"
"1574260715008","1264","-0.10253906","-1.0029297","-0.17773438","-4.09375","-7.09375","1.5"
"1574260715008","1265","-0.10644531","-0.98828125","-0.14941406","-2.6875","-9.71875","1.3125"
"1574260715009","1266","-0.15039062","-1.0078125","-0.1484375","2.3125","-9.90625","-3.8125"
"1574260715009","1267","-0.1328125","-0.98046875","-0.15820312","5.40625","-4.28125","-5.375"
"1574260715009","1268","-0.13769531","-0.99609375","-0.14453125","-2.8125","5.59375","-1.40625"
"1574260715010","1269","-0.11230469","-1.0283203","-0.17089844","1.375","2.5","1.5"
"1574260715404","1270","-0.091796875","-1.0029297","-0.11425781","-13.5625","-0.4375","0.0"
"1574260715405","1271","-0.10058594","-0.98339844","-0.203125","1.9375","-6.0625","0.78125"
"1574260715405","1272","-0.16894531","-1.015625","-0.13574219","3.53125","11.8125","-1.71875"
"1574260715406","1273","-0.15039062","-0.9638672","-0.1171875","-3.1875","15.25","-6.375"
"1574260715407","1274","-0.046875","-1.0341797","-0.15625","0.0","-1.34375","-1.46875"
"1574260715407","1275","-0.09277344","-1.0107422","-0.21386719","2.25","-10.34375","-2.59375"
"1574260715407","1276","-0.080078125","-0.9765625","-0.15429688","0.21875","-1.0","-3.75"
"1574260715407","1277","-0.20605469","-0.94921875","-0.11035156","-4.40625","5.28125","-8.3125"
"1574260715408","1278","-0.060546875","-1.0019531","-0.15234375","4.8125","7.375","1.09375"
"1574260715408","1279","-0.08300781","-1.0019531","-0.16308594","-2.75","0.71875","-0.125"
"1574260715800","1280","-0.060546875","-1.0126953","-0.15039062","0.96875","5.59375","2.375"
"1574260715800","1281","-0.15234375","-0.96875","-0.13085938","-10.6875","7.75","0.84375"
"1574260715800","1282","-0.11035156","-1.0097656","-0.16015625","-5.09375","6.875","-1.84375"
"1574260715801","1283","-0.08691406","-0.98535156","-0.16699219","0.15625","4.5625","-1.25"
"1574260715801","1284","-0.059570312","-0.9921875","-0.17675781","7.0","7.375","3.34375"
"1574260715802","1285","-0.13964844","-1.0224609","-0.15429688","-0.4375","10.78125","4.1875"
"1574260715803","1286","-0.10546875","-0.9794922","-0.15234375","13.40625","4.4375","-0.5625"
"1574260715803","1287","-0.15820312","-0.96777344","-0.1171875","19.46875","2.3125","0.28125"
"1574260715803","1288","-0.049804688","-1.0175781","-0.10839844","11.75","-1.65625","9.125"
"1574260715803","1289","-0.18847656","-1.0087891","-0.099609375","-7.34375","-3.5625","4.6875"
"1574260716198","1290","-0.13183594","-0.98339844","-0.095703125","0.09375","1.03125","2.65625"
"1574260716198","1291","-0.12988281","-0.97265625","-0.13085938","-6.65625","-1.53125","3.90625"
"1574260716199","1292","-0.09472656","-1.0039062","-0.16210938","-6.5","3.53125","2.3125"
"1574260716199","1293","-0.16699219","-1.0166016","-0.15332031","-1.34375","-4.65625","0.71875"
"1574260716199","1294","-0.09277344","-1.0039062","-0.10449219","-3.90625","-2.46875","2.125"
"1574260716199","1295","-0.16601562","-0.96191406","-0.13671875","-6.78125","-5.25","0.09375"
"1574260716200","1296","-0.15429688","-1.0","-0.16308594","4.875","3.34375","-4.53125"
"1574260716201","1297","-0.12109375","-1.0058594","-0.14355469","-0.75","2.59375","-2.40625"
"1574260716201","1298","-0.109375","-1.0146484","-0.13867188","-3.75","4.25","0.21875"
"1574260716201","1299","-0.12792969","-0.9921875","-0.1484375","-8.75","-6.25","2.65625"
"1574260716600","1300","-0.13964844","-1.0019531","-0.15917969","-0.6875","-0.3125","1.625"
