"# PR data"
"# Start time: 20191120T144100"
"# Subject: aggie"
"# Activity type: Wall push offs"
"# Correctness: Incorrect"
"# Notes: "
""
"timestamp","seq","accel_x","accel_y","accel_z","gyro_x","gyro_y","gyro_z"
"1574260860290","0","-0.09765625","-1.0048828","-0.08300781","-8.75","7.3125","2.90625"
"1574260860290","1","-0.10839844","-0.9404297","-0.076171875","-4.96875","5.71875","0.34375"
"1574260860290","2","-0.15332031","-1.0488281","-0.046875","-8.5625","11.65625","-3.8125"
"1574260860291","3","-0.19238281","-1.0761719","-0.049804688","-14.40625","17.0","-14.1875"
"1574260860291","4","-0.14746094","-1.0136719","-0.024414062","-29.25","11.75","-12.96875"
"1574260860291","5","-0.05859375","-0.96875","-0.1484375","-29.5625","-6.59375","-5.9375"
"1574260860291","6","-0.02734375","-1.0087891","-0.20507812","-29.3125","-17.15625","1.6875"
"1574260860292","7","-0.13671875","-0.9042969","-0.14453125","-0.3125","-11.78125","1.09375"
"1574260860292","8","-0.19238281","-0.94921875","-0.1484375","0.21875","-2.15625","-5.03125"
"1574260860292","9","-0.16113281","-0.9814453","-0.21582031","9.25","8.71875","-7.28125"
"1574260860490","10","-0.08203125","-0.9746094","-0.14746094","10.84375","12.25","0.53125"
"1574260860490","11","-0.043945312","-1.0146484","-0.15917969","3.03125","4.375","-0.375"
"1574260860490","12","-0.08496094","-1.0371094","-0.20117188","-0.5","8.15625","-0.625"
"1574260860491","13","-0.14550781","-1.0205078","-0.24511719","-8.8125","10.96875","0.71875"
"1574260860491","14","-0.12597656","-0.9501953","-0.18359375","-7.03125","12.1875","0.84375"
"1574260860492","15","-0.11621094","-0.9638672","-0.16503906","-1.34375","9.5","-1.1875"
"1574260860492","16","-0.140625","-0.9824219","-0.1953125","3.03125","11.15625","0.53125"
"1574260860492","17","-0.087890625","-1.0283203","-0.16503906","0.46875","10.375","1.5"
"1574260860492","18","-0.15722656","-0.9824219","-0.16015625","3.21875","0.71875","-0.625"
"1574260860493","19","-0.10253906","-1.0019531","-0.16308594","0.03125","4.0","1.75"
"1574260861085","20","-0.125","-0.97753906","-0.15820312","-0.375","10.78125","2.125"
"1574260861085","21","-0.1015625","-0.9873047","-0.171875","-2.9375","8.96875","2.25"
"1574260861085","22","-0.09472656","-1.0097656","-0.17089844","0.84375","4.0625","2.0625"
"1574260861086","23","-0.12890625","-0.9921875","-0.13769531","1.09375","0.90625","0.90625"
"1574260861086","24","-0.14355469","-0.97753906","-0.15234375","4.6875","1.03125","-1.71875"
"1574260861087","25","-0.107421875","-0.9921875","-0.15625","4.25","3.40625","-1.46875"
"1574260861087","26","-0.087890625","-1.0029297","-0.12792969","0.65625","2.65625","-1.78125"
"1574260861088","27","-0.12402344","-1.0126953","-0.10644531","-1.65625","-2.8125","-2.625"
"1574260861088","28","-0.12109375","-0.99609375","-0.109375","-2.21875","-5.9375","-2.875"
"1574260861088","29","-0.12695312","-0.98046875","-0.13574219","-1.3125","-2.59375","-1.90625"
"1574260861681","30","-0.12109375","-0.984375","-0.15039062","1.15625","-1.0","-0.5625"
"1574260861681","31","-0.099609375","-1.0029297","-0.14746094","5.53125","0.96875","1.625"
"1574260861682","32","-0.111328125","-0.9970703","-0.12402344","2.0625","0.84375","2.1875"
"1574260861682","33","-0.11230469","-0.9824219","-0.11035156","8.09375","-1.3125","3.59375"
"1574260861682","34","-0.13867188","-1.0039062","-0.119140625","7.84375","-4.71875","2.5"
"1574260861682","35","-0.13183594","-1.0166016","-0.13476562","6.75","-1.40625","1.3125"
"1574260861683","36","-0.109375","-0.9970703","-0.12207031","6.75","-0.75","1.4375"
"1574260861684","37","-0.115234375","-0.9794922","-0.11621094","2.84375","0.34375","-1.0625"
"1574260861684","38","-0.11328125","-1.0166016","-0.11035156","2.84375","0.09375","0.28125"
"1574260861685","39","-0.12792969","-0.9951172","-0.08886719","-2.21875","2.71875","2.0"
"1574260861878","40","-0.20703125","-1.0058594","-0.078125","-1.1875","-1.1875","0.34375"
"1574260861878","41","-0.14550781","-0.99902344","-0.091796875","-0.5","1.8125","1.03125"
"1574260861878","42","-0.15332031","-0.9863281","-0.10839844","-1.0","3.84375","0.65625"
"1574260861879","43","-0.14160156","-1.0","-0.09667969","-1.125","3.84375","-0.1875"
"1574260861879","44","-0.16503906","-1.0","-0.11816406","1.625","3.09375","-1.90625"
"1574260861879","45","-0.12597656","-1.0","-0.1171875","3.53125","4.75","-2.8125"
"1574260861879","46","-0.12109375","-0.99316406","-0.11035156","4.1875","6.6875","-2.59375"
"1574260861880","47","-0.12207031","-1.0058594","-0.11328125","2.71875","8.71875","-1.53125"
"1574260861880","48","-0.10449219","-0.99902344","-0.12207031","1.15625","7.5625","-0.9375"
"1574260861881","49","-0.13183594","-0.99609375","-0.09667969","-3.25","8.28125","-0.4375"
"1574260862080","50","-0.125","-1.0068359","-0.078125","-2.8125","6.5","0.65625"
"1574260862081","51","-0.13574219","-0.9873047","-0.115234375","-0.9375","2.375","-2.40625"
"1574260862081","52","-0.1328125","-1.0039062","-0.0859375","-2.6875","4.0","-1.96875"
"1574260862081","53","-0.13867188","-0.9951172","-0.09667969","-3.25","4.5","-3.3125"
"1574260862081","54","-0.13476562","-0.9980469","-0.083984375","0.09375","3.78125","-0.9375"
"1574260862082","55","-0.12988281","-0.9824219","-0.0859375","-2.875","1.9375","0.0"
"1574260862082","56","-0.125","-1.0","-0.09472656","-1.25","3.46875","0.65625"
"1574260862082","57","-0.140625","-0.99609375","-0.08984375","0.0","5.78125","0.40625"
"1574260862082","58","-0.140625","-0.9794922","-0.09667969","1.21875","4.375","0.90625"
"1574260862083","59","-0.140625","-0.9921875","-0.09667969","5.40625","5.90625","1.15625"
"1574260862873","60","-0.1328125","-0.9980469","-0.08691406","3.90625","7.25","2.125"
"1574260862875","61","-0.140625","-0.99609375","-0.083984375","2.25","6.09375","2.0"
"1574260862876","62","-0.13964844","-1.0019531","-0.07421875","1.3125","6.15625","3.46875"
"1574260862876","63","-0.14453125","-0.99902344","-0.07714844","0.09375","5.125","2.0625"
"1574260862876","64","-0.15234375","-0.9951172","-0.08300781","-1.0625","2.125","2.71875"
"1574260862877","65","-0.15722656","-0.9814453","-0.08886719","-2.46875","2.78125","-0.125"
"1574260862877","66","-0.16113281","-1.0087891","-0.087890625","3.34375","1.15625","2.125"
"1574260862877","67","-0.14160156","-0.99121094","-0.0859375","-2.03125","4.0","1.03125"
"1574260862877","68","-0.1640625","-0.99609375","-0.0859375","1.21875","1.4375","1.375"
"1574260862878","69","-0.16894531","-0.98828125","-0.07324219","0.40625","1.875","2.65625"
"1574260863270","70","-0.15332031","-1.0009766","-0.08203125","0.78125","4.3125","3.21875"
"1574260863271","71","-0.14648438","-0.9921875","-0.0859375","1.3125","2.375","4.125"
"1574260863271","72","-0.17285156","-0.98535156","-0.0703125","-0.1875","3.84375","3.59375"
"1574260863272","73","-0.16601562","-0.9970703","-0.080078125","-0.0625","2.3125","2.96875"
"1574260863273","74","-0.17089844","-0.98828125","-0.080078125","2.1875","0.15625","2.65625"
"1574260863273","75","-0.17480469","-0.9921875","-0.072265625","2.0","-1.0625","2.3125"
"1574260863273","76","-0.18164062","-0.9824219","-0.07324219","2.4375","0.09375","1.09375"
"1574260863274","77","-0.17480469","-0.9902344","-0.06640625","2.84375","1.09375","2.0"
"1574260863274","78","-0.16992188","-0.9980469","-0.07128906","2.0625","-0.375","1.375"
"1574260863274","79","-0.16601562","-0.9902344","-0.06738281","1.03125","0.03125","4.125"
"1574260863471","80","-0.19042969","-0.9794922","-0.0625","-0.375","0.15625","1.3125"
"1574260863471","81","-0.19140625","-1.0078125","-0.06542969","4.625","-2.28125","3.03125"
"1574260863472","82","-0.17675781","-0.97558594","-0.048828125","-0.875","2.59375","2.84375"
"1574260863472","83","-0.20605469","-1.0039062","-0.057617188","3.34375","0.65625","1.5625"
"1574260863472","84","-0.18652344","-0.9824219","-0.044921875","2.0625","-2.28125","2.65625"
"1574260863474","85","-0.18652344","-0.9951172","-0.05078125","4.125","-4.15625","1.375"
"1574260863474","86","-0.19042969","-0.99121094","-0.038085938","3.84375","-4.15625","2.1875"
"1574260863474","87","-0.203125","-0.9824219","-0.036132812","4.0","-6.1875","2.5625"
"1574260863475","88","-0.19921875","-0.99902344","-0.033203125","1.15625","-2.6875","3.40625"
"1574260863475","89","-0.22070312","-0.9873047","-0.034179688","1.5","-1.46875","2.0"
"1574260863669","90","-0.21386719","-0.9941406","-0.0234375","0.46875","-0.4375","2.375"
"1574260863670","91","-0.21679688","-0.9794922","-0.017578125","0.59375","-0.25","1.4375"
"1574260863670","92","-0.2109375","-0.984375","-0.01953125","0.65625","1.75","2.65625"
"1574260863670","93","-0.20898438","-0.98046875","-0.0234375","1.03125","-0.25","2.0"
"1574260863670","94","-0.203125","-0.9794922","-0.0234375","1.5","-1.78125","3.34375"
"1574260863671","95","-0.21289062","-0.9863281","-0.020507812","0.59375","-2.9375","2.5625"
"1574260863671","96","-0.2109375","-0.9951172","-0.0087890625","1.9375","-1.65625","2.4375"
"1574260863672","97","-0.22265625","-0.9716797","-0.018554688","1.75","-2.875","0.46875"
"1574260863672","98","-0.21679688","-0.9941406","-0.018554688","2.96875","-4.40625","1.375"
"1574260863673","99","-0.20800781","-0.9873047","-0.005859375","-1.90625","-0.3125","1.75"
"1574260864068","100","-0.24609375","-0.98535156","-0.017578125","2.125","-2.875","0.78125"
"1574260864068","101","-0.2109375","-0.9746094","-0.0068359375","1.375","-2.75","1.5"
"1574260864069","102","-0.22363281","-0.9892578","-0.0126953125","2.0625","-1.34375","1.5625"
"1574260864069","103","-0.22070312","-0.9814453","-0.0146484375","3.15625","-4.15625","2.5625"
"1574260864069","104","-0.2265625","-0.9667969","9.765625E-4","3.9375","-2.8125","3.09375"
"1574260864069","105","-0.22949219","-0.9765625","0.001953125","1.6875","1.15625","2.5625"
"1574260864070","106","-0.23632812","-0.98339844","0.001953125","2.5625","3.21875","2.1875"
"1574260864070","107","-0.23339844","-0.9873047","0.0068359375","1.6875","4.1875","2.5"
"1574260864070","108","-0.24121094","-0.9814453","0.0126953125","-0.1875","5.84375","2.1875"
"1574260864071","109","-0.24804688","-0.97558594","0.0048828125","0.03125","6.34375","1.5625"
"1574260864470","110","-0.23730469","-0.9873047","0.00390625","1.03125","7.8125","1.75"
"1574260864470","111","-0.22949219","-0.9765625","0.0087890625","2.65625","6.28125","0.78125"
"1574260864470","112","-0.25195312","-0.96875","0.0087890625","4.0","4.875","0.90625"
"1574260864471","113","-0.24023438","-0.9746094","0.0029296875","5.40625","4.0625","1.375"
"1574260864471","114","-0.23339844","-0.9814453","0.009765625","4.5625","0.90625","2.0"
"1574260864471","115","-0.23339844","-0.9765625","0.020507812","2.4375","3.21875","3.59375"
"1574260864471","116","-0.24316406","-0.95703125","0.0107421875","2.78125","2.84375","1.3125"
"1574260864472","117","-0.28027344","-0.9716797","0.041992188","2.65625","-0.8125","0.65625"
"1574260864472","118","-0.24804688","-0.9785156","0.032226562","1.8125","-0.6875","1.375"
"1574260864472","119","-0.27246094","-0.9873047","0.03125","3.34375","-1.125","1.21875"
"1574260865259","120","-0.2578125","-0.95214844","0.036132812","-0.875","2.0","1.09375"
"1574260865260","121","-0.2763672","-0.9628906","0.036132812","-2.8125","7.96875","3.71875"
"1574260865260","122","-0.265625","-0.9580078","0.046875","4.4375","11.59375","3.53125"
"1574260865261","123","-0.28222656","-0.9482422","0.01953125","8.71875","11.9375","4.1875"
"1574260865261","124","-0.23730469","-0.9736328","0.038085938","7.25","10.1875","8.46875"
"1574260865262","125","-0.2783203","-0.9707031","0.06347656","5.90625","5.34375","7.625"
"1574260865262","126","-0.28125","-0.9667969","0.0546875","5.40625","2.125","5.78125"
"1574260865262","127","-0.28710938","-0.9589844","0.06542969","3.40625","0.84375","2.65625"
"1574260865263","128","-0.296875","-0.9482422","0.07128906","6.03125","0.40625","1.875"
"1574260865263","129","-0.29492188","-0.9628906","0.0703125","6.5625","1.5625","3.40625"
"1574260865457","130","-0.3173828","-0.9638672","0.06933594","4.1875","4.0","5.0"
"1574260865457","131","-0.2841797","-0.9511719","0.06640625","4.6875","5.0625","6.09375"
"1574260865458","132","-0.31933594","-0.95703125","0.08300781","2.375","3.59375","5.21875"
"1574260865458","133","-0.29882812","-0.96191406","0.0859375","0.09375","4.125","5.78125"
"1574260865458","134","-0.32910156","-0.9345703","0.07324219","1.8125","2.0","4.0625"
"1574260865458","135","-0.34277344","-0.95703125","0.10449219","2.125","2.4375","3.59375"
"1574260865459","136","-0.31054688","-0.9511719","0.07714844","2.0625","1.8125","3.71875"
"1574260865459","137","-0.3330078","-0.9296875","0.10449219","1.03125","2.5","3.09375"
"1574260865459","138","-0.3232422","-0.9423828","0.0859375","2.375","1.03125","4.125"
"1574260865460","139","-0.33496094","-0.9580078","0.076171875","3.46875","-0.375","3.21875"
"1574260866054","140","-0.35351562","-0.9482422","0.087890625","3.28125","-0.8125","2.5625"
"1574260866054","141","-0.3466797","-0.9394531","0.11230469","0.46875","4.0","3.40625"
"1574260866055","142","-0.33691406","-0.9453125","0.09472656","-0.5625","4.625","3.40625"
"1574260866055","143","-0.3408203","-0.94628906","0.111328125","-2.40625","5.40625","2.84375"
"1574260866055","144","-0.34960938","-0.93359375","0.107421875","-4.53125","6.875","1.6875"
"1574260866057","145","-0.33691406","-0.953125","0.09667969","-3.625","3.84375","0.09375"
"1574260866057","146","-0.34570312","-0.9423828","0.09082031","-3.4375","2.0","-1.0"
"1574260866058","147","-0.34277344","-0.9453125","0.087890625","-4.34375","2.90625","-1.84375"
"1574260866058","148","-0.3486328","-0.94433594","0.07421875","-3.5","-0.375","-3.0"
"1574260866058","149","-0.35546875","-0.9267578","0.080078125","-6.78125","1.9375","-2.53125"
"1574260866451","150","-0.3515625","-0.9394531","0.09472656","-4.46875","0.90625","-2.59375"
"1574260866451","151","-0.35742188","-0.9423828","0.07519531","-0.1875","4.5","-0.9375"
"1574260866452","152","-0.3095703","-0.9560547","0.0625","-8.5625","3.9375","-4.34375"
"1574260866453","153","-0.34277344","-0.9501953","0.055664062","-8.6875","0.59375","-5.375"
"1574260866453","154","-0.35253906","-0.9394531","0.06347656","-8.3125","-2.53125","-4.40625"
"1574260866454","155","-0.35546875","-0.93847656","0.080078125","-6.96875","-5.6875","-4.71875"
"1574260866454","156","-0.34472656","-0.9501953","0.076171875","-7.46875","-2.53125","-1.53125"
"1574260866454","157","-0.3701172","-0.9609375","0.06933594","-6.84375","-0.8125","-3.375"
"1574260866455","158","-0.34765625","-0.9404297","0.06347656","-6.53125","2.96875","-2.53125"
"1574260866455","159","-0.33789062","-0.94921875","0.061523438","-3.0625","5.0625","-1.0625"
"1574260866455","160","-0.34472656","-0.9472656","0.059570312","-1.59375","3.84375","-0.25"
"1574260866456","161","-0.33691406","-0.94433594","0.05859375","-0.6875","5.40625","-0.875"
"1574260866456","162","-0.328125","-0.9423828","0.0546875","1.5","4.9375","-0.625"
"1574260866456","163","-0.33691406","-0.953125","0.064453125","2.375","5.78125","-1.125"
"1574260866456","164","-0.32617188","-0.9550781","0.068359375","1.3125","2.84375","-1.59375"
"1574260866457","165","-0.32617188","-0.9658203","0.076171875","2.5","-0.5","-3.6875"
"1574260866457","166","-0.33691406","-0.9433594","0.07421875","3.03125","-2.59375","-4.21875"
"1574260866457","167","-0.34375","-0.93847656","0.06542969","1.15625","-2.15625","-5.5"
"1574260866457","168","-0.33398438","-0.953125","0.08300781","3.34375","-2.21875","-4.71875"
"1574260866458","169","-0.3154297","-0.94628906","0.068359375","-2.34375","0.34375","-5.15625"
"1574260866850","170","-0.2919922","-0.9707031","0.053710938","-1.0625","-3.0","-3.90625"
"1574260866851","171","-0.2841797","-0.94140625","0.06347656","-3.5","-6.0625","-3.875"
"1574260866851","172","-0.29101562","-0.9404297","0.05859375","-1.34375","-6.78125","-3.125"
"1574260866851","173","-0.30566406","-0.96191406","0.059570312","-1.34375","-6.90625","-4.78125"
"1574260866852","174","-0.2998047","-0.97265625","0.06542969","-2.40625","-5.5","-6.0625"
"1574260866852","175","-0.3173828","-0.9511719","0.056640625","-3.4375","-2.15625","-7.15625"
"1574260866852","176","-0.29492188","-0.96191406","0.060546875","-3.5","-1.71875","-5.5"
"1574260866852","177","-0.3232422","-0.9746094","0.068359375","-5.375","3.28125","-7.53125"
"1574260866853","178","-0.30078125","-0.9511719","0.051757812","-6.125","7.1875","-8.625"
"1574260866853","179","-0.27148438","-0.9707031","0.045898438","-5.3125","10.0","-7.34375"
"1574260867248","180","-0.2783203","-0.96191406","0.05078125","-2.9375","10.40625","-7.09375"
"1574260867250","181","-0.2734375","-0.96777344","0.048828125","0.15625","8.84375","-6.4375"
"1574260867250","182","-0.25976562","-0.9580078","0.053710938","-1.1875","8.96875","-5.8125"
"1574260867251","183","-0.2607422","-0.96777344","0.060546875","0.03125","8.03125","-5.625"
"1574260867251","184","-0.2421875","-0.9628906","0.041015625","3.21875","3.71875","-4.90625"
"1574260867251","185","-0.26464844","-0.97558594","0.051757812","-0.375","5.28125","-5.8125"
"1574260867251","186","-0.23242188","-0.9746094","0.045898438","-3.8125","5.0625","-5.09375"
"1574260867252","187","-0.26464844","-0.9511719","0.05859375","0.15625","1.4375","-4.59375"
"1574260867252","188","-0.24316406","-0.9638672","0.04296875","-0.4375","1.9375","-3.625"
"1574260867252","189","-0.2548828","-0.9814453","0.061523438","0.03125","5.0","-4.65625"
"1574260867844","190","-0.25195312","-0.96484375","0.06542969","-0.625","3.28125","-3.75"
"1574260867845","191","-0.24707031","-0.9736328","0.0546875","-1.96875","4.125","-4.40625"
"1574260867845","192","-0.2421875","-0.97265625","0.047851562","-3.5","4.125","-4.46875"
"1574260867847","193","-0.2607422","-0.97265625","0.055664062","-2.15625","3.9375","-3.90625"
"1574260867847","194","-0.24316406","-0.9736328","0.055664062","-2.625","2.59375","-3.875"
"1574260867847","195","-0.2421875","-0.9658203","0.0546875","-4.15625","5.84375","-3.75"
"1574260867848","196","-0.23730469","-0.97753906","0.047851562","-4.90625","6.40625","-2.75"
"1574260867848","197","-0.24707031","-0.98339844","0.047851562","-5.6875","7.75","-2.9375"
"1574260867848","198","-0.23242188","-0.96484375","0.025390625","-5.875","5.1875","-0.4375"
"1574260867848","199","-0.25878906","-0.9785156","0.026367188","-5.21875","6.40625","-1.53125"
"1574260868042","200","-0.24316406","-0.97265625","0.018554688","-0.9375","3.46875","-0.75"
"1574260868042","201","-0.2421875","-0.9609375","0.0126953125","-3.96875","4.5","-2.625"
"1574260868042","202","-0.23828125","-0.98828125","0.024414062","-0.875","5.0625","-2.6875"
"1574260868042","203","-0.24804688","-0.95996094","0.037109375","-2.21875","6.625","-2.875"
"1574260868043","204","-0.24511719","-0.96875","0.021484375","-4.59375","8.96875","-2.46875"
"1574260868044","205","-0.23632812","-0.9873047","0.013671875","-6.4375","11.65625","-3.1875"
"1574260868044","206","-0.21484375","-0.98046875","0.016601562","-6.84375","9.3125","-1.1875"
"1574260868044","207","-0.23046875","-0.9746094","0.013671875","-6.90625","7.1875","-2.28125"
"1574260868045","208","-0.23828125","-0.9814453","0.01953125","-6.4375","6.28125","-2.75"
"1574260868045","209","-0.23144531","-0.98535156","0.0068359375","-5.25","4.0","-3.8125"
"1574260868441","210","-0.20996094","-0.9716797","0.0","-7.59375","1.6875","-3.875"
"1574260868441","211","-0.20800781","-0.98339844","-0.017578125","-5.875","0.21875","-3.96875"
"1574260868442","212","-0.21972656","-0.98535156","-0.00390625","-7.03125","0.59375","-4.09375"
"1574260868442","213","-0.22753906","-0.98828125","-0.022460938","-7.09375","-2.625","-4.28125"
"1574260868442","214","-0.23632812","-0.96972656","-0.025390625","-8.8125","-0.4375","-5.03125"
"1574260868442","215","-0.20214844","-0.9873047","-0.040039062","-1.3125","-0.0625","-2.40625"
"1574260868443","216","-0.22070312","-0.9716797","-0.036132812","-3.375","1.28125","-3.375"
"1574260868444","217","-0.20214844","-0.98339844","-0.024414062","-5.3125","3.53125","-0.9375"
"1574260868445","218","-0.2109375","-0.98828125","-0.0234375","-1.96875","0.21875","-0.25"
"1574260868445","219","-0.23632812","-0.97753906","-0.022460938","-2.8125","0.40625","-2.6875"
"1574260869035","220","-0.22753906","-0.9824219","-0.037109375","-3.1875","3.71875","-1.59375"
"1574260869036","221","-0.22851562","-0.9941406","-0.022460938","-2.09375","6.21875","-2.03125"
"1574260869036","222","-0.19140625","-0.96875","-0.03515625","-4.03125","4.125","-2.46875"
"1574260869036","223","-0.20800781","-0.98339844","-0.040039062","-3.75","2.78125","-0.8125"
"1574260869036","224","-0.20800781","-0.9902344","-0.03125","-3.0","-0.375","0.28125"
"1574260869037","225","-0.22167969","-0.99121094","-0.03515625","-1.84375","-3.0","-1.53125"
"1574260869037","226","-0.21875","-0.97558594","-0.01953125","-2.9375","-1.65625","-3.125"
"1574260869037","227","-0.23046875","-0.9951172","-0.021484375","-2.8125","-4.09375","-5.6875"
"1574260869037","228","-0.22753906","-0.98339844","-0.021484375","-5.375","-2.53125","-6.5"
"1574260869038","229","-0.20214844","-1.0039062","-0.0234375","-6.90625","-3.375","-6.78125"
"1574260869432","230","-0.20605469","-0.96972656","-0.047851562","-3.90625","-2.34375","-5.375"
"1574260869432","231","-0.19335938","-0.9794922","-0.064453125","-6.0625","-2.53125","-3.875"
"1574260869432","232","-0.140625","-0.9609375","-0.07910156","-5.03125","3.34375","0.84375"
"1574260869433","233","-0.14648438","-0.98828125","-0.09765625","3.53125","-5.6875","6.5625"
"1574260869433","234","-0.171875","-0.9746094","-0.059570312","2.375","-3.625","4.0625"
"1574260869433","235","-0.20996094","-1.0166016","-0.038085938","4.1875","-1.96875","2.84375"
"1574260869433","236","-0.25976562","-1.0039062","-0.0146484375","0.78125","-0.1875","-2.6875"
"1574260869434","237","-0.20214844","-0.9970703","-0.018554688","-2.75","4.125","-1.96875"
"1574260869434","238","-0.20019531","-0.9892578","-0.03125","-4.34375","4.9375","-4.03125"
"1574260869434","239","-0.19042969","-0.98535156","-0.05078125","-1.0625","3.28125","-1.46875"
"1574260869632","240","-0.19921875","-0.9980469","-0.047851562","0.65625","4.875","-4.03125"
"1574260869633","241","-0.19238281","-0.98046875","-0.045898438","3.53125","4.375","-4.65625"
"1574260869633","242","-0.16601562","-0.9638672","-0.061523438","4.0","5.34375","0.0"
"1574260869634","243","-0.1484375","-0.9892578","-0.048828125","5.46875","5.78125","0.65625"
"1574260869634","244","-0.21484375","-1.0126953","-0.025390625","5.0","9.9375","0.53125"
"1574260869634","245","-0.23828125","-1.0058594","0.0048828125","-2.46875","15.4375","-5.5"
"1574260869635","246","-0.25683594","-0.9902344","0.0078125","-1.53125","11.875","-8.875"
"1574260869635","247","-0.15527344","-0.9873047","-0.0107421875","-6.1875","8.84375","-6.5"
"1574260869635","248","-0.18945312","-0.9873047","-0.016601562","-5.21875","5.28125","-7.53125"
"1574260869636","249","-0.18261719","-0.9902344","-0.021484375","-7.53125","3.84375","-6.0"
"1574260870226","250","-0.16796875","-0.9863281","-0.029296875","-8.0","2.0625","-6.65625"
"1574260870227","251","-0.18457031","-1.0019531","-0.041015625","-3.0625","-0.1875","-6.59375"
"1574260870227","252","-0.16503906","-0.9580078","-0.053710938","-4.84375","2.125","-7.21875"
"1574260870229","253","-0.1328125","-0.9970703","-0.06640625","-0.25","1.9375","-3.75"
"1574260870229","254","-0.14941406","-0.98339844","-0.060546875","-0.75","3.15625","-2.15625"
"1574260870229","255","-0.15527344","-1.0009766","-0.0625","-2.59375","2.59375","-1.71875"
"1574260870230","256","-0.16308594","-1.0009766","-0.051757812","-3.96875","3.65625","-3.5625"
"1574260870230","257","-0.16796875","-1.0039062","-0.04296875","-4.65625","2.125","-5.21875"
"1574260870230","258","-0.16699219","-0.9902344","-0.048828125","-4.46875","-0.9375","-6.78125"
"1574260870230","259","-0.14160156","-0.99121094","-0.061523438","-4.71875","-0.375","-5.8125"
"1574260870625","260","-0.15332031","-0.9892578","-0.060546875","-7.34375","-1.0625","-6.96875"
"1574260870626","261","-0.1328125","-0.98828125","-0.06640625","-1.90625","-2.75","-4.84375"
"1574260870626","262","-0.11621094","-0.98828125","-0.07324219","-5.21875","-4.03125","-4.15625"
"1574260870626","263","-0.13378906","-0.9941406","-0.0625","-5.09375","-3.4375","-0.6875"
"1574260870627","264","-0.18164062","-0.9892578","-0.064453125","-9.21875","-4.40625","-3.0625"
"1574260870628","265","-0.16503906","-1.0146484","-0.06933594","-10.34375","-1.65625","-4.46875"
"1574260870628","266","-0.16015625","-0.9970703","-0.08496094","-7.71875","-1.3125","-6.84375"
"1574260870628","267","-0.14160156","-1.0087891","-0.0703125","-8.375","-1.53125","-5.75"
"1574260870629","268","-0.12792969","-0.9824219","-0.09472656","-8.375","1.09375","-5.9375"
"1574260870629","269","-0.10644531","-0.9970703","-0.109375","-5.5","-1.34375","-2.03125"
"1574260871023","270","-0.12109375","-0.99316406","-0.1015625","-7.15625","-1.0","-1.40625"
"1574260871023","271","-0.13574219","-0.98535156","-0.111328125","-8.9375","2.59375","0.78125"
"1574260871024","272","-0.12792969","-1.0009766","-0.115234375","-7.34375","2.1875","0.03125"
"1574260871024","273","-0.16992188","-1.0009766","-0.10546875","-7.34375","1.375","-2.8125"
"1574260871024","274","-0.12109375","-0.99121094","-0.12011719","-9.59375","2.59375","-2.75"
"1574260871024","275","-0.12402344","-0.9892578","-0.13867188","-6.59375","2.125","-5.3125"
"1574260871025","276","-0.11425781","-0.9873047","-0.15820312","-3.0","3.03125","-4.46875"
"1574260871026","277","-0.09375","-0.9902344","-0.17382812","-1.40625","2.0625","-2.75"
"1574260871026","278","-0.09472656","-0.98828125","-0.15234375","-0.4375","5.40625","0.84375"
"1574260871026","279","-0.12207031","-0.9951172","-0.14257812","1.15625","2.375","0.46875"
"1574260871423","280","-0.1015625","-1.0019531","-0.123046875","-1.25","2.0","0.0"
"1574260871424","281","-0.11328125","-0.99121094","-0.13574219","-1.53125","2.4375","0.0"
"1574260871425","282","-0.11230469","-0.9892578","-0.13867188","0.03125","-1.34375","0.71875"
"1574260871425","283","-0.09765625","-0.9902344","-0.14160156","-0.125","-0.0625","1.03125"
"1574260871425","284","-0.12207031","-0.99121094","-0.13769531","0.78125","-0.9375","1.5"
"1574260871425","285","-0.13574219","-0.99121094","-0.14453125","1.625","-1.125","0.46875"
"1574260871426","286","-0.111328125","-1.0039062","-0.14257812","4.625","-1.78125","1.03125"
"1574260871426","287","-0.111328125","-0.99316406","-0.10839844","-1.1875","-0.5625","1.21875"
"1574260871426","288","-0.13671875","-1.0039062","-0.103515625","-0.9375","-1.78125","1.625"
"1574260871428","289","-0.111328125","-0.9824219","-0.11035156","-1.53125","-2.03125","4.25"
"1574260871820","290","-0.14257812","-0.9951172","-0.12109375","0.78125","-3.5625","3.34375"
"1574260871820","291","-0.15820312","-0.98535156","-0.12011719","4.1875","-3.96875","3.34375"
"1574260871820","292","-0.1328125","-0.98828125","-0.103515625","2.1875","-1.25","3.59375"
"1574260871821","293","-0.12402344","-1.0048828","-0.09667969","-0.3125","1.09375","5.53125"
"1574260871821","294","-0.17871094","-0.9980469","-0.103515625","-0.1875","-1.59375","2.0625"
"1574260871821","295","-0.1484375","-0.9921875","-0.12011719","1.3125","4.0625","1.5625"
"1574260871822","296","-0.13671875","-0.99121094","-0.11230469","2.1875","6.03125","2.5"
"1574260871822","297","-0.17382812","-0.9970703","-0.11328125","6.6875","5.90625","3.90625"
"1574260871822","298","-0.15136719","-0.9902344","-0.11230469","9.03125","10.59375","4.4375"
"1574260871822","299","-0.171875","-1.0039062","-0.10253906","8.71875","15.625","2.5625"
"1574260872217","300","-0.16113281","-0.9980469","-0.08105469","6.8125","14.625","3.90625"
"1574260872219","301","-0.16992188","-0.9824219","-0.057617188","2.5","13.96875","0.71875"
"1574260872219","302","-0.17480469","-0.9970703","-0.08203125","3.09375","8.71875","2.78125"
"1574260872219","303","-0.15917969","-0.99121094","-0.0859375","4.6875","8.71875","1.75"
"1574260872220","304","-0.16210938","-0.97753906","-0.083984375","4.125","5.53125","2.0"
"1574260872220","305","-0.18066406","-0.9921875","-0.07714844","5.125","6.5625","1.5"
"1574260872220","306","-0.18164062","-1.0048828","-0.064453125","4.75","7.5625","-0.9375"
"1574260872221","307","-0.17382812","-1.0058594","-0.048828125","1.15625","9.03125","1.15625"
"1574260872221","308","-0.20019531","-0.9892578","-0.068359375","-3.875","7.75","-1.34375"
"1574260872221","309","-0.17382812","-0.9970703","-0.06738281","-1.96875","3.40625","2.0"
"1574260873010","310","-0.18847656","-0.9716797","-0.07519531","-1.90625","-2.46875","1.15625"
"1574260873010","311","-0.18066406","-0.97558594","-0.06542969","0.28125","0.15625","1.875"
"1574260873011","312","-0.18554688","-0.99121094","-0.06933594","3.21875","1.875","0.96875"
"1574260873012","313","-0.18945312","-0.9794922","-0.06933594","2.5","1.3125","1.4375"
"1574260873012","314","-0.16992188","-0.99609375","-0.057617188","-0.0625","3.28125","1.75"
"1574260873012","315","-0.19140625","-0.99121094","-0.07128906","1.3125","2.0","1.3125"
"1574260873013","316","-0.19726562","-0.98535156","-0.05859375","-2.625","0.28125","2.90625"
"1574260873013","317","-0.20019531","-0.9921875","-0.05078125","0.46875","0.78125","0.65625"
"1574260873013","318","-0.21289062","-0.9814453","-0.047851562","0.53125","1.21875","0.65625"
"1574260873013","319","-0.21386719","-0.98535156","-0.028320312","-0.5625","2.0625","0.40625"
"1574260873407","320","-0.19824219","-1.0058594","-0.044921875","-1.40625","1.8125","0.65625"
"1574260873407","321","-0.20507812","-0.9716797","-0.0546875","-0.5625","0.65625","-0.125"
"1574260873407","322","-0.22558594","-1.0009766","-0.049804688","4.25","0.71875","0.34375"
"1574260873408","323","-0.203125","-0.9824219","-0.03515625","0.34375","5.90625","1.5"
"1574260873408","324","-0.22265625","-0.9902344","-0.051757812","1.875","4.5625","1.4375"
"1574260873411","325","-0.21679688","-0.9892578","-0.043945312","1.09375","3.90625","2.90625"
"1574260873411","326","-0.20410156","-0.99609375","-0.034179688","0.90625","8.03125","2.125"
"1574260873411","327","-0.19921875","-0.9873047","-0.048828125","0.28125","6.15625","3.21875"
"1574260873412","328","-0.22070312","-0.98828125","-0.044921875","-1.125","4.6875","2.1875"
"1574260873412","329","-0.20898438","-0.98046875","-0.045898438","-0.6875","1.8125","3.34375"
"1574260873412","330","-0.23046875","-0.98339844","-0.048828125","1.15625","3.34375","1.625"
"1574260873412","331","-0.21679688","-0.9824219","-0.041992188","1.75","2.1875","0.65625"
"1574260873413","332","-0.21289062","-0.96875","-0.030273438","3.78125","1.6875","1.5"
"1574260873413","333","-0.19433594","-0.9863281","-0.048828125","3.53125","-2.46875","1.15625"
"1574260873413","334","-0.21679688","-0.9716797","-0.029296875","1.625","-2.53125","1.4375"
"1574260873414","335","-0.20996094","-0.98339844","-0.033203125","2.59375","-5.6875","2.71875"
"1574260873414","336","-0.22851562","-0.9658203","-0.046875","2.96875","-4.96875","2.65625"
"1574260873414","337","-0.24023438","-0.99121094","-0.03125","2.5","-4.53125","1.625"
"1574260873415","338","-0.18261719","-0.9765625","-0.025390625","-0.25","-4.53125","6.46875"
"1574260873415","339","-0.25","-0.9970703","-0.0234375","3.28125","-8.9375","2.4375"
"1574260874003","340","-0.2607422","-0.9921875","-0.017578125","4.875","-7.53125","2.0"
"1574260874003","341","-0.234375","-0.984375","-0.0126953125","1.28125","-4.40625","2.1875"
"1574260874004","342","-0.23339844","-0.9951172","-0.0078125","-1.0625","-5.09375","1.8125"
"1574260874004","343","-0.2578125","-0.96777344","-0.026367188","1.15625","-5.875","1.8125"
"1574260874004","344","-0.23242188","-0.9736328","-0.025390625","1.625","-6.375","2.65625"
"1574260874005","345","-0.24804688","-0.9628906","0.005859375","1.6875","-0.125","0.65625"
"1574260874005","346","-0.22167969","-0.96484375","-0.024414062","6.9375","-3.125","1.8125"
"1574260874005","347","-0.23144531","-0.98046875","-0.0029296875","3.15625","-2.53125","1.15625"
"1574260874005","348","-0.25976562","-0.9550781","-0.0126953125","7.75","-2.8125","3.21875"
"1574260874006","349","-0.21582031","-0.9902344","0.0029296875","7.625","-6.84375","7.625"
"1574260874203","350","-0.2939453","-0.99316406","0.049804688","3.9375","-3.1875","2.71875"
"1574260874203","351","-0.24511719","-0.9658203","0.03515625","0.84375","4.6875","4.5625"
"1574260874204","352","-0.2705078","-0.99316406","0.017578125","-2.28125","2.375","-2.28125"
"1574260874204","353","-0.2578125","-0.9794922","-0.017578125","4.5","-2.6875","-0.1875"
"1574260874204","354","-0.23828125","-0.93847656","0.03125","6.5625","9.6875","2.96875"
"1574260874204","355","-0.21875","-0.9501953","0.0234375","10.84375","4.6875","3.09375"
"1574260874205","356","-0.23535156","-1.0029297","0.020507812","11.28125","5.78125","3.71875"
"1574260874205","357","-0.31835938","-0.9736328","0.056640625","8.71875","8.21875","-1.78125"
"1574260874205","358","-0.31835938","-0.9667969","0.08691406","-0.9375","16.90625","-1.25"
"1574260874206","359","-0.29003906","-0.9785156","0.080078125","-7.03125","17.9375","-3.3125"
"1574260874798","360","-0.33007812","-0.95996094","0.09667969","-6.375","19.09375","-4.21875"
"1574260874799","361","-0.2548828","-0.9511719","0.045898438","-1.0","13.34375","-1.125"
"1574260874800","362","-0.22753906","-0.95703125","0.028320312","0.71875","6.46875","3.53125"
"1574260874800","363","-0.25097656","-0.9560547","0.029296875","4.25","-3.875","5.0625"
"1574260874800","364","-0.2861328","-0.9482422","0.046875","7.96875","-0.75","3.78125"
"1574260874801","365","-0.31835938","-0.95996094","0.055664062","7.90625","0.0","-1.40625"
"1574260874801","366","-0.2861328","-0.9736328","0.0546875","12.75","1.375","2.65625"
"1574260874801","367","-0.27734375","-0.95996094","0.072265625","2.71875","0.0","3.59375"
"1574260874802","368","-0.26953125","-0.95703125","0.057617188","0.34375","2.0","6.09375"
"1574260874803","369","-0.31054688","-0.9453125","0.07128906","-0.6875","3.9375","6.5625"
"1574260875195","370","-0.265625","-0.96484375","0.08496094","-5.15625","6.9375","8.03125"
"1574260875196","371","-0.3251953","-0.9667969","0.06347656","-6.3125","-2.59375","4.8125"
"1574260875196","372","-0.3251953","-0.9433594","0.061523438","3.03125","-8.1875","9.5"
"1574260875197","373","-0.29589844","-0.98046875","0.083984375","3.65625","-12.15625","7.8125"
"1574260875198","374","-0.32910156","-0.9355469","0.1171875","1.28125","-3.3125","8.71875"
"1574260875198","375","-0.3359375","-0.9433594","0.0859375","-0.5625","-9.28125","4.1875"
"1574260875198","376","-0.33007812","-0.9345703","0.080078125","-0.0625","-5.03125","6.09375"
"1574260875199","377","-0.3310547","-0.92871094","0.06933594","-0.3125","-1.125","6.6875"
"1574260875199","378","-0.36035156","-0.93066406","0.091796875","-4.65625","-0.375","3.65625"
"1574260875199","379","-0.36816406","-0.93652344","0.08300781","-7.40625","4.5","6.15625"
"1574260875398","380","-0.30273438","-0.95410156","0.05859375","-4.84375","5.1875","4.25"
"1574260875398","381","-0.30859375","-0.92871094","0.083984375","-4.15625","-5.375","0.34375"
"1574260875399","382","-0.35546875","-0.92578125","0.055664062","2.71875","-9.34375","2.96875"
"1574260875399","383","-0.41015625","-0.9326172","0.095703125","0.03125","-3.5625","0.65625"
"1574260875399","384","-0.32617188","-0.953125","0.08300781","3.03125","-3.125","0.84375"
"1574260875401","385","-0.35546875","-0.9482422","0.09277344","4.3125","-3.0625","-1.1875"
"1574260875401","386","-0.34277344","-0.921875","0.09277344","2.0625","-0.6875","2.4375"
"1574260875401","387","-0.36914062","-0.9472656","0.095703125","-2.53125","2.84375","1.5"
"1574260875402","388","-0.37109375","-0.9238281","0.109375","-6.0","12.6875","1.15625"
"1574260875402","389","-0.3798828","-0.9394531","0.09667969","-4.84375","10.53125","0.0"
"1574260875794","390","-0.39648438","-0.96484375","0.10839844","-2.09375","8.53125","-2.03125"
"1574260875795","391","-0.40234375","-0.9296875","0.109375","-3.96875","6.8125","-5.5625"
"1574260875795","392","-0.3466797","-0.9355469","0.10546875","-3.875","8.84375","-3.1875"
"1574260875796","393","-0.375","-0.9638672","0.103515625","-2.75","6.28125","-3.90625"
"1574260875796","394","-0.34375","-0.921875","0.06933594","-0.4375","2.78125","-2.75"
"1574260875796","395","-0.3515625","-0.9199219","0.11425781","-3.5","3.9375","-2.46875"
"1574260875796","396","-0.3486328","-0.95703125","0.06542969","-3.125","-0.8125","-2.28125"
"1574260875798","397","-0.37304688","-0.94140625","0.0859375","-2.03125","-3.6875","-3.3125"
"1574260875799","398","-0.3544922","-0.94921875","0.06933594","0.09375","-6.4375","-3.96875"
"1574260875799","399","-0.3564453","-0.9394531","0.091796875","-2.46875","-1.34375","-6.71875"
"1574260876192","400","-0.34179688","-0.9560547","0.07910156","-0.875","-0.9375","-7.09375"
"1574260876192","401","-0.3251953","-0.94921875","0.064453125","-2.8125","2.1875","-8.5625"
"1574260876193","402","-0.31152344","-0.9423828","0.076171875","-4.96875","7.0625","-7.40625"
"1574260876193","403","-0.3125","-0.96191406","0.080078125","-5.75","8.96875","-7.40625"
"1574260876193","404","-0.3017578","-0.9453125","0.044921875","-1.96875","11.46875","-7.03125"
"1574260876193","405","-0.2919922","-0.9560547","0.028320312","-0.875","9.625","-6.3125"
"1574260876194","406","-0.2939453","-0.9511719","0.037109375","1.625","8.59375","-5.5625"
"1574260876194","407","-0.2861328","-0.96484375","0.034179688","2.90625","9.03125","-4.15625"
"1574260876194","408","-0.3125","-0.9658203","0.056640625","-0.625","12.5625","-6.96875"
"1574260876195","409","-0.28710938","-0.953125","0.045898438","4.375","15.0625","-6.25"
"1574260876592","410","-0.26367188","-0.9501953","0.06542969","-7.15625","14.4375","-5.3125"
"1574260876599","411","-0.29003906","-0.99316406","0.049804688","-7.53125","6.28125","-10.03125"
"1574260876599","412","-0.27929688","-0.9580078","0.05078125","-7.46875","0.96875","-8.6875"
"1574260876599","413","-0.32617188","-0.95703125","0.041015625","-5.375","-2.75","-12.84375"
"1574260876600","414","-0.31054688","-0.96777344","0.03515625","-1.96875","-1.46875","-11.5"
"1574260876600","415","-0.2890625","-0.96191406","0.036132812","-4.84375","1.09375","-11.4375"
"1574260876600","416","-0.27246094","-0.9707031","0.024414062","-5.5","0.65625","-8.875"
"1574260876600","417","-0.29101562","-0.9716797","0.01953125","-2.875","2.96875","-8.75"
"1574260876601","418","-0.28027344","-0.953125","0.025390625","-2.8125","9.5","-3.875"
"1574260876601","419","-0.24707031","-0.9638672","0.01171875","-1.96875","9.09375","-1.96875"
"1574260876986","420","-0.2265625","-0.9794922","0.017578125","-1.0625","8.78125","-0.3125"
"1574260876987","421","-0.24511719","-0.98046875","0.01953125","-2.40625","8.78125","-1.78125"
"1574260876988","422","-0.23632812","-0.9580078","0.038085938","-5.15625","10.53125","-1.78125"
"1574260876988","423","-0.24414062","-0.9736328","0.020507812","0.09375","5.90625","-0.3125"
"1574260876988","424","-0.24707031","-0.97558594","0.03515625","-9.53125","7.4375","-1.40625"
"1574260876988","425","-0.25878906","-0.9707031","0.0078125","-8.625","4.5","-4.15625"
"1574260876989","426","-0.23046875","-0.96191406","0.005859375","-11.4375","3.28125","-1.96875"
"1574260876989","427","-0.23925781","-0.9794922","-0.017578125","-7.9375","0.03125","-3.0625"
"1574260876989","428","-0.25976562","-0.9716797","0.015625","-5.6875","2.84375","-5.8125"
"1574260876990","429","-0.2705078","-0.9765625","-9.765625E-4","-0.1875","-5.4375","-6.65625"
"1574260877383","430","-0.21484375","-0.9785156","-0.0029296875","-1.125","-3.75","-4.21875"
"1574260877383","431","-0.23242188","-0.98046875","-9.765625E-4","-0.4375","-4.53125","-3.75"
"1574260877384","432","-0.25","-0.9746094","0.009765625","-4.59375","-0.4375","-2.53125"
"1574260877385","433","-0.24316406","-0.97753906","0.0048828125","-5.625","0.15625","-2.09375"
"1574260877385","434","-0.24902344","-0.98828125","-0.0029296875","-5.6875","1.4375","-2.75"
"1574260877385","435","-0.23535156","-0.96875","-0.0078125","-6.25","2.5","-1.40625"
"1574260877386","436","-0.24609375","-0.9658203","-0.01953125","-4.84375","-0.5625","-3.75"
"1574260877386","437","-0.20507812","-0.9863281","-0.0234375","1.9375","-2.21875","0.46875"
"1574260877386","438","-0.23339844","-0.9707031","-0.0126953125","-2.15625","-5.21875","-1.78125"
"1574260877387","439","-0.2265625","-0.9863281","-0.0087890625","0.03125","-4.34375","0.96875"
"1574260877782","440","-0.24707031","-0.97265625","-0.0146484375","1.8125","-6.4375","0.84375"
"1574260877782","441","-0.23730469","-0.98046875","-0.0048828125","0.65625","-4.59375","0.46875"
"1574260877783","442","-0.234375","-0.98828125","-0.009765625","-1.59375","-3.125","-1.0625"
"1574260877783","443","-0.25097656","-0.98828125","0.0068359375","-3.1875","-3.125","-1.65625"
"1574260877783","444","-0.24707031","-0.9736328","0.0029296875","-4.84375","-1.0","-2.40625"
"1574260877784","445","-0.24316406","-0.9736328","9.765625E-4","-5.6875","-2.21875","-3.0625"
"1574260877785","446","-0.22851562","-0.98046875","-9.765625E-4","-6.71875","-4.21875","-3.625"
"1574260877786","447","-0.24511719","-0.97753906","0.0","-5.21875","-6.78125","-5.4375"
"1574260877786","448","-0.23339844","-0.97753906","-0.00390625","-4.34375","-7.53125","-4.34375"
"1574260877786","449","-0.24511719","-0.9716797","-0.024414062","-3.625","-7.875","-5.8125"
"1574260878179","450","-0.21875","-0.9980469","-0.0068359375","-3.5625","-4.96875","-5.09375"
"1574260878179","451","-0.23144531","-0.98046875","-0.034179688","-0.3125","-5.75","-5.8125"
"1574260878179","452","-0.21582031","-0.9902344","-0.016601562","-5.03125","-2.28125","-4.90625"
"1574260878179","453","-0.17675781","-0.9794922","-0.028320312","-6.96875","-3.0625","-3.125"
"1574260878180","454","-0.20507812","-0.9814453","-0.029296875","-2.6875","-7.03125","-1.53125"
"1574260878180","455","-0.21191406","-0.98339844","-0.016601562","-4.59375","-7.9375","-2.75"
"1574260878180","456","-0.20703125","-0.9921875","-0.01953125","-3.125","-4.03125","-3.875"
"1574260878181","457","-0.20410156","-0.9921875","-0.025390625","-4.90625","-5.25","-4.53125"
"1574260878182","458","-0.20507812","-0.9785156","-0.030273438","-4.78125","-3.0625","-4.03125"
"1574260878182","459","-0.1796875","-0.9980469","-0.033203125","-7.15625","-1.3125","-2.53125"
"1574260878776","460","-0.17480469","-0.9863281","-0.04296875","-8.5","-1.3125","-2.15625"
"1574260878776","461","-0.16699219","-0.98339844","-0.047851562","-8.125","1.03125","-1.53125"
"1574260878777","462","-0.20214844","-0.9951172","-0.040039062","-8.5","3.28125","-5.5"
"1574260878777","463","-0.20605469","-0.99902344","-0.049804688","-1.0","4.6875","-8.4375"
"1574260878777","464","-0.19824219","-0.9863281","-0.047851562","-1.125","7.625","-10.6875"
"1574260878777","465","-0.19824219","-0.99121094","-0.055664062","0.96875","9.5","-11.4375"
"1574260878778","466","-0.18554688","-0.9970703","-0.072265625","3.21875","10.84375","-8.5"
"1574260878778","467","-0.17578125","-1.0039062","-0.038085938","-4.78125","17.125","-10.5625"
"1574260878778","468","-0.13085938","-0.9941406","-0.0546875","-5.5","11.46875","-11.625"
"1574260878780","469","-0.15527344","-0.9902344","-0.041992188","-5.875","12.0","-9.15625"
"1574260878975","470","-0.16894531","-0.9794922","-0.043945312","-5.8125","11.09375","-6.65625"
"1574260878975","471","-0.15527344","-0.99316406","-0.048828125","-3.75","10.96875","-1.84375"
"1574260878976","472","-0.15917969","-0.9970703","-0.033203125","-4.71875","7.96875","-0.4375"
"1574260878976","473","-0.13769531","-0.9970703","-0.059570312","-3.75","5.96875","-2.40625"
"1574260878976","474","-0.099609375","-1.0058594","-0.06640625","0.0","0.40625","-3.6875"
"1574260878976","475","-0.099609375","-0.9941406","-0.06542969","-4.84375","-3.25","-3.96875"
"1574260878977","476","-0.14550781","-1.0009766","-0.06640625","-3.125","-5.03125","-7.9375"
"1574260878977","477","-0.11816406","-0.984375","-0.07910156","-5.75","-4.65625","-5.875"
"1574260878977","478","-0.12109375","-0.99902344","-0.08691406","-4.21875","-3.875","-4.46875"
"1574260878977","479","-0.12792969","-0.9902344","-0.07910156","-6.96875","-0.9375","-3.75"
"1574260879569","480","-0.13574219","-0.9824219","-0.07324219","-5.6875","0.0","-6.0625"
"1574260879570","481","-0.11621094","-1.0126953","-0.09667969","-0.375","0.46875","-5.4375"
"1574260879571","482","-0.12109375","-0.9951172","-0.076171875","-6.0","3.40625","-6.5"
"1574260879571","483","-0.10644531","-0.9970703","-0.08886719","-1.25","1.4375","-4.03125"
"1574260879571","484","-0.107421875","-0.99316406","-0.08105469","-3.0","0.59375","-3.375"
"1574260879571","485","-0.10253906","-0.9951172","-0.09082031","-1.40625","0.0","-2.34375"
"1574260879572","486","-0.09765625","-0.98828125","-0.099609375","-0.875","-1.71875","-2.6875"
"1574260879572","487","-0.09082031","-1.0097656","-0.09375","0.09375","-7.71875","-2.59375"
"1574260879572","488","-0.11230469","-0.9941406","-0.099609375","-0.75","-6.5","-3.3125"
"1574260879572","489","-0.10546875","-0.9970703","-0.09667969","2.90625","-4.59375","-0.4375"
"1574260879770","490","-0.103515625","-1.0","-0.08105469","1.5","-3.0","-0.5"
"1574260879771","491","-0.10449219","-1.0009766","-0.080078125","0.59375","-3.5625","-0.625"
"1574260879771","492","-0.09863281","-1.0009766","-0.095703125","2.4375","-2.75","-0.25"
"1574260879772","493","-0.09863281","-0.9873047","-0.078125","1.3125","0.53125","0.15625"
"1574260879773","494","-0.09863281","-0.9980469","-0.06933594","-0.25","2.96875","0.28125"
"1574260879773","495","-0.11230469","-0.9980469","-0.09082031","5.34375","4.0625","1.5"
"1574260879773","496","-0.123046875","-0.9921875","-0.057617188","1.09375","6.28125","1.5"
"1574260879774","497","-0.107421875","-0.99902344","-0.07910156","2.71875","7.90625","2.0"
"1574260879774","498","-0.111328125","-0.9970703","-0.06347656","4.0","8.21875","1.75"
"1574260879774","499","-0.099609375","-1.0019531","-0.053710938","2.3125","4.4375","2.84375"
"1574260880366","500","-0.119140625","-1.0009766","-0.048828125","-1.53125","5.84375","2.78125"
"1574260880366","501","-0.119140625","-1.0009766","-0.048828125","0.09375","3.78125","4.5625"
"1574260880367","502","-0.12695312","-0.9951172","-0.056640625","3.90625","3.09375","4.0"
"1574260880367","503","-0.123046875","-0.9863281","-0.060546875","5.0","4.0625","4.125"
"1574260880367","504","-0.109375","-0.9951172","-0.047851562","10.1875","4.75","5.46875"
"1574260880368","505","-0.15234375","-0.9970703","-0.028320312","4.9375","4.5625","4.75"
"1574260880369","506","-0.14941406","-1.0009766","-0.02734375","4.125","1.8125","3.34375"
"1574260880369","507","-0.15429688","-0.9970703","-0.034179688","5.59375","2.71875","3.09375"
"1574260880369","508","-0.13671875","-0.9941406","-0.044921875","3.78125","1.5625","2.4375"
"1574260880370","509","-0.16308594","-0.9892578","-0.0107421875","5.40625","1.5","2.0625"
"1574260880761","510","-0.16113281","-0.9902344","-0.01171875","-1.65625","2.5","1.8125"
"1574260880761","511","-0.18066406","-0.9902344","-0.015625","-4.90625","0.59375","0.03125"
"1574260880761","512","-0.16210938","-0.99609375","-0.0234375","-5.5","0.71875","1.3125"
"1574260880762","513","-0.15625","-0.9921875","-0.029296875","-4.78125","5.28125","1.75"
"1574260880762","514","-0.16992188","-1.0019531","-0.0546875","3.34375","5.125","2.0"
"1574260880762","515","-0.171875","-0.98535156","-0.01953125","0.65625","8.46875","1.5"
"1574260880762","516","-0.14746094","-0.9902344","-0.020507812","-2.15625","10.3125","2.65625"
"1574260880764","517","-0.16992188","-1.0029297","-0.024414062","-1.0","6.09375","2.78125"
"1574260880764","518","-0.18457031","-0.98046875","-0.022460938","-2.40625","6.40625","1.15625"
"1574260880764","519","-0.16503906","-0.9873047","-0.034179688","-0.25","7.0625","1.03125"
"1574260880961","520","-0.15234375","-0.98828125","-0.028320312","-0.375","5.1875","2.25"
"1574260880962","521","-0.15429688","-0.98828125","-0.05078125","-1.34375","0.71875","3.09375"
"1574260880962","522","-0.16210938","-1.0019531","-0.02734375","2.78125","1.3125","4.9375"
"1574260880962","523","-0.171875","-0.98535156","-0.022460938","-0.125","0.03125","3.59375"
"1574260880963","524","-0.21484375","-0.99316406","-0.017578125","7.25","2.5","1.5"
"1574260880963","525","-0.20117188","-0.9902344","0.01171875","8.21875","2.0625","2.0"
"1574260880963","526","-0.19433594","-0.99121094","0.0107421875","5.0625","1.5","1.4375"
"1574260880963","527","-0.19238281","-1.0019531","-0.0234375","3.84375","-0.375","3.03125"
"1574260880964","528","-0.19238281","-0.9736328","-0.01171875","0.40625","2.3125","2.71875"
"1574260880965","529","-0.17578125","-0.9824219","-0.0068359375","0.0","2.0","3.34375"
"1574260881359","530","-0.20605469","-0.98339844","-0.009765625","2.25","2.1875","1.09375"
"1574260881360","531","-0.18847656","-0.99121094","0.00390625","1.4375","4.75","3.21875"
"1574260881360","532","-0.20019531","-0.9785156","-0.001953125","-1.53125","4.9375","2.0625"
"1574260881360","533","-0.19921875","-0.9902344","-0.013671875","0.65625","3.65625","3.03125"
"1574260881361","534","-0.20605469","-0.98535156","0.0068359375","-1.59375","0.59375","1.5625"
"1574260881361","535","-0.20605469","-0.9902344","-0.0107421875","3.03125","0.09375","3.65625"
"1574260881361","536","-0.20996094","-0.9824219","-0.0029296875","1.3125","2.125","1.3125"
"1574260881362","537","-0.23925781","-0.9873047","-0.0029296875","-0.25","0.0","2.1875"
"1574260881362","538","-0.23925781","-1.0097656","0.01953125","0.28125","0.03125","0.65625"
"1574260881362","539","-0.28027344","-1.0068359","0.051757812","-5.4375","8.09375","-4.65625"
"1574260881757","540","-0.26171875","-0.9980469","0.034179688","-10.4375","8.96875","-10.4375"
"1574260881759","541","-0.20507812","-0.9892578","0.020507812","-11.125","8.40625","-6.53125"
"1574260881759","542","-0.18457031","-0.97265625","-0.01953125","-11.84375","3.34375","-3.625"
"1574260881759","543","-0.19726562","-0.96484375","-0.041992188","-6.375","2.3125","-0.25"
"1574260881760","544","-0.17578125","-0.95996094","-0.047851562","-0.3125","2.375","1.375"
"1574260881760","545","-0.18261719","-0.9794922","-0.051757812","3.34375","1.8125","2.375"
"1574260881760","546","-0.19335938","-0.9707031","-0.047851562","3.65625","3.59375","3.59375"
"1574260881760","547","-0.1953125","-0.9902344","-0.022460938","4.1875","3.21875","6.03125"
"1574260881761","548","-0.20019531","-0.96777344","-0.053710938","6.6875","0.28125","5.59375"
"1574260881761","549","-0.21191406","-0.99121094","-0.0234375","5.53125","3.09375","5.78125"
"1574260882154","550","-0.20703125","-0.9658203","-0.0078125","1.375","1.5","3.34375"
"1574260882154","551","-0.21777344","-0.9794922","-0.0146484375","4.5625","1.03125","4.0"
"1574260882154","552","-0.2109375","-0.9824219","-0.0029296875","3.59375","-1.46875","1.6875"
"1574260882155","553","-0.23144531","-0.9794922","-0.0068359375","2.65625","0.53125","2.0"
"1574260882155","554","-0.24511719","-0.98535156","0.0048828125","4.5625","0.78125","1.3125"
"1574260882156","555","-0.24609375","-0.98535156","0.024414062","3.34375","0.46875","0.65625"
"1574260882156","556","-0.23925781","-1.0107422","0.052734375","-2.15625","0.46875","-0.6875"
"1574260882156","557","-0.30273438","-0.9814453","0.06347656","-4.28125","-0.25","-7.21875"
"1574260882157","558","-0.25585938","-0.97265625","0.045898438","-4.78125","-0.875","-4.78125"
"1574260882157","559","-0.23242188","-0.9941406","0.037109375","-4.09375","-1.3125","-4.09375"
"1574260882551","560","-0.234375","-0.95214844","0.0","-3.6875","-1.90625","-1.90625"
"1574260882551","561","-0.21777344","-0.96191406","0.005859375","-2.59375","-0.875","-1.1875"
"1574260882552","562","-0.23828125","-0.9716797","-0.0126953125","4.0","0.53125","1.75"
"1574260882552","563","-0.22851562","-0.9736328","0.00390625","1.8125","4.6875","3.53125"
"1574260882552","564","-0.19726562","-0.96972656","0.00390625","1.4375","2.65625","7.5"
"1574260882553","565","-0.22070312","-0.9658203","-0.0048828125","5.46875","-2.03125","10.0625"
"1574260882554","566","-0.21972656","-0.9707031","0.017578125","7.5625","1.15625","10.375"
"1574260882554","567","-0.22558594","-0.9785156","0.0078125","8.40625","-0.3125","8.21875"
"1574260882554","568","-0.2548828","-0.984375","0.01953125","11.8125","1.5625","6.5625"
"1574260882555","569","-0.24902344","-0.98828125","0.04296875","12.1875","-2.03125","7.5625"
"1574260882949","570","-0.2265625","-0.94628906","0.07128906","6.9375","-5.25","11.28125"
"1574260882950","571","-0.29589844","-0.9765625","0.064453125","2.59375","-1.46875","5.90625"
"1574260882950","572","-0.30859375","-0.9609375","0.05859375","6.09375","0.96875","5.59375"
"1574260882950","573","-0.3095703","-0.953125","0.078125","5.0625","4.4375","2.96875"
"1574260882951","574","-0.28125","-0.9824219","0.06640625","3.90625","3.34375","2.3125"
"1574260882951","575","-0.30664062","-0.96972656","0.080078125","1.875","3.59375","0.65625"
"1574260882951","576","-0.30078125","-0.9394531","0.08203125","0.03125","4.3125","1.03125"
"1574260882952","577","-0.31640625","-0.96191406","0.080078125","4.75","4.9375","0.65625"
"1574260882953","578","-0.29589844","-0.9589844","0.07421875","-0.25","6.625","0.84375"
"1574260882953","579","-0.29101562","-0.9609375","0.091796875","0.46875","7.375","1.4375"
"1574260883346","580","-0.30859375","-0.9609375","0.08691406","0.84375","2.90625","1.3125"
"1574260883346","581","-0.30273438","-0.93847656","0.08203125","0.53125","3.53125","1.8125"
"1574260883347","582","-0.31054688","-0.9609375","0.076171875","3.65625","2.1875","1.21875"
"1574260883347","583","-0.27148438","-0.9482422","0.078125","3.03125","2.1875","2.4375"
"1574260883347","584","-0.28710938","-0.93652344","0.06738281","3.34375","3.46875","3.34375"
"1574260883347","585","-0.2939453","-0.9433594","0.0703125","5.46875","4.75","6.46875"
"1574260883348","586","-0.33691406","-0.9296875","0.1015625","6.15625","8.71875","9.125"
"1574260883348","587","-0.30664062","-0.94628906","0.091796875","7.125","6.46875","11.59375"
"1574260883348","588","-0.3125","-0.96777344","0.09375","7.25","4.125","8.28125"
"1574260883349","589","-0.31933594","-0.953125","0.11621094","4.6875","0.53125","5.65625"
"1574260884140","590","-0.33789062","-0.9511719","0.11230469","2.65625","1.5","2.4375"
"1574260884140","591","-0.35839844","-0.9375","0.10546875","1.09375","-2.21875","-0.8125"
"1574260884141","592","-0.37890625","-0.9375","0.15136719","-6.1875","2.59375","2.375"
"1574260884141","593","-0.2998047","-0.9355469","0.09765625","-4.21875","5.34375","2.125"
"1574260884141","594","-0.3203125","-0.9580078","0.07324219","-4.84375","2.375","-1.65625"
"1574260884141","595","-0.37597656","-0.9355469","0.11230469","-7.59375","3.46875","-4.09375"
"1574260884142","596","-0.36328125","-0.9267578","0.12890625","-11.125","1.6875","-2.53125"
"1574260884142","597","-0.39453125","-0.9589844","0.12792969","-12.21875","-0.3125","-2.6875"
"1574260884142","598","-0.4091797","-0.953125","0.14355469","-2.625","5.71875","-4.28125"
"1574260884142","599","-0.3564453","-0.92578125","0.115234375","0.78125","12.625","-7.34375"
"1574260884338","600","-0.37109375","-0.9423828","0.12109375","-3.25","12.4375","-6.125"
"1574260884340","601","-0.33691406","-0.94628906","0.09277344","1.3125","5.21875","-5.8125"
"1574260884340","602","-0.35253906","-0.953125","0.119140625","0.15625","5.46875","-3.1875"
"1574260884341","603","-0.36328125","-0.9433594","0.09472656","-1.53125","0.46875","-2.75"
"1574260884341","604","-0.34570312","-0.93652344","0.09472656","1.5","1.15625","-1.71875"
"1574260884341","605","-0.3125","-0.9375","0.11816406","-2.53125","7.75","-3.4375"
"1574260884341","606","-0.3330078","-0.9511719","0.07128906","5.21875","2.3125","-4.84375"
"1574260884342","607","-0.33398438","-0.9472656","0.10449219","-1.0625","6.40625","-6.96875"
"1574260884342","608","-0.3076172","-0.96972656","0.0703125","2.0","2.71875","-6.3125"
"1574260884342","609","-0.328125","-0.9404297","0.08886719","-2.53125","3.40625","-6.96875"
"1574260884539","610","-0.2861328","-0.9580078","0.080078125","-11.5625","4.0625","-5.8125"
"1574260884539","611","-0.29785156","-0.9609375","0.051757812","-16.25","4.0625","-5.875"
"1574260884540","612","-0.29492188","-0.95214844","0.08496094","-13.25","5.96875","-6.90625"
"1574260884541","613","-0.2939453","-0.9472656","0.041992188","-13.125","0.84375","-10.09375"
"1574260884541","614","-0.29101562","-0.96972656","0.053710938","-10.40625","2.1875","-11.0625"
"1574260884541","615","-0.2919922","-0.9560547","0.0546875","-4.78125","-0.25","-11.4375"
"1574260884542","616","-0.29492188","-0.9638672","0.036132812","-6.84375","-0.8125","-9.53125"
"1574260884542","617","-0.30371094","-0.96484375","0.047851562","-10.21875","-0.9375","-8.375"
"1574260884542","618","-0.28515625","-0.9580078","0.060546875","-9.40625","-0.3125","-7.46875"
"1574260884542","619","-0.26464844","-0.9716797","0.0546875","-12.03125","1.9375","-9.0625"
"1574260884937","620","-0.25390625","-0.9785156","0.026367188","-4.46875","0.96875","-10.5625"
"1574260884938","621","-0.23144531","-0.9736328","0.015625","-8.5625","-1.53125","-10.40625"
"1574260884938","622","-0.23632812","-0.9560547","0.0390625","-5.8125","-0.0625","-7.875"
"1574260884938","623","-0.26171875","-0.9716797","0.041015625","-8.5","-2.40625","-5.9375"
"1574260884938","624","-0.23535156","-0.99902344","-0.0126953125","-9.78125","-7.65625","-9.34375"
"1574260884940","625","-0.21484375","-0.9550781","-0.0029296875","-13.3125","-0.0625","-7.53125"
"1574260884940","626","-0.19726562","-0.9902344","-0.017578125","-9.53125","-6.53125","-6.65625"
"1574260884941","627","-0.21289062","-0.9814453","-0.017578125","-8.625","-6.3125","-7.21875"
"1574260884941","628","-0.203125","-0.9951172","-0.024414062","-8.1875","-6.1875","-8.125"
"1574260884941","629","-0.21386719","-0.9765625","-0.020507812","-6.5","-5.03125","-8.875"
"1574260885334","630","-0.20800781","-0.98828125","-0.020507812","-4.90625","-2.8125","-6.65625"
"1574260885335","631","-0.21582031","-0.98046875","-0.01171875","-4.90625","0.28125","-7.15625"
"1574260885335","632","-0.19433594","-0.9785156","-0.03125","-6.96875","-2.21875","-3.4375"
"1574260885336","633","-0.21386719","-0.99316406","-0.03125","-3.375","1.15625","-4.40625"
"1574260885336","634","-0.18847656","-0.9765625","-0.032226562","-0.5","0.90625","-1.65625"
"1574260885336","635","-0.19824219","-0.98046875","-0.032226562","-3.875","1.28125","-4.28125"
"1574260885336","636","-0.17285156","-0.9873047","-0.033203125","-4.21875","3.28125","-1.90625"
"1574260885338","637","-0.19335938","-1.0019531","-0.04296875","-0.6875","-1.40625","-2.75"
"1574260885338","638","-0.18457031","-0.9794922","-0.030273438","-4.59375","-0.5625","-2.9375"
"1574260885339","639","-0.16015625","-0.9941406","-0.036132812","-6.53125","0.34375","-1.40625"
"1574260885731","640","-0.19238281","-0.9814453","-0.033203125","-7.9375","-1.53125","-3.125"
"1574260885732","641","-0.18261719","-0.9941406","-0.057617188","-6.1875","-1.96875","-2.8125"
"1574260885732","642","-0.20117188","-0.9765625","-0.044921875","-5.5625","-1.0","-4.84375"
"1574260885732","643","-0.17871094","-0.99902344","-0.056640625","-2.75","-2.59375","-3.125"
"1574260885733","644","-0.1796875","-0.9941406","-0.056640625","-3.25","-3.1875","-6.375"
"1574260885733","645","-0.15917969","-0.98339844","-0.076171875","-2.6875","-7.21875","-5.875"
"1574260885733","646","-0.14160156","-0.9902344","-0.06347656","-5.5","-0.0625","-4.78125"
"1574260885733","647","-0.1640625","-1.0117188","-0.06933594","-9.46875","-0.5","-6.78125"
"1574260885734","648","-0.16210938","-0.99316406","-0.08691406","-3.0625","4.375","-5.4375"
"1574260885735","649","-0.16796875","-0.97753906","-0.09375","-4.65625","10.3125","-5.3125"
"1574260886328","650","-0.15429688","-0.9921875","-0.07421875","-6.71875","15.5","-3.96875"
"1574260886329","651","-0.16601562","-0.98828125","-0.08496094","-2.6875","9.625","-4.09375"
"1574260886329","652","-0.16992188","-0.9824219","-0.08691406","-0.5","13.21875","-4.09375"
"1574260886329","653","-0.14746094","-0.9921875","-0.07421875","0.0","15.5","-2.6875"
"1574260886330","654","-0.13964844","-0.9921875","-0.10058594","1.09375","14.3125","-1.125"
"1574260886330","655","-0.115234375","-1.0","-0.0703125","-0.0625","16.34375","0.53125"
"1574260886330","656","-0.13574219","-0.99609375","-0.08496094","2.3125","10.59375","-0.375"
"1574260886331","657","-0.12207031","-1.0039062","-0.06933594","-0.5","6.03125","0.71875"
"1574260886331","658","-0.14257812","-0.9970703","-0.06933594","0.15625","1.8125","-2.34375"
"1574260886331","659","-0.13769531","-0.9765625","-0.083984375","1.375","2.0","-2.59375"
"1574260886724","660","-0.12695312","-1.0019531","-0.07910156","0.65625","2.1875","-1.71875"
"1574260886726","661","-0.15332031","-1.0","-0.06640625","-0.3125","1.75","-3.0625"
"1574260886727","662","-0.14355469","-0.9873047","-0.08496094","2.0","2.0","-1.71875"
"1574260886727","663","-0.15917969","-0.9951172","-0.068359375","0.0","2.90625","-3.96875"
"1574260886727","664","-0.14257812","-0.9951172","-0.06738281","0.46875","1.375","-2.9375"
"1574260886728","665","-0.13671875","-0.984375","-0.06542969","-1.3125","0.59375","-4.03125"
"1574260886728","666","-0.14550781","-0.9970703","-0.0703125","-0.5625","1.3125","-2.59375"
"1574260886728","667","-0.14453125","-0.984375","-0.06640625","-1.0625","4.5","-2.21875"
"1574260886729","668","-0.14453125","-0.9941406","-0.061523438","0.03125","2.78125","-0.875"
"1574260886729","669","-0.13574219","-1.0029297","-0.07128906","-2.09375","3.34375","-0.6875"
"1574260887123","670","-0.15234375","-0.9873047","-0.0625","-2.75","3.84375","-0.375"
"1574260887123","671","-0.15332031","-1.0009766","-0.06347656","-4.09375","2.96875","-0.5625"
"1574260887123","672","-0.14746094","-0.9980469","-0.078125","-3.96875","3.53125","-0.625"
"1574260887124","673","-0.13085938","-0.9970703","-0.07519531","-3.75","4.0625","0.28125"
"1574260887125","674","-0.140625","-0.9970703","-0.083984375","-4.09375","2.65625","0.65625"
"1574260887125","675","-0.14257812","-0.9824219","-0.08691406","-5.4375","4.0","-0.3125"
"1574260887125","676","-0.13671875","-1.0068359","-0.09082031","1.15625","2.5625","0.21875"
"1574260887126","677","-0.13183594","-0.9863281","-0.08203125","-4.53125","4.3125","-0.8125"
"1574260887126","678","-0.14746094","-1.0019531","-0.08886719","-3.90625","3.84375","-0.3125"
"1574260887126","679","-0.1484375","-0.9873047","-0.08203125","-3.5","1.03125","0.0"
"1574260887519","680","-0.13671875","-1.0029297","-0.08886719","-3.25","2.59375","0.21875"
"1574260887519","681","-0.15136719","-0.9892578","-0.07910156","-2.28125","1.3125","-0.25"
"1574260887519","682","-0.13671875","-0.9863281","-0.08691406","8.84375","-11.6875","2.65625"
"1574260887520","683","-0.15039062","-0.9628906","-0.0703125","4.1875","-13.625","7.5"
"1574260887520","684","-0.16308594","-1.0058594","-0.056640625","-0.625","-15.59375","8.71875"
"1574260887520","685","-0.16992188","-1.0087891","-0.0703125","-5.75","-8.375","3.46875"
"1574260887520","686","-0.15429688","-0.99902344","-0.07519531","-2.40625","-2.59375","1.625"
"1574260887521","687","-0.16992188","-0.99609375","-0.08300781","-1.46875","-1.90625","0.09375"
"1574260887521","688","-0.16503906","-0.9873047","-0.08496094","-0.1875","-1.0","-1.0"
"1574260887521","689","-0.16503906","-0.99902344","-0.05859375","-0.625","-3.4375","-0.125"
"1574260887718","690","-0.1640625","-0.99316406","-0.07519531","2.59375","-6.84375","2.1875"
"1574260887718","691","-0.18457031","-1.0068359","-0.03125","-5.875","-17.34375","2.3125"
"1574260887719","692","-0.16601562","-0.9941406","-0.06542969","-7.65625","-13.875","2.90625"
"1574260887719","693","-0.18554688","-0.9716797","-0.07421875","-9.0","-4.96875","1.5"
"1574260887719","694","-0.15917969","-1.0019531","-0.11230469","-1.65625","-4.59375","2.78125"
"1574260887719","695","-0.15625","-0.9824219","-0.103515625","0.34375","-0.375","0.84375"
"1574260887720","696","-0.1953125","-0.99316406","-0.1015625","4.1875","3.03125","-0.4375"
"1574260887721","697","-0.15332031","-0.96972656","-0.12109375","9.8125","14.875","1.75"
"1574260887721","698","-0.23144531","-1.0107422","-9.765625E-4","-3.25","-0.5","1.8125"
"1574260887722","699","-0.22070312","-0.9628906","-0.06738281","-4.09375","3.15625","0.40625"
"1574260888116","700","-0.1875","-1.0107422","-0.064453125","-3.5625","0.03125","0.53125"
"1574260888116","701","-0.17480469","-0.95996094","-0.10546875","4.6875","0.71875","2.375"
"1574260888117","702","-0.13183594","-0.9736328","-0.115234375","13.71875","0.0","2.5"
"1574260888117","703","-0.26757812","-1.0166016","-0.015625","6.8125","-10.40625","1.4375"
"1574260888117","704","-0.18261719","-0.9892578","-0.078125","7.625","2.5","6.15625"
"1574260888118","705","-0.19140625","-0.98046875","-0.06933594","2.1875","6.5625","1.875"
"1574260888118","706","-0.19726562","-0.96484375","-0.0625","14.625","9.375","3.34375"
"1574260888118","707","-0.203125","-1.015625","-0.026367188","8.59375","4.25","-0.5625"
"1574260888118","708","-0.17871094","-0.95410156","-0.048828125","17.1875","6.15625","-0.3125"
"1574260888120","709","-0.26367188","-0.99121094","0.0390625","-2.75","-5.6875","0.21875"
"1574260888513","710","-0.19824219","-0.96875","-0.030273438","3.34375","2.71875","4.1875"
"1574260888514","711","-0.20996094","-0.99316406","-0.00390625","6.40625","-2.875","0.46875"
"1574260888514","712","-0.21777344","-0.9707031","-0.0234375","13.90625","-3.25","2.125"
"1574260888514","713","-0.20605469","-0.9746094","0.020507812","19.40625","7.6875","2.25"
"1574260888515","714","-0.28222656","-1.0195312","0.07128906","3.34375","-4.34375","2.3125"
"1574260888515","715","-0.21289062","-0.9609375","0.046875","8.71875","3.90625","2.1875"
"1574260888516","716","-0.21484375","-0.98828125","0.049804688","9.8125","1.3125","0.96875"
"1574260888516","717","-0.23632812","-0.9736328","0.041015625","12.375","1.875","0.71875"
"1574260888516","718","-0.20605469","-0.98339844","0.046875","18.40625","0.0","-0.5625"
"1574260888516","719","-0.21191406","-0.96972656","0.048828125","19.09375","2.78125","0.46875"
"1574260888912","720","-0.2109375","-0.9667969","0.06347656","15.1875","5.53125","2.125"
"1574260888913","721","-0.22167969","-0.98046875","0.06933594","11.59375","7.25","3.03125"
"1574260888914","722","-0.265625","-0.9824219","0.12890625","6.5625","7.125","3.21875"
"1574260888914","723","-0.20800781","-0.9589844","0.13671875","-0.8125","2.5","5.34375"
"1574260888915","724","-0.26367188","-0.9716797","0.0859375","-6.5","-2.53125","4.125"
"1574260888915","725","-0.24121094","-0.9707031","0.07421875","-3.625","4.5","5.34375"
"1574260888915","726","-0.23242188","-0.9589844","0.07519531","-4.71875","6.625","0.28125"
"1574260888915","727","-0.23046875","-0.95996094","0.083984375","4.8125","4.6875","1.5625"
"1574260888916","728","-0.24902344","-0.95996094","0.08984375","2.78125","3.59375","1.75"
"1574260888916","729","-0.24609375","-0.97265625","0.08496094","4.5625","5.59375","2.65625"
"1574260889506","730","-0.25195312","-0.97265625","0.111328125","4.0625","3.90625","2.4375"
"1574260889506","731","-0.26757812","-0.95410156","0.09667969","5.34375","1.03125","2.375"
"1574260889506","732","-0.265625","-0.97753906","0.111328125","6.03125","0.96875","2.65625"
"1574260889508","733","-0.2626953","-0.9482422","0.09082031","8.78125","-1.65625","0.03125"
"1574260889508","734","-0.25195312","-0.95410156","0.12597656","5.21875","3.71875","4.375"
"1574260889509","735","-0.24804688","-0.9550781","0.10644531","1.875","5.0","5.34375"
"1574260889509","736","-0.26660156","-0.9716797","0.12207031","2.1875","-0.3125","7.6875"
"1574260889509","737","-0.2919922","-0.9423828","0.13378906","4.0625","3.65625","4.0"
"1574260889510","738","-0.2861328","-0.9667969","0.13964844","3.21875","4.3125","2.84375"
"1574260889510","739","-0.2783203","-0.93847656","0.14746094","4.0625","5.21875","0.84375"
"1574260889705","740","-0.28027344","-0.95410156","0.13574219","2.5625","3.65625","0.90625"
"1574260889706","741","-0.29296875","-0.953125","0.14160156","3.03125","4.75","-0.5"
"1574260889706","742","-0.2705078","-0.9628906","0.15136719","1.3125","4.9375","0.40625"
"1574260889706","743","-0.28710938","-0.95214844","0.13671875","3.46875","5.21875","-0.3125"
"1574260889706","744","-0.28710938","-0.9375","0.14941406","3.21875","4.9375","1.6875"
"1574260889708","745","-0.29589844","-0.9472656","0.15136719","-1.1875","6.15625","0.84375"
"1574260889708","746","-0.30664062","-0.9433594","0.16796875","1.75","5.125","2.1875"
"1574260889708","747","-0.31152344","-0.9277344","0.16015625","3.34375","1.625","0.53125"
"1574260889708","748","-0.30371094","-0.9501953","0.17285156","3.71875","4.8125","0.65625"
"1574260889709","749","-0.2734375","-0.9394531","0.15136719","7.25","0.65625","0.53125"
"1574260890104","750","-0.31445312","-0.9404297","0.1796875","5.34375","-5.25","-0.6875"
"1574260890105","751","-0.3154297","-0.9394531","0.16210938","2.96875","-1.46875","-0.75"
"1574260890105","752","-0.29003906","-0.9589844","0.15625","1.9375","-2.6875","-0.5"
"1574260890105","753","-0.28125","-0.9375","0.17480469","0.78125","0.21875","0.0"
"1574260890105","754","-0.28808594","-0.9238281","0.16015625","-0.1875","2.3125","0.21875"
"1574260890106","755","-0.2919922","-0.94140625","0.17675781","-0.8125","2.59375","1.75"
"1574260890106","756","-0.31152344","-0.93847656","0.17480469","0.65625","2.0625","1.75"
"1574260890107","757","-0.30078125","-0.9394531","0.16894531","-2.34375","3.84375","1.875"
"1574260890107","758","-0.28515625","-0.9375","0.171875","-4.34375","1.8125","1.03125"
"1574260890107","759","-0.30859375","-0.93847656","0.15136719","-9.90625","-0.0625","-1.0"
"1574260890501","760","-0.2734375","-0.953125","0.15820312","-6.65625","3.65625","-1.59375"
"1574260890502","761","-0.29785156","-0.95410156","0.16601562","-3.6875","1.15625","-1.40625"
"1574260890502","762","-0.30859375","-0.93359375","0.15917969","-3.75","2.125","-2.28125"
"1574260890502","763","-0.29882812","-0.9433594","0.16601562","-5.75","5.28125","-2.09375"
"1574260890502","764","-0.28808594","-0.93847656","0.15136719","-8.9375","10.78125","-0.75"
"1574260890503","765","-0.30371094","-0.9628906","0.14746094","-6.1875","6.09375","-2.09375"
"1574260890503","766","-0.2919922","-0.92089844","0.16113281","-8.625","1.4375","0.03125"
"1574260890503","767","-0.30371094","-0.9472656","0.1484375","-12.65625","-3.90625","0.09375"
"1574260890503","768","-0.30566406","-0.9580078","0.14746094","-16.6875","-12.03125","1.09375"
"1574260890505","769","-0.3310547","-0.9199219","0.109375","-19.3125","-9.90625","1.3125"
"1574260890900","770","-0.2421875","-0.95996094","0.091796875","-1.125","-6.375","-0.25"
"1574260890900","771","-0.30859375","-0.93652344","0.11425781","0.15625","-10.75","-3.875"
"1574260890900","772","-0.28808594","-0.9423828","0.11230469","2.3125","-1.34375","0.46875"
"1574260890901","773","-0.2890625","-0.95996094","0.12597656","-2.03125","-0.0625","-0.875"
"1574260890901","774","-0.31347656","-0.9277344","0.15136719","-2.53125","2.84375","1.6875"
"1574260890901","775","-0.2529297","-0.9746094","0.11035156","0.90625","3.03125","2.0625"
"1574260890901","776","-0.30664062","-0.93652344","0.109375","-1.59375","-0.3125","-0.3125"
"1574260890902","777","-0.2998047","-0.95703125","0.1328125","1.4375","4.0","-0.6875"
"1574260890902","778","-0.31152344","-0.96191406","0.13964844","1.21875","4.125","-1.53125"
"1574260890902","779","-0.36816406","-0.9609375","0.20019531","-8.75","9.75","-4.53125"
"1574260891296","780","-0.3330078","-0.98339844","0.14746094","-12.96875","14.5625","-5.375"
"1574260891298","781","-0.375","-0.94628906","0.19433594","-17.90625","13.90625","-10.75"
"1574260891298","782","-0.34570312","-0.9560547","0.12011719","-10.625","12.8125","-12.84375"
"1574260891299","783","-0.30859375","-0.94628906","0.10644531","-8.8125","13.59375","-11.90625"
"1574260891299","784","-0.27148438","-0.95996094","0.095703125","-2.59375","12.125","-11.6875"
"1574260891299","785","-0.27734375","-0.9707031","0.072265625","1.21875","11.28125","-8.1875"
"1574260891300","786","-0.26367188","-0.97753906","0.07128906","-0.375","10.125","-10.21875"
"1574260891300","787","-0.2763672","-0.9814453","0.09375","0.65625","10.0625","-8.875"
"1574260891300","788","-0.24804688","-0.94921875","0.083984375","-0.125","12.1875","-8.375"
"1574260891301","789","-0.23730469","-0.9746094","0.083984375","-7.8125","12.9375","-6.84375"
"1574260891693","790","-0.265625","-0.95996094","0.07910156","-8.8125","9.1875","-6.78125"
"1574260891693","791","-0.24609375","-0.96875","0.0625","-9.125","3.9375","-5.5625"
"1574260891694","792","-0.23339844","-0.99609375","0.04296875","-7.78125","3.28125","-10.5625"
"1574260891695","793","-0.25","-0.95410156","0.041015625","-8.25","2.25","-12.59375"
"1574260891695","794","-0.22070312","-0.98339844","0.03125","-6.0","0.59375","-10.4375"
"1574260891695","795","-0.2109375","-0.96777344","0.0126953125","-3.3125","2.125","-11.78125"
"1574260891696","796","-0.21679688","-0.96484375","0.032226562","-8.5625","7.4375","-10.5"
"1574260891696","797","-0.18554688","-0.9951172","0.0146484375","-6.0","4.5","-8.75"
"1574260891696","798","-0.19921875","-0.9716797","0.028320312","-6.90625","5.96875","-8.1875"
"1574260891696","799","-0.15136719","-0.9873047","0.01953125","-9.53125","2.3125","-6.78125"
"1574260892090","800","-0.17089844","-0.97265625","0.0048828125","-9.40625","-1.78125","-5.625"
"1574260892091","801","-0.17578125","-0.9980469","0.0078125","-8.3125","-2.625","-5.09375"
"1574260892091","802","-0.19140625","-0.98339844","-0.0068359375","-6.25","-3.0625","-7.09375"
"1574260892091","803","-0.16015625","-0.9824219","-0.01171875","-5.6875","-2.15625","-6.59375"
"1574260892092","804","-0.18847656","-0.9902344","-9.765625E-4","-5.375","-0.375","-7.875"
"1574260892093","805","-0.15917969","-0.9785156","-9.765625E-4","-7.65625","2.375","-6.0625"
"1574260892093","806","-0.18359375","-0.99121094","-0.01953125","-6.125","2.3125","-5.5625"
"1574260892093","807","-0.15722656","-0.98535156","0.013671875","-11.375","9.1875","-3.8125"
"1574260892094","808","-0.16992188","-0.99316406","-0.026367188","-11.84375","6.09375","-5.5"
"1574260892094","809","-0.15234375","-0.9902344","-0.028320312","-10.5625","6.75","-2.46875"
"1574260892489","810","-0.16601562","-0.9980469","-0.051757812","-9.0625","1.375","-5.625"
"1574260892490","811","-0.15429688","-1.0","-0.05078125","-3.5625","1.9375","-2.34375"
"1574260892490","812","-0.12597656","-0.9980469","-0.060546875","-7.875","0.78125","-4.28125"
"1574260892490","813","-0.15820312","-1.0009766","-0.057617188","-4.90625","0.03125","-3.0"
"1574260892490","814","-0.15039062","-0.9902344","-0.047851562","-6.5","0.09375","-3.0625"
"1574260892491","815","-0.14941406","-0.9951172","-0.0625","-5.09375","0.71875","-2.40625"
"1574260892491","816","-0.13867188","-0.9873047","-0.055664062","-4.71875","0.59375","-2.40625"
"1574260892492","817","-0.13964844","-0.9873047","-0.06640625","-2.34375","-3.125","-1.34375"
"1574260892492","818","-0.12792969","-0.9892578","-0.056640625","-2.6875","-1.96875","-1.1875"
"1574260892493","819","-0.15625","-0.9736328","-0.072265625","-1.1875","-1.84375","-0.25"
"1574260892887","820","-0.13183594","-1.0078125","-0.0703125","-1.59375","1.28125","1.8125"
"1574260892887","821","-0.15332031","-1.0205078","-0.064453125","0.59375","-0.125","-0.5625"
"1574260892888","822","-0.15527344","-0.97753906","-0.059570312","-0.4375","0.90625","-0.25"
"1574260892888","823","-0.12988281","-0.9970703","-0.055664062","-1.125","-0.3125","-1.0"
"1574260892888","824","-0.15234375","-1.0019531","-0.059570312","-0.5","-2.53125","-1.34375"
"1574260892888","825","-0.12890625","-0.984375","-0.06640625","-1.0","-3.875","-2.15625"
"1574260892889","826","-0.11621094","-1.0136719","-0.048828125","1.15625","-6.5","1.3125"
"1574260892889","827","-0.14941406","-0.9824219","-0.03515625","-7.875","-4.96875","-0.8125"
"1574260892889","828","-0.15429688","-1.0039062","-0.06933594","-4.65625","-7.46875","-0.125"
"1574260892890","829","-0.18652344","-0.98828125","-0.047851562","-2.75","-8.0","-0.875"
"1574260893284","830","-0.14355469","-0.98828125","-0.0546875","-3.625","-6.1875","1.5625"
"1574260893284","831","-0.17382812","-1.0019531","-0.059570312","-4.28125","-5.5625","-0.25"
"1574260893285","832","-0.17285156","-0.97753906","-0.059570312","-2.09375","-2.8125","-0.25"
"1574260893285","833","-0.13574219","-1.0166016","-0.055664062","-4.28125","1.5625","-0.8125"
"1574260893285","834","-0.16796875","-0.9980469","-0.06347656","-2.9375","0.59375","-1.90625"
"1574260893286","835","-0.15917969","-0.99121094","-0.052734375","-4.65625","3.46875","-0.5"
"1574260893286","836","-0.16992188","-1.0097656","-0.0546875","-5.4375","4.8125","-2.09375"
"1574260893286","837","-0.13476562","-1.0039062","-0.052734375","-7.40625","2.59375","-1.125"
"1574260893286","838","-0.16796875","-1.0","-0.045898438","-11.90625","-3.75","-4.03125"
"1574260893287","839","-0.1796875","-0.9951172","-0.057617188","-14.71875","-6.375","-6.375"
"1574260893682","840","-0.14746094","-0.9658203","-0.12695312","-9.28125","-5.5625","-9.65625"
"1574260893683","841","-0.1171875","-0.99316406","-0.11621094","-1.25","1.6875","-6.0"
"1574260893683","842","-0.11425781","-0.99316406","-0.115234375","-6.5","4.0625","-4.09375"
"1574260893683","843","-0.12109375","-0.99121094","-0.11035156","-3.3125","1.03125","1.75"
"1574260893684","844","-0.1328125","-0.9814453","-0.11328125","-2.75","0.90625","3.40625"
"1574260893684","845","-0.15917969","-0.9951172","-0.10839844","-0.875","3.40625","2.0"
"1574260893684","846","-0.15820312","-0.99121094","-0.09277344","3.40625","7.5","0.21875"
"1574260893685","847","-0.1484375","-1.0361328","-0.08105469","2.0","12.5","-2.34375"
"1574260893685","848","-0.14160156","-1.0146484","-0.09277344","-2.875","9.625","-4.21875"
"1574260893685","849","-0.14257812","-0.99121094","-0.09082031","-4.96875","5.28125","-4.21875"
"1574260894079","850","-0.13671875","-0.984375","-0.095703125","-8.0","7.4375","-3.375"
"1574260894079","851","-0.111328125","-0.9785156","-0.123046875","-6.78125","6.8125","-4.28125"
"1574260894079","852","-0.1015625","-0.984375","-0.12695312","-5.5","4.3125","-1.1875"
"1574260894080","853","-0.12695312","-0.9707031","-0.12792969","-4.15625","3.59375","0.21875"
"1574260894080","854","-0.12597656","-1.0009766","-0.13964844","0.71875","5.53125","1.6875"
"1574260894080","855","-0.11816406","-0.9794922","-0.14160156","3.34375","1.875","1.09375"
"1574260894081","856","-0.13183594","-0.99316406","-0.10546875","1.625","2.0","1.375"
"1574260894081","857","-0.10546875","-1.0","-0.119140625","-2.15625","4.625","1.21875"
"1574260894083","858","-0.14941406","-0.98339844","-0.12011719","-0.0625","0.34375","-1.25"
"1574260894083","859","-0.11230469","-1.0097656","-0.125","0.78125","1.625","-0.6875"
"1574260894873","860","-0.14257812","-0.9970703","-0.12695312","1.875","3.34375","-0.375"
"1574260894873","861","-0.125","-0.99902344","-0.115234375","0.90625","2.5625","1.3125"
"1574260894874","862","-0.14453125","-0.9716797","-0.103515625","-1.78125","1.4375","0.53125"
"1574260894874","863","-0.14550781","-1.0126953","-0.12011719","2.0625","2.0","-0.4375"
"1574260894874","864","-0.15820312","-0.9970703","-0.103515625","3.03125","3.34375","-0.125"
"1574260894876","865","-0.140625","-0.9902344","-0.10546875","2.4375","2.65625","-0.3125"
"1574260894877","866","-0.14746094","-0.9921875","-0.08984375","2.375","0.90625","1.5"
"1574260894877","867","-0.13867188","-0.9785156","-0.08886719","1.28125","-0.5","1.75"
"1574260894877","868","-0.14453125","-1.0126953","-0.08886719","3.46875","-0.6875","3.90625"
"1574260894877","869","-0.16601562","-0.9707031","-0.0859375","5.40625","-1.0","1.5"
"1574260895070","870","-0.1484375","-1.0039062","-0.09375","8.21875","2.0","3.71875"
"1574260895071","871","-0.15527344","-0.984375","-0.08105469","3.90625","4.4375","2.3125"
"1574260895071","872","-0.13867188","-0.9921875","-0.08105469","7.6875","5.125","5.59375"
"1574260895071","873","-0.16894531","-0.9902344","-0.078125","6.5625","1.09375","5.59375"
"1574260895072","874","-0.13769531","-1.0078125","-0.06738281","5.78125","2.375","6.5625"
"1574260895072","875","-0.1640625","-0.98339844","-0.0625","4.75","-3.625","3.71875"
"1574260895072","876","-0.17285156","-0.9902344","-0.064453125","6.03125","-3.25","3.59375"
"1574260895073","877","-0.18652344","-0.9980469","-0.0625","6.03125","-2.9375","1.09375"
"1574260895073","878","-0.16601562","-0.98046875","-0.041015625","3.78125","0.03125","3.34375"
"1574260895074","879","-0.171875","-1.0009766","-0.043945312","4.5","-2.53125","2.0625"
"1574260895271","880","-0.19140625","-0.98535156","-0.030273438","2.59375","-1.40625","3.59375"
"1574260895271","881","-0.16699219","-0.9794922","-0.040039062","1.9375","-2.75","4.1875"
"1574260895272","882","-0.19824219","-0.99316406","-0.021484375","3.84375","-3.125","3.34375"
"1574260895272","883","-0.20703125","-0.97753906","-0.034179688","6.625","-3.125","3.21875"
"1574260895272","884","-0.21679688","-1.0","-0.015625","6.625","-1.59375","0.40625"
"1574260895272","885","-0.20507812","-0.97753906","-0.0078125","2.375","2.65625","0.15625"
"1574260895273","886","-0.23046875","-0.9873047","-0.0078125","3.71875","1.875","0.09375"
"1574260895273","887","-0.21386719","-0.9589844","-0.01171875","3.34375","9.5625","0.15625"
"1574260895273","888","-0.19140625","-1.0087891","-0.013671875","5.21875","10.1875","2.1875"
"1574260895274","889","-0.17578125","-0.9765625","9.765625E-4","5.78125","8.90625","2.84375"
"1574260895866","890","-0.17285156","-0.98339844","-0.021484375","7.90625","5.46875","3.40625"
"1574260895867","891","-0.16992188","-0.9863281","0.013671875","6.6875","4.375","4.9375"
"1574260895867","892","-0.22558594","-0.99609375","0.02734375","3.84375","-0.25","3.21875"
"1574260895868","893","-0.24609375","-0.9707031","0.017578125","4.875","-3.5","0.40625"
"1574260895868","894","-0.22265625","-0.9824219","0.013671875","6.625","-2.75","0.34375"
"1574260895868","895","-0.22265625","-0.9921875","0.036132812","5.21875","1.15625","-0.125"
"1574260895868","896","-0.23535156","-0.96191406","0.043945312","8.40625","-0.375","0.21875"
"1574260895869","897","-0.24804688","-0.9863281","0.06640625","3.65625","6.9375","2.375"
"1574260895869","898","-0.21289062","-0.99121094","0.0390625","0.90625","5.21875","3.46875"
"1574260895869","899","-0.22070312","-0.9716797","0.056640625","2.0","5.125","3.53125"
"1574260896263","900","-0.21582031","-0.96777344","0.036132812","1.4375","4.0625","4.0"
"1574260896264","901","-0.23242188","-0.9892578","0.032226562","2.375","5.90625","3.53125"
"1574260896265","902","-0.2529297","-0.97558594","0.05078125","4.0","8.03125","1.8125"
"1574260896265","903","-0.21191406","-0.97558594","0.045898438","2.78125","10.0625","2.375"
"1574260896265","904","-0.23632812","-0.96777344","0.056640625","4.125","6.03125","2.71875"
"1574260896266","905","-0.24609375","-0.9580078","0.076171875","2.96875","4.875","5.21875"
"1574260896266","906","-0.25195312","-0.98046875","0.06933594","0.96875","2.71875","3.34375"
"1574260896266","907","-0.24316406","-0.9707031","0.08105469","-4.71875","5.84375","1.6875"
"1574260896266","908","-0.24023438","-0.97753906","0.060546875","-2.625","1.9375","1.8125"
"1574260896266","909","-0.2705078","-0.9638672","0.060546875","-2.53125","1.9375","0.15625"
"1574260896662","910","-0.2626953","-0.98339844","0.083984375","-2.09375","3.15625","-0.1875"
"1574260896662","911","-0.2705078","-0.9667969","0.05859375","-4.40625","3.53125","-0.375"
"1574260896662","912","-0.265625","-0.9785156","0.055664062","-1.78125","3.9375","0.71875"
"1574260896663","913","-0.2861328","-0.9628906","0.068359375","-0.875","2.59375","0.21875"
"1574260896664","914","-0.2685547","-0.9716797","0.053710938","-0.9375","3.71875","1.8125"
"1574260896664","915","-0.2578125","-0.96484375","0.057617188","-0.0625","4.375","2.78125"
"1574260896664","916","-0.2685547","-0.9736328","0.044921875","1.75","2.0","2.5"
"1574260896664","917","-0.25878906","-0.96875","0.051757812","-0.1875","3.65625","4.0625"
"1574260896665","918","-0.25585938","-0.9667969","0.0546875","0.34375","2.0","4.8125"
"1574260896665","919","-0.2607422","-0.9667969","0.049804688","0.40625","1.09375","5.53125"
"1574260896863","920","-0.27148438","-0.97753906","0.05859375","0.21875","2.84375","3.34375"
"1574260896864","921","-0.2763672","-0.9433594","0.05078125","1.09375","1.625","2.375"
"1574260896864","922","-0.28027344","-0.97558594","0.057617188","-0.1875","-1.65625","1.21875"
"1574260896864","923","-0.2763672","-0.9707031","0.049804688","3.65625","-0.75","1.09375"
"1574260896864","924","-0.27441406","-0.9609375","0.052734375","-0.5625","1.75","-0.6875"
"1574260896866","925","-0.25195312","-0.97265625","0.037109375","-1.71875","-0.75","-0.5"
"1574260896866","926","-0.2734375","-0.9609375","0.049804688","0.0","0.53125","-1.40625"
"1574260896867","927","-0.2841797","-0.9736328","0.064453125","-1.59375","3.40625","-1.78125"
"1574260896867","928","-0.2783203","-0.94628906","0.0546875","-4.96875","2.65625","-0.5"
"1574260896867","929","-0.29003906","-0.95996094","0.051757812","-3.75","5.1875","0.65625"
"1574260897259","930","-0.27539062","-0.97265625","0.076171875","-3.625","5.96875","-1.46875"
"1574260897260","931","-0.29296875","-0.9316406","0.057617188","-11.4375","-1.46875","0.84375"
"1574260897260","932","-0.29101562","-0.9824219","0.05078125","-2.53125","-1.125","0.65625"
"1574260897260","933","-0.26757812","-0.9423828","0.045898438","-0.375","1.28125","-0.25"
"1574260897260","934","-0.2939453","-0.9658203","0.064453125","-0.6875","-0.1875","-0.5625"
"1574260897261","935","-0.2998047","-0.9736328","0.05859375","1.875","0.15625","-0.9375"
"1574260897261","936","-0.2783203","-0.9589844","0.0703125","2.3125","-0.375","-0.375"
"1574260897262","937","-0.31054688","-0.9482422","0.07910156","0.90625","0.53125","-0.875"
"1574260897262","938","-0.28710938","-0.9667969","0.07128906","3.90625","1.625","1.15625"
"1574260897263","939","-0.2890625","-0.9609375","0.072265625","-0.125","0.90625","-0.5625"
"1574260897655","940","-0.32617188","-0.9628906","0.06933594","2.65625","-4.15625","0.84375"
"1574260897656","941","-0.2919922","-0.9550781","0.08203125","3.65625","-1.96875","1.21875"
"1574260897656","942","-0.2861328","-0.9589844","0.07128906","4.125","-1.71875","3.03125"
"1574260897656","943","-0.296875","-0.9667969","0.08105469","1.6875","-0.9375","2.0625"
"1574260897657","944","-0.3173828","-0.95214844","0.07910156","2.5","0.84375","2.0"
"1574260897657","945","-0.2998047","-0.96484375","0.083984375","0.0","3.59375","2.4375"
"1574260897657","946","-0.3095703","-0.96972656","0.09082031","0.65625","2.0","0.15625"
"1574260897657","947","-0.31054688","-0.94433594","0.10253906","-1.1875","4.5","0.0"
"1574260897658","948","-0.30566406","-0.96484375","0.08886719","-2.15625","4.375","-0.5"
"1574260897658","949","-0.31445312","-0.9550781","0.099609375","-2.46875","9.09375","-2.15625"
"1574260898054","950","-0.3359375","-0.9638672","0.10839844","-3.4375","14.03125","-4.28125"
"1574260898055","951","-0.32714844","-0.9658203","0.10253906","-5.4375","18.1875","-5.15625"
"1574260898055","952","-0.3095703","-0.9638672","0.087890625","-4.53125","23.84375","-4.78125"
"1574260898056","953","-0.26757812","-0.96875","0.064453125","-4.59375","15.90625","-1.65625"
"1574260898056","954","-0.31054688","-0.9501953","0.07324219","-1.125","10.65625","-6.3125"
"1574260898056","955","-0.29003906","-0.96777344","0.07714844","2.0","7.375","-4.90625"
"1574260898056","956","-0.28320312","-0.95214844","0.059570312","0.21875","5.53125","-9.0625"
"1574260898056","957","-0.27929688","-0.9824219","0.059570312","2.5","1.4375","-7.59375"
"1574260898057","958","-0.26171875","-0.96191406","0.05859375","2.90625","-3.6875","-7.9375"
"1574260898057","959","-0.25683594","-0.95996094","0.0546875","6.9375","-4.34375","-5.9375"
"1574260898453","960","-0.265625","-0.9589844","0.07910156","4.8125","-2.53125","-4.78125"
"1574260898454","961","-0.28710938","-0.9609375","0.068359375","3.53125","0.34375","-4.28125"
"1574260898455","962","-0.25585938","-0.96191406","0.06738281","-0.0625","6.8125","-3.90625"
"1574260898455","963","-0.25097656","-0.9736328","0.064453125","-1.59375","6.9375","-5.15625"
"1574260898456","964","-0.25097656","-0.97753906","0.07128906","-6.125","5.40625","-4.40625"
"1574260898456","965","-0.25976562","-0.9667969","0.083984375","-10.03125","6.75","-5.5625"
"1574260898456","966","-0.2607422","-0.97558594","0.029296875","-13.5","4.875","-7.875"
"1574260898456","967","-0.265625","-0.9638672","0.05859375","-6.25","9.3125","-9.71875"
"1574260898457","968","-0.2265625","-0.95996094","0.10546875","-0.25","2.125","-10.5625"
"1574260898457","969","-0.24023438","-0.9628906","0.055664062","0.0","-5.75","-9.46875"
"1574260898850","970","-0.234375","-0.984375","0.059570312","-1.40625","-1.125","-6.96875"
"1574260898850","971","-0.24609375","-0.9658203","0.06933594","-6.65625","-0.75","-5.6875"
"1574260898850","972","-0.24902344","-0.9824219","0.057617188","-6.84375","-0.25","-5.3125"
"1574260898852","973","-0.23144531","-0.96484375","0.0390625","-5.4375","1.09375","-4.78125"
"1574260898852","974","-0.24023438","-0.96777344","0.05078125","-7.8125","4.625","-7.09375"
"1574260898852","975","-0.19921875","-0.98339844","0.02734375","-7.09375","3.28125","-5.15625"
"1574260898853","976","-0.20214844","-0.98339844","0.02734375","-8.3125","1.75","-4.71875"
"1574260898853","977","-0.20410156","-0.98828125","0.028320312","-9.0625","1.4375","-6.0625"
"1574260898853","978","-0.20117188","-0.98339844","0.021484375","-10.21875","2.65625","-4.90625"
"1574260898853","979","-0.18945312","-0.98828125","0.009765625","-8.6875","0.0","-5.4375"
"1574260899643","980","-0.20898438","-0.98535156","-0.00390625","-6.96875","-0.8125","-6.3125"
"1574260899643","981","-0.18554688","-0.9814453","0.0126953125","-10.5625","0.96875","-5.75"
"1574260899644","982","-0.20800781","-0.98828125","0.001953125","-8.0625","-0.6875","-6.84375"
"1574260899644","983","-0.19824219","-0.9824219","0.0087890625","-9.34375","1.3125","-6.1875"
"1574260899644","984","-0.18261719","-0.98046875","-0.013671875","-7.34375","-0.3125","-7.09375"
"1574260899645","985","-0.18847656","-0.9980469","-0.0087890625","-7.59375","1.03125","-5.625"
"1574260899646","986","-0.17578125","-0.9785156","-0.013671875","-7.40625","1.4375","-6.125"
"1574260899646","987","-0.17382812","-0.99121094","-0.025390625","-6.4375","-1.90625","-3.1875"
"1574260899647","988","-0.15625","-1.0107422","-0.03515625","-7.875","0.21875","-2.9375"
"1574260899647","989","-0.1875","-0.9863281","-0.0390625","-9.84375","-0.8125","-4.84375"
"1574260899840","990","-0.15527344","-0.99902344","-0.03515625","-4.71875","0.78125","-2.6875"
"1574260899841","991","-0.17480469","-0.9902344","-0.045898438","-8.5625","0.59375","-3.75"
"1574260899841","992","-0.16308594","-0.9970703","-0.044921875","-9.46875","3.71875","-2.40625"
"1574260899841","993","-0.16894531","-0.99121094","-0.057617188","-6.4375","-1.34375","-3.5625"
"1574260899842","994","-0.14941406","-0.984375","-0.048828125","-6.53125","-1.46875","-2.875"
"1574260899842","995","-0.14453125","-0.9951172","-0.06738281","-6.0","-0.8125","-4.09375"
"1574260899842","996","-0.15820312","-0.98535156","-0.07421875","-4.78125","-3.875","-3.1875"
"1574260899843","997","-0.14160156","-0.98535156","-0.080078125","-4.46875","-3.8125","-2.09375"
"1574260899844","998","-0.13867188","-0.98535156","-0.08105469","-4.71875","-4.71875","-1.53125"
"1574260899844","999","-0.15136719","-1.0048828","-0.078125","-2.875","-5.5","-1.25"
"1574260900042","1000","-0.15820312","-0.98046875","-0.083984375","-3.1875","-3.0625","-2.34375"
"1574260900042","1001","-0.13769531","-1.0117188","-0.07128906","-1.90625","-1.40625","-0.4375"
"1574260900043","1002","-0.13476562","-0.9980469","-0.07324219","-2.8125","-0.4375","-1.125"
"1574260900043","1003","-0.15039062","-0.9902344","-0.07910156","-0.875","-0.1875","-1.34375"
"1574260900043","1004","-0.13378906","-0.99121094","-0.07128906","-1.59375","-2.34375","-1.46875"
"1574260900043","1005","-0.15332031","-0.9873047","-0.08105469","-2.46875","-0.6875","-2.625"
"1574260900044","1006","-0.12402344","-0.99902344","-0.07128906","-1.84375","-0.8125","-0.3125"
"1574260900044","1007","-0.13769531","-0.98046875","-0.09765625","-1.71875","-3.75","-0.25"
"1574260900044","1008","-0.14550781","-1.0039062","-0.09082031","-4.90625","-1.0625","1.375"
"1574260900045","1009","-0.13378906","-0.9921875","-0.09082031","-5.9375","1.15625","-1.125"
"1574260900439","1010","-0.16210938","-0.9941406","-0.08300781","-5.15625","-1.59375","-1.78125"
"1574260900440","1011","-0.13378906","-1.0029297","-0.08691406","-4.84375","-0.3125","-3.0"
"1574260900440","1012","-0.14746094","-1.0009766","-0.0859375","-4.09375","-1.125","-3.90625"
"1574260900440","1013","-0.14648438","-0.98828125","-0.08886719","-3.6875","-0.9375","-3.0625"
"1574260900441","1014","-0.15332031","-0.9921875","-0.09667969","-3.90625","0.78125","-3.375"
"1574260900441","1015","-0.14160156","-1.0019531","-0.09863281","-3.96875","4.75","-1.65625"
"1574260900441","1016","-0.15234375","-0.9941406","-0.11035156","-2.46875","5.96875","-2.40625"
"1574260900442","1017","-0.14746094","-0.9902344","-0.09277344","0.96875","5.65625","-1.59375"
"1574260900442","1018","-0.13769531","-1.0029297","-0.09863281","0.71875","5.90625","-1.90625"
"1574260900442","1019","-0.14257812","-0.9941406","-0.09277344","0.09375","4.75","-2.53125"
"1574260900837","1020","-0.14257812","-0.9873047","-0.08691406","0.40625","5.125","-1.71875"
"1574260900838","1021","-0.125","-1.0009766","-0.091796875","2.1875","4.9375","-1.53125"
"1574260900839","1022","-0.15429688","-0.98828125","-0.09667969","1.5","2.65625","-1.125"
"1574260900839","1023","-0.13085938","-0.99609375","-0.08105469","2.0","5.0625","0.28125"
"1574260900839","1024","-0.16113281","-0.9951172","-0.08300781","2.65625","5.21875","-1.71875"
"1574260900840","1025","-0.13964844","-1.0068359","-0.07421875","3.90625","5.53125","0.28125"
"1574260900840","1026","-0.13183594","-0.984375","-0.078125","2.0625","6.875","-0.875"
"1574260900840","1027","-0.15234375","-0.99902344","-0.05859375","3.34375","2.3125","0.09375"
"1574260900840","1028","-0.13574219","-0.98339844","-0.06640625","3.59375","-1.125","0.34375"
"1574260900841","1029","-0.12597656","-1.0","-0.064453125","3.84375","-1.0625","0.84375"
"1574260901234","1030","-0.15820312","-0.9980469","-0.061523438","3.65625","-0.75","0.0"
"1574260901235","1031","-0.14257812","-0.9921875","-0.05859375","3.46875","0.09375","0.71875"
"1574260901235","1032","-0.14355469","-1.0019531","-0.0625","2.90625","2.4375","0.78125"
"1574260901236","1033","-0.15722656","-0.99121094","-0.049804688","2.375","4.75","0.21875"
"1574260901236","1034","-0.14257812","-0.9873047","-0.045898438","1.375","5.21875","1.5"
"1574260901237","1035","-0.13867188","-0.9980469","-0.049804688","-1.0625","4.9375","1.4375"
"1574260901237","1036","-0.15527344","-0.9863281","-0.04296875","-2.15625","4.1875","1.5625"
"1574260901237","1037","-0.14941406","-0.99121094","-0.051757812","-3.8125","3.15625","1.4375"
"1574260901237","1038","-0.15332031","-1.0029297","-0.059570312","-3.4375","3.15625","1.03125"
"1574260901238","1039","-0.15917969","-0.9941406","-0.055664062","-4.40625","4.5","0.96875"
"1574260901630","1040","-0.14453125","-0.984375","-0.06933594","-4.03125","4.0","0.78125"
"1574260901631","1041","-0.140625","-1.0019531","-0.06542969","-2.6875","3.15625","3.09375"
"1574260901631","1042","-0.15234375","-0.9941406","-0.0703125","-5.875","4.25","0.90625"
"1574260901631","1043","-0.17675781","-0.99121094","-0.06933594","-4.59375","2.78125","0.65625"
"1574260901631","1044","-0.171875","-0.99316406","-0.072265625","-2.46875","1.375","0.84375"
"1574260901632","1045","-0.16699219","-0.99121094","-0.076171875","-1.3125","1.5","0.28125"
"1574260901632","1046","-0.16210938","-0.984375","-0.07519531","-0.9375","2.375","1.03125"
"1574260901632","1047","-0.16113281","-1.0","-0.07324219","1.5625","0.90625","2.65625"
"1574260901633","1048","-0.16210938","-0.98828125","-0.06738281","1.3125","4.125","1.4375"
"1574260901633","1049","-0.15039062","-1.0097656","-0.0625","1.09375","2.0","2.375"
"1574260902029","1050","-0.20214844","-0.984375","-0.051757812","1.3125","0.03125","1.625"
"1574260902030","1051","-0.16308594","-0.99316406","-0.06933594","2.0625","1.625","2.65625"
"1574260902030","1052","-0.1796875","-0.9921875","-0.053710938","2.0","0.84375","-0.5625"
"1574260902031","1053","-0.1796875","-0.98339844","-0.047851562","2.1875","0.28125","-0.375"
"1574260902031","1054","-0.1796875","-0.9902344","-0.053710938","2.78125","-1.46875","0.03125"
"1574260902031","1055","-0.18652344","-0.9970703","-0.040039062","3.71875","0.65625","1.8125"
"1574260902031","1056","-0.20019531","-0.9746094","-0.05859375","1.75","0.28125","1.21875"
"1574260902033","1057","-0.19921875","-1.0029297","-0.04296875","5.125","1.5","2.0"
"1574260902033","1058","-0.17382812","-0.97558594","-0.03125","-1.0","5.34375","2.375"
"1574260902034","1059","-0.203125","-0.9970703","-0.040039062","4.375","0.71875","1.21875"
"1574260902428","1060","-0.18261719","-0.9746094","-0.029296875","2.0","0.71875","2.71875"
"1574260902429","1061","-0.19042969","-0.9970703","-0.04296875","3.28125","-0.6875","2.4375"
"1574260902429","1062","-0.21777344","-0.98046875","-0.0234375","3.03125","1.875","1.5"
"1574260902429","1063","-0.18457031","-0.98046875","-0.02734375","3.53125","1.375","3.46875"
"1574260902430","1064","-0.19628906","-0.9970703","-0.01953125","2.78125","3.90625","2.96875"
"1574260902430","1065","-0.19433594","-0.9814453","-0.016601562","1.625","2.90625","3.90625"
"1574260902430","1066","-0.21289062","-0.99609375","-0.0126953125","2.1875","1.6875","2.375"
"1574260902430","1067","-0.19726562","-0.9873047","-0.01171875","2.0","4.4375","3.78125"
"1574260902431","1068","-0.21191406","-0.98046875","-0.013671875","3.15625","-0.8125","1.5625"
"1574260902432","1069","-0.2109375","-0.9765625","0.0029296875","4.875","0.0","2.84375"
"1574260902825","1070","-0.23144531","-0.9921875","0.0029296875","3.65625","-0.4375","0.53125"
"1574260902826","1071","-0.20996094","-0.9863281","0.0107421875","2.5625","3.59375","2.78125"
"1574260902826","1072","-0.20605469","-0.9746094","0.0","2.90625","0.71875","1.5625"
"1574260902826","1073","-0.22265625","-0.9746094","0.0087890625","2.0","2.65625","3.03125"
"1574260902827","1074","-0.22070312","-0.9794922","0.0029296875","0.65625","9.5","2.84375"
"1574260902827","1075","-0.23828125","-0.9873047","-0.0146484375","7.375","6.6875","1.5625"
"1574260902827","1076","-0.22949219","-0.98535156","0.016601562","7.625","13.84375","1.75"
"1574260902828","1077","-0.20996094","-0.98046875","0.0078125","5.0","12.5","1.75"
"1574260902828","1078","-0.22949219","-0.9794922","0.015625","3.21875","10.1875","2.65625"
"1574260902828","1079","-0.23925781","-0.9716797","0.022460938","8.46875","8.28125","2.4375"
"1574260903221","1080","-0.24023438","-0.9667969","0.022460938","5.21875","8.34375","2.96875"
"1574260903222","1081","-0.21972656","-0.9716797","0.029296875","7.125","5.78125","2.84375"
"1574260903222","1082","-0.2421875","-0.98339844","0.033203125","8.34375","5.34375","3.09375"
"1574260903223","1083","-0.22949219","-0.96484375","0.040039062","5.90625","3.59375","2.4375"
"1574260903223","1084","-0.24023438","-0.9746094","0.048828125","5.40625","1.15625","3.03125"
"1574260903223","1085","-0.28125","-0.95996094","0.041015625","4.6875","1.6875","1.8125"
"1574260903223","1086","-0.2763672","-0.9814453","0.06542969","7.8125","2.78125","1.375"
"1574260903224","1087","-0.25097656","-0.97265625","0.07714844","8.90625","2.65625","2.0"
"1574260903224","1088","-0.24511719","-0.9638672","0.06738281","6.46875","1.75","2.5625"
"1574260903224","1089","-0.26660156","-0.97753906","0.083984375","6.21875","2.5625","3.34375"
"1574260904014","1090","-0.23925781","-0.94921875","0.087890625","3.46875","2.5625","4.8125"
"1574260904015","1091","-0.265625","-0.9550781","0.0859375","8.78125","-4.03125","8.28125"
"1574260904015","1092","-0.2734375","-0.9404297","0.12207031","4.875","-0.3125","8.71875"
"1574260904016","1093","-0.28808594","-0.9589844","0.09277344","8.59375","0.0","8.15625"
"1574260904016","1094","-0.31835938","-0.9589844","0.087890625","8.84375","0.90625","6.09375"
"1574260904016","1095","-0.31445312","-0.9375","0.12597656","7.8125","2.71875","6.21875"
"1574260904017","1096","-0.29296875","-0.95410156","0.13183594","5.46875","2.90625","5.78125"
"1574260904017","1097","-0.3125","-0.9404297","0.12695312","5.40625","0.09375","6.5625"
"1574260904017","1098","-0.3125","-0.9375","0.12402344","6.6875","0.78125","6.8125"
"1574260904017","1099","-0.3017578","-0.953125","0.12988281","2.5","0.71875","5.53125"
"1574260904213","1100","-0.29785156","-0.96777344","0.12109375","2.59375","-0.6875","3.21875"
"1574260904213","1101","-0.32128906","-0.9355469","0.12597656","2.0","0.03125","2.0625"
"1574260904213","1102","-0.32128906","-0.94140625","0.11425781","0.21875","1.875","2.78125"
"1574260904214","1103","-0.31445312","-0.9355469","0.12597656","-3.4375","5.53125","1.625"
"1574260904214","1104","-0.28808594","-0.9423828","0.1328125","1.5625","1.5","3.90625"
"1574260904215","1105","-0.32714844","-0.94433594","0.1171875","-0.6875","-5.5","2.1875"
"1574260904216","1106","-0.3330078","-0.95410156","0.1171875","-0.125","-4.34375","1.375"
"1574260904216","1107","-0.35058594","-0.9433594","0.12988281","-0.8125","-5.25","-3.6875"
"1574260904216","1108","-0.33398438","-0.94140625","0.13476562","-4.34375","0.34375","-4.03125"
"1574260904216","1109","-0.31640625","-0.9394531","0.16992188","-7.15625","2.90625","-3.125"
"1574260904611","1110","-0.3466797","-0.92871094","0.13574219","-7.71875","-4.15625","0.34375"
"1574260904612","1111","-0.33007812","-0.9472656","0.11816406","-5.375","2.59375","-0.5"
"1574260904612","1112","-0.3046875","-0.93066406","0.13476562","-3.6875","3.9375","0.34375"
"1574260904612","1113","-0.3310547","-0.9355469","0.13183594","-0.25","3.03125","0.65625"
"1574260904612","1114","-0.31835938","-0.9345703","0.123046875","-1.40625","-0.1875","1.3125"
"1574260904613","1115","-0.33398438","-0.9453125","0.13769531","3.34375","0.46875","1.15625"
"1574260904613","1116","-0.34179688","-0.9248047","0.13867188","3.40625","1.3125","1.4375"
"1574260904614","1117","-0.3125","-0.9404297","0.14355469","4.0","0.28125","1.5"
"1574260904614","1118","-0.32910156","-0.93847656","0.14453125","4.125","0.71875","1.3125"
"1574260904615","1119","-0.32421875","-0.92285156","0.14550781","3.21875","0.0","0.96875"
"1574260904812","1120","-0.32617188","-0.9433594","0.14550781","7.4375","-2.6875","1.75"
"1574260904813","1121","-0.3330078","-0.93066406","0.15917969","2.59375","-1.53125","0.65625"
"1574260904813","1122","-0.3408203","-0.9472656","0.16503906","1.28125","-1.1875","0.21875"
"1574260904813","1123","-0.36523438","-0.93652344","0.17773438","-2.40625","-2.15625","-2.75"
"1574260904813","1124","-0.36914062","-0.9355469","0.19433594","-2.59375","-3.0","-4.65625"
"1574260904814","1125","-0.390625","-0.9375","0.18945312","-4.28125","-2.40625","-6.90625"
"1574260904814","1126","-0.35253906","-0.95996094","0.20019531","-7.875","2.375","-6.59375"
"1574260904814","1127","-0.34277344","-0.9472656","0.19335938","-14.96875","4.875","-7.65625"
"1574260904815","1128","-0.3203125","-0.94921875","0.16699219","-17.59375","2.4375","-8.9375"
"1574260904816","1129","-0.3095703","-0.92285156","0.1484375","-13.375","-3.4375","-9.71875"
"1574260905405","1130","-0.3095703","-0.9511719","0.13378906","-6.4375","-5.25","-12.03125"
"1574260905405","1131","-0.29589844","-0.93359375","0.11035156","-3.625","-1.1875","-11.1875"
"1574260905405","1132","-0.26953125","-0.953125","0.12890625","0.21875","0.53125","-7.65625"
"1574260905406","1133","-0.29296875","-0.9589844","0.12792969","1.625","0.65625","-9.34375"
"1574260905406","1134","-0.27441406","-0.9589844","0.123046875","0.53125","5.21875","-6.84375"
"1574260905406","1135","-0.26757812","-0.9394531","0.13867188","-1.40625","7.3125","-7.8125"
"1574260905406","1136","-0.25878906","-0.9560547","0.10839844","3.46875","2.0625","-6.71875"
"1574260905407","1137","-0.25976562","-0.9511719","0.123046875","-3.375","6.75","-7.40625"
"1574260905407","1138","-0.234375","-0.9658203","0.119140625","-0.4375","5.59375","-6.25"
"1574260905407","1139","-0.24414062","-0.94628906","0.11425781","-0.3125","2.90625","-5.9375"
"1574260906001","1140","-0.234375","-0.96875","0.11425781","-2.8125","5.34375","-6.59375"
"1574260906003","1141","-0.26660156","-0.9667969","0.11425781","0.65625","3.65625","-10.09375"
"1574260906003","1142","-0.24414062","-0.9765625","0.111328125","2.0625","4.25","-9.78125"
"1574260906004","1143","-0.21484375","-0.95703125","0.11816406","0.71875","6.34375","-9.53125"
"1574260906004","1144","-0.21191406","-0.95410156","0.12988281","-3.625","4.0625","-7.8125"
"1574260906004","1145","-0.22949219","-0.96972656","0.11425781","-5.09375","3.15625","-6.3125"
"1574260906004","1146","-0.21679688","-0.9746094","0.115234375","-5.4375","5.53125","-5.15625"
"1574260906005","1147","-0.22167969","-0.96875","0.11035156","-5.5625","5.28125","-4.84375"
"1574260906005","1148","-0.19824219","-0.9765625","0.11816406","-6.53125","3.9375","-3.125"
"1574260906005","1149","-0.21582031","-0.9589844","0.1171875","-11.78125","1.5625","-5.15625"
"1574260906397","1150","-0.21582031","-0.9794922","0.11425781","-13.03125","1.6875","-3.6875"
"1574260906397","1151","-0.21875","-0.96777344","0.09375","-14.40625","-0.9375","-6.65625"
"1574260906397","1152","-0.2421875","-0.9746094","0.10058594","-11.375","0.59375","-7.71875"
"1574260906399","1153","-0.19140625","-0.9746094","0.07421875","-14.53125","3.03125","-6.84375"
"1574260906399","1154","-0.22167969","-0.9814453","0.047851562","-9.34375","2.0625","-9.71875"
"1574260906399","1155","-0.19824219","-0.9707031","0.06542969","-8.9375","2.375","-6.78125"
"1574260906399","1156","-0.17871094","-1.0","0.043945312","-9.125","5.59375","-5.75"
"1574260906399","1157","-0.14941406","-0.9814453","0.049804688","-10.09375","4.75","-4.84375"
"1574260906400","1158","-0.17871094","-0.9873047","0.03125","-6.3125","1.15625","-3.6875"
"1574260906400","1159","-0.15332031","-0.9814453","0.043945312","-11.5625","2.0625","-3.1875"
"1574260906402","1160","-0.17675781","-0.9794922","0.0078125","-6.25","-1.96875","-4.46875"
"1574260906402","1161","-0.171875","-0.99121094","0.03515625","-8.3125","1.6875","-2.625"
"1574260906402","1162","-0.16699219","-0.9824219","0.01171875","-7.21875","-2.28125","-4.53125"
"1574260906402","1163","-0.18261719","-0.9892578","0.021484375","-6.0","0.96875","-2.15625"
"1574260906402","1164","-0.16308594","-1.0039062","0.016601562","-6.5","-3.96875","-3.625"
"1574260906403","1165","-0.20117188","-0.9716797","0.0048828125","-6.4375","-0.9375","-2.8125"
"1574260906403","1166","-0.15527344","-0.9951172","0.015625","-9.28125","1.8125","-2.9375"
"1574260906403","1167","-0.19042969","-0.99609375","-0.009765625","-3.1875","0.59375","-4.09375"
"1574260906403","1168","-0.1484375","-0.98339844","0.0087890625","-9.53125","3.03125","-3.1875"
"1574260906404","1169","-0.14648438","-0.984375","-0.0078125","-8.3125","0.46875","-2.53125"
"1574260906998","1170","-0.17773438","-0.9921875","-0.013671875","-5.21875","0.59375","-1.40625"
"1574260906999","1171","-0.15917969","-0.99316406","-0.01953125","-4.53125","-1.25","-2.53125"
"1574260906999","1172","-0.14550781","-1.0","-0.0146484375","-5.6875","1.9375","-1.65625"
"1574260906999","1173","-0.15917969","-1.0078125","-0.013671875","-5.8125","-2.625","-2.75"
"1574260907000","1174","-0.17578125","-0.97265625","-0.0048828125","-6.53125","1.03125","-4.03125"
"1574260907000","1175","-0.13183594","-0.9892578","-0.029296875","-9.59375","0.34375","-2.34375"
"1574260907000","1176","-0.14257812","-1.0068359","-0.030273438","-7.34375","-1.3125","-3.3125"
"1574260907002","1177","-0.13964844","-0.9658203","-0.0390625","-6.53125","-3.96875","-1.0625"
"1574260907002","1178","-0.13378906","-1.0","-0.038085938","-6.90625","-4.90625","-0.125"
"1574260907002","1179","-0.16894531","-0.99609375","-0.045898438","-5.15625","-5.4375","-1.40625"
"1574260907590","1180","-0.15527344","-0.9873047","-0.044921875","-2.34375","-1.0625","-2.03125"
"1574260907591","1181","-0.15527344","-0.9814453","-0.056640625","-2.46875","0.59375","-2.6875"
"1574260907591","1182","-0.14550781","-1.0","-0.043945312","-2.875","1.9375","-1.46875"
"1574260907591","1183","-0.15136719","-0.9980469","-0.07714844","4.0","0.09375","0.65625"
"1574260907591","1184","-0.15039062","-0.9824219","-0.044921875","-3.625","8.21875","0.0"
"1574260907592","1185","-0.13964844","-0.9941406","-0.056640625","-2.40625","9.75","0.34375"
"1574260907592","1186","-0.13769531","-1.0175781","-0.0703125","1.09375","2.1875","-1.53125"
"1574260907592","1187","-0.15039062","-0.99609375","-0.043945312","-4.71875","4.625","-2.9375"
"1574260907592","1188","-0.12792969","-0.99609375","-0.055664062","-4.15625","5.71875","-3.5"
"1574260907593","1189","-0.13574219","-0.9921875","-0.06542969","-0.3125","2.25","-3.4375"
"1574260907793","1190","-0.1328125","-1.0068359","-0.07324219","-0.125","1.3125","-4.09375"
"1574260907793","1191","-0.13769531","-0.9902344","-0.06738281","1.875","3.03125","-3.625"
"1574260907794","1192","-0.13378906","-0.9941406","-0.046875","3.46875","1.8125","-2.75"
"1574260907794","1193","-0.15820312","-0.99902344","-0.04296875","2.1875","2.5625","-2.53125"
"1574260907794","1194","-0.13574219","-0.99316406","-0.040039062","2.3125","5.78125","-2.15625"
"1574260907794","1195","-0.12597656","-0.9941406","-0.043945312","1.625","6.8125","-1.78125"
"1574260907795","1196","-0.13671875","-1.0029297","-0.03515625","3.21875","6.21875","-1.40625"
"1574260907795","1197","-0.14160156","-0.9765625","-0.033203125","0.71875","6.875","-1.0"
"1574260907795","1198","-0.13867188","-1.0039062","-0.041992188","1.03125","5.0625","-1.84375"
"1574260907795","1199","-0.12597656","-0.9892578","-0.052734375","2.0","5.34375","-1.0625"
"1574260908190","1200","-0.13867188","-0.9941406","-0.03125","2.1875","4.875","-1.40625"
"1574260908191","1201","-0.12695312","-0.99609375","-0.038085938","0.65625","6.28125","-0.125"
"1574260908191","1202","-0.13476562","-0.9873047","-0.030273438","1.875","4.5625","-0.125"
"1574260908191","1203","-0.13183594","-0.9863281","-0.038085938","3.71875","2.90625","0.21875"
"1574260908192","1204","-0.13476562","-1.0058594","-0.03515625","1.5625","6.9375","1.21875"
"1574260908192","1205","-0.14160156","-0.9921875","-0.036132812","5.21875","5.34375","1.75"
"1574260908192","1206","-0.13671875","-0.9794922","-0.0234375","3.21875","5.59375","2.0625"
"1574260908192","1207","-0.1328125","-1.0009766","-0.017578125","2.0","6.03125","2.1875"
"1574260908193","1208","-0.15234375","-0.9824219","-0.0126953125","0.46875","4.125","3.21875"
"1574260908193","1209","-0.13769531","-0.9902344","-0.0107421875","-3.625","2.4375","2.1875"
"1574260908588","1210","-0.15429688","-0.9980469","-0.038085938","-0.1875","-0.0625","2.0625"
"1574260908589","1211","-0.16113281","-0.9902344","-0.020507812","2.5","5.0625","1.3125"
"1574260908589","1212","-0.15527344","-0.99316406","-0.013671875","0.90625","6.5625","0.71875"
"1574260908591","1213","-0.1484375","-1.0107422","-0.0078125","-0.9375","7.1875","2.65625"
"1574260908591","1214","-0.15625","-0.97265625","-0.0126953125","-2.46875","5.1875","1.75"
"1574260908591","1215","-0.17382812","-1.0","0.001953125","0.53125","4.3125","2.1875"
"1574260908592","1216","-0.16699219","-0.9873047","-0.017578125","-2.9375","4.3125","1.09375"
"1574260908592","1217","-0.1796875","-0.9921875","-0.022460938","-0.8125","5.71875","0.53125"
"1574260908592","1218","-0.16503906","-0.99121094","-0.0048828125","0.03125","3.21875","1.09375"
"1574260908593","1219","-0.16601562","-0.9814453","-0.0146484375","0.71875","2.5625","1.6875"
"1574260908986","1220","-0.17089844","-0.98339844","-0.016601562","-0.625","4.5","1.5"
"1574260908987","1221","-0.18066406","-0.9921875","-0.01171875","2.84375","3.40625","3.21875"
"1574260908987","1222","-0.17382812","-0.98828125","-0.0068359375","1.15625","4.8125","2.65625"
"1574260908987","1223","-0.16503906","-0.9941406","-0.01171875","0.96875","3.59375","4.25"
"1574260908987","1224","-0.18945312","-0.9892578","-9.765625E-4","2.4375","2.0","3.65625"
"1574260908989","1225","-0.17578125","-0.9824219","-0.0087890625","2.0","2.25","4.125"
"1574260908989","1226","-0.19433594","-0.9921875","-0.0078125","3.90625","1.03125","2.125"
"1574260908990","1227","-0.21289062","-0.98535156","0.0","2.4375","2.0","0.71875"
"1574260908990","1228","-0.18554688","-0.9814453","0.009765625","1.4375","3.90625","2.0625"
"1574260908990","1229","-0.18457031","-0.9921875","0.0234375","2.125","3.40625","2.5625"
"1574260909383","1230","-0.20019531","-0.9785156","0.0126953125","3.46875","1.6875","3.59375"
"1574260909383","1231","-0.22558594","-0.9941406","0.036132812","0.96875","2.0","1.09375"
"1574260909384","1232","-0.20410156","-0.9794922","0.0390625","-2.15625","4.625","1.625"
"1574260909384","1233","-0.23242188","-0.9951172","0.02734375","0.59375","-0.125","0.0"
"1574260909384","1234","-0.20605469","-0.9746094","0.036132812","0.09375","-0.625","2.0"
"1574260909384","1235","-0.20800781","-0.98339844","0.017578125","1.625","-1.3125","0.65625"
"1574260909385","1236","-0.20996094","-0.98046875","0.0087890625","2.59375","-2.40625","1.3125"
"1574260909385","1237","-0.21289062","-0.9785156","0.022460938","4.8125","-2.03125","1.6875"
"1574260909386","1238","-0.21972656","-0.97558594","0.029296875","2.96875","-1.125","1.21875"
"1574260909386","1239","-0.21875","-0.9902344","0.026367188","5.0625","-1.0","2.65625"
"1574260909977","1240","-0.21875","-0.9814453","0.041992188","4.75","-2.09375","2.25"
"1574260909977","1241","-0.22460938","-0.97753906","0.037109375","4.875","-1.78125","2.71875"
"1574260909978","1242","-0.24414062","-0.9746094","0.05859375","2.84375","0.46875","2.1875"
"1574260909978","1243","-0.234375","-0.9746094","0.046875","2.78125","0.0","2.1875"
"1574260909978","1244","-0.22265625","-0.99609375","0.052734375","3.03125","3.40625","1.375"
"1574260909978","1245","-0.21386719","-0.97265625","0.044921875","3.21875","3.90625","3.46875"
"1574260909979","1246","-0.23535156","-0.98046875","0.059570312","1.15625","2.65625","1.5625"
"1574260909979","1247","-0.23730469","-0.98046875","0.047851562","5.34375","4.0625","2.71875"
"1574260909979","1248","-0.23242188","-0.9707031","0.06542969","0.96875","6.8125","1.375"
"1574260909980","1249","-0.21972656","-0.97753906","0.06542969","-0.6875","5.84375","1.625"
"1574260910177","1250","-0.24609375","-0.9716797","0.059570312","3.78125","1.5625","0.15625"
"1574260910178","1251","-0.21679688","-0.9765625","0.06542969","4.25","0.65625","1.3125"
"1574260910178","1252","-0.24511719","-0.9765625","0.07128906","4.375","2.96875","0.09375"
"1574260910178","1253","-0.24902344","-0.9716797","0.07519531","3.34375","8.15625","0.90625"
"1574260910179","1254","-0.234375","-0.9746094","0.078125","-1.0625","9.3125","0.46875"
"1574260910179","1255","-0.265625","-0.96484375","0.06542969","1.3125","5.21875","-0.8125"
"1574260910179","1256","-0.24707031","-0.9765625","0.1015625","3.59375","8.03125","1.3125"
"1574260910179","1257","-0.24902344","-0.9658203","0.09863281","1.6875","9.5","0.46875"
"1574260910180","1258","-0.23828125","-0.97753906","0.08203125","-1.0625","7.0625","1.4375"
"1574260910180","1259","-0.25976562","-0.97558594","0.08203125","3.34375","3.40625","0.34375"
"1574260910773","1260","-0.25585938","-0.95703125","0.083984375","2.4375","2.65625","1.03125"
"1574260910774","1261","-0.2548828","-0.96484375","0.08496094","2.0","2.71875","-0.5625"
"1574260910774","1262","-0.25390625","-0.95996094","0.08984375","3.34375","2.5","0.40625"
"1574260910775","1263","-0.26367188","-0.95410156","0.0859375","2.65625","1.3125","0.03125"
"1574260910775","1264","-0.25585938","-0.9707031","0.09472656","4.875","1.375","2.375"
"1574260910775","1265","-0.25585938","-0.9589844","0.0859375","3.21875","0.96875","1.5625"
"1574260910776","1266","-0.24511719","-0.96191406","0.091796875","4.125","0.84375","2.4375"
"1574260910776","1267","-0.2607422","-0.9707031","0.10839844","2.3125","1.375","2.375"
"1574260910776","1268","-0.2734375","-0.95214844","0.09667969","1.09375","2.4375","1.5"
"1574260910776","1269","-0.26171875","-0.95703125","0.09765625","1.8125","3.65625","2.3125"
"1574260910972","1270","-0.2607422","-0.9589844","0.12402344","2.5","3.78125","2.78125"
"1574260910972","1271","-0.25683594","-0.9472656","0.111328125","1.5625","2.96875","3.71875"
"1574260910972","1272","-0.27734375","-0.9628906","0.09765625","2.65625","1.4375","3.21875"
"1574260910973","1273","-0.26757812","-0.95410156","0.107421875","1.8125","4.9375","2.84375"
"1574260910974","1274","-0.27929688","-0.94433594","0.11816406","-0.3125","4.875","2.71875"
"1574260910974","1275","-0.2763672","-0.9589844","0.115234375","-0.8125","5.84375","4.0625"
"1574260910974","1276","-0.27929688","-0.9716797","0.107421875","1.15625","3.34375","2.90625"
"1574260910975","1277","-0.29882812","-0.9501953","0.11230469","0.09375","3.90625","1.8125"
"1574260910975","1278","-0.30273438","-0.9501953","0.11328125","0.34375","8.21875","1.5"
"1574260910975","1279","-0.26171875","-0.9248047","0.107421875","-1.96875","8.84375","1.8125"
"1574260911370","1280","-0.27441406","-0.97265625","0.115234375","-1.96875","4.3125","2.4375"
"1574260911371","1281","-0.28808594","-0.9580078","0.13085938","-5.6875","4.875","2.78125"
"1574260911371","1282","-0.3095703","-0.9638672","0.095703125","-5.5625","0.28125","1.3125"
"1574260911371","1283","-0.30664062","-0.9511719","0.09765625","-3.6875","-0.25","0.78125"
"1574260911372","1284","-0.3046875","-0.953125","0.12402344","-3.375","-0.0625","-0.5625"
"1574260911373","1285","-0.31445312","-0.94921875","0.12011719","-5.5625","-4.53125","-0.3125"
"1574260911374","1286","-0.29589844","-0.9501953","0.10644531","-5.21875","-0.8125","1.375"
"1574260911374","1287","-0.2890625","-0.94628906","0.09765625","-9.40625","2.0625","0.65625"
"1574260911374","1288","-0.3017578","-0.9472656","0.0859375","-3.1875","-2.15625","0.78125"
"1574260911375","1289","-0.31445312","-0.9345703","0.10058594","0.40625","-3.5","2.125"
"1574260911966","1290","-0.3251953","-0.95996094","0.103515625","3.65625","0.84375","0.40625"
"1574260911966","1291","-0.29882812","-0.9609375","0.10644531","3.34375","1.6875","0.03125"
"1574260911967","1292","-0.29589844","-0.9580078","0.10546875","1.625","-3.25","1.03125"
"1574260911967","1293","-0.32910156","-0.92871094","0.11816406","1.15625","-3.0625","2.71875"
"1574260911967","1294","-0.32714844","-0.9355469","0.10546875","0.96875","0.46875","4.0"
"1574260911967","1295","-0.34960938","-0.9404297","0.11425781","1.21875","5.21875","2.71875"
"1574260911968","1296","-0.31347656","-0.95214844","0.10546875","7.0","8.15625","6.46875"
"1574260911969","1297","-0.3095703","-0.9511719","0.1328125","-2.6875","6.5","5.125"
"1574260911970","1298","-0.32910156","-0.9560547","0.119140625","-0.625","2.84375","0.53125"
"1574260911970","1299","-0.36035156","-0.9472656","0.14453125","-1.40625","1.9375","-0.3125"
"1574260912165","1300","-0.3203125","-0.93652344","0.15234375","-6.78125","4.6875","-3.625"
"1574260912166","1301","-0.35546875","-0.96191406","0.15917969","-10.15625","13.53125","-5.5"
"1574260912166","1302","-0.3642578","-0.9472656","0.11425781","-11.78125","6.75","-14.53125"
"1574260912166","1303","-0.31933594","-0.9746094","0.10449219","-7.09375","6.28125","-13.5625"
"1574260912166","1304","-0.296875","-0.9326172","0.099609375","-6.65625","2.1875","-9.15625"
"1574260912167","1305","-0.29101562","-0.9580078","0.091796875","-2.09375","0.28125","-4.71875"
"1574260912167","1306","-0.30371094","-0.91796875","0.07519531","-0.875","2.65625","-9.21875"
"1574260912167","1307","-0.28027344","-0.98535156","0.07324219","-1.125","6.625","-8.375"
"1574260912167","1308","-0.2919922","-1.0205078","0.15429688","-13.6875","12.1875","-13.8125"
"1574260912169","1309","-0.3310547","-0.96972656","0.109375","-12.34375","3.03125","-16.96875"
