"# PR data"
"# Start time: 20191114T034514"
"# Subject: teo"
"# Activity type: Step ups"
"# Correctness: Incorrect"
"# Notes: "
""
"timestamp","seq","accel_x","accel_y","accel_z","gyro_x","gyro_y","gyro_z"
"1573703114227","0","0.03515625","-0.9873047","-0.28515625","2.375","-5.03125","4.3125"
"1573703114228","1","0.018554688","-0.9638672","-0.27148438","7.0625","-4.90625","4.0625"
"1573703114228","2","0.036132812","-0.9433594","-0.22851562","2.4375","-11.1875","3.40625"
"1573703114228","3","0.057617188","-0.9589844","-0.22558594","17.625","-23.4375","7.6875"
"1573703114229","4","0.043945312","-1.0029297","-0.19140625","-0.375","-18.8125","9.8125"
"1573703114229","5","-0.015625","-1.0683594","-0.23925781","-10.75","0.78125","7.375"
"1573703114229","6","0.015625","-1.0537109","-0.3046875","13.59375","1.3125","2.1875"
"1573703114229","7","0.036132812","-0.9951172","-0.2705078","26.59375","-17.40625","3.40625"
"1573703114230","8","-0.017578125","-0.9589844","-0.23730469","19.40625","-29.75","8.03125"
"1573703114230","9","-0.028320312","-0.9667969","-0.17382812","14.625","-9.125","10.90625"
"1573703114625","10","-0.0078125","-0.9902344","-0.18359375","20.3125","1.5","7.6875"
"1573703114625","11","0.013671875","-0.9863281","-0.21582031","20.1875","-1.65625","7.25"
"1573703114625","12","-0.028320312","-1.015625","-0.17773438","13.78125","-10.9375","7.0"
"1573703114627","13","-0.06738281","-1.0292969","-0.16503906","4.3125","-9.34375","5.40625"
"1573703114628","14","-0.049804688","-0.95996094","-0.16992188","0.78125","-12.71875","0.65625"
"1573703114628","15","0.0078125","-1.0","-0.17578125","-4.84375","-15.9375","-4.21875"
"1573703114629","16","-0.043945312","-1.0234375","-0.20117188","15.84375","-17.90625","1.4375"
"1573703114629","17","-0.048828125","-1.0351562","-0.15039062","8.71875","-13.6875","7.96875"
"1573703114629","18","-0.078125","-1.0107422","-0.19042969","20.84375","-26.9375","23.375"
"1573703114630","19","-0.005859375","-0.99609375","-0.12109375","15.78125","-5.15625","12.75"
"1573703115023","20","-0.10253906","-1.0253906","-0.12207031","17.125","3.59375","11.53125"
"1573703115023","21","-0.13671875","-1.0361328","-0.091796875","8.59375","22.9375","11.28125"
"1573703115023","22","0.0625","-1.0087891","-0.15039062","20.0","-7.40625","10.40625"
"1573703115023","23","0.0078125","-0.95996094","-0.05078125","11.875","-8.0","12.5625"
"1573703115024","24","-0.13378906","-0.9824219","-0.07714844","17.0","-11.375","14.28125"
"1573703115025","25","-0.10644531","-1.0253906","-0.049804688","7.125","-1.59375","22.625"
"1573703115025","26","-0.0859375","-1.0976562","-0.087890625","1.5","14.9375","33.6875"
"1573703115025","27","-0.09863281","-1.1660156","-0.076171875","11.75","14.03125","23.0625"
"1573703115026","28","-0.09863281","-1.1025391","-0.053710938","23.3125","-14.0","24.75"
"1573703115026","29","-0.21386719","-1.1318359","0.024414062","23.125","-21.1875","22.09375"
"1573703115420","30","-0.29882812","-1.1425781","-0.017578125","9.5625","-10.34375","13.40625"
"1573703115421","31","-0.203125","-1.1357422","-0.040039062","2.59375","-10.40625","7.84375"
"1573703115421","32","-0.24609375","-1.0878906","0.033203125","-1.78125","-14.25","9.3125"
"1573703115421","33","-0.33007812","-0.99121094","0.030273438","-3.4375","-22.90625","8.53125"
"1573703115422","34","-0.40722656","-0.8613281","0.01171875","6.28125","-31.25","11.15625"
"1573703115422","35","-0.3017578","-0.8339844","0.015625","-11.84375","-22.0625","1.8125"
"1573703115422","36","-0.24707031","-0.90234375","0.02734375","-25.59375","-0.8125","-15.625"
"1573703115423","37","-0.2705078","-0.8876953","-0.0087890625","-20.9375","-6.59375","-17.46875"
"1573703115424","38","-0.28320312","-0.890625","-0.030273438","-21.3125","-10.15625","-8.4375"
"1573703115424","39","-0.27539062","-0.9482422","-0.083984375","-25.59375","2.65625","-5.25"
"1573703115817","40","-0.25195312","-0.94628906","-0.09375","-5.21875","3.71875","3.40625"
"1573703115818","41","-0.24609375","-0.8486328","-0.10253906","-16.4375","3.09375","1.6875"
"1573703115818","42","-0.20996094","-0.88964844","-0.115234375","-22.125","6.5","-4.65625"
"1573703115818","43","-0.2265625","-0.90527344","-0.12109375","-22.0625","8.21875","-14.34375"
"1573703115818","44","-0.21777344","-0.88964844","-0.17871094","-22.40625","10.0","-16.3125"
"1573703115819","45","-0.22363281","-0.921875","-0.22558594","-18.875","14.5625","-17.21875"
"1573703115819","46","-0.16992188","-0.92578125","-0.19628906","-25.78125","8.65625","-18.3125"
"1573703115819","47","-0.13574219","-0.88378906","-0.18359375","-12.46875","-11.78125","-12.28125"
"1573703115819","48","-0.109375","-1.0332031","-0.16894531","-25.78125","0.53125","-9.0625"
"1573703115821","49","-0.23144531","-1.0332031","-0.1640625","-6.1875","7.4375","-9.40625"
"1573703116217","50","-0.19238281","-0.98339844","-0.18164062","6.9375","-8.0","7.90625"
"1573703116217","51","-0.171875","-0.96875","-0.23339844","4.75","-8.6875","3.59375"
"1573703116217","52","-0.171875","-0.9423828","-0.15820312","14.5","-2.21875","0.90625"
"1573703116218","53","-0.12207031","-0.88378906","-0.12890625","20.25","-1.59375","0.59375"
"1573703116218","54","-0.13574219","-0.96484375","-0.09667969","-7.15625","7.625","-5.75"
"1573703116218","55","-0.18847656","-0.9638672","-0.11816406","7.8125","10.53125","2.59375"
"1573703116218","56","-0.16601562","-0.9453125","-0.12207031","9.5625","13.59375","6.21875"
"1573703116219","57","-0.109375","-0.9794922","-0.14257812","1.09375","16.71875","6.09375"
"1573703116219","58","-0.09472656","-0.9746094","-0.18261719","8.15625","15.25","10.53125"
"1573703116219","59","-0.123046875","-1.0224609","-0.14160156","-3.25","15.1875","5.40625"
"1573703116612","60","-0.140625","-1.0019531","-0.13085938","1.75","5.125","1.5625"
"1573703116612","61","-0.13867188","-0.97265625","-0.13476562","7.4375","-2.9375","6.46875"
"1573703116613","62","-0.12988281","-0.97558594","-0.16601562","17.0625","-15.53125","7.5625"
"1573703116613","63","-0.14160156","-0.9453125","-0.12792969","18.0","-17.71875","5.65625"
"1573703116613","64","-0.15332031","-0.9453125","-0.091796875","10.84375","-17.96875","4.875"
"1573703116613","65","-0.2109375","-0.96875","-0.057617188","5.46875","-18.875","3.9375"
"1573703116614","66","-0.22753906","-0.98535156","-0.057617188","11.71875","-16.125","5.28125"
"1573703116614","67","-0.22070312","-0.9892578","-0.041015625","-3.0","-9.96875","2.4375"
"1573703116615","68","-0.18554688","-0.9238281","-0.045898438","-2.75","-4.90625","-1.90625"
"1573703116615","69","-0.15136719","-0.9277344","-0.033203125","3.84375","-10.5","1.8125"
"1573703117010","70","-0.14355469","-0.91015625","0.01953125","4.9375","-12.15625","4.1875"
"1573703117011","71","-0.15332031","-0.8544922","-0.030273438","4.0","-20.28125","-8.375"
"1573703117011","72","-0.14550781","-0.86035156","-0.055664062","10.65625","-13.9375","-13.03125"
"1573703117012","73","-0.20507812","-0.92871094","-0.0234375","-9.0","-2.34375","-7.15625"
"1573703117013","74","-0.16210938","-1.0673828","-0.05859375","-24.5","16.46875","-17.84375"
"1573703117013","75","-0.14550781","-1.0527344","-0.0625","-23.15625","23.25","-28.9375"
"1573703117013","76","-0.12109375","-1.0175781","-0.16894531","-8.25","16.09375","-27.3125"
"1573703117014","77","-0.16992188","-0.9863281","-0.15234375","-16.125","14.03125","-17.78125"
"1573703117014","78","-0.09375","-1.0507812","-0.12597656","-18.4375","14.5625","-20.71875"
"1573703117014","79","-0.13671875","-0.9892578","-0.18945312","-2.75","9.625","-10.03125"
"1573703117407","80","-0.1796875","-0.9746094","-0.21679688","-6.84375","41.25","2.96875"
"1573703117407","81","-0.1640625","-1.1464844","-0.3310547","-20.28125","51.25","-4.34375"
"1573703117408","82","-0.12207031","-1.4492188","-0.34277344","-35.96875","42.34375","3.53125"
"1573703117408","83","-0.10644531","-1.3837891","-0.45703125","-48.0625","16.59375","-18.3125"
"1573703117408","84","0.17578125","-0.92578125","-0.2763672","34.03125","-17.65625","8.40625"
"1573703117410","85","0.19921875","-0.6279297","-0.16015625","32.09375","-46.65625","19.15625"
"1573703117410","86","-0.27441406","-0.8359375","-0.2998047","-8.0625","-3.5","17.5"
"1573703117410","87","-0.33203125","-1.0986328","-0.41308594","-8.0","32.15625","-1.65625"
"1573703117411","88","0.10058594","-0.9873047","-0.24804688","-8.0","0.78125","9.1875"
"1573703117411","89","-0.15820312","-0.8691406","-0.22167969","6.5","-19.78125","8.46875"
"1573703118003","90","-0.15527344","-0.99121094","-0.23144531","16.65625","-6.1875","4.9375"
"1573703118004","91","-0.11230469","-0.9902344","-0.28515625","-3.25","2.90625","-6.53125"
"1573703118004","92","-0.099609375","-0.9296875","-0.32910156","-14.125","10.46875","-2.28125"
"1573703118004","93","-0.041015625","-0.9892578","-0.27148438","0.0","7.3125","-3.75"
"1573703118005","94","-0.125","-1.0595703","-0.24902344","-1.90625","-6.53125","-0.0625"
"1573703118005","95","-0.19824219","-0.93066406","-0.2548828","-0.8125","-4.90625","0.09375"
"1573703118005","96","-0.1328125","-0.9013672","-0.22460938","13.09375","2.4375","4.4375"
"1573703118006","97","-0.14648438","-0.9199219","-0.22070312","3.46875","5.90625","-0.625"
"1573703118007","98","-0.16699219","-0.9970703","-0.25195312","0.90625","16.65625","-0.4375"
"1573703118007","99","-0.18164062","-0.94921875","-0.2705078","-8.25","24.34375","-0.875"
"1573703118201","100","-0.13574219","-0.95996094","-0.3017578","1.21875","27.8125","2.5"
"1573703118202","101","-0.10253906","-0.98046875","-0.28515625","7.25","28.125","3.9375"
"1573703118202","102","-0.10253906","-0.95996094","-0.26660156","-1.1875","30.8125","-0.5625"
"1573703118202","103","-0.08496094","-0.9707031","-0.2607422","7.8125","28.0625","0.15625"
"1573703118202","104","-0.12011719","-1.0009766","-0.2626953","2.96875","24.46875","2.59375"
"1573703118203","105","-0.09472656","-0.9707031","-0.28222656","-2.53125","18.96875","-0.3125"
"1573703118203","106","-0.06640625","-0.9785156","-0.26953125","0.59375","18.0625","0.90625"
"1573703118203","107","-0.08203125","-1.0458984","-0.2529297","-6.3125","17.0","-1.3125"
"1573703118203","108","-0.04296875","-1.0625","-0.2265625","-5.3125","6.46875","-3.1875"
"1573703118204","109","-0.060546875","-0.92871094","-0.1875","13.21875","-7.9375","-7.9375"
"1573703118600","110","-0.064453125","-0.8798828","-0.24511719","16.53125","-10.4375","-2.28125"
"1573703118600","111","-0.091796875","-0.9873047","-0.2685547","1.28125","-4.40625","-3.5625"
"1573703118600","112","-0.05859375","-1.0664062","-0.2529297","-9.21875","-8.0","-4.40625"
"1573703118601","113","-0.024414062","-0.97753906","-0.21386719","0.03125","-8.6875","-5.4375"
"1573703118601","114","-0.0546875","-0.9638672","-0.23925781","8.96875","-14.25","-4.65625"
"1573703118601","115","-0.076171875","-0.9863281","-0.2578125","5.40625","-7.78125","0.40625"
"1573703118602","116","-0.087890625","-0.9794922","-0.24414062","3.90625","-2.9375","-1.125"
"1573703118603","117","-0.041015625","-0.9794922","-0.25097656","8.46875","-5.15625","-2.75"
"1573703118603","118","-0.028320312","-0.97558594","-0.25878906","14.8125","-16.3125","-11.1875"
"1573703118603","119","0.0078125","-0.99609375","-0.21777344","27.34375","-33.09375","-14.65625"
"1573703118999","120","-0.005859375","-0.9433594","-0.12207031","1.28125","-34.1875","-11.125"
"1573703119000","121","-0.076171875","-1.0126953","-0.13378906","1.03125","-16.96875","-10.5625"
"1573703119001","122","-0.07910156","-1.1455078","-0.20898438","-4.28125","6.15625","-9.84375"
"1573703119001","123","0.0087890625","-1.0527344","-0.22949219","1.375","5.1875","-3.90625"
"1573703119001","124","0.12695312","-0.9355469","-0.21191406","13.21875","-7.46875","2.96875"
"1573703119002","125","0.01171875","-0.92871094","-0.21679688","4.25","-4.84375","1.9375"
"1573703119002","126","-0.0390625","-1.0234375","-0.17578125","10.40625","4.6875","2.3125"
"1573703119002","127","-0.0068359375","-1.0292969","-0.17089844","6.03125","0.84375","-3.5625"
"1573703119002","128","9.765625E-4","-1.0029297","-0.18066406","10.0625","-4.90625","3.09375"
"1573703119003","129","0.01953125","-1.0009766","-0.17285156","9.6875","-7.40625","4.4375"
"1573703119395","130","-0.024414062","-0.9873047","-0.19140625","2.5625","-5.5625","2.3125"
"1573703119396","131","-0.018554688","-0.9814453","-0.18261719","0.65625","-6.96875","1.09375"
"1573703119396","132","-9.765625E-4","-1.0048828","-0.1875","3.40625","-5.875","1.28125"
"1573703119398","133","-0.020507812","-0.98535156","-0.18457031","7.8125","-12.21875","0.34375"
"1573703119398","134","-0.022460938","-1.0","-0.15332031","6.9375","-12.78125","3.28125"
"1573703119398","135","-0.029296875","-1.0351562","-0.16113281","40.21875","-25.53125","10.125"
"1573703119398","136","-0.07910156","-0.9970703","-0.12207031","49.125","-35.0","17.625"
"1573703119399","137","-0.061523438","-1.0302734","-0.08886719","23.25","-35.15625","16.46875"
"1573703119399","138","-0.1171875","-1.0039062","-0.06347656","9.9375","-28.53125","-5.21875"
"1573703119399","139","-0.11425781","-1.0009766","-0.044921875","5.34375","-20.34375","-3.0"
"1573703119791","140","-0.045898438","-0.9472656","-0.024414062","10.40625","-10.03125","1.09375"
"1573703119792","141","-0.06640625","-0.9658203","0.034179688","8.78125","-18.375","5.90625"
"1573703119792","142","-0.12597656","-1.0068359","-0.021484375","-9.71875","-0.3125","5.84375"
"1573703119792","143","-0.057617188","-1.0302734","-0.107421875","3.03125","4.9375","5.46875"
"1573703119792","144","0.043945312","-1.03125","-0.072265625","11.9375","3.9375","12.375"
"1573703119794","145","0.038085938","-1.0566406","-0.022460938","7.5","1.15625","26.40625"
"1573703119794","146","-0.123046875","-1.0625","0.020507812","2.0625","-1.25","24.03125"
"1573703119794","147","-0.12597656","-1.3076172","0.0146484375","-11.375","11.53125","15.0625"
"1573703119794","148","-0.17285156","-1.4892578","-0.038085938","-22.125","12.1875","7.6875"
"1573703119795","149","-0.12109375","-1.2685547","-0.06640625","-3.375","-18.8125","18.71875"
"1573703120189","150","-0.19921875","-0.9501953","-0.033203125","42.96875","-45.5625","34.21875"
"1573703120189","151","-0.41308594","-0.7998047","-0.0107421875","1.09375","-29.8125","35.25"
"1573703120189","152","-0.39746094","-0.9013672","0.016601562","-14.3125","-0.5","10.1875"
"1573703120190","153","-0.28027344","-0.92285156","0.040039062","-20.40625","-4.84375","3.90625"
"1573703120190","154","-0.3466797","-0.88183594","-0.021484375","-21.8125","-7.71875","9.25"
"1573703120190","155","-0.39648438","-0.9472656","-0.07128906","-19.65625","6.40625","2.25"
"1573703120190","156","-0.32714844","-0.9453125","-0.12402344","-14.84375","16.71875","6.9375"
"1573703120191","157","-0.28222656","-0.9394531","-0.07128906","-2.8125","19.75","8.09375"
"1573703120192","158","-0.27148438","-0.9033203","-0.06933594","5.46875","20.3125","4.6875"
"1573703120192","159","-0.2578125","-0.8808594","-0.08496094","5.125","18.21875","4.0"
"1573703120588","160","-0.22851562","-0.8613281","-0.07714844","2.96875","15.1875","1.3125"
"1573703120588","161","-0.22753906","-0.8564453","-0.076171875","2.375","17.3125","-1.65625"
"1573703120589","162","-0.21875","-0.86328125","-0.095703125","-0.0625","13.15625","-7.53125"
"1573703120589","163","-0.20117188","-0.8574219","-0.076171875","2.59375","7.3125","-10.4375"
"1573703120589","164","-0.22265625","-0.8486328","-0.068359375","-2.03125","2.125","-12.96875"
"1573703120589","165","-0.28222656","-0.84472656","-0.11230469","-3.4375","-1.0","-16.6875"
"1573703120590","166","-0.20019531","-0.94921875","-0.10839844","-6.25","-1.78125","-17.71875"
"1573703120590","167","-0.12109375","-0.984375","-0.11230469","-15.40625","-10.15625","-25.34375"
"1573703120590","168","-0.234375","-1.0966797","-0.056640625","-13.25","-5.6875","-18.4375"
"1573703120591","169","-0.34472656","-1.046875","-0.111328125","-11.0625","-2.28125","-13.875"
"1573703120985","170","-0.055664062","-0.92089844","-0.14160156","15.3125","-9.46875","-7.59375"
"1573703120986","171","-0.045898438","-0.859375","-0.072265625","15.3125","-17.71875","-5.25"
"1573703120986","172","-0.15527344","-0.9716797","-0.0078125","-12.65625","-12.90625","-4.90625"
"1573703120986","173","-0.21484375","-1.0810547","-0.038085938","-12.90625","3.78125","-7.78125"
"1573703120987","174","-0.11035156","-0.97558594","-0.053710938","0.21875","10.40625","0.59375"
"1573703120987","175","-0.12109375","-0.9628906","-0.09082031","-5.8125","12.375","-2.59375"
"1573703120987","176","-0.12890625","-1.0488281","-0.11230469","-8.0625","13.59375","-3.96875"
"1573703120988","177","-0.12207031","-0.9746094","-0.10253906","-18.21875","15.375","-5.5625"
"1573703120988","178","-0.099609375","-0.94921875","-0.1171875","-9.53125","11.71875","-1.90625"
"1573703120988","179","-0.11328125","-0.9785156","-0.125","1.09375","13.03125","3.65625"
"1573703121778","180","-0.12988281","-1.0195312","-0.115234375","-1.3125","8.65625","5.0"
"1573703121779","181","-0.13476562","-0.99902344","-0.13867188","10.0","5.1875","5.125"
"1573703121779","182","-0.14160156","-0.90527344","-0.087890625","16.71875","-5.625","5.78125"
"1573703121779","183","-0.16699219","-0.83691406","-0.0703125","8.03125","0.09375","9.3125"
"1573703121779","184","-0.20410156","-0.8642578","-0.038085938","22.6875","-0.25","11.59375"
"1573703121780","185","-0.15136719","-0.765625","-0.03515625","14.75","4.75","10.59375"
"1573703121780","186","-0.17285156","-0.6455078","-0.015625","19.03125","10.53125","9.9375"
"1573703121780","187","-0.1015625","-0.7060547","0.076171875","35.1875","15.71875","9.5625"
"1573703121780","188","-0.1640625","-0.7675781","0.07421875","2.71875","8.65625","-1.0625"
"1573703121781","189","-0.20117188","-0.7597656","0.107421875","12.3125","12.3125","-3.75"
"1573703121977","190","-0.30566406","-1.0507812","-0.026367188","21.46875","22.875","-13.5"
"1573703121977","191","-0.37402344","-1.3398438","-0.037109375","-18.09375","57.65625","-27.96875"
"1573703121977","192","-0.18652344","-1.8105469","-0.26660156","-66.90625","29.15625","-49.09375"
"1573703121979","193","0.041015625","-1.3505859","-0.35058594","-13.3125","-24.90625","-15.46875"
"1573703121979","194","-0.10058594","-1.0449219","-0.2705078","-10.875","-11.1875","-5.25"
"1573703121979","195","-0.2783203","-1.1640625","-0.33691406","-2.59375","32.875","-11.0625"
"1573703121979","196","-0.09863281","-1.4335938","-0.25","-16.3125","35.4375","7.4375"
"1573703121980","197","-0.040039062","-1.0615234","-0.34277344","-1.59375","-24.25","2.1875"
"1573703121980","198","0.07324219","-0.72558594","-0.19921875","11.53125","-7.03125","8.78125"
"1573703121980","199","-0.02734375","-0.7988281","-0.16992188","3.21875","-3.6875","-4.21875"
"1573703122377","200","-0.18261719","-1.0664062","-0.27246094","-7.03125","9.125","-2.8125"
"1573703122378","201","0.001953125","-1.0351562","-0.17480469","-12.34375","0.15625","2.3125"
"1573703122378","202","-0.043945312","-0.89941406","-0.17578125","-11.1875","-8.875","-8.6875"
"1573703122378","203","-0.16210938","-0.9609375","-0.2578125","-12.03125","-4.03125","-1.78125"
"1573703122379","204","-0.1015625","-1.0039062","-0.27734375","1.28125","1.4375","-9.59375"
"1573703122380","205","-0.055664062","-0.97265625","-0.23046875","-0.6875","-4.65625","-5.21875"
"1573703122380","206","-0.140625","-0.92089844","-0.22363281","2.0625","-5.03125","-2.9375"
"1573703122381","207","-0.083984375","-0.8925781","-0.21875","5.65625","0.59375","-1.3125"
"1573703122381","208","-0.0703125","-0.9199219","-0.20019531","2.0625","-6.84375","-9.125"
"1573703122381","209","-0.19921875","-0.92578125","-0.20605469","-8.9375","5.34375","-11.125"
"1573703122772","210","-0.14648438","-1.1474609","-0.19042969","-9.0625","24.53125","-2.46875"
"1573703122773","211","-0.059570312","-1.3583984","-0.08984375","-22.65625","16.21875","-1.96875"
"1573703122773","212","-0.21484375","-0.8251953","-0.14453125","5.125","-24.3125","10.96875"
"1573703122773","213","0.14257812","-0.6621094","-0.2841797","34.84375","-7.03125","20.625"
"1573703122774","214","0.044921875","-1.0566406","-0.21191406","-17.59375","21.96875","-27.53125"
"1573703122774","215","-0.08203125","-1.2470703","-0.17480469","-15.09375","-3.1875","-20.09375"
"1573703122774","216","0.005859375","-0.9580078","-0.11816406","-3.4375","-19.96875","-15.28125"
"1573703122775","217","0.064453125","-0.91503906","-0.13867188","9.375","-20.09375","-12.03125"
"1573703122776","218","-0.07910156","-1.0058594","-0.21777344","2.5","-18.03125","-0.4375"
"1573703122776","219","-0.061523438","-0.9873047","-0.21777344","-3.25","-6.90625","2.3125"
"1573703123368","220","0.0234375","-1.0234375","-0.18554688","-9.0","0.90625","-2.9375"
"1573703123369","221","-9.765625E-4","-1.0429688","-0.22558594","3.28125","-5.25","-0.9375"
"1573703123369","222","-0.026367188","-0.96875","-0.22265625","6.40625","-9.0","-4.65625"
"1573703123369","223","-0.0029296875","-0.97265625","-0.20703125","-2.46875","-0.1875","-3.625"
"1573703123369","224","-0.016601562","-1.0058594","-0.1953125","-2.28125","-0.4375","-1.96875"
"1573703123370","225","-0.026367188","-0.99121094","-0.20410156","-0.625","-3.375","-1.96875"
"1573703123370","226","-0.02734375","-0.99609375","-0.20410156","-0.875","-3.25","-1.65625"
"1573703123370","227","-0.03515625","-0.9824219","-0.20703125","0.96875","-5.75","-1.84375"
"1573703123370","228","-0.015625","-0.96972656","-0.19433594","-4.15625","-8.9375","-2.34375"
"1573703123371","229","-0.017578125","-0.99902344","-0.19140625","3.15625","-13.125","-3.25"
"1573703123567","230","-0.045898438","-0.98535156","-0.20410156","11.8125","-18.625","-0.5"
"1573703123568","231","-0.06347656","-1.0429688","-0.18652344","15.0","-21.0625","-1.71875"
"1573703123568","232","-0.1015625","-1.0380859","-0.18457031","11.03125","-20.78125","-1.71875"
"1573703123568","233","-0.076171875","-0.9667969","-0.13769531","-2.34375","-6.59375","5.0625"
"1573703123568","234","0.020507812","-1.0380859","-0.14550781","5.0","1.875","3.46875"
"1573703123568","235","0.001953125","-0.9902344","-0.2109375","16.84375","4.8125","7.8125"
"1573703123569","236","-0.025390625","-0.9589844","-0.18359375","14.625","4.6875","10.1875"
"1573703123569","237","-0.017578125","-1.0126953","-0.15234375","6.5625","4.0","5.125"
"1573703123569","238","0.001953125","-1.0371094","-0.1171875","10.78125","2.3125","9.625"
"1573703123569","239","-0.076171875","-1.0009766","-0.14257812","-5.875","-4.46875","5.65625"
"1573703123967","240","-0.06542969","-0.9970703","-0.19238281","-4.84375","0.90625","-2.53125"
"1573703123968","241","-0.043945312","-0.9970703","-0.18457031","-8.6875","0.96875","-5.09375"
"1573703123969","242","-0.045898438","-0.97265625","-0.15625","-5.4375","-1.0625","-7.71875"
"1573703123969","243","-0.045898438","-0.9892578","-0.18359375","0.46875","-1.71875","-3.25"
"1573703123969","244","-0.0625","-1.0048828","-0.19335938","2.59375","1.5","-0.125"
"1573703123969","245","9.765625E-4","-0.9707031","-0.171875","0.15625","1.09375","2.3125"
"1573703123970","246","0.055664062","-1.0185547","-0.17871094","-1.25","2.84375","3.53125"
"1573703123970","247","-0.0029296875","-0.9794922","-0.16992188","0.71875","2.1875","6.34375"
"1573703123970","248","0.03125","-1.0458984","-0.17089844","-4.53125","5.78125","7.375"
"1573703123970","249","-0.0625","-0.99316406","-0.20605469","13.28125","-2.46875","10.25"
"1573703124364","250","-0.016601562","-0.9902344","-0.10253906","18.46875","-3.0625","20.0"
"1573703124364","251","-0.056640625","-0.90625","-0.15136719","2.71875","-11.78125","18.90625"
"1573703124365","252","-0.009765625","-0.9785156","-0.09765625","14.375","-7.09375","13.84375"
"1573703124365","253","0.028320312","-1.1689453","-0.13964844","-8.4375","-6.0625","13.78125"
"1573703124365","254","-0.14648438","-1.0849609","-0.15234375","12.375","-14.65625","29.09375"
"1573703124366","255","-0.18652344","-1.1464844","-0.046875","25.1875","-21.875","43.125"
"1573703124366","256","-0.26757812","-1.3457031","-0.080078125","-10.8125","-12.65625","21.65625"
"1573703124367","257","-0.27148438","-1.2148438","-0.06347656","1.03125","-0.3125","12.25"
"1573703124367","258","-0.32421875","-1.0126953","-0.13671875","29.65625","-24.1875","18.1875"
"1573703124367","259","-0.33007812","-0.9482422","-0.09082031","13.15625","-16.875","21.03125"
"1573703124762","260","-0.3203125","-0.8847656","-0.022460938","-1.84375","-9.40625","11.53125"
"1573703124763","261","-0.31445312","-0.8779297","-0.0859375","-14.0625","-19.5","6.34375"
"1573703124763","262","-0.3359375","-0.859375","-0.09765625","-23.40625","-15.03125","-9.53125"
"1573703124763","263","-0.27539062","-0.90722656","-0.109375","-5.875","-11.71875","-8.6875"
"1573703124764","264","-0.31835938","-0.95410156","-0.078125","-8.1875","-12.59375","-0.25"
"1573703124765","265","-0.3251953","-0.91796875","-0.09082031","-5.375","-3.0","7.3125"
"1573703124765","266","-0.3359375","-0.9394531","-0.099609375","2.78125","4.0625","8.71875"
"1573703124766","267","-0.2705078","-0.9111328","-0.13476562","9.9375","4.875","7.5"
"1573703124766","268","-0.2265625","-0.8408203","-0.107421875","11.875","3.59375","5.53125"
"1573703124766","269","-0.21582031","-0.7832031","-0.07910156","19.40625","-0.625","5.65625"
"1573703125355","270","-0.2734375","-0.7734375","-0.0859375","6.15625","-1.65625","-1.84375"
"1573703125355","271","-0.2626953","-0.80859375","-0.14550781","0.09375","0.71875","-11.78125"
"1573703125356","272","-0.19824219","-0.84765625","-0.072265625","-6.53125","-12.84375","-17.40625"
"1573703125356","273","-0.234375","-1.0039062","0.0107421875","-6.375","-24.25","-8.1875"
"1573703125356","274","-0.390625","-1.1347656","0.00390625","0.21875","-19.90625","-4.03125"
"1573703125356","275","-0.40429688","-0.96777344","-0.017578125","17.4375","-15.21875","7.125"
"1573703125357","276","-0.16699219","-0.9189453","0.034179688","27.5","-2.53125","13.0"
"1573703125358","277","-0.14257812","-0.8925781","0.09277344","2.65625","11.875","2.375"
"1573703125358","278","-0.23339844","-0.8359375","0.12695312","6.9375","20.0","-7.875"
"1573703125359","279","-0.10253906","-0.95410156","0.046875","12.25","22.9375","3.28125"
"1573703125555","280","-0.109375","-0.9433594","0.0078125","-7.46875","11.59375","-12.34375"
"1573703125556","281","-0.14550781","-0.84472656","0.046875","-9.65625","2.5","-12.65625"
"1573703125556","282","-0.17773438","-0.8730469","0.059570312","1.375","-0.3125","-0.3125"
"1573703125556","283","-0.21875","-0.7890625","0.0546875","-0.5","9.03125","2.5625"
"1573703125556","284","-0.12695312","-0.70703125","0.029296875","5.46875","2.3125","-4.59375"
"1573703125557","285","-0.20703125","-0.5","0.08691406","-10.09375","1.09375","-6.90625"
"1573703125557","286","-0.140625","-0.52441406","0.12109375","14.5","22.875","13.53125"
"1573703125557","287","-0.22167969","-0.7685547","-0.041992188","-45.96875","26.21875","-9.125"
"1573703125557","288","-0.515625","-2.0078125","-0.15820312","11.46875","63.03125","-62.6875"
"1573703125558","289","-0.4423828","-1.9960938","-0.38085938","-47.875","10.125","-1.40625"
"1573703125954","290","-0.3564453","-1.7158203","-0.47265625","39.40625","-15.625","1.9375"
"1573703125955","291","0.09765625","-0.95703125","-0.16308594","-27.46875","-8.625","19.21875"
"1573703125955","292","0.051757812","-0.9091797","-0.20996094","14.8125","-3.96875","-17.21875"
"1573703125955","293","-0.44921875","-0.8701172","-0.30566406","-40.90625","-3.0625","-22.125"
"1573703125955","294","-0.15917969","-0.8300781","-0.19042969","-22.53125","16.59375","30.25"
"1573703125956","295","0.080078125","-0.7861328","-0.15527344","-14.125","7.5","-5.21875"
"1573703125956","296","-0.16699219","-0.8691406","-0.2421875","-21.5","-4.03125","-16.5625"
"1573703125956","297","-0.234375","-0.9921875","-0.28125","-28.59375","0.65625","0.40625"
"1573703125956","298","-0.09863281","-1.0332031","-0.3232422","-12.03125","5.90625","-22.84375"
"1573703125957","299","-0.12109375","-0.9746094","-0.2783203","-7.9375","-11.0625","-1.0"
"1573703126351","300","-0.27441406","-0.953125","-0.3046875","-6.375","-4.59375","-6.53125"
"1573703126353","301","-0.140625","-0.91796875","-0.2998047","-1.90625","7.4375","-9.46875"
"1573703126353","302","-0.080078125","-0.8652344","-0.28320312","-3.125","0.46875","-12.90625"
"1573703126354","303","-0.11816406","-0.92285156","-0.29589844","1.9375","5.28125","-14.0625"
"1573703126354","304","-0.12597656","-0.9658203","-0.32421875","1.625","7.0","-20.40625"
"1573703126355","305","-0.09765625","-0.97265625","-0.27929688","2.1875","6.75","-13.4375"
"1573703126355","306","-0.14257812","-0.9746094","-0.20703125","4.25","4.5625","-4.09375"
"1573703126355","307","-0.14453125","-0.9951172","-0.17382812","13.15625","3.34375","8.96875"
"1573703126356","308","-0.123046875","-0.9707031","-0.19238281","2.1875","-1.84375","12.0"
"1573703126356","309","-0.0390625","-0.98535156","-0.27148438","3.9375","-6.0625","-2.03125"
"1573703126747","310","-0.036132812","-1.0087891","-0.29785156","-3.96875","-17.34375","-10.6875"
"1573703126748","311","-0.07519531","-0.9404297","-0.328125","-0.625","-22.21875","-16.8125"
"1573703126748","312","-0.17285156","-0.9824219","-0.31054688","1.4375","-10.21875","-15.03125"
"1573703126749","313","-0.13867188","-0.921875","-0.30566406","12.4375","-0.9375","-6.3125"
"1573703126749","314","-0.091796875","-0.92578125","-0.24414062","12.0","11.34375","0.21875"
"1573703126750","315","-0.12109375","-0.9736328","-0.24511719","13.34375","14.375","0.21875"
"1573703126750","316","-0.07519531","-0.96777344","-0.22949219","19.40625","3.78125","0.96875"
"1573703126750","317","-0.07421875","-0.9013672","-0.20214844","15.125","1.75","-6.78125"
"1573703126750","318","-0.14648438","-0.9794922","-0.21875","17.75","7.96875","-8.375"
"1573703126751","319","-0.10058594","-0.9707031","-0.18652344","11.8125","15.5625","-13.375"
"1573703127146","320","-0.030273438","-1.1464844","-0.10546875","6.8125","27.6875","-15.09375"
"1573703127146","321","-0.123046875","-1.328125","-0.076171875","-0.5625","21.65625","6.15625"
"1573703127146","322","-0.123046875","-0.93359375","-0.10449219","17.8125","-7.71875","20.84375"
"1573703127147","323","0.17285156","-0.75878906","-0.13671875","30.0","6.03125","-5.6875"
"1573703127148","324","0.015625","-1.0087891","-0.17285156","-13.125","10.78125","-28.40625"
"1573703127148","325","-0.10449219","-1.1474609","-0.18554688","-16.8125","5.53125","-12.40625"
"1573703127149","326","-0.0068359375","-1.015625","-0.1171875","-7.71875","1.09375","-9.90625"
"1573703127149","327","0.078125","-0.9716797","-0.13085938","7.0","1.5","-3.1875"
"1573703127149","328","-0.0078125","-1.0263672","-0.16601562","3.65625","-6.78125","2.3125"
"1573703127149","329","-0.05859375","-0.97753906","-0.16503906","-5.25","-0.4375","1.9375"
"1573703127544","330","0.026367188","-1.0166016","-0.16015625","-9.78125","6.625","-6.71875"
"1573703127545","331","0.03515625","-1.0419922","-0.18554688","-9.78125","-4.15625","-11.25"
"1573703127545","332","0.016601562","-0.9609375","-0.17089844","-13.6875","-12.40625","-12.28125"
"1573703127545","333","0.037109375","-0.98046875","-0.15527344","-5.4375","-20.9375","-12.90625"
"1573703127545","334","0.0","-1.0039062","-0.111328125","-12.71875","-23.75","-12.59375"
"1573703127546","335","0.0029296875","-1.0195312","-0.17675781","-18.25","-11.96875","-8.3125"
"1573703127546","336","0.0087890625","-1.0771484","-0.22363281","-16.0","7.5","-6.90625"
"1573703127547","337","0.028320312","-1.0","-0.24707031","-6.90625","1.6875","-9.96875"
"1573703127548","338","0.10253906","-0.9580078","-0.2734375","-4.84375","-8.4375","-6.65625"
"1573703127548","339","0.047851562","-0.9941406","-0.24511719","-9.46875","2.3125","-7.03125"
"1573703127941","340","0.009765625","-0.9921875","-0.2548828","2.375","16.46875","-6.375"
"1573703127942","341","0.049804688","-0.97753906","-0.265625","6.09375","13.28125","-1.65625"
"1573703127942","342","0.064453125","-0.97558594","-0.25976562","-0.375","7.0625","1.625"
"1573703127942","343","0.0625","-0.9892578","-0.25390625","0.03125","7.1875","1.28125"
"1573703127943","344","0.030273438","-0.97753906","-0.23242188","1.28125","5.84375","3.59375"
"1573703127943","345","0.034179688","-0.9716797","-0.25878906","-1.78125","6.21875","2.375"
"1573703127943","346","0.07324219","-0.9736328","-0.30273438","-7.78125","2.3125","-2.8125"
"1573703127943","347","0.0703125","-0.99609375","-0.2998047","5.65625","5.59375","-0.125"
"1573703127944","348","0.047851562","-0.9980469","-0.24707031","8.71875","3.28125","3.65625"
"1573703127945","349","0.043945312","-0.9316406","-0.25976562","6.5625","-0.0625","5.71875"
"1573703128933","350","0.091796875","-1.0019531","-0.24804688","12.1875","5.34375","11.34375"
"1573703128933","351","0.078125","-0.98535156","-0.24609375","2.90625","7.84375","5.46875"
"1573703128933","352","0.087890625","-0.97558594","-0.23828125","2.71875","11.09375","10.375"
"1573703128934","353","0.15527344","-0.96972656","-0.21386719","13.84375","18.84375","20.96875"
"1573703128935","354","0.15625","-1.0654297","-0.18066406","15.125","27.6875","35.09375"
"1573703128935","355","0.06933594","-1.0253906","-0.21484375","17.6875","22.5","30.5625"
"1573703128935","356","0.018554688","-1.0654297","-0.13476562","34.09375","21.59375","35.5625"
"1573703128935","357","-0.07714844","-1.1894531","-0.15234375","23.0625","14.21875","31.34375"
"1573703128936","358","0.013671875","-1.1474609","-0.09082031","12.875","-0.625","33.96875"
"1573703128936","359","0.041015625","-1.0058594","-0.07421875","32.09375","-32.3125","26.40625"
"1573703129132","360","-0.14746094","-0.9472656","-0.0546875","14.75","-28.6875","27.15625"
"1573703129133","361","-0.29296875","-1.1240234","-0.12207031","1.6875","-8.875","20.90625"
"1573703129134","362","-0.2939453","-1.1074219","-0.13867188","-5.6875","-18.5625","21.96875"
"1573703129134","363","-0.2548828","-0.9560547","-0.13085938","-8.5","-18.6875","23.71875"
"1573703129134","364","-0.3564453","-0.96875","-0.087890625","-7.34375","-15.9375","16.53125"
"1573703129135","365","-0.35253906","-0.9746094","-0.115234375","-8.0625","-4.59375","12.125"
"1573703129135","366","-0.31054688","-1.0517578","-0.107421875","-23.4375","7.4375","-1.78125"
"1573703129135","367","-0.26953125","-1.0019531","-0.12402344","-8.875","-4.53125","2.65625"
"1573703129135","368","-0.29296875","-0.93847656","-0.1328125","-14.3125","-6.0625","1.4375"
"1573703129136","369","-0.2578125","-0.94433594","-0.13476562","-15.875","1.875","1.15625"
"1573703129137","370","-0.24609375","-0.90625","-0.11230469","-7.46875","0.28125","4.25"
"1573703129138","371","-0.24023438","-0.8574219","-0.14746094","-9.90625","0.21875","0.71875"
"1573703129138","372","-0.21484375","-0.8828125","-0.16992188","-9.40625","6.9375","0.15625"
"1573703129138","373","-0.21289062","-0.9482422","-0.18652344","-8.125","8.28125","-2.15625"
"1573703129139","374","-0.23242188","-0.94628906","-0.234375","-13.75","9.4375","-5.6875"
"1573703129139","375","-0.16894531","-0.94140625","-0.21386719","-10.03125","5.96875","-7.03125"
"1573703129139","376","-0.17871094","-0.9248047","-0.19824219","-8.5625","-1.59375","-8.3125"
"1573703129139","377","-0.21484375","-0.9199219","-0.22265625","-2.6875","-6.0625","-8.8125"
"1573703129140","378","-0.21386719","-0.92285156","-0.24902344","-3.4375","-1.25","-8.0"
"1573703129140","379","-0.18164062","-0.9199219","-0.265625","-6.53125","0.21875","-8.9375"
"1573703129532","380","-0.13867188","-0.90722656","-0.24902344","-8.75","-0.5","-12.46875"
"1573703129532","381","-0.15820312","-0.92285156","-0.25683594","-7.875","-3.8125","-17.46875"
"1573703129532","382","-0.16015625","-0.93066406","-0.28515625","-8.3125","-2.8125","-21.375"
"1573703129533","383","-0.12207031","-0.9667969","-0.27929688","-10.9375","-3.6875","-22.71875"
"1573703129533","384","-0.1171875","-0.95214844","-0.2939453","-7.875","-7.46875","-23.875"
"1573703129534","385","-0.083984375","-0.9238281","-0.29003906","-3.1875","-13.5","-24.625"
"1573703129535","386","-0.07519531","-0.91308594","-0.27539062","1.625","-17.21875","-23.5625"
"1573703129535","387","-0.15332031","-0.9814453","-0.23144531","0.34375","-11.90625","-17.90625"
"1573703129535","388","-0.10058594","-0.97753906","-0.24121094","0.84375","-12.46875","-10.28125"
"1573703129536","389","-0.07714844","-0.98828125","-0.22851562","4.5625","-18.03125","-11.1875"
"1573703129930","390","-0.029296875","-0.98046875","-0.23828125","4.25","-21.5625","-13.125"
"1573703129930","391","-0.072265625","-0.9892578","-0.17675781","5.34375","-27.3125","-9.84375"
"1573703129931","392","-0.09277344","-0.921875","-0.19140625","12.75","-31.8125","-1.34375"
"1573703129931","393","-0.08105469","-0.88964844","-0.1640625","21.65625","-20.40625","5.0625"
"1573703129931","394","-0.080078125","-1.0302734","-0.14257812","17.25","-4.21875","7.625"
"1573703129931","395","-0.111328125","-1.0771484","-0.140625","2.71875","24.46875","7.5625"
"1573703129932","396","-0.06738281","-1.0947266","-0.17382812","6.5","32.6875","11.03125"
"1573703129933","397","0.053710938","-1.0732422","-0.18945312","-3.125","26.46875","9.75"
"1573703129934","398","0.08203125","-1.0205078","-0.16601562","1.375","10.71875","4.25"
"1573703129934","399","0.0","-0.99121094","-0.15234375","-1.78125","2.5","-2.15625"
"1573703130325","400","-0.043945312","-0.97753906","-0.17089844","-5.8125","-3.8125","-1.65625"
"1573703130325","401","-0.03515625","-0.9589844","-0.15429688","-8.75","-6.25","0.96875"
"1573703130326","402","-0.032226562","-0.93066406","-0.15820312","-15.28125","-11.4375","-3.0625"
"1573703130326","403","-0.08886719","-0.9609375","-0.14160156","-14.34375","-10.4375","0.15625"
"1573703130326","404","-0.08496094","-0.8623047","-0.12207031","-16.5","-14.96875","5.21875"
"1573703130326","405","-0.018554688","-0.85839844","-0.1171875","-1.1875","-13.8125","7.0625"
"1573703130327","406","-0.06738281","-0.875","-0.123046875","-2.8125","-18.03125","7.4375"
"1573703130327","407","-0.099609375","-0.8466797","-0.12109375","-9.59375","-19.25","4.625"
"1573703130327","408","-0.1015625","-0.8261719","-0.091796875","-11.625","-15.28125","4.125"
"1573703130328","409","-0.103515625","-0.828125","-0.12207031","2.5625","-23.34375","0.78125"
"1573703130923","410","-0.064453125","-0.8017578","-0.091796875","-6.53125","-32.5625","-0.1875"
"1573703130924","411","-0.14355469","-0.7324219","-0.064453125","-2.28125","-24.90625","2.0"
"1573703130924","412","-0.07421875","-0.95996094","-0.26757812","2.90625","-9.59375","-16.3125"
"1573703130924","413","-0.26171875","-1.2578125","-0.3173828","-12.28125","66.5","-12.03125"
"1573703130924","414","-0.15234375","-1.5615234","-0.6152344","-32.71875","-16.875","-19.78125"
"1573703130925","415","-0.20996094","-1.1855469","-0.4033203","-14.65625","23.59375","-10.40625"
"1573703130925","416","-0.24414062","-1.1884766","-0.4873047","1.9375","-4.21875","1.75"
"1573703130925","417","-0.4091797","-1.4541016","-0.49121094","-33.84375","62.5","6.40625"
"1573703130925","418","-0.05078125","-1.1816406","-0.484375","-16.0625","15.71875","15.84375"
"1573703130926","419","0.1875","-0.7441406","-0.35351562","31.46875","5.1875","9.75"
"1573703131122","420","0.041015625","-0.5800781","-0.16699219","21.09375","-15.59375","14.375"
"1573703131123","421","-0.36914062","-0.7578125","-0.44921875","16.21875","16.78125","20.90625"
"1573703131124","422","-0.119140625","-1.0439453","-0.5185547","11.9375","47.53125","5.71875"
"1573703131124","423","0.15820312","-1.0585938","-0.26171875","-12.34375","36.25","-5.25"
"1573703131125","424","-0.060546875","-1.0234375","-0.31640625","-6.65625","-1.1875","-6.0"
"1573703131125","425","-0.08691406","-0.9189453","-0.32714844","15.78125","-15.15625","-9.65625"
"1573703131126","426","-0.055664062","-0.8310547","-0.30859375","13.53125","-7.71875","0.84375"
"1573703131126","427","-0.14648438","-0.9121094","-0.390625","6.8125","3.09375","6.625"
"1573703131126","428","-0.15332031","-0.99609375","-0.38476562","6.75","18.1875","-0.0625"
"1573703131126","429","-0.076171875","-0.99121094","-0.3203125","12.5","11.9375","-0.4375"
"1573703131519","430","-0.099609375","-0.9345703","-0.2919922","17.375","7.8125","3.46875"
"1573703131519","431","-0.125","-0.9091797","-0.27929688","21.65625","7.3125","1.8125"
"1573703131520","432","-0.08203125","-0.8925781","-0.24902344","16.34375","12.75","1.375"
"1573703131521","433","-0.05078125","-0.9873047","-0.265625","25.0","1.6875","2.4375"
"1573703131522","434","-0.09082031","-1.0117188","-0.23828125","17.25","1.15625","1.15625"
"1573703131522","435","-0.12402344","-0.9951172","-0.23925781","9.1875","1.09375","-2.28125"
"1573703131523","436","-0.09863281","-0.9580078","-0.2578125","2.25","0.03125","-6.25"
"1573703131523","437","-0.09765625","-0.9482422","-0.24023438","-0.375","3.28125","-11.3125"
"1573703131523","438","-0.09375","-1.0292969","-0.23535156","1.625","16.09375","-11.0625"
"1573703131523","439","-0.06347656","-1.171875","-0.22753906","-17.46875","16.53125","-13.125"
"1573703131917","440","-0.015625","-0.99902344","-0.19921875","-3.75","-8.5625","-15.34375"
"1573703131918","441","0.025390625","-0.8183594","-0.24902344","13.09375","-19.53125","-11.96875"
"1573703131918","442","-0.053710938","-1.0058594","-0.27148438","-12.53125","4.0625","-15.59375"
"1573703131918","443","-0.072265625","-1.1210938","-0.2626953","-10.625","5.65625","-9.40625"
"1573703131919","444","0.041992188","-0.96484375","-0.20410156","1.6875","-2.34375","-9.28125"
"1573703131920","445","0.021484375","-0.93847656","-0.21972656","0.84375","-9.71875","-6.5"
"1573703131920","446","-0.025390625","-0.9902344","-0.25878906","-6.0625","1.8125","-5.9375"
"1573703131921","447","0.0","-0.98828125","-0.24511719","-6.59375","0.28125","-6.71875"
"1573703131921","448","0.036132812","-0.9873047","-0.25390625","-0.6875","-2.03125","-9.0625"
"1573703131921","449","0.022460938","-1.0097656","-0.25","-0.0625","-6.78125","-10.8125"
"1573703132312","450","0.009765625","-0.9814453","-0.24804688","1.4375","-6.375","-9.53125"
"1573703132313","451","-0.0068359375","-0.98046875","-0.24121094","-6.5","-1.78125","-9.0625"
"1573703132313","452","0.029296875","-0.98535156","-0.25878906","-0.9375","1.375","-9.84375"
"1573703132313","453","0.043945312","-0.98535156","-0.26464844","4.125","-2.34375","-6.375"
"1573703132314","454","0.029296875","-0.9951172","-0.25097656","2.90625","-2.53125","-6.65625"
"1573703132314","455","0.025390625","-0.9746094","-0.25195312","0.90625","2.96875","-9.96875"
"1573703132314","456","0.08691406","-0.9746094","-0.21289062","4.6875","-1.0625","-10.09375"
"1573703132315","457","0.12207031","-0.9814453","-0.17675781","10.0","-13.375","-6.53125"
"1573703132316","458","0.09082031","-1.0039062","-0.17675781","11.28125","-11.5625","-1.0625"
"1573703132316","459","0.041015625","-1.0947266","-0.18945312","9.875","-10.8125","-5.6875"
"1573703132710","460","0.0","-1.0146484","-0.25097656","4.4375","3.9375","-5.21875"
"1573703132710","461","0.099609375","-1.0","-0.28320312","8.03125","-1.65625","-2.875"
"1573703132711","462","0.14550781","-0.9716797","-0.21875","11.46875","7.8125","-1.125"
"1573703132711","463","0.08300781","-0.9511719","-0.21875","17.5","8.46875","2.4375"
"1573703132711","464","0.083984375","-1.0029297","-0.21582031","15.65625","14.6875","3.53125"
"1573703132711","465","0.09667969","-0.9921875","-0.20410156","11.15625","12.875","3.28125"
"1573703132712","466","0.10839844","-0.9970703","-0.20800781","14.5","8.96875","3.15625"
"1573703132712","467","0.12695312","-0.99609375","-0.18554688","12.375","0.96875","5.59375"
"1573703132712","468","0.12109375","-0.9814453","-0.17675781","9.25","-3.25","5.1875"
"1573703132713","469","0.10253906","-0.9873047","-0.18554688","6.5","-2.15625","5.78125"
"1573703133109","470","0.107421875","-1.0224609","-0.20019531","7.125","-0.6875","6.6875"
"1573703133110","471","0.109375","-0.9941406","-0.20410156","0.65625","-1.90625","3.34375"
"1573703133110","472","0.109375","-0.99316406","-0.20605469","2.25","0.53125","2.65625"
"1573703133110","473","0.091796875","-1.0234375","-0.14746094","1.28125","2.65625","5.28125"
"1573703133111","474","0.1015625","-1.0009766","-0.18359375","11.8125","-1.78125","7.0625"
"1573703133111","475","0.072265625","-1.0371094","-0.15429688","13.03125","-1.46875","18.96875"
"1573703133111","476","0.0703125","-1.03125","-0.12695312","10.375","-1.65625","13.09375"
"1573703133111","477","0.051757812","-1.0146484","-0.08300781","16.28125","-0.8125","13.78125"
"1573703133112","478","0.018554688","-1.0693359","-0.07519531","10.46875","1.3125","19.9375"
"1573703133112","479","0.0","-1.0849609","-0.056640625","10.53125","-1.25","15.3125"
"1573703133508","480","-0.026367188","-1.0625","-0.04296875","15.78125","-9.15625","23.65625"
"1573703133509","481","-0.052734375","-1.1289062","-0.037109375","8.34375","-3.5","21.09375"
"1573703133510","482","-0.08496094","-1.1640625","-0.037109375","2.90625","-0.625","23.25"
"1573703133510","483","-0.107421875","-1.1484375","-0.06933594","3.28125","-9.28125","23.90625"
"1573703133510","484","-0.19238281","-1.0634766","-0.021484375","7.625","-12.78125","29.28125"
"1573703133511","485","-0.25","-0.9707031","-0.080078125","5.21875","-9.84375","31.28125"
"1573703133511","486","-0.24316406","-0.9873047","-0.07128906","-3.6875","-1.65625","20.84375"
"1573703133511","487","-0.22460938","-0.98046875","-0.0390625","-19.96875","4.0","11.75"
"1573703133511","488","-0.22851562","-1.0449219","-0.053710938","-9.34375","-2.09375","9.625"
"1573703133512","489","-0.18652344","-0.9824219","-0.048828125","-10.4375","-7.40625","-0.0625"
"1573703133904","490","-0.19042969","-0.96191406","-0.068359375","-8.0625","-12.53125","1.9375"
"1573703133904","491","-0.22167969","-0.9707031","-0.09765625","-12.90625","-9.0625","0.90625"
"1573703133904","492","-0.21484375","-0.9560547","-0.10253906","-13.5625","-8.75","1.09375"
"1573703133906","493","-0.19628906","-0.92285156","-0.10839844","-12.59375","-8.1875","0.71875"
"1573703133906","494","-0.18359375","-0.9345703","-0.12988281","-13.5","-7.46875","-1.40625"
"1573703133907","495","-0.18945312","-0.9189453","-0.12988281","-12.46875","-5.5625","-3.6875"
"1573703133907","496","-0.18066406","-0.88378906","-0.15039062","-4.09375","-8.125","-2.625"
"1573703133907","497","-0.16796875","-0.8828125","-0.12695312","-3.4375","-7.71875","-0.375"
"1573703133907","498","-0.18457031","-0.8798828","-0.15332031","-3.5625","-3.875","-3.0625"
"1573703133908","499","-0.1796875","-0.92578125","-0.14550781","-9.28125","-1.25","-9.90625"
"1573703134302","500","-0.18652344","-0.93066406","-0.14355469","-16.9375","-4.53125","-11.625"
"1573703134303","501","-0.15722656","-0.9638672","-0.19824219","-4.90625","-4.84375","-9.46875"
"1573703134303","502","-0.15722656","-0.94921875","-0.19238281","-9.71875","-8.1875","-14.0625"
"1573703134303","503","-0.15820312","-0.921875","-0.20410156","-1.90625","-9.0625","-16.5625"
"1573703134304","504","-0.17089844","-0.93847656","-0.21972656","-5.21875","-5.625","-16.0625"
"1573703134304","505","-0.13769531","-1.0458984","-0.22851562","-11.5625","4.625","-19.25"
"1573703134304","506","-0.107421875","-1.0976562","-0.1875","-9.34375","5.0625","-21.25"
"1573703134305","507","-0.051757812","-0.9667969","-0.16308594","-1.78125","-10.75","-14.96875"
"1573703134305","508","0.0126953125","-0.8642578","-0.123046875","7.3125","-22.125","-10.4375"
"1573703134305","509","-0.064453125","-0.91308594","-0.10058594","3.03125","-25.71875","-4.90625"
"1573703134698","510","-0.119140625","-0.9921875","-0.12109375","8.28125","-24.625","0.15625"
"1573703134698","511","-0.10253906","-1.0068359","-0.09863281","-0.3125","-23.34375","0.03125"
"1573703134698","512","-0.072265625","-0.9902344","-0.07519531","-3.1875","-18.6875","2.71875"
"1573703134699","513","-0.028320312","-0.9970703","-0.09765625","0.59375","-23.28125","-2.21875"
"1573703134699","514","-0.056640625","-1.0439453","-0.12988281","-1.125","-9.125","6.8125"
"1573703134699","515","-0.18945312","-1.0478516","-0.17871094","-9.0625","-5.375","8.28125"
"1573703134699","516","-0.103515625","-1.0175781","-0.17285156","-6.53125","15.0","7.625"
"1573703134703","517","0.0107421875","-1.0039062","-0.12109375","-1.53125","3.90625","0.40625"
"1573703134704","518","-0.02734375","-0.9560547","-0.107421875","-0.625","-9.15625","-1.34375"
"1573703134704","519","-0.09765625","-0.99316406","-0.078125","-5.09375","-5.625","-1.71875"
"1573703135096","520","-0.052734375","-0.953125","-0.1015625","-8.6875","-0.125","0.09375"
"1573703135097","521","-0.049804688","-0.9482422","-0.095703125","-15.9375","-4.09375","4.125"
"1573703135097","522","-0.12792969","-0.86621094","-0.091796875","-6.65625","-11.375","5.34375"
"1573703135097","523","-0.0859375","-0.7705078","-0.099609375","1.375","-16.625","11.40625"
"1573703135098","524","-0.07128906","-0.7558594","-0.034179688","-7.9375","-12.96875","10.125"
"1573703135098","525","-0.0546875","-0.86816406","-0.06347656","-8.375","-12.28125","9.875"
"1573703135098","526","-0.056640625","-0.9238281","0.01171875","-14.0625","-20.59375","5.0625"
"1573703135098","527","-0.091796875","-0.75","-0.051757812","-14.125","-26.3125","0.59375"
"1573703135099","528","-0.31054688","-0.70214844","-0.16308594","17.0625","5.34375","17.625"
"1573703135100","529","-0.3955078","-0.7792969","-0.39160156","12.875","21.40625","2.65625"
"1573703135495","530","-0.3486328","-1.5478516","-0.42578125","2.125","91.15625","-2.34375"
"1573703135496","531","-0.10839844","-1.6611328","-0.484375","-50.0625","43.375","-4.09375"
"1573703135496","532","-0.08300781","-1.1728516","-0.37109375","3.59375","5.40625","-21.625"
"1573703135497","533","-0.359375","-1.2714844","-0.50878906","-46.15625","68.96875","-13.6875"
"1573703135497","534","-0.2548828","-1.2050781","-0.64746094","-38.03125","40.375","-0.1875"
"1573703135497","535","0.39648438","-0.7685547","-0.25390625","39.84375","13.71875","27.625"
"1573703135497","536","0.2578125","-0.53808594","-0.3251953","-6.3125","-21.5","-25.21875"
"1573703135497","537","-0.45117188","-0.8408203","-0.44921875","-36.09375","-0.3125","4.75"
"1573703135498","538","-0.18164062","-1.1503906","-0.45117188","20.6875","56.0625","1.9375"
"1573703135498","539","0.2919922","-1.0722656","-0.3095703","0.84375","3.34375","-4.15625"
"1573703135891","540","-0.14746094","-0.8017578","-0.34375","-13.03125","-29.875","1.15625"
"1573703135892","541","-0.20996094","-0.8886719","-0.44921875","18.71875","8.90625","4.125"
"1573703135892","542","0.034179688","-1.0068359","-0.35058594","12.9375","7.25","4.6875"
"1573703135892","543","-0.0859375","-0.9199219","-0.37304688","0.15625","3.59375","-0.875"
"1573703135893","544","-0.072265625","-0.9199219","-0.40429688","8.09375","4.125","-8.375"
"1573703135893","545","0.022460938","-0.9394531","-0.33496094","10.25","-8.0625","-9.34375"
"1573703135893","546","-0.09667969","-0.88183594","-0.35058594","13.0","-14.46875","-9.90625"
"1573703135893","547","-0.12207031","-0.9267578","-0.36132812","18.0625","-2.8125","-5.875"
"1573703135893","548","-0.048828125","-0.9902344","-0.31933594","11.28125","9.5625","-9.0"
"1573703135894","549","-0.07519531","-0.9902344","-0.3359375","3.34375","1.5625","-11.375"
"1573703136287","550","-0.001953125","-0.96484375","-0.34179688","9.6875","-10.03125","-8.1875"
"1573703136288","551","-0.00390625","-0.9433594","-0.28125","12.4375","-6.53125","-21.3125"
"1573703136288","552","-0.0703125","-1.015625","-0.25195312","11.21875","2.0625","-16.8125"
"1573703136289","553","-0.026367188","-1.1542969","-0.2421875","-13.125","8.71875","-18.09375"
"1573703136290","554","0.060546875","-0.97558594","-0.20214844","-6.90625","-14.90625","-17.40625"
"1573703136290","555","0.06542969","-0.8300781","-0.28320312","19.40625","-21.8125","-4.09375"
"1573703136290","556","-0.061523438","-0.9658203","-0.3251953","-15.09375","-3.125","-7.53125"
"1573703136290","557","-0.04296875","-1.0917969","-0.31640625","-14.40625","9.8125","-5.75"
"1573703136291","558","0.06347656","-0.9873047","-0.25","-5.375","-3.75","-10.09375"
"1573703136291","559","0.05078125","-0.9482422","-0.24023438","6.6875","-13.375","-5.09375"
"1573703136686","560","-0.00390625","-0.9667969","-0.28808594","5.65625","-9.40625","-0.375"
"1573703136686","561","0.034179688","-0.99316406","-0.29003906","-0.75","-0.5","-2.46875"
"1573703136687","562","0.036132812","-0.9951172","-0.27441406","1.15625","-7.53125","-2.875"
"1573703136687","563","0.013671875","-0.9765625","-0.26171875","4.0625","-12.96875","-1.65625"
"1573703136687","564","0.01171875","-0.96777344","-0.27148438","5.78125","-10.03125","0.09375"
"1573703136687","565","0.0068359375","-0.99609375","-0.2548828","4.25","-8.625","-0.5625"
"1573703136688","566","0.02734375","-0.9824219","-0.265625","2.96875","-8.4375","0.09375"
"1573703136688","567","0.022460938","-0.9707031","-0.25097656","3.59375","-13.625","-0.1875"
"1573703136688","568","0.015625","-0.9765625","-0.25097656","3.53125","-14.53125","2.78125"
"1573703136688","569","0.026367188","-1.0195312","-0.21679688","13.21875","-15.6875","-1.34375"
"1573703137084","570","0.056640625","-0.9423828","-0.20117188","15.375","-31.03125","-2.28125"
"1573703137084","571","0.030273438","-0.97558594","-0.21386719","7.6875","-33.03125","-1.65625"
"1573703137085","572","0.0078125","-1.0517578","-0.20996094","5.65625","-21.5625","-3.0"
"1573703137085","573","0.026367188","-1.0048828","-0.2109375","8.78125","-17.40625","-1.46875"
"1573703137085","574","0.061523438","-1.0361328","-0.23046875","12.375","-14.3125","-2.34375"
"1573703137086","575","-0.02734375","-1.03125","-0.23828125","12.5","-14.59375","-6.3125"
"1573703137086","576","-0.029296875","-0.95703125","-0.234375","19.21875","-6.4375","-0.25"
"1573703137087","577","0.05078125","-0.98339844","-0.21386719","11.59375","-5.875","-0.75"
"1573703137087","578","0.041992188","-1.0107422","-0.20214844","13.96875","-1.84375","-1.0"
"1573703137088","579","0.055664062","-1.0029297","-0.19726562","11.40625","-5.75","-6.1875"
"1573703137482","580","0.07519531","-0.99902344","-0.19726562","13.28125","-10.5625","-4.53125"
"1573703137482","581","0.00390625","-0.97558594","-0.17480469","6.875","-17.03125","-5.4375"
"1573703137482","582","0.0068359375","-0.98339844","-0.17382812","9.1875","-10.4375","-0.125"
"1573703137483","583","-0.0087890625","-0.9951172","-0.16894531","4.5","-7.65625","2.125"
"1573703137483","584","0.005859375","-1.0117188","-0.18066406","10.65625","-6.84375","6.5"
"1573703137483","585","0.0234375","-1.0058594","-0.16894531","6.34375","-5.75","4.875"
"1573703137483","586","0.046875","-0.9628906","-0.19042969","6.15625","-1.0","2.3125"
"1573703137484","587","0.12109375","-1.0205078","-0.14453125","10.90625","1.8125","5.0625"
"1573703137484","588","0.040039062","-1.0019531","-0.14941406","6.6875","3.09375","2.0"
"1573703137485","589","0.048828125","-1.0195312","-0.1484375","12.75","16.90625","14.28125"
"1573703137878","590","0.125","-1.0683594","-0.09667969","16.59375","17.75","20.6875"
"1573703137878","591","0.061523438","-1.125","-0.08105469","11.71875","0.78125","17.125"
"1573703137878","592","-0.083984375","-1.2578125","-0.07128906","19.9375","27.9375","23.71875"
"1573703137878","593","-0.17382812","-1.3642578","-0.09375","-3.375","19.03125","16.84375"
"1573703137879","594","-0.048828125","-1.0917969","0.0078125","12.5","13.90625","30.75"
"1573703137879","595","-0.13183594","-0.96972656","-0.00390625","25.25","-6.0","26.71875"
"1573703137879","596","-0.33007812","-0.98828125","-0.021484375","4.0625","6.34375","16.65625"
"1573703137879","597","-0.24414062","-1.0380859","0.01171875","-2.59375","13.65625","9.9375"
"1573703137880","598","-0.15136719","-0.9892578","0.0048828125","-8.875","-0.3125","6.21875"
"1573703137880","599","-0.1953125","-0.9453125","-0.036132812","-18.21875","-7.09375","-0.5625"
"1573703138275","600","-0.1875","-0.9902344","-0.076171875","-12.84375","0.03125","-5.875"
"1573703138276","601","-0.15625","-1.0136719","-0.07128906","-15.34375","-5.4375","1.5"
"1573703138276","602","-0.17382812","-0.93066406","-0.060546875","-15.59375","-6.3125","-2.9375"
"1573703138276","603","-0.18261719","-0.921875","-0.08496094","-13.03125","-1.40625","-2.46875"
"1573703138276","604","-0.171875","-0.9355469","-0.09375","-9.71875","3.90625","-4.28125"
"1573703138276","605","-0.13964844","-0.91503906","-0.1015625","-8.6875","5.59375","-3.375"
"1573703138277","606","-0.10839844","-0.9238281","-0.11328125","-10.03125","4.5625","-3.375"
"1573703138277","607","-0.125","-0.91015625","-0.11425781","-11.4375","-1.3125","-5.3125"
"1573703138277","608","-0.0859375","-0.8935547","-0.15332031","-3.0625","1.8125","-2.59375"
"1573703138277","609","-0.10839844","-0.9423828","-0.14453125","-7.53125","0.03125","-6.65625"
"1573703138674","610","-0.1484375","-0.9277344","-0.15820312","-14.3125","-2.09375","-7.875"
"1573703138675","611","-0.15234375","-0.9667969","-0.17089844","4.6875","-0.5","-1.78125"
"1573703138675","612","-0.17089844","-0.9794922","-0.18359375","-2.8125","-1.25","-1.46875"
"1573703138676","613","-0.12207031","-0.9824219","-0.18554688","-1.125","-0.75","-2.34375"
"1573703138677","614","-0.09667969","-0.9394531","-0.19335938","2.375","-4.03125","-5.5625"
"1573703138677","615","-0.109375","-0.9501953","-0.19921875","-0.5625","-7.46875","-9.71875"
"1573703138677","616","-0.06933594","-0.9277344","-0.20117188","-1.3125","-12.53125","-14.0"
"1573703138678","617","-0.09082031","-1.0087891","-0.14550781","-4.15625","-8.3125","-12.84375"
"1573703138678","618","-0.13964844","-1.0742188","-0.14941406","-9.46875","-11.0625","-9.71875"
"1573703138678","619","-0.005859375","-1.0097656","-0.14160156","-4.34375","-22.46875","-4.34375"
"1573703139070","620","-0.045898438","-0.93652344","-0.140625","-1.53125","-30.21875","-1.0625"
"1573703139071","621","-0.14160156","-0.92089844","-0.11621094","3.65625","-20.53125","9.25"
"1573703139071","622","-0.12988281","-0.953125","-0.15722656","4.125","-6.78125","17.1875"
"1573703139072","623","-0.1171875","-1.0058594","-0.10839844","1.3125","0.90625","15.125"
"1573703139072","624","-0.15625","-1.0419922","-0.111328125","-13.625","12.0625","11.21875"
"1573703139072","625","-0.07519531","-1.0341797","-0.14648438","2.90625","19.6875","9.625"
"1573703139073","626","0.01171875","-1.0351562","-0.1484375","-5.375","3.9375","-1.0625"
"1573703139073","627","-0.038085938","-0.9873047","-0.125","-7.71875","-1.71875","-6.84375"
"1573703139073","628","-0.09375","-0.92871094","-0.12597656","4.3125","0.46875","-2.21875"
"1573703139074","629","-0.083984375","-0.9609375","-0.13964844","7.625","3.78125","3.9375"
"1573703139863","630","-0.07519531","-1.0029297","-0.1171875","-0.125","4.875","7.1875"
"1573703139864","631","-0.13378906","-0.94921875","-0.10058594","-6.90625","2.78125","7.4375"
"1573703139864","632","-0.14746094","-0.8730469","-0.09277344","-3.4375","-3.125","8.90625"
"1573703139865","633","-0.1171875","-0.86035156","-0.103515625","0.78125","-0.9375","9.25"
"1573703139865","634","-0.15722656","-0.90234375","-0.12207031","-1.0","1.625","7.6875"
"1573703139866","635","-0.17285156","-0.8300781","-0.08203125","-5.21875","-0.75","7.125"
"1573703139866","636","-0.12695312","-0.7470703","-0.05859375","3.84375","1.4375","18.59375"
"1573703139871","637","-0.17285156","-0.68066406","-0.034179688","-11.71875","2.78125","14.8125"
"1573703139872","638","-0.14941406","-0.7392578","-0.04296875","-15.75","19.09375","-1.65625"
"1573703139872","639","-0.12207031","-0.765625","-0.049804688","-10.5","20.3125","-10.40625"
"1573703140062","640","-0.17578125","-0.97753906","-0.15039062","6.03125","48.09375","-14.25"
"1573703140063","641","-0.21191406","-1.3222656","-0.44140625","-33.46875","69.8125","-20.9375"
"1573703140063","642","-0.10253906","-1.6835938","-0.48828125","-56.28125","31.65625","-36.8125"
"1573703140063","643","-0.041015625","-1.1435547","-0.3466797","5.34375","26.84375","-2.625"
"1573703140063","644","-0.06542969","-1.1630859","-0.5263672","-10.875","23.3125","-6.53125"
"1573703140064","645","-0.1875","-1.4619141","-0.5058594","-26.5","58.09375","-4.96875"
"1573703140064","646","0.10058594","-1.0654297","-0.49414062","-11.5","12.9375","-8.1875"
"1573703140064","647","0.1796875","-0.8144531","-0.39160156","6.625","-0.125","-12.71875"
"1573703140064","648","0.048828125","-0.7607422","-0.40625","-2.8125","-3.375","-11.90625"
"1573703140065","649","-0.053710938","-1.0361328","-0.44140625","-1.46875","13.96875","-4.53125"
"1573703140462","650","0.12792969","-0.9707031","-0.3544922","6.15625","-6.0","0.09375"
"1573703140463","651","-0.0029296875","-0.82714844","-0.33789062","0.03125","-13.25","-6.375"
"1573703140463","652","-0.095703125","-0.86621094","-0.38085938","2.1875","-2.21875","4.0"
"1573703140463","653","-0.01171875","-0.97753906","-0.36914062","15.4375","2.0625","-2.875"
"1573703140464","654","0.009765625","-0.9580078","-0.38378906","12.75","-8.5625","1.6875"
"1573703140464","655","-0.05078125","-0.92089844","-0.36621094","15.25","-9.28125","1.28125"
"1573703140464","656","-0.0068359375","-0.92871094","-0.31152344","17.6875","-2.03125","-2.875"
"1573703140464","657","-0.01171875","-0.953125","-0.31152344","12.125","-5.5625","-2.59375"
"1573703140465","658","-0.022460938","-0.9550781","-0.2998047","0.21875","-7.875","-0.4375"
"1573703140465","659","-0.013671875","-0.98046875","-0.3203125","0.15625","-1.46875","-3.96875"
"1573703140662","660","-0.048828125","-1.0244141","-0.34277344","-5.8125","-4.71875","-4.21875"
"1573703140663","661","-0.040039062","-0.94628906","-0.34570312","-0.1875","-6.25","-1.0"
"1573703140664","662","-0.032226562","-1.0078125","-0.33984375","-2.75","0.59375","2.90625"
"1573703140664","663","-0.07519531","-1.0488281","-0.30664062","-6.4375","4.5625","-5.3125"
"1573703140664","664","0.0048828125","-0.984375","-0.31835938","-0.5625","-3.6875","-1.40625"
"1573703140665","665","0.0068359375","-0.9238281","-0.29492188","5.59375","-7.71875","-3.6875"
"1573703140665","666","0.0","-0.8935547","-0.2890625","3.09375","-9.0625","-3.25"
"1573703140665","667","0.046875","-0.99609375","-0.2529297","9.8125","0.90625","-11.25"
"1573703140665","668","-0.020507812","-1.0224609","-0.23632812","3.28125","-11.4375","-7.03125"
"1573703140666","669","-0.01171875","-0.96191406","-0.265625","2.3125","-12.09375","-3.5625"
"1573703141060","670","0.020507812","-0.9638672","-0.28125","3.71875","-6.59375","-1.25"
"1573703141060","671","0.0126953125","-0.9921875","-0.28710938","-2.40625","-3.6875","-1.1875"
"1573703141060","672","0.0234375","-0.96972656","-0.27734375","-2.34375","-4.59375","-3.96875"
"1573703141062","673","0.032226562","-0.9892578","-0.28027344","0.96875","-4.15625","-4.28125"
"1573703141062","674","0.0","-0.9814453","-0.28027344","6.875","-4.78125","-1.3125"
"1573703141062","675","0.005859375","-0.9638672","-0.28125","6.8125","-3.90625","-0.6875"
"1573703141063","676","0.016601562","-0.9902344","-0.28027344","3.71875","-2.09375","0.03125"
"1573703141063","677","0.005859375","-0.9873047","-0.2685547","6.625","-5.09375","-1.3125"
"1573703141063","678","9.765625E-4","-0.9658203","-0.2763672","4.625","-6.375","-1.34375"
"1573703141064","679","-0.0048828125","-0.984375","-0.2705078","7.75","-2.8125","-0.1875"
"1573703141457","680","-0.01171875","-0.98535156","-0.2421875","0.34375","-6.0625","-0.625"
"1573703141457","681","0.032226562","-0.99902344","-0.28125","10.59375","-6.78125","0.03125"
"1573703141457","682","-0.00390625","-0.99316406","-0.24707031","1.09375","-13.375","-3.5625"
"1573703141458","683","-0.0126953125","-0.97558594","-0.2529297","1.03125","-11.25","-5.5625"
"1573703141458","684","-0.001953125","-0.984375","-0.2578125","-1.25","-6.5","-5.75"
"1573703141459","685","-0.005859375","-0.99121094","-0.23730469","3.71875","-3.875","-3.25"
"1573703141459","686","-0.00390625","-0.96777344","-0.24316406","1.9375","-12.09375","-5.09375"
"1573703141460","687","0.056640625","-0.953125","-0.21777344","11.34375","-23.34375","-5.4375"
"1573703141461","688","0.0703125","-0.9609375","-0.19628906","3.84375","-29.1875","-6.0625"
"1573703141461","689","-0.01171875","-1.0625","-0.18359375","-8.9375","-19.1875","-9.125"
"1573703141852","690","-0.049804688","-1.0449219","-0.2705078","-8.9375","0.28125","0.53125"
"1573703141853","691","-0.033203125","-1.0849609","-0.27441406","-10.5","10.59375","2.5625"
"1573703141853","692","0.04296875","-0.94433594","-0.3310547","0.21875","4.625","-2.875"
"1573703141853","693","0.12695312","-0.9394531","-0.31347656","7.84375","2.5625","2.375"
"1573703141854","694","0.061523438","-1.0019531","-0.2626953","2.5","5.125","-4.78125"
"1573703141854","695","0.07421875","-0.96191406","-0.24316406","6.15625","11.40625","-3.625"
"1573703141854","696","0.07714844","-0.9951172","-0.26757812","6.34375","-1.0625","-2.28125"
"1573703141855","697","0.08691406","-0.9736328","-0.25878906","8.46875","-7.875","-5.03125"
"1573703141855","698","0.099609375","-0.95410156","-0.26464844","8.90625","-10.40625","-2.21875"
"1573703141856","699","0.11230469","-0.984375","-0.24609375","12.875","-10.09375","-1.0"
"1573703142250","700","0.06738281","-0.97753906","-0.24414062","9.9375","-13.5","2.25"
"1573703142251","701","0.078125","-1.0068359","-0.21679688","11.875","-5.3125","7.25"
"1573703142251","702","0.040039062","-0.9902344","-0.20898438","16.53125","-0.8125","6.6875"
"1573703142251","703","0.037109375","-1.0458984","-0.20898438","14.5625","8.40625","9.625"
"1573703142251","704","0.10058594","-1.1054688","-0.18164062","13.46875","12.5","11.21875"
"1573703142252","705","0.07324219","-1.1289062","-0.15136719","14.9375","4.9375","7.125"
"1573703142252","706","-0.020507812","-1.2265625","-0.13964844","18.78125","10.375","12.0"
"1573703142252","707","-0.08105469","-1.1337891","-0.14257812","13.09375","-5.375","25.125"
"1573703142253","708","0.024414062","-1.078125","-0.061523438","16.9375","-4.15625","26.34375"
"1573703142254","709","-0.064453125","-1.1445312","-0.09667969","2.375","-11.5625","15.71875"
"1573703142649","710","-0.17578125","-1.0166016","-0.12890625","3.53125","-18.03125","17.875"
"1573703142650","711","-0.18066406","-0.99609375","-0.13769531","-6.4375","-7.40625","23.59375"
"1573703142650","712","-0.20214844","-1.0253906","-0.08496094","-5.625","-6.25","20.90625"
"1573703142650","713","-0.20800781","-0.9609375","-0.103515625","-2.75","-9.21875","15.96875"
"1573703142650","714","-0.18554688","-0.9970703","-0.12402344","-13.03125","-5.15625","11.21875"
"1573703142650","715","-0.16894531","-1.0175781","-0.12011719","-15.15625","-5.4375","0.15625"
"1573703142651","716","-0.13183594","-0.94140625","-0.12402344","-8.3125","-16.3125","0.15625"
"1573703142651","717","-0.15332031","-0.90722656","-0.13671875","-10.8125","-16.6875","0.65625"
"1573703142651","718","-0.17675781","-0.90234375","-0.1640625","-8.3125","-13.5625","-1.84375"
"1573703142651","719","-0.171875","-0.9316406","-0.15039062","-12.15625","-4.59375","-1.1875"
"1573703143046","720","-0.16210938","-0.92871094","-0.1875","-7.40625","0.34375","1.15625"
"1573703143048","721","-0.14648438","-0.90234375","-0.17675781","-7.46875","-1.46875","-3.75"
"1573703143048","722","-0.12011719","-0.8769531","-0.1875","-3.875","3.90625","-1.90625"
"1573703143049","723","-0.15820312","-0.9121094","-0.18164062","-0.125","0.53125","-0.125"
"1573703143049","724","-0.15332031","-0.91503906","-0.20507812","5.40625","2.0","-0.0625"
"1573703143049","725","-0.115234375","-0.93847656","-0.19628906","-3.1875","2.5625","-4.34375"
"1573703143049","726","-0.09667969","-0.9628906","-0.20117188","-3.875","-5.4375","-10.625"
"1573703143050","727","-0.11621094","-0.94921875","-0.20117188","-4.40625","-14.3125","-14.96875"
"1573703143050","728","-0.140625","-0.9580078","-0.25195312","-3.0","-14.84375","-18.375"
"1573703143050","729","-0.09472656","-0.9482422","-0.265625","-3.875","-15.59375","-20.21875"
"1573703143444","730","-0.052734375","-0.875","-0.23535156","9.03125","-30.65625","-22.34375"
"1573703143445","731","-0.111328125","-1.0712891","-0.18164062","-4.21875","-11.4375","-13.9375"
"1573703143445","732","-0.14648438","-1.2539062","-0.1640625","-10.9375","-7.8125","-18.75"
"1573703143446","733","-0.034179688","-1.0029297","-0.08496094","12.5625","-35.53125","-6.96875"
"1573703143447","734","0.047851562","-0.75","-0.109375","17.625","-26.5625","13.15625"
"1573703143447","735","-0.103515625","-0.9902344","-0.13867188","-11.1875","5.96875","6.46875"
"1573703143447","736","-0.078125","-1.1298828","-0.16015625","-14.125","9.03125","0.03125"
"1573703143447","737","-0.001953125","-0.98828125","-0.076171875","-7.65625","-11.5","-1.3125"
"1573703143448","738","-0.076171875","-0.9189453","-0.1328125","-6.59375","-11.71875","-2.75"
"1573703143448","739","-0.028320312","-1.0546875","-0.18945312","-12.34375","-2.15625","-9.125"
"1573703143841","740","-0.0146484375","-1.0029297","-0.15332031","-6.4375","-8.8125","-11.125"
"1573703143841","741","-0.080078125","-0.9628906","-0.15234375","0.90625","-10.8125","-6.25"
"1573703143841","742","-0.08496094","-0.9628906","-0.1796875","5.84375","-4.78125","2.84375"
"1573703143842","743","-0.036132812","-0.9716797","-0.18261719","7.0625","-2.09375","8.84375"
"1573703143842","744","-0.05859375","-0.9667969","-0.16113281","-0.75","3.21875","12.1875"
"1573703143842","745","-0.083984375","-0.96972656","-0.16113281","0.84375","9.8125","11.75"
"1573703143842","746","-0.10253906","-0.94433594","-0.15722656","6.15625","8.84375","11.65625"
"1573703143843","747","-0.095703125","-0.9013672","-0.15917969","10.53125","-1.1875","12.4375"
"1573703143843","748","-0.140625","-0.8808594","-0.13964844","11.75","2.0","13.34375"
"1573703143843","749","-0.14550781","-0.84472656","-0.14648438","1.5625","-0.5625","14.09375"
"1573703144238","750","-0.043945312","-0.9091797","-0.13085938","12.8125","1.9375","21.40625"
"1573703144239","751","-0.16796875","-0.9375","-0.061523438","-22.65625","7.625","14.625"
"1573703144239","752","-0.1640625","-0.828125","-0.060546875","-10.09375","11.46875","13.90625"
"1573703144239","753","-0.037109375","-0.7871094","-0.044921875","-14.125","7.25","17.0625"
"1573703144239","754","-0.109375","-0.85839844","-0.045898438","-27.46875","7.125","-2.09375"
"1573703144239","755","-0.16796875","-0.79003906","-0.103515625","-16.875","-9.0","-6.90625"
"1573703144240","756","-0.033203125","-0.90722656","-0.3544922","43.4375","-16.6875","-17.53125"
"1573703144241","757","-0.21972656","-1.2587891","-0.13183594","-27.84375","48.4375","-10.28125"
"1573703144241","758","-0.15039062","-1.5634766","-0.4267578","-2.6875","-3.375","-14.40625"
"1573703144241","759","-0.12890625","-1.2373047","-0.33496094","0.65625","-16.125","-5.875"
"1573703144636","760","-0.2265625","-1.1201172","-0.39648438","20.5625","-14.1875","-2.625"
"1573703144636","761","-0.43945312","-1.3144531","-0.5439453","-31.875","39.96875","-2.53125"
"1573703144637","762","0.045898438","-1.1035156","-0.38867188","14.75","31.34375","3.53125"
"1573703144637","763","0.17773438","-0.81347656","-0.24609375","12.125","2.78125","-18.25"
"1573703144637","764","-0.0126953125","-0.7246094","-0.203125","7.6875","-16.5","-0.3125"
"1573703144637","765","-0.15429688","-0.89941406","-0.2939453","-2.8125","8.34375","-2.625"
"1573703144638","766","-0.12792969","-1.0361328","-0.35839844","-11.3125","32.8125","-7.875"
"1573703144638","767","-0.0703125","-1.0","-0.33984375","-13.625","21.53125","-1.53125"
"1573703144638","768","-0.076171875","-0.9707031","-0.34570312","3.40625","10.96875","0.84375"
"1573703144639","769","-0.052734375","-1.0048828","-0.30859375","20.0","-0.75","0.21875"
"1573703145034","770","-0.0546875","-0.9628906","-0.23535156","12.125","-8.9375","-4.90625"
"1573703145035","771","-0.08105469","-0.8847656","-0.25878906","8.03125","-12.59375","-5.25"
"1573703145035","772","-0.08691406","-0.9609375","-0.2685547","8.28125","-5.09375","-3.0"
"1573703145035","773","-0.0625","-0.9892578","-0.28222656","7.84375","-6.125","-4.96875"
"1573703145035","774","-0.061523438","-0.9941406","-0.24707031","13.15625","-11.1875","-0.0625"
"1573703145036","775","-0.14355469","-0.9863281","-0.21679688","12.8125","-5.5","3.21875"
"1573703145036","776","-0.12792969","-1.0087891","-0.24023438","-1.0625","5.21875","3.90625"
"1573703145036","777","0.0068359375","-0.9765625","-0.22460938","-2.6875","-5.75","-4.53125"
"1573703145036","778","-0.046875","-1.0078125","-0.25","-3.0625","-3.625","-13.4375"
"1573703145037","779","-0.09765625","-1.0664062","-0.25976562","-12.59375","1.9375","-10.75"
"1573703145431","780","-0.049804688","-1.0068359","-0.22460938","-3.5625","-5.25","-10.625"
"1573703145432","781","0.0078125","-0.8955078","-0.22167969","1.09375","-11.4375","-11.3125"
"1573703145433","782","-0.034179688","-0.9736328","-0.22363281","-6.90625","-7.21875","-14.3125"
"1573703145433","783","-0.07519531","-1.0546875","-0.22753906","-4.53125","-3.1875","-11.1875"
"1573703145433","784","-0.026367188","-0.99121094","-0.22363281","-2.8125","-2.59375","-6.71875"
"1573703145434","785","0.0107421875","-0.9736328","-0.22363281","-1.71875","-1.71875","-5.25"
"1573703145434","786","-0.021484375","-1.0048828","-0.23535156","1.15625","-2.8125","-3.5625"
"1573703145434","787","-0.018554688","-0.9873047","-0.23339844","-1.65625","1.21875","-2.28125"
"1573703145434","788","-0.009765625","-1.0107422","-0.21289062","1.875","3.34375","-1.1875"
"1573703145435","789","-0.005859375","-0.99902344","-0.23242188","1.5","0.71875","-0.25"
"1573703145832","790","-0.0068359375","-0.98828125","-0.21777344","1.09375","4.125","0.40625"
"1573703145832","791","-0.021484375","-0.99609375","-0.22753906","1.4375","2.5625","0.65625"
"1573703145832","792","9.765625E-4","-0.9970703","-0.23339844","1.9375","3.53125","-0.125"
"1573703145833","793","0.001953125","-0.9951172","-0.24414062","3.40625","1.5","-1.0625"
"1573703145834","794","-0.00390625","-0.9980469","-0.23046875","4.1875","1.4375","-1.71875"
"1573703145834","795","0.00390625","-0.9902344","-0.23535156","6.09375","0.96875","-1.71875"
"1573703145834","796","0.0087890625","-0.9970703","-0.23046875","7.3125","1.21875","-1.90625"
"1573703145835","797","9.765625E-4","-0.9941406","-0.22070312","6.6875","0.09375","-2.03125"
"1573703145835","798","-0.00390625","-1.0","-0.21191406","6.15625","-3.25","-2.6875"
"1573703145835","799","0.0","-1.0058594","-0.19140625","6.40625","-6.90625","-1.125"
"1573703146420","800","0.015625","-1.0126953","-0.15234375","1.5","-17.46875","-2.53125"
"1573703146421","801","0.055664062","-0.94628906","-0.13378906","5.78125","-33.9375","1.03125"
"1573703146421","802","-0.05859375","-0.98339844","-0.12597656","-1.59375","-36.40625","-0.9375"
"1573703146421","803","-0.14746094","-1.0234375","-0.22460938","-12.09375","-10.9375","0.90625"
"1573703146422","804","-0.005859375","-1.09375","-0.24023438","-9.40625","12.8125","1.09375"
"1573703146423","805","-0.0087890625","-1.0361328","-0.2783203","10.25","5.28125","-5.75"
"1573703146424","806","-0.0029296875","-0.97265625","-0.2529297","8.53125","-4.84375","3.9375"
"1573703146424","807","0.026367188","-0.96191406","-0.21582031","2.59375","10.375","0.84375"
"1573703146425","808","-0.0048828125","-0.94628906","-0.1953125","12.6875","20.375","0.15625"
"1573703146425","809","0.048828125","-0.9951172","-0.203125","8.84375","23.90625","-0.875"
"1573703146624","810","0.043945312","-1.0068359","-0.19238281","4.25","20.0","-2.34375"
"1573703146624","811","0.018554688","-0.96875","-0.19726562","4.0625","8.71875","-1.0625"
"1573703146625","812","0.0546875","-0.98339844","-0.21191406","-0.1875","6.5","-0.4375"
"1573703146625","813","0.038085938","-0.984375","-0.21777344","-4.59375","6.8125","0.28125"
"1573703146625","814","0.051757812","-0.99316406","-0.2265625","-0.6875","7.625","5.46875"
"1573703146625","815","0.041015625","-0.984375","-0.234375","-5.25","12.0","9.375"
"1573703146626","816","0.024414062","-0.98339844","-0.24511719","3.53125","16.71875","15.5625"
"1573703146627","817","0.07714844","-1.0146484","-0.25976562","11.8125","18.53125","19.6875"
"1573703146627","818","0.08691406","-1.0253906","-0.17480469","10.59375","7.75","19.8125"
"1573703146627","819","-0.053710938","-0.99121094","-0.20996094","14.625","5.78125","17.0"
"1573703147022","820","-0.026367188","-1.0634766","-0.17089844","15.90625","16.84375","16.90625"
"1573703147022","821","-0.02734375","-1.0234375","-0.1328125","11.15625","5.21875","20.25"
"1573703147022","822","-0.09277344","-1.0996094","-0.12402344","11.46875","13.59375","23.46875"
"1573703147023","823","-0.115234375","-1.3505859","-0.14648438","0.96875","19.46875","9.125"
"1573703147023","824","-0.05078125","-1.3623047","-0.1328125","0.21875","-0.625","1.8125"
"1573703147023","825","-0.15722656","-1.0722656","-0.07519531","17.25","-23.5","22.1875"
"1573703147023","826","-0.26660156","-0.921875","-0.080078125","26.09375","-18.09375","22.125"
"1573703147023","827","-0.2705078","-0.9375","-0.09472656","9.625","3.53125","13.46875"
"1573703147024","828","-0.25683594","-1.0253906","-0.07519531","-7.09375","1.8125","8.90625"
"1573703147025","829","-0.22363281","-0.9482422","-0.045898438","-22.71875","-4.53125","8.09375"
"1573703147419","830","-0.18847656","-0.94433594","-0.09472656","-12.03125","-6.59375","3.40625"
"1573703147420","831","-0.19140625","-0.95410156","-0.107421875","-15.53125","-12.71875","-3.375"
"1573703147420","832","-0.17480469","-0.9277344","-0.12207031","-10.4375","-16.625","-5.6875"
"1573703147420","833","-0.19726562","-0.9140625","-0.14257812","-15.21875","-17.15625","-4.34375"
"1573703147420","834","-0.20117188","-0.92089844","-0.15136719","-9.59375","-10.21875","-1.25"
"1573703147421","835","-0.18554688","-0.8984375","-0.15429688","-9.46875","-6.0625","-0.0625"
"1573703147421","836","-0.17382812","-0.9082031","-0.171875","-8.3125","-2.625","1.3125"
"1573703147421","837","-0.16503906","-0.9199219","-0.18457031","-9.71875","-0.375","0.09375"
"1573703147421","838","-0.16308594","-0.89453125","-0.1953125","-6.65625","-1.1875","-0.8125"
"1573703147422","839","-0.14355469","-0.8925781","-0.19042969","-4.71875","-2.6875","0.40625"
"1573703147815","840","-0.14550781","-0.9121094","-0.18652344","-6.0","0.46875","-3.1875"
"1573703147816","841","-0.16894531","-0.91796875","-0.22167969","-8.1875","-1.65625","-11.84375"
"1573703147817","842","-0.13964844","-0.9248047","-0.20507812","-12.84375","-2.625","-9.0"
"1573703147817","843","-0.13769531","-0.9482422","-0.21972656","-3.3125","0.46875","-5.3125"
"1573703147817","844","-0.20800781","-0.9824219","-0.25683594","-1.96875","0.71875","-11.25"
"1573703147817","845","-0.13769531","-0.96484375","-0.24511719","-1.0625","2.5625","-4.28125"
"1573703147818","846","-0.115234375","-0.9433594","-0.2578125","1.4375","2.65625","-5.375"
"1573703147818","847","-0.13183594","-0.9814453","-0.24414062","3.03125","1.625","-12.03125"
"1573703147818","848","-0.08886719","-0.94433594","-0.23730469","3.40625","-8.3125","-11.6875"
"1573703147818","849","-0.09277344","-0.9814453","-0.21484375","-1.125","-3.25","-15.46875"
"1573703148414","850","-0.17480469","-1.046875","-0.21191406","-11.0625","-5.625","-13.75"
"1573703148415","851","-0.08984375","-1.0214844","-0.22753906","-7.71875","-10.8125","-9.84375"
"1573703148415","852","-0.018554688","-0.96875","-0.16601562","-0.125","-22.15625","-11.625"
"1573703148416","853","-0.055664062","-0.8935547","-0.15527344","8.40625","-31.9375","-11.0"
"1573703148417","854","-0.09863281","-0.8769531","-0.1640625","21.21875","-36.28125","-4.09375"
"1573703148417","855","-0.08300781","-0.99609375","-0.08496094","12.625","-19.59375","-0.875"
"1573703148417","856","-0.16601562","-0.9970703","-0.12207031","-8.0","0.03125","-9.0"
"1573703148418","857","-0.115234375","-1.0712891","-0.18847656","7.5","17.9375","-0.9375"
"1573703148418","858","-0.0068359375","-1.0986328","-0.20800781","-7.03125","25.0625","-2.03125"
"1573703148418","859","0.056640625","-1.0253906","-0.19042969","-5.15625","14.21875","-3.25"
"1573703148612","860","0.0234375","-0.97558594","-0.14355469","8.59375","7.0625","-3.1875"
"1573703148612","861","-0.0087890625","-0.92089844","-0.13867188","7.6875","5.34375","-1.3125"
"1573703148612","862","-0.041015625","-0.8779297","-0.06933594","13.96875","6.8125","6.34375"
"1573703148612","863","-0.07519531","-0.74121094","-0.06542969","24.59375","2.96875","19.46875"
"1573703148613","864","-0.021484375","-0.71484375","-0.10449219","10.3125","1.03125","21.09375"
"1573703148614","865","-0.051757812","-0.8828125","-0.0859375","-9.15625","7.75","14.5625"
"1573703148614","866","-0.10253906","-0.96484375","-0.0625","-17.90625","16.03125","10.0625"
"1573703148614","867","-0.12988281","-0.9267578","-0.08105469","-2.53125","1.5","4.8125"
"1573703148615","868","-0.051757812","-0.83984375","-0.099609375","-8.125","-5.375","3.84375"
"1573703148615","869","-0.06738281","-0.7939453","-0.07324219","-12.53125","-16.1875","2.0625"
"1573703149009","870","-0.16308594","-0.80566406","-0.04296875","-4.59375","-5.5625","-1.34375"
"1573703149009","871","-0.203125","-0.8388672","-0.20117188","13.46875","-28.59375","-6.4375"
"1573703149010","872","-0.15527344","-1.2363281","-0.171875","13.09375","61.9375","-24.1875"
"1573703149010","873","-0.22167969","-1.7304688","-0.65625","-46.46875","19.28125","-38.46875"
"1573703149010","874","-0.072265625","-1.5615234","-0.34472656","-30.09375","32.15625","-10.8125"
"1573703149010","875","-0.08203125","-1.5068359","-0.29589844","-18.5625","37.875","-21.9375"
"1573703149011","876","-0.0068359375","-1.2666016","-0.51171875","-44.21875","-11.84375","-2.6875"
"1573703149012","877","0.22070312","-0.82714844","-0.3095703","15.25","-8.0","-1.84375"
"1573703149013","878","0.04296875","-0.671875","-0.2685547","17.6875","-14.3125","-4.90625"
"1573703149013","879","-0.23242188","-0.6796875","-0.42578125","15.0625","-16.25","18.84375"
"1573703149603","880","0.01171875","-0.9511719","-0.29296875","7.0","20.8125","4.0"
"1573703149603","881","0.053710938","-1.0048828","-0.25","0.21875","14.75","-5.5"
"1573703149604","882","-0.076171875","-1.0244141","-0.2939453","-6.25","-2.9375","3.53125"
"1573703149604","883","-0.021484375","-1.0126953","-0.296875","6.03125","-1.0625","-4.40625"
"1573703149604","884","-0.03515625","-0.91796875","-0.29785156","7.0","-6.25","7.125"
"1573703149605","885","-0.022460938","-0.953125","-0.3310547","18.0","-3.90625","5.21875"
"1573703149605","886","-0.076171875","-0.9501953","-0.32226562","17.375","6.21875","-0.5"
"1573703149605","887","-0.056640625","-0.9267578","-0.23339844","17.8125","12.9375","-3.96875"
"1573703149605","888","-0.06640625","-0.9628906","-0.20605469","17.1875","10.0","-3.1875"
"1573703149606","889","-0.044921875","-0.94628906","-0.20898438","14.8125","8.53125","-2.53125"
"1573703150000","890","-0.016601562","-0.9902344","-0.20410156","5.84375","10.90625","-6.5"
"1573703150001","891","0.0068359375","-1.0058594","-0.20898438","-2.53125","3.59375","-11.125"
"1573703150001","892","-0.028320312","-0.9785156","-0.24511719","-5.5625","-5.8125","-11.84375"
"1573703150001","893","-0.0087890625","-1.0039062","-0.2265625","-9.65625","4.3125","-15.53125"
"1573703150001","894","-0.026367188","-1.1591797","-0.234375","-20.03125","15.125","-19.1875"
"1573703150002","895","-0.09277344","-1.1289062","-0.21191406","-26.0625","1.625","-8.25"
"1573703150002","896","0.060546875","-0.79589844","-0.23339844","7.90625","-1.46875","5.65625"
"1573703150002","897","0.20019531","-0.82128906","-0.18066406","17.875","0.21875","-7.21875"
"1573703150002","898","0.048828125","-1.1035156","-0.19238281","-7.09375","-4.46875","-19.375"
"1573703150003","899","-0.041015625","-1.1083984","-0.21679688","-10.09375","-7.09375","-10.6875"
"1573703150201","900","0.095703125","-0.9423828","-0.21289062","1.5625","-6.59375","-10.28125"
"1573703150201","901","0.107421875","-0.9873047","-0.23730469","-2.75","-9.125","-1.84375"
"1573703150202","902","0.0390625","-1.0068359","-0.25390625","-1.53125","-10.625","-1.40625"
"1573703150202","903","0.037109375","-0.97753906","-0.22558594","-3.125","-5.375","-1.84375"
"1573703150202","904","0.0625","-0.9902344","-0.24804688","-1.84375","-3.125","0.34375"
"1573703150202","905","0.07714844","-0.99609375","-0.265625","2.5625","-6.0","1.15625"
"1573703150203","906","0.055664062","-0.9892578","-0.25976562","-0.875","-8.4375","-1.0625"
"1573703150203","907","0.047851562","-0.96972656","-0.25683594","-3.625","-6.4375","-2.03125"
"1573703150203","908","0.041992188","-0.9785156","-0.24414062","-0.8125","-5.15625","-2.8125"
"1573703150203","909","0.041015625","-0.9892578","-0.2529297","-0.1875","-5.625","-1.125"
"1573703150796","910","0.045898438","-0.984375","-0.24902344","-1.3125","-4.59375","-0.625"
"1573703150796","911","0.052734375","-0.98339844","-0.234375","4.9375","-14.1875","1.21875"
"1573703150797","912","0.06640625","-0.96191406","-0.1953125","9.03125","-22.125","4.0"
"1573703150798","913","0.053710938","-0.98828125","-0.171875","8.78125","-24.1875","0.21875"
"1573703150798","914","-0.041015625","-1.0429688","-0.19921875","15.625","-13.5","-0.375"
"1573703150798","915","-0.057617188","-1.0146484","-0.2626953","-4.15625","0.15625","8.65625"
"1573703150798","916","0.14746094","-1.0302734","-0.2578125","-4.84375","9.5","-3.25"
"1573703150799","917","0.13769531","-1.0166016","-0.25","1.15625","3.15625","-8.25"
"1573703150799","918","0.044921875","-0.9707031","-0.26953125","-4.65625","5.84375","-2.59375"
"1573703150799","919","0.08984375","-0.9921875","-0.25878906","0.21875","10.71875","-1.53125"
"1573703150996","920","0.111328125","-0.9814453","-0.24121094","4.625","7.5","-0.9375"
"1573703150996","921","0.10058594","-0.9589844","-0.23730469","1.28125","2.25","0.21875"
"1573703150997","922","0.0703125","-1.0039062","-0.2265625","3.28125","-7.46875","-3.4375"
"1573703150997","923","0.08691406","-0.9814453","-0.22851562","6.5625","-7.46875","-1.65625"
"1573703150997","924","0.044921875","-0.98046875","-0.22363281","5.34375","-12.21875","0.65625"
"1573703150998","925","0.022460938","-1.0087891","-0.25097656","11.53125","-12.09375","4.0"
"1573703150999","926","0.053710938","-0.9814453","-0.22851562","11.875","-11.78125","6.09375"
"1573703150999","927","0.078125","-0.96484375","-0.21875","11.59375","-8.5","4.25"
"1573703151000","928","0.07128906","-1.0146484","-0.21679688","11.15625","-5.9375","4.0625"
"1573703151000","929","0.09667969","-0.9785156","-0.22851562","12.625","-2.40625","2.125"
"1573703151393","930","0.13183594","-1.0029297","-0.20410156","12.6875","0.53125","5.46875"
"1573703151393","931","0.0859375","-1.0146484","-0.20996094","9.6875","1.75","6.8125"
"1573703151393","932","0.11230469","-0.9824219","-0.14746094","15.25","-3.4375","12.0"
"1573703151394","933","0.11425781","-0.984375","-0.111328125","8.34375","-12.15625","11.75"
"1573703151394","934","0.02734375","-1.0019531","-0.15234375","14.15625","-15.75","6.09375"
"1573703151394","935","-0.015625","-1.0830078","-0.14355469","3.9375","-9.96875","5.96875"
"1573703151394","936","0.024414062","-1.0273438","-0.15136719","8.34375","-9.84375","12.3125"
"1573703151395","937","0.00390625","-1.0341797","-0.09667969","16.34375","-16.25","19.5625"
"1573703151396","938","-0.064453125","-1.1494141","-0.07421875","5.78125","-6.71875","15.65625"
"1573703151396","939","-0.12207031","-1.2451172","-0.08105469","11.71875","1.6875","18.71875"
"1573703151790","940","-0.10839844","-1.2255859","-0.09863281","-8.6875","9.8125","19.03125"
"1573703151790","941","-0.047851562","-1.1308594","-0.091796875","-15.875","2.96875","13.15625"
"1573703151791","942","-0.14355469","-0.95214844","-0.068359375","5.78125","-14.84375","19.15625"
"1573703151791","943","-0.29589844","-0.92089844","-0.07421875","0.40625","-1.46875","21.03125"
"1573703151791","944","-0.28027344","-1.0273438","-0.11816406","-12.90625","15.90625","10.40625"
"1573703151791","945","-0.15820312","-1.0058594","-0.11425781","-14.34375","9.3125","3.59375"
"1573703151792","946","-0.18066406","-0.96972656","-0.1484375","-19.0","-2.40625","-2.34375"
"1573703151792","947","-0.1484375","-0.97265625","-0.16992188","-9.84375","-7.09375","-4.84375"
"1573703151792","948","-0.15820312","-0.9716797","-0.18164062","-4.21875","-9.78125","-5.03125"
"1573703151793","949","-0.15234375","-0.9550781","-0.15234375","-12.84375","-8.0","-5.4375"
"1573703152385","950","-0.14746094","-0.93066406","-0.18457031","1.09375","-5.625","0.53125"
"1573703152385","951","-0.15332031","-0.9423828","-0.16992188","-4.71875","-3.5","3.71875"
"1573703152386","952","-0.15820312","-0.92285156","-0.16601562","-13.125","-1.125","1.4375"
"1573703152386","953","-0.14160156","-0.9433594","-0.1953125","-1.3125","-0.875","3.03125"
"1573703152387","954","-0.13378906","-0.8847656","-0.18457031","-10.5625","-4.78125","-1.71875"
"1573703152387","955","-0.125","-0.875","-0.171875","-14.65625","-1.96875","-4.40625"
"1573703152387","956","-0.13671875","-0.86816406","-0.23730469","-11.125","-3.8125","-9.84375"
"1573703152388","957","-0.1015625","-0.8642578","-0.20410156","-3.0","-10.40625","-7.59375"
"1573703152388","958","-0.052734375","-0.8730469","-0.1953125","-12.46875","-12.40625","-11.1875"
"1573703152388","959","-0.11425781","-0.96972656","-0.25683594","-10.9375","-12.34375","-10.9375"
"1573703152586","960","-0.15527344","-1.0654297","-0.234375","-11.90625","-10.5","-4.40625"
"1573703152587","961","-0.16308594","-1.0585938","-0.2421875","-8.9375","-0.4375","5.71875"
"1573703152588","962","-0.13769531","-1.0029297","-0.27734375","-1.34375","-11.0625","8.96875"
"1573703152588","963","-0.10058594","-0.9111328","-0.21777344","5.71875","-8.9375","13.59375"
"1573703152589","964","-0.13867188","-0.9042969","-0.23242188","6.09375","-3.0625","5.84375"
"1573703152589","965","-0.115234375","-0.9404297","-0.20996094","7.8125","-0.8125","-1.25"
"1573703152589","966","-0.08300781","-0.96191406","-0.171875","-0.375","-7.15625","-1.25"
"1573703152589","967","-0.103515625","-0.9941406","-0.16308594","4.0625","-3.625","-2.34375"
"1573703152590","968","-0.15039062","-1.0214844","-0.18261719","-4.90625","-4.96875","-0.8125"
"1573703152590","969","-0.125","-1.0214844","-0.21191406","-6.5","-1.0625","0.65625"
"1573703152984","970","-0.06738281","-0.9921875","-0.19140625","-8.125","3.65625","6.09375"
"1573703152984","971","-0.08691406","-0.9863281","-0.203125","3.53125","-3.4375","3.34375"
"1573703152984","972","-0.07714844","-0.94628906","-0.16015625","2.71875","-3.375","-1.34375"
"1573703152985","973","-0.05078125","-0.9628906","-0.171875","-2.21875","-0.0625","-2.875"
"1573703152985","974","-0.099609375","-1.0097656","-0.17675781","-2.09375","-1.84375","-2.59375"
"1573703152986","975","-0.10253906","-0.94921875","-0.17675781","-6.1875","-3.5","1.21875"
"1573703152987","976","-0.08105469","-0.95214844","-0.19238281","2.71875","-7.03125","7.0"
"1573703152987","977","-0.044921875","-1.0263672","-0.11035156","8.09375","-20.78125","14.4375"
"1573703152987","978","-0.15429688","-0.95703125","-0.13476562","-15.9375","-23.625","11.65625"
"1573703152987","979","-0.1953125","-1.0126953","-0.24902344","-15.34375","-12.28125","6.09375"
"1573703153380","980","-0.20117188","-0.91308594","-0.18945312","-13.75","3.28125","6.21875"
"1573703153380","981","-0.14160156","-0.82910156","-0.12402344","-16.5625","0.84375","11.21875"
"1573703153381","982","-0.14550781","-0.8466797","-0.125","-11.0625","-3.25","-0.75"
"1573703153381","983","-0.18457031","-0.796875","-0.09667969","-1.34375","2.375","-2.9375"
"1573703153381","984","-0.1171875","-0.7636719","-0.05859375","-9.15625","8.09375","-0.0625"
"1573703153382","985","-0.13964844","-0.7675781","-0.18847656","-3.125","23.3125","-10.875"
"1573703153383","986","0.018554688","-0.8330078","-0.20800781","-10.03125","17.5","-17.03125"
"1573703153383","987","-0.032226562","-0.72265625","-0.25097656","5.59375","51.5","-21.4375"
"1573703153383","988","-0.3779297","-1.2363281","-0.7265625","-23.5625","23.78125","-21.4375"
"1573703153383","989","-0.14648438","-1.5439453","-0.4658203","-18.75","57.59375","-6.59375"
"1573703153778","990","-0.01171875","-1.2900391","-0.47753906","11.15625","39.34375","-0.125"
"1573703153779","991","-0.17285156","-1.3349609","-0.60839844","-2.53125","23.65625","-28.59375"
"1573703153779","992","-0.08886719","-1.1123047","-0.5292969","-17.90625","29.09375","-3.625"
"1573703153779","993","0.13183594","-0.859375","-0.5","17.6875","4.4375","-1.0625"
"1573703153779","994","0.10644531","-0.7480469","-0.32226562","1.03125","-10.5625","-10.09375"
"1573703153780","995","-0.08300781","-0.8535156","-0.40625","-3.3125","1.75","1.15625"
"1573703153780","996","-0.032226562","-1.0693359","-0.4345703","-1.46875","13.40625","0.53125"
"1573703153781","997","0.024414062","-0.88378906","-0.36621094","7.1875","0.78125","3.34375"
"1573703153781","998","-0.07324219","-0.8847656","-0.41308594","7.375","3.09375","5.28125"
"1573703153782","999","-0.036132812","-0.984375","-0.41601562","16.46875","10.125","1.6875"
"1573703154176","1000","-0.017578125","-0.94140625","-0.375","16.53125","11.03125","2.1875"
"1573703154177","1001","-0.018554688","-0.90625","-0.36914062","21.21875","9.5625","-1.1875"
"1573703154177","1002","0.0107421875","-0.92871094","-0.33984375","28.84375","7.75","0.03125"
"1573703154177","1003","0.0048828125","-0.9746094","-0.3154297","23.59375","7.375","-2.875"
"1573703154178","1004","0.033203125","-0.9921875","-0.31152344","21.21875","3.15625","-8.4375"
"1573703154178","1005","0.041992188","-0.97265625","-0.26171875","22.375","-4.78125","-4.78125"
"1573703154178","1006","-0.0234375","-1.0","-0.24316406","21.09375","-12.78125","-4.90625"
"1573703154178","1007","-0.06542969","-1.0048828","-0.27929688","12.6875","-11.6875","-9.59375"
"1573703154179","1008","-0.001953125","-1.0048828","-0.27929688","11.59375","-1.71875","-11.375"
"1573703154180","1009","0.036132812","-0.9580078","-0.21679688","4.125","-0.5","-20.71875"
"1573703154574","1010","0.02734375","-1.0107422","-0.20410156","-16.4375","3.40625","-22.84375"
"1573703154575","1011","0.018554688","-1.1103516","-0.20703125","-14.53125","-0.25","-22.28125"
"1573703154575","1012","0.045898438","-0.9970703","-0.23339844","-16.8125","-6.3125","-18.625"
"1573703154575","1013","0.10644531","-0.90234375","-0.26953125","-1.0625","-10.15625","-6.125"
"1573703154575","1014","0.087890625","-0.9433594","-0.25683594","4.375","-7.09375","-1.78125"
"1573703154576","1015","0.020507812","-1.0273438","-0.24414062","-6.53125","0.21875","-4.78125"
"1573703154576","1016","0.051757812","-0.9980469","-0.22460938","-6.25","-1.59375","-2.9375"
"1573703154576","1017","0.1015625","-0.9580078","-0.21386719","1.28125","-7.03125","-2.28125"
"1573703154576","1018","0.0859375","-0.9785156","-0.24414062","4.125","-7.34375","0.21875"
"1573703154577","1019","0.08105469","-1.0126953","-0.2626953","1.5","-1.25","1.28125"
"1573703154971","1020","0.09277344","-0.9941406","-0.2626953","4.125","1.15625","1.09375"
"1573703154972","1021","0.09375","-0.98828125","-0.25","6.625","-1.53125","0.96875"
"1573703154972","1022","0.078125","-0.9736328","-0.24121094","7.5625","-1.71875","0.03125"
"1573703154973","1023","0.07128906","-0.96191406","-0.2548828","2.96875","2.25","-4.34375"
"1573703154973","1024","0.064453125","-0.9638672","-0.22460938","-8.4375","-1.84375","-6.375"
"1573703154973","1025","0.09765625","-1.0009766","-0.25195312","5.65625","-2.625","-2.875"
"1573703154973","1026","0.0625","-0.9863281","-0.22851562","-3.96875","-4.59375","-7.53125"
"1573703154974","1027","0.06738281","-0.98828125","-0.23925781","-4.03125","-7.28125","-7.59375"
"1573703154974","1028","0.06640625","-0.9873047","-0.25878906","-5.03125","-3.96875","-8.5"
"1573703154974","1029","0.078125","-0.9736328","-0.265625","-4.09375","-0.25","-5.03125"
"1573703155370","1030","0.091796875","-0.9794922","-0.26171875","-8.0625","-3.4375","-4.15625"
"1573703155370","1031","0.09472656","-0.9609375","-0.2548828","-7.71875","-7.09375","-2.6875"
"1573703155370","1032","0.09765625","-0.9638672","-0.24902344","-2.40625","-9.28125","-3.90625"
"1573703155371","1033","0.11328125","-0.9970703","-0.25195312","-1.96875","-8.6875","-5.5625"
"1573703155372","1034","0.095703125","-1.0273438","-0.25195312","-0.4375","-9.40625","-4.46875"
"1573703155372","1035","0.08203125","-0.9765625","-0.26953125","5.125","-12.59375","2.59375"
"1573703155372","1036","0.07324219","-1.0078125","-0.24707031","-4.78125","-7.21875","10.65625"
"1573703155372","1037","0.057617188","-1.0332031","-0.28027344","-2.15625","7.84375","10.46875"
"1573703155373","1038","0.14550781","-0.9873047","-0.3017578","5.90625","12.8125","6.40625"
"1573703155373","1039","0.15722656","-0.99121094","-0.32714844","-3.6875","4.75","1.5"
"1573703155965","1040","0.10058594","-0.9746094","-0.27929688","13.21875","1.9375","2.59375"
"1573703155966","1041","0.057617188","-0.9638672","-0.25683594","19.46875","-1.25","1.8125"
"1573703155966","1042","0.080078125","-0.9667969","-0.23925781","14.75","-2.40625","0.78125"
"1573703155966","1043","0.10058594","-0.97265625","-0.24609375","10.46875","1.3125","3.53125"
"1573703155967","1044","0.11425781","-0.9785156","-0.24902344","9.125","-2.625","5.78125"
"1573703155968","1045","0.12695312","-0.9941406","-0.24609375","11.21875","-5.3125","9.4375"
"1573703155968","1046","0.09863281","-0.98046875","-0.2548828","13.0","-3.875","12.0"
"1573703155969","1047","0.11425781","-0.9863281","-0.26171875","12.9375","-5.21875","10.90625"
"1573703155969","1048","0.13769531","-0.9970703","-0.24121094","3.40625","-2.53125","7.3125"
"1573703155969","1049","0.0703125","-1.0087891","-0.2578125","7.625","4.375","8.90625"
"1573703156163","1050","0.06542969","-0.9970703","-0.23144531","13.34375","7.375","17.0625"
"1573703156163","1051","0.08984375","-1.0341797","-0.16503906","17.1875","3.46875","29.53125"
"1573703156163","1052","0.024414062","-1.0263672","-0.12988281","5.65625","-5.4375","16.59375"
"1573703156163","1053","0.043945312","-1.0410156","-0.1875","1.03125","5.34375","9.8125"
"1573703156164","1054","0.0146484375","-1.0966797","-0.18359375","-3.90625","-1.3125","8.15625"
"1573703156164","1055","0.025390625","-1.1064453","-0.16015625","2.4375","-3.875","13.28125"
"1573703156164","1056","-0.034179688","-1.265625","-0.16308594","-3.5","0.46875","11.03125"
"1573703156165","1057","-0.08300781","-1.3271484","-0.14355469","5.71875","-0.6875","13.71875"
"1573703156165","1058","-0.08105469","-1.1464844","-0.16113281","5.78125","-12.03125","24.09375"
"1573703156165","1059","-0.14257812","-0.9628906","-0.14355469","4.6875","-22.21875","20.1875"
"1573703156563","1060","-0.18457031","-0.87402344","-0.16308594","0.65625","-16.625","16.53125"
"1573703156564","1061","-0.20605469","-0.9980469","-0.14355469","-7.65625","0.03125","2.25"
"1573703156564","1062","-0.20117188","-1.0380859","-0.16796875","-18.8125","-8.5","1.8125"
"1573703156564","1063","-0.13476562","-0.9394531","-0.17089844","-17.03125","-15.8125","-7.59375"
"1573703156565","1064","-0.13964844","-0.89941406","-0.15625","-11.5","-17.15625","-5.875"
"1573703156565","1065","-0.15722656","-0.9042969","-0.20214844","-1.25","-17.03125","-4.53125"
"1573703156565","1066","-0.15136719","-0.89160156","-0.17480469","-5.75","-9.0","-8.5625"
"1573703156565","1067","-0.17578125","-0.88671875","-0.16894531","-9.78125","1.875","-2.34375"
"1573703156565","1068","-0.15429688","-0.94921875","-0.19824219","-3.8125","2.125","-3.625"
"1573703156567","1069","-0.078125","-0.9375","-0.19628906","-1.46875","1.4375","-3.3125"
"1573703156958","1070","-0.08691406","-0.91308594","-0.203125","2.5","-6.65625","-3.25"
"1573703156959","1071","-0.08984375","-0.9189453","-0.19921875","9.625","-8.6875","-0.1875"
"1573703156959","1072","-0.119140625","-0.9472656","-0.19140625","5.1875","-4.78125","0.96875"
"1573703156959","1073","-0.125","-0.953125","-0.20410156","-0.0625","-5.25","-2.625"
"1573703156960","1074","-0.09277344","-0.9316406","-0.20800781","-0.375","-12.53125","-4.78125"
"1573703156960","1075","-0.08691406","-0.89746094","-0.22949219","3.34375","-15.875","-8.1875"
"1573703156960","1076","-0.08496094","-0.9160156","-0.24414062","4.4375","-15.875","-10.75"
"1573703156960","1077","-0.087890625","-0.9951172","-0.21582031","7.4375","-12.59375","-9.21875"
"1573703156961","1078","-0.14160156","-1.0908203","-0.18066406","-3.875","-6.3125","-11.625"
"1573703156961","1079","-0.044921875","-1.0576172","-0.16699219","4.0625","-13.25","-6.71875"
"1573703157355","1080","0.00390625","-0.92285156","-0.15527344","12.75","-34.375","-8.875"
"1573703157356","1081","-0.0029296875","-0.85058594","-0.11425781","-4.71875","-27.71875","-6.25"
"1573703157356","1082","-0.08496094","-1.0361328","-0.15332031","6.625","-14.71875","1.5625"
"1573703157356","1083","-0.10449219","-1.0488281","-0.14941406","-1.53125","-10.9375","-3.90625"
"1573703157356","1084","-0.021484375","-0.9970703","-0.115234375","1.15625","-21.5","-3.96875"
"1573703157357","1085","-0.034179688","-0.9550781","-0.13085938","6.28125","-25.53125","-2.625"
"1573703157357","1086","-0.09472656","-1.0361328","-0.14257812","7.3125","0.46875","-1.53125"
"1573703157357","1087","-0.043945312","-1.0136719","-0.13964844","3.71875","3.40625","-4.84375"
"1573703157357","1088","0.041992188","-0.9980469","-0.115234375","2.125","2.96875","-0.25"
"1573703157358","1089","0.005859375","-1.0068359","-0.12695312","-0.9375","1.4375","-1.59375"
"1573703157953","1090","-9.765625E-4","-1.0273438","-0.10839844","-8.1875","6.625","-4.34375"
"1573703157953","1091","0.0146484375","-1.0244141","-0.10839844","-9.125","-0.75","-6.71875"
"1573703157953","1092","-0.0078125","-0.9921875","-0.11621094","-8.5625","-3.25","-1.125"
"1573703157955","1093","0.0029296875","-0.9716797","-0.14160156","-3.8125","1.9375","7.75"
"1573703157955","1094","-0.0234375","-0.9550781","-0.11816406","-5.21875","11.8125","13.0"
"1573703157955","1095","-0.06542969","-0.8876953","-0.11425781","-5.21875","14.03125","16.65625"
"1573703157955","1096","-0.05859375","-0.8466797","-0.11230469","25.25","12.625","28.5625"
"1573703157956","1097","-0.041992188","-0.7763672","-0.08691406","17.25","4.0625","30.0625"
"1573703157956","1098","-0.17675781","-0.65722656","-0.048828125","40.03125","-7.21875","29.34375"
"1573703157956","1099","-0.18945312","-0.62109375","0.02734375","34.71875","-13.1875","34.34375"
"1573703158349","1100","-0.20117188","-0.7451172","0.053710938","3.03125","18.0","15.375"
"1573703158349","1101","-0.25","-0.921875","0.059570312","-19.3125","31.34375","-2.625"
"1573703158349","1102","-0.15820312","-0.79785156","-0.0029296875","-12.96875","11.71875","5.84375"
"1573703158350","1103","-0.103515625","-0.91308594","-0.09277344","4.5625","37.09375","-27.96875"
"1573703158350","1104","-0.24609375","-1.4628906","-0.26953125","-34.6875","73.28125","-31.5"
"1573703158351","1105","-0.17285156","-2.0078125","-0.4658203","-39.25","12.125","-23.5"
"1573703158351","1106","-0.056640625","-1.1962891","-0.2685547","-49.9375","15.5","-13.875"
"1573703158352","1107","-0.13183594","-1.1445312","-0.39941406","7.75","23.65625","-1.3125"
"1573703158352","1108","-0.18554688","-1.4931641","-0.47265625","-29.8125","50.15625","-0.875"
"1573703158352","1109","0.1328125","-1.0410156","-0.3359375","-11.84375","8.21875","-0.9375"
"1573703158748","1110","0.14648438","-0.6542969","-0.23339844","11.75","-12.90625","2.3125"
"1573703158748","1111","-0.049804688","-0.5878906","-0.31933594","6.09375","-19.0","6.28125"
"1573703158749","1112","-0.13964844","-0.9248047","-0.37890625","-8.6875","24.21875","-2.46875"
"1573703158749","1113","0.0048828125","-1.0625","-0.35546875","-13.5625","28.65625","-10.625"
"1573703158749","1114","0.0107421875","-1.0742188","-0.32226562","-11.6875","9.1875","-4.71875"
"1573703158749","1115","-0.043945312","-0.95214844","-0.32128906","-0.1875","-3.0625","-8.6875"
"1573703158750","1116","-0.034179688","-0.89941406","-0.3173828","5.59375","-2.53125","-0.75"
"1573703158751","1117","-0.056640625","-0.92871094","-0.3203125","6.8125","4.5625","-1.0625"
"1573703158751","1118","-0.044921875","-0.98046875","-0.31640625","3.03125","6.5","-6.53125"
"1573703158752","1119","-0.040039062","-0.9472656","-0.31445312","-3.25","5.0","-10.5"
"1573703159146","1120","-0.03125","-0.9404297","-0.30859375","-12.65625","5.59375","-9.0"
"1573703159146","1121","-0.001953125","-0.9345703","-0.328125","-4.28125","-1.46875","-9.59375"
"1573703159147","1122","0.001953125","-1.0078125","-0.3173828","-1.84375","-10.6875","-13.03125"
"1573703159147","1123","-0.0048828125","-1.0195312","-0.31933594","-4.90625","-12.71875","-14.125"
"1573703159147","1124","-0.03125","-0.95703125","-0.31445312","-4.21875","-19.84375","-12.71875"
"1573703159147","1125","-0.017578125","-0.90527344","-0.34765625","-2.46875","-19.4375","-14.25"
"1573703159148","1126","-0.022460938","-0.95214844","-0.3642578","-7.78125","-8.5","-15.09375"
"1573703159148","1127","-0.017578125","-1.0488281","-0.38476562","-19.78125","5.40625","-13.8125"
"1573703159148","1128","0.08886719","-1.1289062","-0.37597656","-25.15625","2.84375","-18.8125"
"1573703159150","1129","0.09765625","-0.96972656","-0.3564453","-4.15625","-9.78125","-15.21875"
"1573703159543","1130","0.059570312","-0.8232422","-0.3984375","6.46875","-13.375","-2.03125"
"1573703159544","1131","0.1171875","-0.88183594","-0.3251953","6.15625","-6.125","1.6875"
"1573703159544","1132","0.095703125","-0.9296875","-0.28808594","4.125","-4.03125","0.71875"
"1573703159544","1133","0.068359375","-0.92871094","-0.3173828","3.28125","0.34375","0.46875"
"1573703159544","1134","0.05859375","-0.9296875","-0.28710938","15.78125","-3.875","-4.34375"
"1573703159545","1135","-0.025390625","-0.9951172","-0.29785156","20.96875","2.125","-3.3125"
"1573703159545","1136","-0.115234375","-1.1396484","-0.2939453","13.84375","21.28125","1.8125"
"1573703159545","1137","0.01171875","-1.1386719","-0.26464844","-4.53125","19.5625","1.625"
"1573703159545","1138","0.13671875","-0.9326172","-0.24707031","-6.125","4.8125","-5.25"
"1573703159546","1139","0.18066406","-0.8515625","-0.29785156","1.09375","-7.8125","-9.78125"
