"# PR data"
"# Start time: 20191205T182752"
"# Subject: ron"
"# Activity type: Wall push offs"
"# Correctness: Correct"
"# Notes: "
""
"timestamp","seq","accel_x","accel_y","accel_z","gyro_x","gyro_y","gyro_z"
"1575566873410","0","-0.041015625","-0.96777344","0.09375","-10.34375","8.53125","-5.375"
"1575566873411","1","-0.018554688","-1.0800781","0.09472656","-10.09375","19.15625","-7.28125"
"1575566873411","2","-0.044921875","-1.0478516","0.0146484375","-23.34375","7.84375","-17.53125"
"1575566873411","3","-0.036132812","-0.9511719","0.024414062","-20.34375","6.875","-18.6875"
"1575566873412","4","-0.02734375","-0.9765625","0.017578125","-9.40625","10.84375","-15.75"
"1575566873412","5","-0.021484375","-0.9824219","-0.064453125","4.375","10.1875","-15.875"
"1575566873412","6","0.016601562","-1.0146484","-0.028320312","-2.59375","2.5","-7.34375"
"1575566873412","7","0.001953125","-0.96972656","0.0029296875","1.28125","-0.375","-1.59375"
"1575566873413","8","-0.015625","-1.0263672","-0.033203125","-2.46875","-1.0625","-5.5625"
"1575566873413","9","-0.0146484375","-1.0380859","-0.055664062","-10.34375","2.375","-5.75"
"1575566873612","10","-0.005859375","-0.9951172","0.0078125","-2.9375","9.875","-4.78125"
"1575566873613","11","-0.036132812","-0.9951172","-0.056640625","5.90625","14.28125","-3.6875"
"1575566873613","12","0.0703125","-1.015625","-0.041992188","-4.34375","3.65625","-2.59375"
"1575566873614","13","0.037109375","-0.98339844","-0.032226562","-10.5","-11.6875","-4.53125"
"1575566873614","14","-0.03125","-0.9589844","-0.02734375","-7.40625","-17.21875","-0.875"
"1575566873615","15","-0.0625","-0.9511719","-0.08984375","4.3125","-12.46875","0.65625"
"1575566873615","16","-0.013671875","-1.0166016","-0.10253906","7.0625","-5.03125","2.5625"
"1575566873615","17","0.0126953125","-1.0234375","-0.07714844","-0.125","-6.90625","3.78125"
"1575566873615","18","-9.765625E-4","-0.9892578","-0.059570312","1.5","-5.5","2.90625"
"1575566873616","19","-0.022460938","-1.0136719","-0.036132812","1.3125","-4.34375","0.71875"
"1575566874008","20","-0.072265625","-1.0273438","-0.04296875","-1.34375","-0.25","-2.28125"
"1575566874009","21","-0.08105469","-1.0234375","-0.0087890625","-8.4375","5.84375","-3.6875"
"1575566874009","22","-0.044921875","-1.0058594","-0.049804688","-1.25","6.09375","-2.59375"
"1575566874010","23","-0.033203125","-1.0058594","-0.047851562","-1.40625","8.09375","-0.75"
"1575566874010","24","-0.033203125","-0.97265625","-0.041015625","0.78125","13.15625","1.03125"
"1575566874010","25","-0.01171875","-0.9794922","-0.033203125","4.9375","19.21875","4.6875"
"1575566874011","26","0.047851562","-0.99609375","-0.051757812","6.8125","17.625","9.6875"
"1575566874011","27","0.043945312","-0.9970703","-0.0087890625","3.78125","14.09375","12.0625"
"1575566874011","28","-0.013671875","-0.97558594","-0.013671875","6.9375","12.0625","13.28125"
"1575566874011","29","0.021484375","-1.0175781","-0.025390625","6.34375","11.28125","10.59375"
"1575566874206","30","-0.0048828125","-1.0214844","-0.016601562","1.5625","1.5625","5.125"
"1575566874207","31","-0.036132812","-1.0400391","-0.030273438","-1.84375","-6.5","-0.3125"
"1575566874207","32","-0.060546875","-1.015625","-0.0048828125","-7.53125","-7.46875","-4.34375"
"1575566874208","33","-0.06738281","-1.0048828","-0.022460938","-6.3125","-8.6875","-6.25"
"1575566874208","34","-0.05859375","-0.9921875","-0.052734375","-4.15625","-6.78125","-7.28125"
"1575566874208","35","-0.06738281","-1.0009766","-0.04296875","-6.5","-6.375","-6.71875"
"1575566874209","36","-0.083984375","-1.0117188","-0.059570312","0.0","-4.15625","-5.6875"
"1575566874210","37","-0.087890625","-1.0117188","-0.034179688","-1.84375","-1.84375","-4.34375"
"1575566874210","38","-0.05078125","-0.9824219","-0.0390625","0.71875","2.375","-3.125"
"1575566874210","39","-0.057617188","-1.0107422","-0.041015625","0.65625","5.90625","-0.1875"
"1575566874404","40","-0.034179688","-1.0087891","-0.01953125","-1.59375","10.53125","1.15625"
"1575566874404","41","-0.029296875","-1.0322266","-0.040039062","0.09375","10.46875","4.1875"
"1575566874405","42","-0.064453125","-0.9921875","0.0146484375","-1.125","18.1875","6.6875"
"1575566874405","43","-0.11425781","-0.9628906","0.0029296875","8.46875","21.96875","7.625"
"1575566874405","44","-0.17675781","-0.9013672","-0.037109375","15.71875","22.9375","7.90625"
"1575566874405","45","-0.037109375","-0.9326172","-0.099609375","21.40625","21.59375","9.03125"
"1575566874406","46","0.064453125","-1.0888672","-0.072265625","15.71875","5.65625","-1.78125"
"1575566874406","47","-0.051757812","-1.0878906","-0.051757812","7.84375","-15.8125","-1.40625"
"1575566874406","48","-0.18652344","-0.9716797","0.005859375","1.75","-19.0","-8.9375"
"1575566874408","49","-0.20507812","-1.0068359","-0.01171875","0.0","-16.1875","-10.5625"
"1575566874408","50","-0.19824219","-1.0009766","-0.013671875","-1.96875","-17.46875","-2.75"
"1575566874409","51","-0.14550781","-0.90527344","0.032226562","-3.8125","-8.25","7.6875"
"1575566874409","52","0.021484375","-0.9511719","0.10839844","20.3125","-4.34375","19.09375"
"1575566874409","53","0.046875","-0.9013672","0.11035156","22.3125","-15.6875","26.15625"
"1575566874410","54","0.021484375","-1.0126953","0.15039062","29.78125","-8.375","27.6875"
"1575566874412","55","-0.048828125","-1.1152344","0.10839844","26.78125","-5.5625","21.78125"
"1575566874412","56","-0.044921875","-1.0625","0.08496094","14.3125","-1.90625","16.53125"
"1575566874413","57","-0.022460938","-0.9873047","0.10253906","9.6875","0.34375","10.1875"
"1575566874413","58","-0.04296875","-0.984375","0.14550781","2.125","-0.4375","11.59375"
"1575566874413","59","-0.10449219","-1.0224609","0.13867188","2.0625","5.90625","7.6875"
"1575566874807","60","-0.11425781","-1.0673828","0.09765625","-2.53125","7.3125","3.03125"
"1575566874808","61","-0.09667969","-0.9892578","0.125","-14.90625","5.96875","-0.3125"
"1575566874809","62","-0.12011719","-0.9892578","0.13671875","-11.90625","5.1875","-1.3125"
"1575566874809","63","-0.14648438","-0.9902344","0.11816406","-10.28125","-1.90625","-2.09375"
"1575566874809","64","-0.14453125","-0.9892578","0.13769531","-12.59375","-4.34375","-3.0625"
"1575566874810","65","-0.16015625","-1.0009766","0.08984375","-5.75","-1.0","-8.375"
"1575566874810","66","-0.15625","-0.9824219","0.08984375","-14.125","5.84375","-8.6875"
"1575566874810","67","-0.15527344","-0.9667969","0.10839844","-6.3125","8.53125","-3.25"
"1575566874810","68","-0.12109375","-0.9941406","0.10058594","-9.84375","5.46875","-2.46875"
"1575566874811","69","-0.12109375","-0.9970703","0.10839844","-12.15625","8.78125","-1.0625"
"1575566875204","70","-0.19140625","-1.0478516","0.059570312","-9.96875","7.84375","-2.46875"
"1575566875204","71","-0.036132812","-0.97558594","0.046875","-12.90625","4.0","-1.71875"
"1575566875204","72","0.0107421875","-0.9863281","0.076171875","-8.6875","-22.15625","-2.15625"
"1575566875206","73","-0.1328125","-0.9375","0.109375","-14.125","-26.0625","1.375"
"1575566875206","74","-0.35351562","-1.015625","0.0029296875","3.53125","-8.1875","4.5625"
"1575566875206","75","-0.24511719","-1.0048828","0.028320312","-6.4375","11.34375","6.09375"
"1575566875207","76","-0.09277344","-0.9199219","0.11425781","-0.5","23.84375","5.34375"
"1575566875207","77","-0.13769531","-0.97753906","0.051757812","6.8125","26.03125","-5.875"
"1575566875207","78","-0.16503906","-1.0029297","0.04296875","0.40625","19.15625","-1.3125"
"1575566875207","79","-0.16992188","-0.9609375","0.005859375","5.90625","8.84375","7.5625"
"1575566875600","80","-0.16308594","-0.96191406","-0.0546875","24.71875","11.71875","1.6875"
"1575566875601","81","-0.12011719","-1.0234375","-0.09765625","11.8125","6.09375","2.1875"
"1575566875601","82","-0.14355469","-0.9785156","-0.051757812","3.28125","-8.125","2.25"
"1575566875601","83","-0.11425781","-1.0283203","-0.020507812","1.9375","-11.78125","0.78125"
"1575566875601","84","-0.22167969","-1.0214844","-9.765625E-4","-5.15625","-16.375","-9.46875"
"1575566875603","85","-0.22265625","-0.9921875","-0.0234375","-2.53125","-10.40625","-4.78125"
"1575566875603","86","-0.16601562","-0.9609375","0.016601562","-3.4375","1.09375","-5.21875"
"1575566875603","87","-0.15625","-0.9746094","0.06542969","1.3125","8.84375","-5.15625"
"1575566875604","88","-0.09375","-0.9902344","0.08105469","2.78125","10.0625","-1.96875"
"1575566875604","89","-0.091796875","-1.0","0.09472656","-3.5625","14.3125","0.0"
"1575566875997","90","-0.095703125","-1.0","0.041015625","0.65625","19.75","-4.09375"
"1575566875997","91","-0.044921875","-0.97753906","0.024414062","1.3125","20.75","-5.9375"
"1575566875998","92","-0.0068359375","-1.0048828","0.00390625","0.65625","16.65625","-3.90625"
"1575566875998","93","-0.03515625","-0.9472656","0.02734375","2.90625","6.6875","-4.28125"
"1575566875998","94","-0.06347656","-0.9550781","0.022460938","7.5625","3.34375","-0.625"
"1575566875998","95","-0.080078125","-0.96191406","0.03515625","4.5625","1.3125","0.78125"
"1575566875999","96","-0.109375","-0.96191406","0.030273438","8.21875","-0.625","3.71875"
"1575566876000","97","-0.10449219","-0.99316406","0.045898438","7.625","-2.8125","5.21875"
"1575566876000","98","-0.12597656","-0.9472656","0.04296875","8.65625","-7.71875","4.75"
"1575566876000","99","-0.13476562","-0.9716797","0.10644531","7.0625","-5.5","5.34375"
"1575566876592","100","-0.13378906","-0.9589844","0.091796875","10.78125","-8.8125","6.5625"
"1575566876592","101","-0.19140625","-0.99609375","0.09667969","12.1875","-11.375","8.34375"
"1575566876592","102","-0.20605469","-0.96777344","0.1484375","8.09375","-3.25","7.125"
"1575566876593","103","-0.19335938","-0.9814453","0.1796875","10.40625","-2.28125","8.46875"
"1575566876593","104","-0.22363281","-0.9951172","0.20800781","7.1875","-1.46875","7.125"
"1575566876593","105","-0.23144531","-0.95214844","0.22753906","1.8125","2.0","2.65625"
"1575566876593","106","-0.22753906","-0.94921875","0.20605469","6.875","0.65625","5.90625"
"1575566876594","107","-0.18164062","-0.9941406","0.2109375","4.5","-0.625","6.09375"
"1575566876594","108","-0.21972656","-0.95703125","0.22949219","-0.4375","-5.3125","6.46875"
"1575566876595","109","-0.2626953","-0.9560547","0.22949219","-0.9375","-3.625","5.40625"
"1575566876989","110","-0.25390625","-0.96972656","0.23632812","-0.125","-1.71875","3.46875"
"1575566876989","111","-0.24902344","-0.9921875","0.23632812","-2.03125","-2.59375","2.71875"
"1575566876990","112","-0.27734375","-0.96875","0.25097656","-2.9375","-7.59375","1.6875"
"1575566876990","113","-0.234375","-0.9394531","0.23632812","-2.875","-4.15625","2.71875"
"1575566876990","114","-0.2607422","-0.96875","0.23046875","-1.46875","-1.0625","1.875"
"1575566876990","115","-0.2841797","-0.9511719","0.22949219","-3.75","-0.375","0.71875"
"1575566876990","116","-0.2578125","-0.9970703","0.21972656","0.28125","2.90625","0.21875"
"1575566876991","117","-0.2890625","-0.99121094","0.25390625","-7.9375","4.9375","-1.90625"
"1575566876991","118","-0.2919922","-1.0","0.23046875","-9.53125","8.84375","-8.0"
"1575566876991","119","-0.29003906","-1.0136719","0.19238281","-8.25","6.8125","-9.84375"
"1575566877387","120","-0.24511719","-1.0126953","0.18652344","-14.53125","10.125","-13.1875"
"1575566877388","121","-0.28125","-1.0107422","0.17675781","-19.375","9.75","-16.3125"
"1575566877389","122","-0.22070312","-1.0048828","0.1640625","-21.3125","10.65625","-17.03125"
"1575566877389","123","-0.18945312","-0.9902344","0.12988281","-18.4375","7.4375","-14.78125"
"1575566877389","124","-0.18066406","-0.9716797","0.12109375","-21.25","9.1875","-15.53125"
"1575566877390","125","-0.14453125","-0.9716797","0.08496094","-19.84375","8.78125","-14.71875"
"1575566877390","126","-0.11816406","-0.9814453","0.048828125","-18.3125","6.28125","-13.5625"
"1575566877390","127","-0.07324219","-0.9814453","0.037109375","-17.40625","4.1875","-11.25"
"1575566877390","128","-0.1171875","-0.9550781","0.028320312","-21.25","-0.5","-11.5"
"1575566877390","129","-0.08691406","-0.97265625","0.0126953125","-16.96875","1.28125","-10.03125"
"1575566877587","130","-0.07128906","-0.97265625","0.0078125","-19.96875","0.59375","-10.15625"
"1575566877587","131","-0.072265625","-0.97753906","-0.037109375","-14.71875","-1.34375","-9.40625"
"1575566877588","132","-0.05859375","-0.97558594","-0.04296875","-15.03125","0.71875","-8.375"
"1575566877589","133","-0.06738281","-0.984375","-0.047851562","-14.46875","2.3125","-9.59375"
"1575566877589","134","-0.056640625","-0.9785156","-0.07910156","-10.75","1.375","-8.4375"
"1575566877589","135","-0.045898438","-0.9746094","-0.068359375","-13.125","3.9375","-7.46875"
"1575566877590","136","-0.041992188","-0.9716797","-0.08105469","-12.03125","4.5","-7.21875"
"1575566877590","137","-0.037109375","-0.98046875","-0.10058594","-9.65625","4.25","-5.9375"
"1575566877590","138","-0.025390625","-0.9951172","-0.10839844","-8.8125","4.6875","-5.625"
"1575566877590","139","-0.018554688","-0.9716797","-0.11328125","-6.0625","6.03125","-4.28125"
"1575566877986","140","-0.020507812","-0.9794922","-0.119140625","-3.875","5.1875","-3.3125"
"1575566877986","141","-0.020507812","-0.97753906","-0.11230469","-3.125","6.21875","-2.6875"
"1575566877986","142","-0.0146484375","-0.98535156","-0.12597656","-1.25","7.75","-2.34375"
"1575566877987","143","0.001953125","-1.0019531","-0.12011719","0.34375","4.1875","-1.84375"
"1575566877987","144","-0.025390625","-1.0039062","-0.12988281","3.34375","5.34375","-1.25"
"1575566877988","145","-0.02734375","-0.98046875","-0.099609375","1.3125","4.9375","-0.5625"
"1575566877988","146","-0.02734375","-0.9794922","-0.09863281","2.65625","5.46875","-0.25"
"1575566877988","147","-0.026367188","-1.0078125","-0.10644531","4.8125","3.90625","1.4375"
"1575566877989","148","-0.02734375","-0.9941406","-0.08886719","4.5625","3.59375","0.0"
"1575566877989","149","-0.021484375","-0.9921875","-0.08300781","6.15625","0.65625","1.15625"
"1575566878583","150","-0.045898438","-0.98046875","-0.07519531","3.84375","-0.1875","1.6875"
"1575566878584","151","-0.052734375","-0.984375","-0.078125","8.46875","1.8125","0.84375"
"1575566878584","152","-0.026367188","-0.98046875","-0.08203125","9.125","3.53125","3.03125"
"1575566878584","153","-0.02734375","-1.0009766","-0.07128906","9.25","2.90625","3.71875"
"1575566878584","154","-0.0390625","-0.98535156","-0.06738281","10.3125","-0.375","4.9375"
"1575566878585","155","-0.033203125","-1.0078125","-0.052734375","10.65625","-1.40625","6.6875"
"1575566878585","156","-0.06738281","-0.9873047","-0.028320312","6.15625","-3.375","6.28125"
"1575566878586","157","-0.09082031","-0.9902344","-0.041015625","8.21875","-0.4375","6.21875"
"1575566878587","158","-0.041015625","-0.9785156","-0.03515625","11.03125","1.8125","8.15625"
"1575566878587","159","-0.07519531","-0.9941406","-0.0087890625","7.75","-1.1875","9.25"
"1575566878979","160","-0.078125","-0.99316406","-0.0048828125","10.1875","0.09375","10.71875"
"1575566878980","161","-0.11328125","-0.9892578","0.028320312","6.28125","1.8125","10.375"
"1575566878980","162","-0.09667969","-0.9902344","0.01953125","10.375","2.375","10.46875"
"1575566878980","163","-0.10253906","-0.9765625","0.037109375","7.25","1.5","10.84375"
"1575566878981","164","-0.12597656","-0.9941406","0.047851562","10.90625","0.0","11.9375"
"1575566878981","165","-0.13867188","-0.9941406","0.040039062","12.6875","-2.15625","11.28125"
"1575566878981","166","-0.16015625","-1.0039062","0.06933594","6.40625","-3.625","10.59375"
"1575566878981","167","-0.18945312","-0.9765625","0.08203125","6.625","-1.0","6.09375"
"1575566878982","168","-0.16308594","-0.9580078","0.10058594","8.09375","-1.125","7.90625"
"1575566878982","169","-0.18359375","-0.98535156","0.11035156","8.65625","-3.4375","8.71875"
"1575566879178","170","-0.19921875","-0.9746094","0.13769531","7.4375","-4.09375","6.03125"
"1575566879178","171","-0.20507812","-0.9746094","0.14257812","8.15625","-8.0","6.875"
"1575566879179","172","-0.23828125","-0.97558594","0.15332031","4.625","-6.25","5.125"
"1575566879179","173","-0.20605469","-0.99316406","0.14257812","6.8125","-2.75","2.71875"
"1575566879179","174","-0.22070312","-0.9785156","0.171875","0.46875","-5.8125","2.0"
"1575566879179","175","-0.23535156","-0.9658203","0.17382812","4.375","-7.9375","2.5"
"1575566879180","176","-0.22558594","-0.9746094","0.16015625","7.4375","-3.6875","2.25"
"1575566879180","177","-0.23925781","-0.9736328","0.1875","0.65625","-8.625","2.96875"
"1575566879180","178","-0.2421875","-0.9902344","0.18652344","2.59375","-7.53125","4.6875"
"1575566879181","179","-0.234375","-0.9902344","0.18652344","3.59375","-4.03125","2.90625"
"1575566879575","180","-0.2421875","-0.9638672","0.18652344","-0.625","-4.96875","0.65625"
"1575566879577","181","-0.24707031","-0.97265625","0.20898438","-2.03125","-1.46875","0.15625"
"1575566879577","182","-0.2421875","-0.99316406","0.2109375","-1.65625","-3.0625","0.40625"
"1575566879578","183","-0.24414062","-0.99316406","0.2265625","-4.84375","-1.53125","0.21875"
"1575566879578","184","-0.2607422","-1.0039062","0.22949219","-7.40625","2.125","-1.0"
"1575566879578","185","-0.2529297","-0.9902344","0.22070312","-10.4375","5.1875","-4.78125"
"1575566879578","186","-0.26464844","-0.99609375","0.20996094","-12.53125","7.1875","-6.3125"
"1575566879579","187","-0.23925781","-0.9863281","0.18164062","-9.84375","9.4375","-7.59375"
"1575566879579","188","-0.23046875","-0.9873047","0.14746094","-9.21875","12.3125","-9.78125"
"1575566879579","189","-0.19433594","-0.9921875","0.12890625","-9.21875","15.625","-12.09375"
"1575566879972","190","-0.19628906","-0.99609375","0.10644531","-9.65625","13.09375","-12.34375"
"1575566879973","191","-0.18945312","-0.9863281","0.13183594","-16.125","13.65625","-13.0625"
"1575566879973","192","-0.18847656","-0.9794922","0.052734375","-7.9375","10.3125","-14.34375"
"1575566879974","193","-0.17480469","-1.0097656","0.0859375","-19.1875","11.34375","-16.96875"
"1575566879974","194","-0.14746094","-0.9892578","0.043945312","-18.5625","9.875","-17.90625"
"1575566879974","195","-0.13671875","-0.98535156","0.034179688","-17.78125","9.4375","-17.09375"
"1575566879975","196","-0.09863281","-0.9716797","0.018554688","-16.25","7.1875","-16.0"
"1575566879975","197","-0.10058594","-0.98535156","0.0087890625","-17.28125","7.5625","-15.21875"
"1575566879975","198","-0.091796875","-0.99902344","-0.0146484375","-15.46875","5.0625","-13.6875"
"1575566879975","199","-0.095703125","-0.98046875","-0.0146484375","-17.71875","5.59375","-13.3125"
"1575566880371","200","-0.0703125","-0.9785156","-0.03515625","-14.3125","3.65625","-11.84375"
"1575566880371","201","-0.060546875","-0.9941406","-0.04296875","-14.3125","2.78125","-10.8125"
"1575566880372","202","-0.049804688","-0.98046875","-0.051757812","-13.625","1.75","-9.65625"
"1575566880372","203","-0.059570312","-0.9736328","-0.06347656","-11.25","2.84375","-8.625"
"1575566880372","204","-0.037109375","-0.97753906","-0.078125","-9.59375","3.28125","-5.8125"
"1575566880372","205","-0.04296875","-0.9863281","-0.072265625","-9.59375","4.0625","-4.90625"
"1575566880373","206","-0.040039062","-0.9824219","-0.07714844","-8.1875","5.28125","-4.84375"
"1575566880373","207","-0.013671875","-0.99902344","-0.10253906","-5.9375","5.71875","-3.75"
"1575566880373","208","-0.013671875","-0.9921875","-0.115234375","-4.53125","5.84375","-3.25"
"1575566880373","209","-0.005859375","-0.9824219","-0.09863281","-7.65625","4.8125","-2.8125"
"1575566880964","210","0.001953125","-0.96875","-0.12792969","-3.25","5.53125","-2.875"
"1575566880965","211","0.013671875","-0.9863281","-0.13867188","-0.3125","6.28125","-1.25"
"1575566880965","212","0.013671875","-0.99902344","-0.13476562","-0.0625","3.03125","-1.40625"
"1575566880965","213","0.0087890625","-0.97753906","-0.11425781","-2.15625","2.59375","-1.53125"
"1575566880965","214","-0.0234375","-1.0019531","-0.12988281","3.03125","1.625","-0.75"
"1575566880966","215","0.0068359375","-0.9980469","-0.12207031","2.0","2.71875","0.40625"
"1575566880966","216","-0.022460938","-0.99121094","-0.107421875","1.75","2.0","0.84375"
"1575566880967","217","-0.0087890625","-0.9892578","-0.099609375","3.53125","5.0","1.3125"
"1575566880967","218","-0.024414062","-1.0009766","-0.11328125","4.0","4.125","1.3125"
"1575566880968","219","-0.029296875","-0.99609375","-0.09472656","2.1875","6.34375","1.15625"
"1575566881364","220","-0.028320312","-0.97558594","-0.099609375","5.0625","6.09375","0.90625"
"1575566881365","221","-0.037109375","-0.9980469","-0.07910156","5.0625","6.15625","1.75"
"1575566881365","222","-0.015625","-0.98828125","-0.09375","6.28125","6.21875","2.0"
"1575566881365","223","-0.0126953125","-0.99316406","-0.0859375","7.125","4.125","4.6875"
"1575566881365","224","-0.032226562","-1.0058594","-0.078125","7.25","3.40625","4.1875"
"1575566881366","225","-0.034179688","-0.9873047","-0.061523438","5.21875","1.3125","6.8125"
"1575566881366","226","-0.037109375","-0.9970703","-0.06347656","7.8125","0.0","6.5625"
"1575566881366","227","-0.060546875","-1.0126953","-0.051757812","5.84375","-1.3125","6.8125"
"1575566881366","228","-0.049804688","-1.0","-0.044921875","6.875","-1.34375","7.25"
"1575566881367","229","-0.07910156","-1.0009766","-0.021484375","4.1875","-2.34375","6.28125"
"1575566881564","230","-0.057617188","-1.0009766","-0.0146484375","4.6875","-2.625","8.46875"
"1575566881564","231","-0.10839844","-0.9873047","-0.0068359375","4.3125","-3.8125","6.15625"
"1575566881564","232","-0.12109375","-0.9921875","-0.0029296875","8.09375","-3.5625","7.25"
"1575566881565","233","-0.1171875","-0.9980469","0.0146484375","6.875","-2.75","8.34375"
"1575566881565","234","-0.12890625","-0.9765625","0.015625","8.03125","0.65625","6.15625"
"1575566881565","235","-0.109375","-0.9863281","0.021484375","9.9375","2.96875","7.5625"
"1575566881565","236","-0.12695312","-0.9863281","0.029296875","9.03125","2.4375","7.90625"
"1575566881566","237","-0.119140625","-0.99316406","0.037109375","9.375","2.5625","7.375"
"1575566881566","238","-0.12011719","-0.9873047","0.038085938","10.1875","1.21875","6.8125"
"1575566881566","239","-0.13574219","-0.96972656","0.045898438","10.78125","-2.875","7.25"
"1575566881960","240","-0.15234375","-0.99121094","0.061523438","11.21875","-1.59375","6.6875"
"1575566881961","241","-0.14453125","-0.9902344","0.07128906","9.75","-1.59375","6.09375"
"1575566881961","242","-0.15917969","-0.98535156","0.06347656","10.1875","-4.15625","4.25"
"1575566881962","243","-0.18359375","-0.9716797","0.103515625","5.59375","-1.125","6.8125"
"1575566881962","244","-0.16796875","-0.984375","0.1015625","10.0","-0.875","8.59375"
"1575566881962","245","-0.1953125","-1.0009766","0.09863281","8.15625","-1.34375","6.28125"
"1575566881966","246","-0.16699219","-0.9794922","0.12109375","5.71875","-1.0","5.46875"
"1575566881966","247","-0.20214844","-0.9736328","0.13964844","2.65625","-2.59375","4.25"
"1575566881967","248","-0.19726562","-0.97753906","0.13574219","4.625","-2.53125","5.125"
"1575566881967","249","-0.1875","-1.0068359","0.12988281","6.21875","-3.96875","4.25"
"1575566882557","250","-0.21679688","-0.9863281","0.15917969","-0.6875","-0.5","2.65625"
"1575566882557","251","-0.21191406","-0.9824219","0.17089844","-0.9375","-4.21875","4.4375"
"1575566882558","252","-0.24902344","-0.984375","0.19824219","-2.53125","-7.21875","5.0625"
"1575566882559","253","-0.23242188","-0.9746094","0.17675781","1.8125","-9.59375","4.4375"
"1575566882560","254","-0.24511719","-0.9863281","0.17285156","0.34375","-6.90625","4.9375"
"1575566882560","255","-0.2763672","-0.9824219","0.17480469","-0.75","-6.0","2.78125"
"1575566882560","256","-0.28027344","-0.9736328","0.21289062","-6.84375","-2.625","0.40625"
"1575566882560","257","-0.23242188","-0.99121094","0.18652344","-3.25","0.96875","0.46875"
"1575566882561","258","-0.24902344","-0.9863281","0.19335938","-5.625","2.59375","-1.90625"
"1575566882561","259","-0.23925781","-0.9765625","0.1875","-6.5","3.65625","-2.40625"
"1575566882755","260","-0.25097656","-0.99609375","0.1875","-8.5","6.21875","-4.65625"
"1575566882755","261","-0.27246094","-0.9980469","0.17773438","-10.9375","10.0","-7.8125"
"1575566882756","262","-0.25195312","-0.99902344","0.12109375","-5.625","11.75","-11.84375"
"1575566882756","263","-0.21679688","-1.0195312","0.11230469","-6.90625","12.1875","-12.15625"
"1575566882756","264","-0.20019531","-1.0039062","0.11328125","-10.5625","11.09375","-14.59375"
"1575566882758","265","-0.19921875","-0.9746094","0.10253906","-10.9375","6.5","-13.375"
"1575566882759","266","-0.16894531","-0.98339844","0.083984375","-9.96875","6.75","-12.96875"
"1575566882759","267","-0.16308594","-1.0078125","0.07128906","-12.59375","4.8125","-14.46875"
"1575566882760","268","-0.15332031","-0.9980469","0.047851562","-18.6875","8.65625","-17.90625"
"1575566882760","269","-0.12597656","-0.9794922","0.051757812","-18.75","4.875","-15.59375"
"1575566883153","270","-0.14648438","-0.98828125","0.034179688","-15.28125","4.5","-14.40625"
"1575566883154","271","-0.12695312","-0.97753906","0.038085938","-18.25","5.59375","-14.34375"
"1575566883154","272","-0.08886719","-0.99121094","0.0068359375","-14.84375","6.09375","-13.5"
"1575566883154","273","-0.072265625","-0.98339844","-0.0048828125","-13.125","1.4375","-12.21875"
"1575566883155","274","-0.09863281","-0.9824219","-0.0048828125","-15.59375","4.5","-12.46875"
"1575566883155","275","-0.068359375","-0.9824219","-0.0126953125","-13.875","4.875","-11.625"
"1575566883155","276","-0.07910156","-0.99316406","-0.046875","-10.21875","2.5","-9.78125"
"1575566883156","277","-0.06542969","-0.9980469","-0.043945312","-11.71875","3.28125","-7.9375"
"1575566883157","278","-0.055664062","-0.9785156","-0.059570312","-9.53125","3.9375","-6.4375"
"1575566883157","279","-0.040039062","-0.9658203","-0.068359375","-8.375","4.25","-5.03125"
"1575566883747","280","-0.033203125","-0.98535156","-0.076171875","-7.03125","5.1875","-3.90625"
"1575566883747","281","-0.037109375","-0.9921875","-0.08300781","-8.75","7.84375","-3.90625"
"1575566883747","282","-0.033203125","-0.9873047","-0.08691406","-8.3125","7.84375","-5.3125"
"1575566883748","283","-0.017578125","-0.9863281","-0.09375","-8.6875","10.125","-6.5"
"1575566883748","284","9.765625E-4","-1.0058594","-0.12890625","-7.40625","8.09375","-5.4375"
"1575566883748","285","0.0048828125","-0.9638672","-0.13769531","-3.3125","9.09375","-4.84375"
"1575566883749","286","0.021484375","-0.98046875","-0.12011719","-4.71875","6.625","-3.125"
"1575566883749","287","0.037109375","-0.96484375","-0.13378906","-1.59375","4.5","-2.53125"
"1575566883749","288","0.032226562","-0.9902344","-0.1328125","0.0","0.40625","-1.78125"
"1575566883751","289","0.016601562","-0.99316406","-0.12109375","1.3125","0.09375","-1.34375"
"1575566884144","290","-0.009765625","-0.9794922","-0.11621094","1.09375","-1.59375","-0.3125"
"1575566884145","291","0.0068359375","-1.0078125","-0.1328125","4.5","-1.3125","1.21875"
"1575566884145","292","-0.02734375","-0.9921875","-0.11425781","1.625","0.34375","-0.25"
"1575566884145","293","-0.0146484375","-0.9941406","-0.111328125","5.46875","2.5625","1.15625"
"1575566884145","294","-0.030273438","-1.0078125","-0.10449219","2.71875","3.53125","0.78125"
"1575566884146","295","-0.026367188","-1.0068359","-0.09082031","2.84375","5.0","1.03125"
"1575566884146","296","-0.009765625","-1.0019531","-0.08300781","1.3125","4.6875","0.28125"
"1575566884146","297","-0.043945312","-0.99121094","-0.078125","1.09375","2.65625","0.78125"
"1575566884146","298","-0.018554688","-1.0009766","-0.07421875","1.5625","3.65625","1.625"
"1575566884147","299","-0.025390625","-0.99902344","-0.06347656","1.3125","3.09375","1.8125"
"1575566884544","300","-0.0390625","-0.9892578","-0.08886719","4.0625","-0.125","2.5625"
"1575566884545","301","-0.049804688","-0.9980469","-0.040039062","0.78125","0.0","4.5625"
"1575566884545","302","-0.040039062","-0.9941406","-0.0703125","5.53125","1.15625","4.0"
"1575566884545","303","-0.0546875","-1.0058594","-0.07324219","4.0625","-1.78125","5.34375"
"1575566884546","304","-0.055664062","-0.98046875","-0.07128906","5.125","1.3125","5.46875"
"1575566884546","305","-0.041992188","-1.0029297","-0.06347656","7.0","0.34375","6.875"
"1575566884546","306","-0.06640625","-1.0","-0.068359375","7.5","0.90625","7.125"
"1575566884546","307","-0.03515625","-0.9980469","-0.055664062","7.5625","-0.3125","8.34375"
"1575566884547","308","-0.09375","-0.9814453","-0.04296875","7.125","0.34375","7.125"
"1575566884547","309","-0.08691406","-0.99316406","-0.0390625","6.34375","1.09375","6.5625"
"1575566884744","310","-0.091796875","-1.0009766","-0.029296875","5.125","2.65625","5.21875"
"1575566884744","311","-0.08984375","-0.99902344","-0.0146484375","5.78125","1.6875","5.21875"
"1575566884744","312","-0.095703125","-0.9765625","-0.015625","6.21875","-1.3125","5.65625"
"1575566884746","313","-0.1015625","-0.9863281","0.0029296875","9.875","-0.375","6.15625"
"1575566884746","314","-0.10058594","-0.98339844","0.013671875","6.8125","1.03125","5.53125"
"1575566884746","315","-0.11816406","-0.9941406","0.026367188","6.5625","0.78125","5.78125"
"1575566884747","316","-0.14257812","-0.97558594","0.0146484375","8.59375","0.21875","4.1875"
"1575566884747","317","-0.12890625","-0.99121094","0.05859375","3.90625","2.3125","5.125"
"1575566884747","318","-0.14648438","-0.96972656","0.032226562","8.03125","0.46875","5.46875"
"1575566884747","319","-0.13476562","-0.99609375","0.047851562","8.59375","2.71875","5.34375"
"1575566885141","320","-0.13964844","-0.9873047","0.047851562","9.875","-0.75","6.8125"
"1575566885141","321","-0.13964844","-0.984375","0.07714844","7.8125","4.1875","5.78125"
"1575566885142","322","-0.14941406","-1.0039062","0.078125","6.9375","0.71875","5.90625"
"1575566885142","323","-0.1484375","-0.9746094","0.08496094","5.96875","-2.03125","5.34375"
"1575566885142","324","-0.19042969","-0.984375","0.0859375","8.15625","-5.25","7.8125"
"1575566885144","325","-0.17480469","-1.0048828","0.103515625","10.40625","-7.09375","6.03125"
"1575566885144","326","-0.1953125","-0.9873047","0.11425781","6.875","-8.5","7.5"
"1575566885144","327","-0.21582031","-0.98828125","0.15039062","6.9375","-9.78125","8.03125"
"1575566885145","328","-0.20996094","-0.9980469","0.14550781","8.28125","-5.21875","4.75"
"1575566885145","329","-0.22265625","-0.99609375","0.15527344","3.28125","-7.59375","4.125"
"1575566885537","330","-0.21972656","-0.9785156","0.17578125","-0.3125","-5.4375","4.4375"
"1575566885537","331","-0.21582031","-0.9921875","0.14257812","0.90625","-3.6875","1.75"
"1575566885538","332","-0.23828125","-0.96972656","0.13964844","-3.6875","-3.3125","0.78125"
"1575566885538","333","-0.20410156","-0.9628906","0.16796875","-0.6875","0.96875","1.21875"
"1575566885538","334","-0.20703125","-0.97265625","0.13378906","2.59375","-1.71875","2.3125"
"1575566885538","335","-0.21777344","-0.9902344","0.15136719","4.5625","0.03125","2.96875"
"1575566885539","336","-0.21777344","-0.98339844","0.16992188","0.71875","-0.3125","1.15625"
"1575566885540","337","-0.23242188","-0.9785156","0.17675781","-4.21875","-1.40625","0.90625"
"1575566885540","338","-0.21582031","-1.0234375","0.16992188","-3.25","0.15625","0.84375"
"1575566885541","339","-0.23730469","-0.9941406","0.17871094","-11.3125","1.375","-2.21875"
"1575566886135","340","-0.24609375","-0.9863281","0.1953125","-13.625","5.96875","-3.90625"
"1575566886135","341","-0.23632812","-0.9970703","0.15917969","-11.3125","7.75","-5.9375"
"1575566886135","342","-0.21777344","-0.99609375","0.14257812","-9.0","5.96875","-5.875"
"1575566886136","343","-0.20410156","-0.98339844","0.13671875","-9.46875","7.84375","-6.65625"
"1575566886136","344","-0.20507812","-0.9824219","0.1328125","-9.90625","9.1875","-8.0625"
"1575566886136","345","-0.19433594","-1.0058594","0.10644531","-9.65625","12.3125","-10.21875"
"1575566886136","346","-0.19433594","-1.0195312","0.076171875","-12.40625","13.34375","-13.25"
"1575566886137","347","-0.18652344","-0.96875","0.09863281","-14.0","7.84375","-11.1875"
"1575566886137","348","-0.19628906","-0.96484375","0.05078125","-10.03125","5.96875","-9.34375"
"1575566886138","349","-0.16113281","-1.015625","0.06347656","-12.78125","10.78125","-12.28125"
"1575566886332","350","-0.16992188","-0.98535156","0.03515625","-14.59375","7.84375","-13.6875"
"1575566886333","351","-0.12011719","-0.9951172","0.009765625","-9.21875","5.0625","-12.21875"
"1575566886333","352","-0.1328125","-1.0048828","0.017578125","-14.3125","5.28125","-10.75"
"1575566886333","353","-0.111328125","-0.9824219","0.0126953125","-14.53125","7.75","-10.875"
"1575566886334","354","-0.115234375","-0.9941406","-0.01953125","-12.59375","5.46875","-11.84375"
"1575566886334","355","-0.087890625","-0.99316406","-0.01953125","-15.625","5.1875","-9.53125"
"1575566886334","356","-0.12109375","-0.9873047","-0.03515625","-14.0625","4.1875","-9.84375"
"1575566886335","357","-0.08300781","-0.99121094","-0.036132812","-13.75","6.40625","-10.34375"
"1575566886335","358","-0.08886719","-0.99316406","-0.059570312","-13.125","5.40625","-10.40625"
"1575566886335","359","-0.06640625","-1.0","-0.064453125","-14.59375","6.15625","-10.8125"
"1575566886731","360","-0.0546875","-0.9814453","-0.08984375","-13.0625","5.28125","-11.25"
"1575566886733","361","-0.0126953125","-0.98535156","-0.09375","-11.84375","2.90625","-9.84375"
"1575566886733","362","-0.025390625","-0.9736328","-0.10839844","-11.0625","2.65625","-8.75"
"1575566886734","363","-0.029296875","-0.98339844","-0.12402344","-8.875","4.6875","-7.78125"
"1575566886734","364","-0.026367188","-0.94921875","-0.13574219","-7.21875","3.71875","-6.1875"
"1575566886734","365","-0.0068359375","-0.95703125","-0.115234375","-2.875","7.84375","-3.25"
"1575566886734","366","-0.01171875","-0.96191406","-0.12597656","0.28125","6.09375","-1.96875"
"1575566886735","367","0.001953125","-0.9941406","-0.16113281","5.40625","4.6875","-0.75"
"1575566886735","368","0.013671875","-0.9892578","-0.1328125","1.3125","4.8125","0.0"
"1575566886735","369","0.0029296875","-0.9609375","-0.13183594","7.125","4.6875","-0.875"
"1575566887128","370","0.013671875","-1.0097656","-0.14160156","8.21875","3.21875","-0.1875"
"1575566887129","371","0.01171875","-0.98828125","-0.103515625","2.25","4.5625","-1.0625"
"1575566887129","372","-9.765625E-4","-0.9951172","-0.12207031","4.375","3.90625","-3.0"
"1575566887131","373","-0.001953125","-0.99609375","-0.12207031","6.03125","0.09375","-2.21875"
"1575566887131","374","-0.021484375","-1.0058594","-0.099609375","4.1875","1.5","-0.875"
"1575566887132","375","-0.017578125","-1.0029297","-0.078125","0.28125","4.6875","-1.34375"
"1575566887132","376","-0.020507812","-0.9970703","-0.09472656","4.5625","5.0625","-0.5"
"1575566887132","377","-0.017578125","-1.0078125","-0.08105469","3.03125","5.65625","1.5625"
"1575566887133","378","-0.037109375","-1.0273438","-0.0625","0.65625","2.1875","1.5"
"1575566887133","379","-0.036132812","-0.9794922","-0.052734375","2.3125","3.34375","3.34375"
"1575566887526","380","-0.048828125","-1.0039062","-0.025390625","-0.3125","1.28125","2.3125"
"1575566887526","381","-0.0546875","-0.9970703","-0.06347656","5.65625","1.5625","3.65625"
"1575566887526","382","-0.040039062","-1.0019531","-0.028320312","0.53125","3.71875","4.6875"
"1575566887527","383","-0.0546875","-0.99316406","-0.06347656","6.46875","1.5","3.78125"
"1575566887527","384","-0.0146484375","-1.0126953","-0.045898438","6.28125","1.09375","8.03125"
"1575566887528","385","-0.076171875","-0.9824219","-0.03515625","2.25","-1.40625","4.25"
"1575566887528","386","-0.051757812","-0.9970703","-0.049804688","7.90625","1.4375","8.03125"
"1575566887529","387","-0.041992188","-1.0039062","-0.033203125","3.71875","-1.40625","8.21875"
"1575566887529","388","-0.099609375","-0.9873047","-0.025390625","4.5","-0.4375","7.25"
"1575566887529","389","-0.057617188","-0.9824219","-0.03125","7.125","2.5625","8.28125"
"1575566888122","390","-0.08300781","-0.9951172","-0.017578125","7.8125","0.46875","7.125"
"1575566888122","391","-0.09667969","-0.9941406","-0.0234375","8.46875","0.09375","7.6875"
"1575566888122","392","-0.10449219","-0.98828125","0.0048828125","6.21875","1.4375","6.5625"
"1575566888123","393","-0.12011719","-0.98535156","0.0146484375","6.21875","3.21875","5.21875"
"1575566888123","394","-0.11328125","-1.0048828","0.01171875","6.6875","2.375","5.0"
"1575566888123","395","-0.12402344","-0.98828125","0.0234375","7.25","0.0","6.5625"
"1575566888123","396","-0.12597656","-0.9921875","0.0146484375","9.625","-0.3125","6.03125"
"1575566888125","397","-0.140625","-0.9746094","0.026367188","7.0625","-0.6875","7.125"
"1575566888125","398","-0.15136719","-0.9873047","0.049804688","5.34375","2.65625","5.78125"
"1575566888125","399","-0.16210938","-0.984375","0.05078125","4.75","2.4375","5.40625"
"1575566888716","400","-0.14648438","-0.9921875","0.047851562","7.6875","3.09375","6.8125"
"1575566888716","401","-0.17480469","-0.9863281","0.08300781","4.5625","4.1875","6.46875"
"1575566888717","402","-0.17285156","-0.97265625","0.09082031","4.0","5.21875","3.59375"
"1575566888717","403","-0.16015625","-0.98828125","0.08886719","4.8125","7.0","3.90625"
"1575566888717","404","-0.14746094","-0.99609375","0.09277344","2.5625","6.46875","4.375"
"1575566888717","405","-0.15527344","-0.9980469","0.07519531","3.59375","1.09375","5.21875"
"1575566888718","406","-0.18945312","-0.98828125","0.0859375","3.59375","-3.1875","6.9375"
"1575566888718","407","-0.22753906","-0.9765625","0.12109375","2.25","-2.875","3.46875"
"1575566888718","408","-0.23242188","-0.9980469","0.11035156","3.9375","-3.125","4.0"
"1575566888720","409","-0.20898438","-1.0029297","0.11816406","1.9375","-1.0625","2.84375"
"1575566888915","410","-0.22167969","-0.98339844","0.11425781","-0.5625","-4.21875","3.03125"
"1575566888915","411","-0.21679688","-0.9863281","0.12109375","1.5625","-4.28125","4.4375"
"1575566888916","412","-0.22460938","-1.0117188","0.09765625","1.28125","-4.15625","2.375"
"1575566888916","413","-0.234375","-1.0","0.12207031","-1.96875","-2.9375","0.71875"
"1575566888916","414","-0.2578125","-0.95996094","0.12792969","-1.1875","-1.125","0.15625"
"1575566888916","415","-0.21972656","-0.97753906","0.13574219","-2.40625","-0.6875","0.09375"
"1575566888917","416","-0.21679688","-1.0078125","0.09765625","-3.3125","-1.59375","0.03125"
"1575566888917","417","-0.21679688","-1.0058594","0.14746094","-8.4375","1.9375","-0.8125"
"1575566888917","418","-0.2626953","-0.99121094","0.15527344","-11.5","3.84375","-2.9375"
"1575566888917","419","-0.22070312","-1.0146484","0.12011719","-9.34375","3.28125","-5.3125"
"1575566889312","420","-0.22265625","-1.0068359","0.11816406","-13.375","5.71875","-6.53125"
"1575566889314","421","-0.234375","-1.0048828","0.10839844","-11.78125","4.0625","-7.59375"
"1575566889314","422","-0.21679688","-1.0039062","0.10644531","-10.9375","4.0625","-8.3125"
"1575566889314","423","-0.2109375","-1.0019531","0.099609375","-13.1875","5.71875","-9.46875"
"1575566889315","424","-0.21875","-1.015625","0.091796875","-12.84375","8.65625","-10.34375"
"1575566889315","425","-0.18847656","-1.015625","0.046875","-10.28125","6.21875","-13.0625"
"1575566889315","426","-0.21289062","-1.0087891","0.0546875","-13.1875","8.40625","-13.6875"
"1575566889316","427","-0.17675781","-0.9902344","0.048828125","-11.78125","6.21875","-14.0625"
"1575566889316","428","-0.18066406","-1.0009766","0.009765625","-7.15625","3.15625","-13.9375"
"1575566889316","429","-0.15722656","-0.9902344","0.022460938","-10.09375","7.75","-11.0625"
"1575566889911","430","-0.10644531","-0.9716797","-0.041015625","-3.8125","4.3125","-10.34375"
"1575566889911","431","-0.11035156","-0.98339844","0.0048828125","-9.34375","4.0","-6.84375"
"1575566889912","432","-0.10058594","-0.9667969","-0.038085938","-6.65625","4.0625","-7.9375"
"1575566889912","433","-0.091796875","-1.0019531","-0.052734375","-4.15625","4.0","-6.59375"
"1575566889912","434","-0.07910156","-0.98828125","-0.041015625","-10.34375","3.15625","-6.59375"
"1575566889912","435","-0.06542969","-0.97753906","-0.045898438","-8.8125","4.125","-7.71875"
"1575566889913","436","-0.068359375","-0.9921875","-0.07910156","-6.59375","1.5","-6.96875"
"1575566889913","437","-0.056640625","-0.9765625","-0.07128906","-8.9375","4.0625","-6.96875"
"1575566889913","438","-0.056640625","-0.97558594","-0.08691406","-7.65625","3.84375","-6.96875"
"1575566889913","439","-0.0546875","-0.98828125","-0.0859375","-7.9375","4.25","-6.59375"
"1575566890107","440","-0.05078125","-0.9873047","-0.09472656","-7.09375","5.1875","-6.59375"
"1575566890107","441","-0.03515625","-0.9892578","-0.09082031","-7.09375","5.1875","-7.21875"
"1575566890107","442","-0.052734375","-0.9980469","-0.09765625","-7.875","5.0","-8.125"
"1575566890108","443","-0.029296875","-0.9941406","-0.09863281","-7.34375","4.1875","-7.71875"
"1575566890108","444","-0.036132812","-0.9824219","-0.095703125","-7.28125","3.34375","-7.65625"
"1575566890109","445","-0.009765625","-0.9980469","-0.10058594","-6.59375","4.625","-6.5"
"1575566890110","446","-0.02734375","-0.95214844","-0.12109375","-4.46875","2.96875","-7.71875"
"1575566890110","447","-0.0126953125","-0.99121094","-0.115234375","-3.375","5.28125","-4.46875"
"1575566890110","448","-0.024414062","-0.9785156","-0.12109375","-3.0","5.40625","-5.75"
"1575566890111","449","-0.00390625","-0.9970703","-0.12792969","2.0625","8.46875","-2.8125"
"1575566890703","450","0.0078125","-0.99121094","-0.12792969","1.3125","6.46875","-2.6875"
"1575566890704","451","0.013671875","-0.9785156","-0.12011719","3.40625","4.1875","-2.8125"
"1575566890704","452","-0.00390625","-1.0097656","-0.1328125","5.21875","1.875","-1.125"
"1575566890704","453","0.0078125","-0.9970703","-0.109375","2.65625","0.40625","-1.3125"
"1575566890705","454","-0.001953125","-0.98828125","-0.1015625","3.71875","-1.53125","-1.34375"
"1575566890705","455","-0.022460938","-1.0205078","-0.09863281","3.15625","-1.1875","-0.6875"
"1575566890705","456","-0.040039062","-0.9873047","-0.091796875","2.1875","0.84375","-1.0"
"1575566890707","457","-0.009765625","-0.9980469","-0.103515625","6.6875","3.21875","0.90625"
"1575566890707","458","-0.0078125","-0.9970703","-0.08300781","2.71875","2.65625","2.0"
"1575566890708","459","-0.02734375","-1.0009766","-0.08300781","3.46875","3.65625","2.65625"
"1575566890901","460","-0.00390625","-0.9902344","-0.07714844","3.34375","3.78125","4.0"
"1575566890902","461","-0.029296875","-1.0019531","-0.07910156","3.65625","1.3125","4.4375"
"1575566890902","462","-0.0087890625","-0.9716797","-0.095703125","7.5625","1.75","6.6875"
"1575566890902","463","-0.022460938","-1.0019531","-0.041992188","2.65625","3.21875","7.0"
"1575566890902","464","-0.0107421875","-0.98046875","-0.07519531","5.90625","2.96875","7.375"
"1575566890903","465","-0.032226562","-1.0048828","-0.057617188","7.25","1.03125","9.125"
"1575566890903","466","-0.06933594","-0.9921875","-0.04296875","6.5625","0.0","6.9375"
"1575566890903","467","-0.053710938","-1.0009766","-0.021484375","4.875","3.65625","9.03125"
"1575566890903","468","-0.06542969","-0.98828125","-0.03515625","5.90625","0.34375","6.28125"
"1575566890904","469","-0.099609375","-0.9873047","-0.03125","6.75","-0.25","8.21875"
"1575566891896","470","-0.09082031","-1.0009766","-0.009765625","5.34375","1.4375","7.5"
"1575566891896","471","-0.09375","-0.98535156","-0.001953125","6.8125","-0.5625","7.90625"
"1575566891897","472","-0.12597656","-0.9921875","0.0107421875","4.3125","2.0","6.6875"
"1575566891897","473","-0.10839844","-0.984375","0.015625","7.4375","-0.5625","7.25"
"1575566891897","474","-0.15136719","-0.9814453","0.030273438","5.53125","1.625","5.90625"
"1575566891897","475","-0.14453125","-0.99316406","0.017578125","8.34375","2.0","8.46875"
"1575566891898","476","-0.15820312","-0.9765625","0.034179688","4.0625","4.4375","7.90625"
"1575566891898","477","-0.13183594","-1.0136719","0.0390625","7.0","4.3125","8.84375"
"1575566891898","478","-0.17871094","-0.98535156","0.020507812","7.5","2.0625","6.46875"
"1575566891899","479","-0.16796875","-1.0009766","0.07421875","2.96875","5.65625","5.78125"
"1575566892094","480","-0.16210938","-0.97753906","0.052734375","5.34375","3.65625","4.25"
"1575566892095","481","-0.1484375","-0.99609375","0.052734375","6.8125","4.1875","7.25"
"1575566892095","482","-0.17480469","-0.99902344","0.08203125","-0.125","6.40625","6.6875"
"1575566892095","483","-0.20214844","-0.9941406","0.0703125","-1.3125","8.84375","3.09375"
"1575566892095","484","-0.19238281","-1.0244141","0.057617188","0.0","8.46875","3.21875"
"1575566892095","485","-0.1875","-0.984375","0.068359375","-1.78125","2.0625","2.0"
"1575566892096","486","-0.20605469","-0.9892578","0.08300781","-0.9375","-1.84375","4.9375"
"1575566892096","487","-0.21875","-0.9873047","0.08886719","0.46875","-2.40625","1.375"
"1575566892096","488","-0.21484375","-0.9794922","0.07324219","2.0625","-1.34375","0.65625"
"1575566892096","489","-0.18164062","-1.0195312","0.08496094","-0.75","-2.28125","2.96875"
"1575566892292","490","-0.23535156","-1.0029297","0.07421875","-4.28125","-6.125","0.0"
"1575566892293","491","-0.234375","-0.9951172","0.10839844","-4.34375","-5.9375","0.03125"
"1575566892293","492","-0.22558594","-0.9951172","0.10546875","-5.15625","-3.96875","0.28125"
"1575566892295","493","-0.24316406","-0.99609375","0.11035156","-6.5","-5.15625","-0.9375"
"1575566892295","494","-0.23632812","-1.0039062","0.10449219","-5.75","-3.25","-2.40625"
"1575566892296","495","-0.24023438","-1.0136719","0.13476562","-11.78125","-0.75","-3.375"
"1575566892296","496","-0.22753906","-1.0253906","0.072265625","-7.09375","-3.125","-4.78125"
"1575566892296","497","-0.23730469","-1.0068359","0.10253906","-9.71875","0.40625","-5.875"
"1575566892296","498","-0.21484375","-0.9970703","0.08496094","-5.03125","1.6875","-4.53125"
"1575566892297","499","-0.21875","-0.9892578","0.07324219","-4.90625","5.96875","-4.03125"
"1575566892489","500","-0.21679688","-1.0087891","0.059570312","-2.28125","4.625","-5.4375"
"1575566892490","501","-0.19042969","-1.015625","0.060546875","-2.03125","7.3125","-7.03125"
"1575566892490","502","-0.18554688","-1.0058594","0.055664062","-7.09375","8.84375","-9.96875"
"1575566892490","503","-0.1875","-1.0048828","0.04296875","-6.5","6.75","-12.40625"
"1575566892490","504","-0.17871094","-0.99609375","0.021484375","-6.1875","6.28125","-12.09375"
"1575566892492","505","-0.12890625","-0.99121094","0.0107421875","-7.9375","7.96875","-10.6875"
"1575566892492","506","-0.12890625","-0.9785156","-0.030273438","-4.96875","2.0","-9.84375"
"1575566892492","507","-0.11230469","-0.9863281","-0.017578125","-7.28125","4.75","-7.8125"
"1575566892493","508","-0.09863281","-0.9941406","-0.0234375","-7.34375","5.28125","-8.9375"
"1575566892493","509","-0.12109375","-0.9765625","-0.07519531","-4.28125","-0.0625","-9.28125"
"1575566892693","510","-0.08496094","-0.99121094","-0.015625","-14.71875","3.9375","-8.4375"
"1575566892694","511","-0.099609375","-0.9736328","-0.057617188","-10.40625","-0.8125","-11.25"
"1575566892694","512","-0.07519531","-0.9941406","-0.07910156","-7.59375","1.5","-9.125"
"1575566892694","513","-0.053710938","-0.9921875","-0.08300781","-8.6875","-0.0625","-9.40625"
"1575566892695","514","-0.08105469","-0.984375","-0.07324219","-12.34375","2.3125","-9.78125"
"1575566892695","515","-0.029296875","-0.9951172","-0.09082031","-7.59375","2.5","-7.65625"
"1575566892695","516","-0.068359375","-0.97558594","-0.080078125","-9.96875","3.28125","-8.1875"
"1575566892696","517","-0.037109375","-0.9785156","-0.09863281","-7.40625","4.8125","-7.78125"
"1575566892697","518","-0.02734375","-1.0058594","-0.11425781","-7.71875","2.5","-7.9375"
"1575566892697","519","-0.025390625","-0.9814453","-0.10058594","-9.46875","2.71875","-7.8125"
"1575566893090","520","-0.021484375","-0.98828125","-0.11425781","-5.5","0.78125","-8.0625"
"1575566893090","521","-0.0126953125","-0.98535156","-0.111328125","-7.9375","2.59375","-8.6875"
"1575566893090","522","-0.016601562","-0.9970703","-0.10644531","-8.3125","2.0625","-9.0"
"1575566893091","523","-0.040039062","-0.9863281","-0.125","-5.5","2.25","-9.84375"
"1575566893091","524","-0.020507812","-0.9580078","-0.140625","-3.75","2.59375","-7.40625"
"1575566893091","525","0.0146484375","-0.99902344","-0.11035156","-4.28125","6.5","-4.90625"
"1575566893091","526","0.0048828125","-0.9814453","-0.12011719","-1.34375","1.8125","-4.34375"
"1575566893091","527","0.0087890625","-0.9941406","-0.13964844","4.3125","3.03125","-1.1875"
"1575566893092","528","0.001953125","-0.99316406","-0.12011719","0.15625","2.3125","-1.125"
"1575566893093","529","-0.00390625","-0.9892578","-0.11621094","1.375","4.125","-1.90625"
"1575566893686","530","-0.0029296875","-1.0009766","-0.11621094","1.5625","4.25","0.09375"
"1575566893687","531","-0.005859375","-1.0068359","-0.11230469","0.53125","2.78125","0.46875"
"1575566893687","532","-0.016601562","-0.9941406","-0.111328125","1.21875","3.34375","0.40625"
"1575566893687","533","-0.005859375","-0.9863281","-0.1015625","2.1875","4.0","1.4375"
"1575566893688","534","-0.005859375","-1.0078125","-0.10253906","2.0625","2.71875","1.5625"
"1575566893688","535","0.01171875","-0.99121094","-0.08886719","0.96875","2.5","3.03125"
"1575566893688","536","-0.033203125","-1.0078125","-0.09472656","2.5625","1.3125","1.5625"
"1575566893688","537","-0.0078125","-0.9970703","-0.09667969","1.3125","1.875","3.03125"
"1575566893689","538","-0.015625","-0.9941406","-0.080078125","2.3125","2.0625","2.25"
"1575566893689","539","-0.016601562","-1.0058594","-0.09082031","-0.0625","-1.71875","3.90625"
"1575566894083","540","-0.026367188","-0.9921875","-0.083984375","5.0625","1.6875","4.125"
"1575566894084","541","-0.048828125","-0.99609375","-0.07421875","0.15625","0.78125","3.46875"
"1575566894084","542","-0.029296875","-0.99316406","-0.09375","5.46875","3.34375","4.375"
"1575566894085","543","-0.0126953125","-1.0039062","-0.083984375","4.875","-0.875","5.21875"
"1575566894085","544","-0.06738281","-0.98828125","-0.08203125","1.6875","0.0","4.6875"
"1575566894085","545","-0.03515625","-0.98339844","-0.09082031","7.6875","2.3125","5.90625"
"1575566894085","546","-0.0390625","-1.0058594","-0.09667969","7.1875","-0.8125","8.15625"
"1575566894086","547","-0.045898438","-0.9794922","-0.07128906","5.40625","-1.1875","7.375"
"1575566894086","548","-0.064453125","-1.0019531","-0.056640625","4.9375","-2.59375","8.34375"
"1575566894086","549","-0.095703125","-1.0","-0.040039062","2.65625","1.15625","4.5625"
"1575566894284","550","-0.09667969","-0.9970703","-0.041992188","4.0","-0.8125","5.21875"
"1575566894284","551","-0.10253906","-0.97753906","-0.038085938","5.0","3.90625","3.90625"
"1575566894285","552","-0.06542969","-1.0","-0.02734375","4.8125","1.3125","4.8125"
"1575566894286","553","-0.109375","-0.9873047","-0.02734375","4.6875","-0.1875","5.90625"
"1575566894286","554","-0.13476562","-0.98339844","-0.001953125","5.78125","3.21875","4.6875"
"1575566894286","555","-0.12402344","-0.99316406","-0.036132812","12.5","3.53125","5.78125"
"1575566894287","556","-0.11328125","-0.99902344","0.0048828125","7.0","2.1875","7.625"
"1575566894287","557","-0.111328125","-0.99609375","0.0","10.46875","0.28125","8.59375"
"1575566894287","558","-0.11425781","-0.9941406","0.0048828125","11.28125","0.15625","8.71875"
"1575566894288","559","-0.12402344","-0.9736328","0.0234375","9.75","-0.5","8.03125"
"1575566894681","560","-0.140625","-0.9970703","0.020507812","9.375","0.0","6.8125"
"1575566894682","561","-0.13964844","-1.0009766","0.041015625","6.03125","-3.1875","9.6875"
"1575566894682","562","-0.22070312","-0.9824219","0.0546875","2.0625","-6.90625","12.25"
"1575566894682","563","-0.19042969","-1.0166016","0.09667969","10.1875","-5.6875","11.03125"
"1575566894683","564","-0.19726562","-0.99609375","0.09082031","13.53125","-1.90625","7.5625"
"1575566894684","565","-0.16699219","-0.98046875","0.091796875","12.75","0.09375","7.375"
"1575566894684","566","-0.20019531","-0.9941406","0.107421875","9.5625","0.0","8.21875"
"1575566894685","567","-0.21777344","-1.0019531","0.125","4.375","-1.90625","7.25"
"1575566894685","568","-0.19726562","-1.0048828","0.13085938","4.75","1.21875","5.78125"
"1575566894685","569","-0.22753906","-0.984375","0.13867188","1.3125","1.15625","4.5625"
"1575566895276","570","-0.23339844","-0.97558594","0.09277344","3.15625","-2.46875","3.34375"
"1575566895277","571","-0.22753906","-0.9892578","0.17382812","-3.4375","-3.125","3.03125"
"1575566895277","572","-0.25390625","-0.9951172","0.13964844","-2.875","-6.59375","1.09375"
"1575566895277","573","-0.2529297","-0.99609375","0.15429688","-2.875","-4.59375","1.3125"
"1575566895277","574","-0.25390625","-0.99316406","0.14453125","-5.5","-1.0625","0.84375"
"1575566895278","575","-0.26953125","-0.99902344","0.16308594","-9.90625","1.28125","-1.25"
"1575566895278","576","-0.265625","-1.0039062","0.15234375","-7.34375","3.03125","-2.9375"
"1575566895280","577","-0.2734375","-1.0048828","0.140625","-8.8125","4.875","-4.78125"
"1575566895280","578","-0.25976562","-0.9941406","0.14355469","-11.71875","6.40625","-6.0"
"1575566895280","579","-0.24804688","-1.0","0.11816406","-9.84375","6.8125","-7.59375"
"1575566895874","580","-0.2529297","-1.0117188","0.115234375","-12.90625","8.40625","-9.71875"
"1575566895874","581","-0.22070312","-1.0029297","0.08300781","-10.9375","7.84375","-9.65625"
"1575566895875","582","-0.21289062","-1.0029297","0.064453125","-11.3125","7.1875","-11.125"
"1575566895875","583","-0.17675781","-0.99316406","0.049804688","-11.5625","7.625","-11.96875"
"1575566895875","584","-0.16699219","-1.0","0.033203125","-11.71875","10.40625","-13.375"
"1575566895875","585","-0.16210938","-0.98046875","-0.0087890625","-8.8125","7.0625","-14.90625"
"1575566895876","586","-0.1328125","-0.9736328","0.033203125","-14.59375","7.1875","-14.0"
"1575566895876","587","-0.12695312","-0.98535156","-0.022460938","-9.40625","4.625","-16.375"
"1575566895876","588","-0.10253906","-1.0029297","-0.029296875","-13.375","4.3125","-16.8125"
"1575566895877","589","-0.109375","-0.9785156","-0.043945312","-13.75","2.0","-17.90625"
"1575566896466","590","-0.09863281","-0.9667969","-0.0546875","-11.6875","3.15625","-16.6875"
"1575566896466","591","-0.06738281","-0.984375","-0.06640625","-11.90625","3.71875","-14.0"
"1575566896467","592","-0.06640625","-0.98046875","-0.080078125","-13.25","4.375","-13.25"
"1575566896467","593","-0.048828125","-0.9824219","-0.08203125","-10.09375","2.96875","-12.71875"
"1575566896467","594","-0.033203125","-0.98339844","-0.080078125","-10.5625","2.25","-10.34375"
"1575566896467","595","-0.038085938","-1.0","-0.10449219","-9.90625","-0.5625","-10.34375"
"1575566896467","596","-0.05078125","-0.98046875","-0.09277344","-8.9375","2.65625","-9.0"
"1575566896468","597","-0.032226562","-0.97265625","-0.109375","-7.8125","1.8125","-9.65625"
"1575566896469","598","-0.0234375","-0.9814453","-0.12109375","-5.375","5.1875","-7.71875"
"1575566896469","599","0.001953125","-1.0009766","-0.1171875","-7.46875","5.40625","-6.3125"
"1575566896663","600","-0.0078125","-0.9951172","-0.13378906","-1.46875","6.09375","-4.65625"
"1575566896665","601","-0.005859375","-0.9873047","-0.111328125","-5.3125","7.75","-3.96875"
"1575566896665","602","0.02734375","-0.9941406","-0.13964844","0.0","3.09375","-2.03125"
"1575566896665","603","0.037109375","-0.984375","-0.12792969","-2.46875","1.28125","-0.8125"
"1575566896665","604","0.018554688","-0.98046875","-0.119140625","3.65625","-2.40625","-1.90625"
"1575566896666","605","0.0","-0.99121094","-0.13183594","2.59375","-3.90625","-1.25"
"1575566896666","606","0.0","-0.9746094","-0.11621094","0.71875","-1.40625","-0.8125"
"1575566896666","607","0.005859375","-0.99902344","-0.11816406","3.46875","-0.6875","-1.40625"
"1575566896666","608","-0.0078125","-1.0039062","-0.125","5.21875","0.34375","0.46875"
"1575566896666","609","-0.005859375","-0.9970703","-0.09277344","2.1875","3.78125","-0.1875"
"1575566897065","610","-9.765625E-4","-0.9824219","-0.09765625","3.90625","6.46875","-0.4375"
"1575566897065","611","0.0107421875","-0.9941406","-0.10449219","6.28125","5.0625","0.34375"
"1575566897065","612","-0.00390625","-0.9873047","-0.09472656","3.78125","3.21875","0.40625"
"1575566897066","613","0.0234375","-0.9824219","-0.08691406","6.5625","5.0","3.78125"
"1575566897067","614","-0.017578125","-1.015625","-0.06542969","2.25","1.5625","2.78125"
"1575566897067","615","9.765625E-4","-0.99902344","-0.08984375","8.90625","4.0625","5.78125"
"1575566897067","616","-0.0390625","-1.0","-0.046875","0.65625","3.03125","4.0625"
"1575566897068","617","-0.01953125","-1.0048828","-0.059570312","6.15625","3.40625","4.5625"
"1575566897068","618","-0.046875","-0.9980469","-0.045898438","3.34375","0.28125","4.6875"
"1575566897068","619","-0.034179688","-0.984375","-0.041992188","6.6875","1.625","5.21875"
"1575566897462","620","-0.04296875","-1.0009766","-0.04296875","7.84375","-0.125","6.46875"
"1575566897463","621","-0.0390625","-0.9892578","-0.051757812","7.5","-1.65625","7.6875"
"1575566897463","622","-0.083984375","-0.99121094","-0.017578125","5.1875","-1.25","7.5"
"1575566897463","623","-0.07519531","-0.9980469","-0.034179688","8.46875","1.15625","7.375"
"1575566897464","624","-0.08496094","-0.9980469","-0.0107421875","6.09375","2.90625","7.90625"
"1575566897465","625","-0.08691406","-1.0087891","-0.01953125","6.15625","2.0","8.03125"
"1575566897465","626","-0.08203125","-1.0","-0.00390625","5.40625","2.5625","8.84375"
"1575566897465","627","-0.12207031","-0.984375","0.017578125","4.9375","1.4375","8.21875"
"1575566897466","628","-0.10253906","-0.9970703","0.029296875","7.90625","2.0","9.25"
"1575566897466","629","-0.12109375","-0.98535156","0.024414062","8.84375","1.09375","7.5625"
"1575566897661","630","-0.13183594","-0.9873047","0.017578125","10.84375","0.03125","7.5625"
"1575566897661","631","-0.15429688","-1.0087891","0.072265625","4.0","2.0625","6.34375"
"1575566897662","632","-0.16015625","-0.9716797","0.057617188","5.21875","2.4375","6.8125"
"1575566897662","633","-0.17089844","-1.0117188","0.052734375","6.03125","3.53125","8.71875"
"1575566897662","634","-0.16113281","-0.9892578","0.072265625","5.59375","2.375","6.6875"
"1575566897662","635","-0.16992188","-0.9863281","0.07324219","5.90625","3.78125","6.09375"
"1575566897662","636","-0.15527344","-1.0","0.05859375","9.8125","1.8125","8.03125"
"1575566897663","637","-0.16601562","-0.9892578","0.08203125","6.34375","0.96875","7.0"
"1575566897663","638","-0.18847656","-0.98535156","0.09765625","5.125","1.8125","6.9375"
"1575566897663","639","-0.18554688","-0.99121094","0.09375","6.03125","0.84375","6.21875"
"1575566898058","640","-0.18457031","-0.9921875","0.09375","4.125","-0.1875","4.6875"
"1575566898059","641","-0.1875","-0.9707031","0.09375","4.6875","0.09375","4.5625"
"1575566898059","642","-0.19824219","-0.98046875","0.07714844","7.84375","-2.625","5.53125"
"1575566898059","643","-0.1875","-0.9873047","0.095703125","12.0","-5.09375","6.5625"
"1575566898060","644","-0.20898438","-0.9785156","0.12988281","4.8125","-0.3125","6.15625"
"1575566898060","645","-0.20703125","-1.0019531","0.10839844","7.84375","-3.25","5.46875"
"1575566898060","646","-0.23828125","-0.97558594","0.13085938","1.5","-4.46875","4.4375"
"1575566898060","647","-0.23535156","-0.953125","0.171875","1.28125","-4.46875","4.5625"
"1575566898061","648","-0.20117188","-0.9716797","0.12011719","5.46875","-2.15625","3.90625"
"1575566898061","649","-0.20703125","-0.9980469","0.13085938","6.5","-2.75","5.125"
"1575566898457","650","-0.22363281","-0.98535156","0.16503906","2.4375","-5.09375","4.125"
"1575566898458","651","-0.2421875","-0.97558594","0.1875","1.625","-5.75","4.125"
"1575566898458","652","-0.24707031","-0.97265625","0.171875","3.34375","-5.5","1.4375"
"1575566898458","653","-0.2548828","-0.96484375","0.20019531","-5.03125","-2.75","-1.34375"
"1575566898458","654","-0.26171875","-0.98535156","0.20507812","-10.4375","-2.59375","-3.625"
"1575566898459","655","-0.2626953","-1.0029297","0.1953125","-10.09375","-0.0625","-3.90625"
"1575566898459","656","-0.2841797","-0.97558594","0.18066406","-12.71875","2.25","-4.78125"
"1575566898459","657","-0.25390625","-0.9824219","0.17089844","-10.28125","2.5","-4.46875"
"1575566898459","658","-0.2685547","-0.98535156","0.16601562","-11.71875","6.09375","-6.0"
"1575566898460","659","-0.25097656","-0.9824219","0.1640625","-12.09375","7.96875","-6.84375"
"1575566898855","660","-0.23828125","-0.9824219","0.140625","-11.3125","7.625","-8.9375"
"1575566898856","661","-0.20800781","-1.0048828","0.12597656","-11.5625","9.5","-10.21875"
"1575566898857","662","-0.22265625","-0.984375","0.083984375","-9.34375","10.1875","-15.21875"
"1575566898857","663","-0.19726562","-0.96777344","0.11035156","-18.4375","13.34375","-15.59375"
"1575566898857","664","-0.18261719","-0.9658203","0.061523438","-11.0625","9.1875","-12.40625"
"1575566898858","665","-0.1484375","-1.0029297","0.041015625","-9.59375","7.4375","-13.4375"
"1575566898858","666","-0.14355469","-1.0048828","0.033203125","-12.34375","7.84375","-15.6875"
"1575566898858","667","-0.11816406","-0.9746094","0.043945312","-15.625","8.21875","-15.625"
"1575566898859","668","-0.115234375","-0.984375","0.005859375","-12.28125","6.40625","-16.375"
"1575566898859","669","-0.09667969","-0.99121094","0.0029296875","-14.0625","5.53125","-15.9375"
"1575566899252","670","-0.109375","-0.99316406","-0.0107421875","-15.15625","3.34375","-16.375"
"1575566899253","671","-0.1015625","-0.98828125","-0.0234375","-13.6875","2.84375","-16.0"
"1575566899253","672","-0.083984375","-0.98535156","-0.03125","-12.71875","5.28125","-15.75"
"1575566899254","673","-0.076171875","-1.0039062","-0.038085938","-14.46875","5.46875","-14.34375"
"1575566899255","674","-0.076171875","-0.984375","-0.059570312","-13.6875","5.28125","-14.78125"
"1575566899256","675","-0.029296875","-0.98339844","-0.0703125","-10.5","6.40625","-11.6875"
"1575566899256","676","-0.016601562","-0.9892578","-0.07324219","-13.1875","6.15625","-10.5625"
"1575566899257","677","-0.018554688","-1.0","-0.07910156","-14.40625","2.59375","-9.15625"
"1575566899257","678","-0.021484375","-0.99902344","-0.091796875","-9.90625","6.09375","-8.875"
"1575566899257","679","-0.013671875","-0.97558594","-0.09277344","-10.5625","4.625","-8.375"
"1575566899649","680","-0.00390625","-0.9707031","-0.125","-3.5625","3.71875","-6.4375"
"1575566899650","681","0.0107421875","-1.0107422","-0.12011719","-8.25","6.9375","-6.125"
"1575566899650","682","0.022460938","-0.95410156","-0.10644531","-10.09375","9.09375","-6.3125"
"1575566899650","683","0.036132812","-0.9589844","-0.123046875","-2.8125","6.28125","-4.71875"
"1575566899651","684","0.048828125","-1.015625","-0.13476562","-1.25","-0.5625","0.0"
"1575566899651","685","0.03125","-0.9667969","-0.13085938","-1.65625","-0.5625","0.0"
"1575566899651","686","0.030273438","-0.97753906","-0.13183594","4.375","-1.25","0.0"
"1575566899652","687","0.009765625","-0.9941406","-0.123046875","4.5","-1.0625","0.40625"
"1575566899652","688","0.005859375","-0.99609375","-0.123046875","5.71875","-0.375","0.09375"
"1575566899652","689","0.022460938","-0.9921875","-0.107421875","4.0","2.1875","0.0"
"1575566900047","690","0.0146484375","-0.9951172","-0.103515625","4.0","2.1875","0.34375"
"1575566900047","691","-0.0087890625","-1.0068359","-0.10644531","3.21875","3.03125","-0.1875"
"1575566900047","692","0.0048828125","-0.9794922","-0.107421875","3.59375","3.34375","0.65625"
"1575566900048","693","-0.0087890625","-0.98046875","-0.09765625","3.90625","4.75","2.0"
"1575566900048","694","0.01953125","-0.9892578","-0.06933594","1.6875","7.25","4.125"
"1575566900048","695","-0.022460938","-1.0029297","-0.06347656","1.375","6.03125","3.03125"
"1575566900048","696","-9.765625E-4","-0.99316406","-0.08886719","4.6875","2.4375","2.96875"
"1575566900049","697","-0.025390625","-0.98828125","-0.064453125","6.28125","2.90625","4.25"
"1575566900049","698","-0.020507812","-1.0205078","-0.053710938","4.0","1.8125","2.5"
"1575566900049","699","-0.03125","-0.98339844","-0.0546875","5.34375","0.78125","5.90625"
"1575566900444","700","-0.01171875","-0.99121094","-0.040039062","7.90625","2.84375","6.6875"
"1575566900445","701","-0.06933594","-1.0068359","-0.044921875","4.6875","0.15625","7.25"
"1575566900445","702","-0.036132812","-0.97753906","-0.04296875","7.90625","3.53125","8.15625"
"1575566900445","703","-0.051757812","-1.0068359","-0.024414062","7.375","1.6875","9.6875"
"1575566900446","704","-0.0546875","-1.0019531","-0.026367188","8.15625","1.8125","8.84375"
"1575566900446","705","-0.06347656","-0.99316406","-0.005859375","6.5625","1.75","8.59375"
"1575566900446","706","-0.07519531","-1.0","-0.00390625","7.8125","0.28125","7.375"
"1575566900446","707","-0.08984375","-0.99902344","0.001953125","6.28125","-1.0625","6.9375"
"1575566900447","708","-0.099609375","-1.0029297","0.0068359375","7.0625","-1.53125","7.125"
"1575566900447","709","-0.13964844","-0.9628906","-0.0048828125","5.96875","-1.65625","6.5625"
"1575566900842","710","-0.10644531","-0.9746094","0.030273438","10.71875","6.09375","10.84375"
"1575566900843","711","-0.12207031","-0.984375","0.015625","11.53125","6.46875","11.03125"
"1575566900843","712","-0.10546875","-1.0195312","0.021484375","14.09375","2.84375","12.25"
"1575566900843","713","-0.13964844","-1.0146484","0.064453125","8.34375","1.3125","10.59375"
"1575566900844","714","-0.17285156","-0.97558594","0.10058594","3.34375","2.1875","8.03125"
"1575566900844","715","-0.19140625","-0.984375","0.080078125","9.6875","1.625","7.0"
"1575566900844","716","-0.16015625","-0.98535156","0.08496094","7.5","4.875","8.28125"
"1575566900845","717","-0.1640625","-0.9824219","0.072265625","8.71875","2.5625","8.03125"
"1575566900845","718","-0.16894531","-0.9873047","0.083984375","7.5625","3.09375","9.125"
"1575566900845","719","-0.16210938","-0.9951172","0.07714844","11.65625","-0.1875","10.46875"
"1575566901635","720","-0.20605469","-0.96875","0.12109375","7.8125","0.46875","9.6875"
"1575566901637","721","-0.19140625","-0.9609375","0.10253906","11.09375","-0.625","8.59375"
"1575566901637","722","-0.21386719","-0.97753906","0.14160156","7.1875","-1.1875","9.375"
"1575566901637","723","-0.2109375","-0.9746094","0.14257812","3.9375","-4.34375","8.15625"
"1575566901638","724","-0.21972656","-0.9892578","0.12597656","5.46875","-9.96875","8.15625"
"1575566901638","725","-0.22070312","-0.9589844","0.14648438","2.71875","-8.5625","8.03125"
"1575566901638","726","-0.23046875","-0.98046875","0.140625","4.3125","-4.84375","5.78125"
"1575566901639","727","-0.24902344","-0.9746094","0.1796875","-0.5","-6.59375","3.53125"
"1575566901639","728","-0.27539062","-1.0058594","0.14160156","4.1875","-10.03125","2.25"
"1575566901639","729","-0.2578125","-0.97558594","0.17285156","1.5625","-5.5625","2.25"
"1575566901833","730","-0.2607422","-0.95703125","0.17578125","1.375","-3.375","2.65625"
"1575566901833","731","-0.24804688","-0.9716797","0.18359375","2.0625","-2.28125","1.75"
"1575566901833","732","-0.25585938","-0.9736328","0.19238281","-0.6875","-1.25","1.6875"
"1575566901835","733","-0.24316406","-0.9785156","0.19335938","-1.3125","-0.25","0.09375"
"1575566901835","734","-0.26464844","-0.96875","0.22265625","-7.78125","0.59375","-2.875"
"1575566901836","735","-0.25976562","-0.97558594","0.20605469","-10.40625","0.34375","-5.21875"
"1575566901836","736","-0.27148438","-0.99316406","0.20019531","-14.90625","3.15625","-7.875"
"1575566901836","737","-0.23828125","-0.98339844","0.17675781","-11.71875","2.1875","-5.75"
"1575566901836","738","-0.24902344","-0.9550781","0.16699219","-13.0625","2.375","-7.40625"
"1575566901837","739","-0.23730469","-0.96777344","0.14257812","-10.875","4.625","-7.8125"
"1575566902034","740","-0.22949219","-0.97558594","0.1328125","-11.625","7.84375","-9.34375"
"1575566902034","741","-0.21777344","-0.9589844","0.09472656","-9.40625","5.59375","-10.75"
"1575566902034","742","-0.20214844","-0.9902344","0.10839844","-11.84375","10.78125","-12.90625"
"1575566902035","743","-0.17773438","-0.98046875","0.08984375","-11.71875","8.65625","-12.90625"
"1575566902035","744","-0.16992188","-0.9902344","0.052734375","-8.875","5.0625","-12.46875"
"1575566902036","745","-0.18554688","-0.9892578","0.07519531","-14.53125","7.84375","-12.59375"
"1575566902036","746","-0.16308594","-0.9746094","0.08496094","-15.53125","11.46875","-15.21875"
"1575566902037","747","-0.16210938","-0.9951172","0.013671875","-9.15625","9.625","-15.9375"
"1575566902037","748","-0.12109375","-1.0068359","0.052734375","-19.96875","15.0","-13.625"
"1575566902037","749","-0.11621094","-0.9580078","0.024414062","-13.125","9.1875","-17.28125"
"1575566902433","750","-0.119140625","-0.99609375","-0.0107421875","-10.34375","7.96875","-14.53125"
"1575566902434","751","-0.076171875","-0.99316406","0.01171875","-14.96875","7.75","-13.3125"
"1575566902434","752","-0.10839844","-1.0009766","-0.0078125","-15.6875","8.09375","-16.8125"
"1575566902434","753","-0.08300781","-1.0126953","-0.030273438","-14.84375","6.75","-16.125"
"1575566902434","754","-0.08105469","-1.0166016","-0.01171875","-19.4375","7.0625","-15.34375"
"1575566902435","755","-0.06347656","-0.9814453","-0.06640625","-14.0","4.25","-16.0"
"1575566902435","756","-0.009765625","-1.0019531","-0.05859375","-15.59375","1.75","-11.71875"
"1575566902436","757","0.005859375","-0.9785156","-0.09277344","-11.5","-1.53125","-11.375"
"1575566902437","758","-0.025390625","-0.9707031","-0.083984375","-12.21875","-4.03125","-10.28125"
"1575566902437","759","-0.0146484375","-0.9736328","-0.095703125","-7.46875","-2.8125","-7.21875"
"1575566903225","760","9.765625E-4","-0.99316406","-0.109375","-6.96875","-2.46875","-5.625"
"1575566903225","761","-0.0146484375","-0.9892578","-0.115234375","-6.25","-3.3125","-5.03125"
"1575566903226","762","-0.018554688","-0.9667969","-0.10839844","-3.3125","-0.6875","-3.96875"
"1575566903226","763","0.0048828125","-0.9863281","-0.11425781","-3.5","0.46875","-1.3125"
"1575566903226","764","0.0126953125","-0.9794922","-0.119140625","-0.0625","-0.75","-0.5625"
"1575566903227","765","0.0029296875","-0.98828125","-0.12597656","1.5625","-1.59375","0.28125"
"1575566903227","766","0.0068359375","-0.99316406","-0.123046875","2.3125","-0.9375","1.5625"
"1575566903227","767","-0.00390625","-0.9902344","-0.10644531","2.5","0.46875","0.84375"
"1575566903227","768","-0.001953125","-0.99902344","-0.109375","4.0","0.28125","1.375"
"1575566903229","769","-0.013671875","-0.99121094","-0.10058594","2.84375","2.65625","0.65625"
"1575566903423","770","-0.01171875","-1.0048828","-0.10546875","2.96875","3.90625","0.71875"
"1575566903423","771","-0.0078125","-0.9941406","-0.099609375","2.25","4.8125","0.46875"
"1575566903423","772","-0.025390625","-0.9824219","-0.1171875","5.21875","7.625","-1.0"
"1575566903424","773","0.00390625","-0.9980469","-0.07519531","0.15625","6.03125","0.0"
"1575566903424","774","0.01171875","-0.9814453","-0.095703125","4.875","4.5625","0.84375"
"1575566903424","775","-0.0048828125","-1.0078125","-0.09375","6.34375","3.34375","2.0"
"1575566903424","776","-0.03125","-0.9746094","-0.07519531","3.34375","3.71875","1.4375"
"1575566903425","777","-0.0029296875","-1.0058594","-0.080078125","6.34375","4.3125","3.90625"
"1575566903425","778","-0.025390625","-1.0126953","-0.07519531","4.0","1.5","3.34375"
"1575566903425","779","-0.022460938","-1.0048828","-0.055664062","2.78125","2.5625","4.3125"
"1575566903623","780","-0.037109375","-0.9921875","-0.060546875","5.28125","-0.4375","3.90625"
"1575566903624","781","-0.045898438","-0.9980469","-0.04296875","4.125","-0.3125","4.25"
"1575566903625","782","-0.047851562","-0.9951172","-0.043945312","3.59375","-1.46875","4.5625"
"1575566903625","783","-0.061523438","-0.97753906","-0.038085938","5.0625","-1.0","5.78125"
"1575566903625","784","-0.059570312","-0.99609375","-0.0234375","6.28125","1.3125","7.5"
"1575566903626","785","-0.061523438","-1.0068359","-0.018554688","5.21875","1.3125","7.625"
"1575566903626","786","-0.080078125","-0.9941406","-0.020507812","6.34375","1.875","8.71875"
"1575566903626","787","-0.08691406","-0.984375","0.01953125","5.46875","2.3125","7.8125"
"1575566903626","788","-0.109375","-0.9980469","0.0234375","6.15625","3.40625","8.46875"
"1575566903627","789","-0.12597656","-0.9814453","0.029296875","6.6875","1.625","6.9375"
"1575566904022","790","-0.10546875","-1.0019531","0.0087890625","11.53125","-1.125","8.46875"
"1575566904022","791","-0.09277344","-0.9892578","0.030273438","8.84375","0.0","8.46875"
"1575566904022","792","-0.12695312","-0.9951172","0.025390625","9.875","-3.3125","8.15625"
"1575566904023","793","-0.14355469","-1.0068359","0.040039062","11.46875","-1.84375","8.71875"
"1575566904024","794","-0.16894531","-0.97558594","0.07421875","8.15625","2.65625","8.46875"
"1575566904024","795","-0.15234375","-0.98046875","0.064453125","12.9375","2.375","8.34375"
"1575566904024","796","-0.15332031","-0.99316406","0.064453125","10.46875","4.125","10.1875"
"1575566904025","797","-0.15332031","-0.984375","0.07421875","7.375","4.0","11.15625"
"1575566904025","798","-0.17578125","-0.99609375","0.103515625","7.125","4.6875","10.25"
"1575566904025","799","-0.18457031","-0.98535156","0.095703125","10.59375","1.3125","8.15625"
"1575566904420","800","-0.1875","-0.984375","0.10449219","11.15625","1.21875","8.90625"
"1575566904420","801","-0.19824219","-0.97753906","0.12695312","9.03125","3.21875","8.46875"
"1575566904420","802","-0.1953125","-0.9863281","0.14160156","7.8125","5.40625","8.90625"
"1575566904421","803","-0.21484375","-0.98828125","0.125","8.03125","8.15625","6.21875"
"1575566904421","804","-0.20800781","-0.9765625","0.13867188","3.65625","5.40625","5.34375"
"1575566904423","805","-0.20703125","-0.9951172","0.11816406","4.9375","0.84375","5.90625"
"1575566904423","806","-0.22070312","-0.9794922","0.1484375","3.15625","-0.5625","5.90625"
"1575566904423","807","-0.23730469","-0.96191406","0.14355469","2.90625","-1.25","3.21875"
"1575566904424","808","-0.23242188","-0.97265625","0.14746094","1.3125","-1.96875","2.78125"
"1575566904424","809","-0.2421875","-0.98828125","0.15429688","-1.0","-2.40625","2.84375"
"1575566904817","810","-0.25683594","-0.9863281","0.16992188","-5.25","-2.8125","2.0"
"1575566904818","811","-0.2626953","-0.984375","0.17773438","-6.3125","-4.28125","0.84375"
"1575566904818","812","-0.26953125","-0.9873047","0.17089844","-7.28125","-1.3125","-1.3125"
"1575566904818","813","-0.27539062","-0.9941406","0.17285156","-9.65625","2.84375","-4.03125"
"1575566904818","814","-0.26464844","-0.9892578","0.16308594","-9.71875","2.3125","-4.34375"
"1575566904819","815","-0.24121094","-0.99902344","0.16796875","-9.71875","0.65625","-4.09375"
"1575566904819","816","-0.2705078","-0.9921875","0.17480469","-13.375","3.59375","-7.71875"
"1575566904820","817","-0.203125","-1.0009766","0.14160156","-10.75","0.65625","-7.40625"
"1575566904820","818","-0.24609375","-0.9580078","0.1171875","-10.8125","-2.875","-11.625"
"1575566904820","819","-0.20996094","-0.9707031","0.12792969","-11.25","-2.28125","-13.1875"
"1575566905215","820","-0.20410156","-0.9785156","0.07421875","-9.59375","-1.0625","-16.0"
"1575566905215","821","-0.15820312","-1.0097656","0.057617188","-8.875","1.9375","-14.90625"
"1575566905216","822","-0.20214844","-0.97265625","0.060546875","-10.8125","2.1875","-13.1875"
"1575566905216","823","-0.16796875","-0.96972656","0.068359375","-9.53125","4.9375","-12.53125"
"1575566905216","824","-0.14941406","-0.99121094","0.026367188","-7.59375","5.84375","-11.625"
"1575566905216","825","-0.12597656","-0.98046875","0.044921875","-11.5","8.96875","-11.625"
"1575566905217","826","-0.11621094","-0.9951172","0.0107421875","-6.71875","3.84375","-11.96875"
"1575566905217","827","-0.12011719","-1.0009766","0.026367188","-12.40625","5.0625","-11.4375"
"1575566905217","828","-0.08691406","-0.984375","0.017578125","-10.5625","5.71875","-11.96875"
"1575566905219","829","-0.09863281","-1.0009766","-0.0048828125","-9.125","3.40625","-12.34375"
"1575566905611","830","-0.083984375","-1.0068359","9.765625E-4","-12.59375","5.1875","-10.875"
"1575566905611","831","-0.08496094","-0.9951172","-0.001953125","-14.25","4.625","-13.5"
"1575566905611","832","-0.08300781","-1.0009766","-0.029296875","-10.40625","3.9375","-13.5625"
"1575566905612","833","-0.07421875","-0.98535156","-0.01953125","-16.125","3.15625","-13.125"
"1575566905612","834","-0.076171875","-1.0019531","-0.029296875","-13.5625","4.0625","-12.84375"
"1575566905612","835","-0.045898438","-0.9863281","-0.0107421875","-16.25","6.21875","-14.0625"
"1575566905612","836","-0.033203125","-1.0048828","-0.06542969","-8.0","1.625","-12.90625"
"1575566905613","837","-0.045898438","-1.0195312","-0.055664062","-15.15625","2.84375","-12.78125"
"1575566905613","838","-0.044921875","-0.98535156","-0.059570312","-14.0625","4.625","-12.28125"
"1575566905613","839","-0.049804688","-0.99609375","-0.080078125","-12.15625","8.15625","-11.375"
"1575566906010","840","-0.005859375","-0.9941406","-0.08203125","-13.5625","7.75","-9.0625"
"1575566906010","841","-0.024414062","-0.99609375","-0.09277344","-10.15625","8.65625","-8.4375"
"1575566906010","842","0.018554688","-0.98339844","-0.1171875","-6.65625","6.875","-6.0"
"1575566906011","843","0.022460938","-0.9667969","-0.12109375","-6.53125","7.5","-2.46875"
"1575566906011","844","0.05078125","-0.9765625","-0.12402344","-3.3125","6.625","0.0"
"1575566906011","845","0.028320312","-0.9873047","-0.125","-1.34375","0.78125","2.1875"
"1575566906012","846","0.017578125","-0.97753906","-0.12402344","-0.75","-1.53125","3.53125"
"1575566906012","847","0.01953125","-0.96875","-0.1328125","1.3125","0.03125","5.0"
"1575566906012","848","0.0078125","-0.9921875","-0.1328125","-0.125","-0.0625","5.53125"
"1575566906012","849","-0.0146484375","-1.0009766","-0.13183594","3.90625","1.5625","6.46875"
"1575566906407","850","-0.029296875","-1.0","-0.11621094","2.0","2.65625","6.6875"
"1575566906407","851","-0.018554688","-0.9863281","-0.12011719","4.8125","4.8125","6.46875"
"1575566906407","852","-0.01953125","-1.0048828","-0.111328125","3.71875","5.90625","5.46875"
"1575566906409","853","-0.049804688","-1.0136719","-0.10253906","5.40625","5.59375","4.5625"
"1575566906409","854","-0.052734375","-1.0117188","-0.09375","4.1875","4.8125","4.0"
"1575566906409","855","-0.060546875","-1.0117188","-0.068359375","0.53125","5.46875","2.65625"
"1575566906410","856","-0.06738281","-1.0048828","-0.0625","-2.53125","4.625","-1.34375"
"1575566906410","857","-0.059570312","-1.0087891","-0.07324219","-1.0625","1.3125","-1.0"
"1575566906410","858","-0.06933594","-1.0107422","-0.072265625","-3.75","0.84375","-2.28125"
"1575566906410","859","-0.0390625","-0.9970703","-0.07324219","-3.1875","-0.625","-4.21875"
