"# PR data"
"# Start time: 20191205T182051"
"# Subject: ron"
"# Activity type: Heel raises"
"# Correctness: Correct"
"# Notes: "
""
"timestamp","seq","accel_x","accel_y","accel_z","gyro_x","gyro_y","gyro_z"
"1575566451269","0","0.09863281","-1.0332031","-0.15039062","-1.65625","23.1875","6.875"
"1575566451270","1","0.060546875","-1.0","-0.14257812","-1.1875","18.90625","3.65625"
"1575566451271","2","0.12011719","-1.0332031","-0.16308594","1.4375","17.0625","-1.1875"
"1575566451271","3","0.08203125","-1.0078125","-0.19238281","-1.0","5.59375","-3.6875"
"1575566451271","4","0.03515625","-0.94921875","-0.13378906","-4.40625","3.40625","-0.3125"
"1575566451272","5","0.037109375","-0.93847656","-0.16015625","5.90625","5.90625","1.4375"
"1575566451272","6","0.033203125","-1.0273438","-0.16015625","8.03125","6.34375","3.21875"
"1575566451272","7","0.032226562","-1.0195312","-0.18359375","8.59375","4.125","6.03125"
"1575566451272","8","0.07714844","-0.99609375","-0.1796875","1.28125","-1.40625","4.375"
"1575566451273","9","0.111328125","-0.96484375","-0.16015625","1.03125","-8.0","0.78125"
"1575566451666","10","0.09765625","-1.0351562","-0.15332031","-1.71875","-16.5625","-3.6875"
"1575566451667","11","0.03515625","-1.0273438","-0.115234375","1.75","-21.8125","-1.84375"
"1575566451667","12","0.02734375","-0.98046875","-0.13476562","6.09375","-23.15625","3.09375"
"1575566451668","13","0.07519531","-0.9970703","-0.1171875","7.5625","-23.09375","2.90625"
"1575566451669","14","0.06347656","-0.9873047","-0.078125","9.625","-32.78125","4.6875"
"1575566451671","15","0.0234375","-0.9970703","-0.07519531","13.34375","-34.0","6.21875"
"1575566451672","16","0.0146484375","-1.0087891","-0.09472656","14.21875","-32.375","8.59375"
"1575566451672","17","0.013671875","-0.9951172","-0.083984375","8.84375","-25.46875","7.375"
"1575566451672","18","0.028320312","-0.9951172","-0.015625","7.4375","-24.0","7.5"
"1575566451673","19","0.00390625","-0.98339844","-0.03125","12.125","-27.3125","9.8125"
"1575566452459","20","0.013671875","-0.99609375","-0.028320312","12.0","-26.125","11.28125"
"1575566452460","21","-0.005859375","-1.0117188","0.0048828125","7.0625","-26.8125","9.5"
"1575566452460","22","-0.015625","-1.0009766","0.033203125","8.28125","-24.75","6.03125"
"1575566452460","23","-0.087890625","-1.0009766","0.064453125","0.46875","-21.0625","4.6875"
"1575566452461","24","-0.10253906","-1.0048828","0.083984375","2.3125","-11.90625","-0.375"
"1575566452461","25","-0.12402344","-1.0322266","0.080078125","6.03125","-6.84375","-0.4375"
"1575566452461","26","-0.07714844","-0.99609375","0.091796875","7.0625","-1.90625","1.3125"
"1575566452462","27","-0.049804688","-0.96191406","0.11230469","5.90625","6.03125","5.125"
"1575566452462","28","-0.021484375","-0.9921875","0.1171875","13.71875","9.5","7.90625"
"1575566452462","29","-0.015625","-0.9580078","0.091796875","15.0625","4.0","12.75"
"1575566452658","30","-0.03125","-0.97265625","0.099609375","18.125","-0.3125","21.46875"
"1575566452658","31","-0.05859375","-0.9892578","0.115234375","20.5625","-1.53125","26.53125"
"1575566452658","32","-0.09082031","-0.9716797","0.099609375","22.8125","2.3125","29.59375"
"1575566452658","33","-0.06640625","-0.98828125","0.111328125","23.25","5.78125","32.34375"
"1575566452659","34","-0.10644531","-0.98046875","0.16015625","11.28125","13.03125","29.28125"
"1575566452659","35","-0.13574219","-1.0332031","0.16113281","7.375","20.0625","25.75"
"1575566452659","36","-0.17578125","-1.0576172","0.09375","4.375","25.1875","20.8125"
"1575566452660","37","-0.19726562","-1.0263672","0.1328125","-10.03125","29.78125","18.53125"
"1575566452660","38","-0.22070312","-1.0117188","0.083984375","1.6875","23.0","18.0625"
"1575566452660","39","-0.24609375","-0.953125","0.08300781","-1.90625","27.4375","13.28125"
"1575566452859","40","-0.2734375","-0.88378906","0.103515625","5.125","34.28125","15.1875"
"1575566452859","41","-0.28222656","-0.9453125","0.06347656","8.46875","31.96875","17.1875"
"1575566452859","42","-0.2705078","-1.0029297","-0.005859375","4.0625","26.71875","10.90625"
"1575566452860","43","-0.15429688","-1.0556641","-0.018554688","-1.71875","16.84375","3.78125"
"1575566452860","44","-0.17089844","-0.9707031","-0.0048828125","-4.46875","-9.46875","-1.84375"
"1575566452860","45","-0.23046875","-0.8652344","0.033203125","-6.71875","-21.375","-3.25"
"1575566452860","46","-0.26757812","-0.9394531","-0.013671875","4.3125","-15.09375","-4.46875"
"1575566452861","47","-0.34472656","-1.109375","0.044921875","-6.53125","-3.3125","-8.75"
"1575566452861","48","-0.32421875","-1.0175781","0.048828125","-5.09375","-3.75","-10.6875"
"1575566452861","49","-0.2783203","-0.9794922","0.034179688","-12.03125","2.71875","-12.90625"
"1575566453256","50","-0.2529297","-1.0439453","0.0625","-6.4375","5.0","-8.6875"
"1575566453259","51","-0.27929688","-1.0371094","0.11230469","-8.8125","-2.03125","-4.71875"
"1575566453260","52","-0.31835938","-0.96191406","0.10449219","-3.4375","-9.46875","1.625"
"1575566453260","53","-0.27148438","-0.8730469","0.111328125","-5.09375","-7.8125","7.6875"
"1575566453260","54","-0.2607422","-0.8417969","0.08203125","-5.625","-3.75","7.5"
"1575566453260","55","-0.24707031","-0.83691406","0.09082031","-11.90625","-6.96875","1.875"
"1575566453261","56","-0.26171875","-0.83496094","0.11328125","-14.84375","-6.3125","0.28125"
"1575566453261","57","-0.35058594","-0.9667969","0.07714844","-3.875","-1.78125","1.875"
"1575566453261","58","-0.29589844","-1.0830078","0.036132812","4.9375","-5.09375","10.71875"
"1575566453261","59","-0.24023438","-0.9277344","0.053710938","-3.6875","-19.25","6.03125"
"1575566453654","60","-0.23925781","-0.9638672","0.068359375","1.5","-23.03125","12.0625"
"1575566453656","61","-0.27929688","-1.0166016","0.05078125","12.0","-36.15625","18.40625"
"1575566453657","62","-0.25","-0.9667969","0.06347656","3.84375","-45.375","22.09375"
"1575566453657","63","-0.2998047","-0.91796875","0.09863281","-8.5625","-45.3125","21.28125"
"1575566453657","64","-0.30273438","-0.9628906","0.11230469","-9.84375","-47.3125","24.34375"
"1575566453657","65","-0.33398438","-0.9736328","0.13085938","-8.75","-49.875","21.15625"
"1575566453658","66","-0.3232422","-0.9423828","0.15625","-9.34375","-43.40625","15.5"
"1575566453658","67","-0.34765625","-0.9238281","0.16015625","-1.90625","-33.65625","12.5"
"1575566453658","68","-0.36328125","-0.953125","0.17480469","-3.96875","-18.3125","6.03125"
"1575566453658","69","-0.32714844","-0.96875","0.16796875","-0.9375","-4.59375","-0.9375"
"1575566454052","70","-0.28320312","-0.9746094","0.19238281","-3.25","6.15625","-9.84375"
"1575566454052","71","-0.28222656","-0.92578125","0.15820312","3.09375","8.59375","-18.375"
"1575566454053","72","-0.29589844","-0.92285156","0.20605469","-4.34375","24.09375","-22.59375"
"1575566454054","73","-0.26757812","-0.94628906","0.17773438","0.71875","41.1875","-25.84375"
"1575566454054","74","-0.22265625","-0.96777344","0.17382812","-2.625","47.46875","-26.8125"
"1575566454054","75","-0.23925781","-0.89746094","0.20898438","-3.875","55.09375","-26.8125"
"1575566454055","76","-0.23242188","-0.92089844","0.20410156","7.5","57.125","-22.0"
"1575566454055","77","-0.28222656","-0.9394531","0.14355469","10.71875","58.53125","-15.875"
"1575566454055","78","-0.33203125","-0.91015625","0.08691406","15.0625","55.84375","-10.625"
"1575566454055","79","-0.32421875","-0.9355469","0.040039062","25.75","66.9375","-7.09375"
"1575566454448","80","-0.2109375","-0.9707031","-0.0126953125","29.09375","60.15625","-11.375"
"1575566454449","81","-0.12011719","-1.0527344","-0.037109375","26.28125","35.5","-17.90625"
"1575566454450","82","-0.09863281","-1.0585938","-0.005859375","4.4375","5.34375","-21.25"
"1575566454450","83","-0.20996094","-0.98535156","-0.021484375","8.78125","-24.0625","-16.6875"
"1575566454450","84","-0.34960938","-0.97753906","0.056640625","10.125","-22.40625","-6.78125"
"1575566454450","85","-0.3154297","-0.93066406","0.08300781","11.34375","-13.6875","-3.0625"
"1575566454451","86","-0.17773438","-0.9404297","0.16308594","5.40625","-17.78125","0.84375"
"1575566454451","87","-0.203125","-1.0019531","0.030273438","11.65625","-23.5","-3.3125"
"1575566454453","88","-0.24023438","-1.0458984","0.103515625","-13.75","-21.4375","0.65625"
"1575566454453","89","-0.08300781","-0.99121094","0.19238281","-14.65625","-31.375","2.84375"
"1575566454847","90","-0.09082031","-0.9355469","0.25390625","-12.28125","-37.3125","3.09375"
"1575566454848","91","-0.234375","-0.953125","0.22167969","-9.90625","-26.375","7.5"
"1575566454848","92","-0.21386719","-1.0361328","0.19042969","-7.15625","-8.5","10.46875"
"1575566454848","93","-0.11621094","-1.0644531","0.16210938","-11.0","0.46875","2.84375"
"1575566454848","94","-0.09472656","-0.9326172","0.19726562","-19.90625","-1.65625","2.5"
"1575566454849","95","-0.12597656","-0.8652344","0.24023438","-19.59375","0.65625","7.90625"
"1575566454849","96","-0.17285156","-0.984375","0.1953125","0.65625","9.8125","9.6875"
"1575566454850","97","-0.21191406","-1.0576172","0.12402344","-6.96875","10.78125","5.53125"
"1575566454851","98","-0.25585938","-0.95214844","0.107421875","-12.78125","14.875","1.5625"
"1575566454851","99","-0.2998047","-0.8613281","0.15625","-9.46875","24.40625","6.28125"
"1575566455246","100","-0.34277344","-0.91308594","0.07519531","16.40625","29.78125","13.15625"
"1575566455247","101","-0.22753906","-1.0253906","0.001953125","5.34375","27.15625","5.125"
"1575566455247","102","-0.16894531","-1.0595703","0.03125","-7.59375","12.5625","-5.8125"
"1575566455247","103","-0.20507812","-1.0195312","0.033203125","-14.96875","-11.375","-14.0625"
"1575566455247","104","-0.30566406","-0.82910156","0.036132812","-7.71875","-25.71875","-9.34375"
"1575566455248","105","-0.38867188","-0.8095703","0.017578125","10.1875","-15.9375","1.6875"
"1575566455248","106","-0.3857422","-0.9736328","0.040039062","6.34375","1.09375","5.59375"
"1575566455248","107","-0.24121094","-1.0566406","0.07324219","0.0","1.6875","-0.875"
"1575566455248","108","-0.16308594","-0.9873047","0.10644531","-3.125","-10.40625","-15.875"
"1575566455250","109","-0.234375","-0.91308594","0.11230469","-3.375","-19.78125","-12.46875"
"1575566455641","110","-0.28515625","-0.96972656","0.099609375","-2.46875","-14.96875","-6.4375"
"1575566455641","111","-0.22265625","-1.0439453","0.11230469","-0.375","-4.96875","-12.21875"
"1575566455642","112","-0.19628906","-1.0371094","0.115234375","-5.4375","-1.40625","-19.1875"
"1575566455642","113","-0.16113281","-1.0","0.13476562","-10.625","4.75","-18.5625"
"1575566455643","114","-0.11621094","-0.9873047","0.16308594","-14.96875","10.3125","-16.3125"
"1575566455643","115","-0.14941406","-0.98535156","0.11816406","-8.0","12.0","-14.84375"
"1575566455643","116","-0.10546875","-1.0019531","0.125","-11.25","5.84375","-14.65625"
"1575566455643","117","-0.072265625","-1.0488281","0.10058594","-10.625","2.84375","-10.21875"
"1575566455644","118","-0.047851562","-0.96484375","0.17675781","-18.3125","13.0","-11.3125"
"1575566455644","119","-0.109375","-0.92285156","0.12402344","-8.0","19.28125","-5.21875"
"1575566456435","120","-0.0546875","-0.9736328","0.109375","-5.375","18.65625","-4.90625"
"1575566456436","121","-0.05859375","-1.0224609","0.076171875","-3.90625","11.75","0.53125"
"1575566456436","122","-0.103515625","-0.98046875","0.107421875","-2.53125","9.4375","-3.3125"
"1575566456437","123","-0.0625","-1.0029297","0.04296875","2.0","-2.40625","1.375"
"1575566456437","124","-0.12792969","-0.95996094","0.11035156","-10.40625","-1.0625","4.1875"
"1575566456438","125","-0.24023438","-0.9560547","0.08984375","1.4375","9.6875","2.78125"
"1575566456438","126","-0.24707031","-0.9736328","0.026367188","8.84375","18.96875","6.8125"
"1575566456438","127","-0.25976562","-0.9326172","-0.00390625","9.03125","24.28125","12.0625"
"1575566456439","128","-0.21679688","-1.0117188","-0.09863281","13.03125","29.65625","11.03125"
"1575566456439","129","-0.020507812","-1.1767578","-0.10839844","2.1875","19.5625","2.25"
"1575566456633","130","-0.0703125","-0.9326172","-0.044921875","-15.625","-8.0","-3.96875"
"1575566456634","131","-0.20214844","-0.77734375","-0.021484375","-5.3125","-9.46875","-4.21875"
"1575566456634","132","-0.23632812","-0.95996094","0.017578125","5.21875","10.46875","2.1875"
"1575566456635","133","-0.140625","-1.1357422","-0.046875","17.6875","-4.96875","3.03125"
"1575566456635","134","-0.10839844","-1.0175781","-0.0146484375","-2.28125","-19.96875","-5.8125"
"1575566456636","135","-0.16699219","-0.9189453","0.07128906","1.5","-26.3125","-4.53125"
"1575566456636","136","-0.21289062","-0.98046875","0.099609375","-2.625","-24.4375","0.65625"
"1575566456636","137","-0.24414062","-1.0078125","0.06738281","5.71875","-14.78125","-5.375"
"1575566456637","138","-0.17089844","-1.0400391","0.10253906","4.875","-10.21875","-2.21875"
"1575566456637","139","-0.109375","-1.0185547","0.11425781","-4.15625","-21.625","0.65625"
"1575566456834","140","-0.12109375","-0.91308594","0.22265625","-10.9375","-13.125","1.15625"
"1575566456834","141","-0.15429688","-1.0107422","0.15722656","6.8125","3.21875","-2.28125"
"1575566456835","142","-0.0859375","-1.0751953","0.08496094","-2.21875","4.1875","-7.78125"
"1575566456835","143","-0.060546875","-0.9609375","0.14550781","-18.9375","-1.34375","-6.3125"
"1575566456835","144","-0.09765625","-0.9345703","0.15722656","-5.625","4.625","-5.75"
"1575566456837","145","-0.12695312","-1.0136719","0.10644531","-6.96875","-0.75","-5.6875"
"1575566456837","146","-0.1640625","-1.0390625","0.044921875","-11.5625","0.21875","-5.3125"
"1575566456837","147","-0.20800781","-0.99609375","0.07421875","-19.125","7.96875","-9.40625"
"1575566456837","148","-0.16503906","-0.95410156","0.024414062","-4.65625","21.15625","-9.0"
"1575566456838","149","-0.14160156","-1.0097656","0.0146484375","-13.25","23.96875","-1.65625"
"1575566457428","150","-0.15527344","-1.0244141","0.09277344","-25.65625","23.4375","1.6875"
"1575566457428","151","-0.055664062","-1.0341797","0.00390625","-8.3125","15.5","-3.6875"
"1575566457429","152","-0.09277344","-0.9404297","0.049804688","-17.90625","14.75","2.65625"
"1575566457429","153","-0.11230469","-0.89746094","0.0107421875","-6.53125","13.0","7.25"
"1575566457429","154","-0.115234375","-1.0166016","0.03125","-5.3125","13.0","9.8125"
"1575566457430","155","-0.17773438","-1.0683594","-0.087890625","2.1875","7.125","3.40625"
"1575566457430","156","-0.2529297","-0.9941406","-0.13085938","-6.90625","5.1875","3.40625"
"1575566457432","157","-0.19628906","-0.93066406","-0.13183594","-7.21875","3.84375","3.21875"
"1575566457432","158","-0.16210938","-0.9316406","-0.08300781","-5.21875","-0.0625","1.375"
"1575566457432","159","-0.19335938","-0.9824219","-0.07714844","0.40625","-2.9375","-0.6875"
"1575566457628","160","-0.20605469","-1.0195312","-0.11621094","5.96875","-3.4375","-2.28125"
"1575566457628","161","-0.16503906","-0.9736328","-0.12011719","2.84375","-4.96875","-2.6875"
"1575566457629","162","-0.10644531","-0.9765625","-0.016601562","-1.84375","-7.65625","-1.90625"
"1575566457629","163","-0.083984375","-0.9746094","0.028320312","2.59375","-9.71875","-3.875"
"1575566457629","164","-0.09082031","-1.0351562","0.034179688","13.21875","-10.40625","-0.125"
"1575566457630","165","-0.0703125","-1.0458984","0.033203125","5.40625","-7.09375","-4.21875"
"1575566457630","166","-0.059570312","-0.984375","0.026367188","4.1875","-5.5","-6.59375"
"1575566457630","167","-0.09472656","-0.9814453","0.016601562","0.59375","-3.0625","-2.03125"
"1575566457631","168","-0.12597656","-0.96972656","0.032226562","-4.15625","3.15625","-1.1875"
"1575566457631","169","-0.13183594","-1.0800781","-0.0048828125","5.125","8.28125","-2.53125"
"1575566458226","170","-0.056640625","-1.0273438","0.022460938","-1.40625","8.96875","-8.0625"
"1575566458226","171","-0.099609375","-0.9121094","0.030273438","-3.5625","4.0625","-4.59375"
"1575566458227","172","-0.125","-0.9716797","0.020507812","0.65625","3.71875","-0.1875"
"1575566458227","173","-0.095703125","-1.0263672","0.0234375","1.75","-3.90625","2.375"
"1575566458227","174","-0.15136719","-0.9980469","0.03125","0.84375","-4.71875","0.09375"
"1575566458228","175","-0.125","-0.9638672","0.0029296875","9.5","-7.59375","1.625"
"1575566458228","176","-0.111328125","-0.96777344","0.0087890625","5.40625","-8.1875","4.5625"
"1575566458228","177","-0.111328125","-1.0117188","0.03515625","6.40625","-8.125","5.46875"
"1575566458229","178","-0.15234375","-1.0332031","0.045898438","5.53125","-9.0625","4.6875"
"1575566458229","179","-0.18359375","-1.0087891","0.05078125","-1.96875","-2.6875","3.34375"
"1575566458424","180","-0.20703125","-0.9707031","0.068359375","-4.28125","2.3125","-0.5625"
"1575566458426","181","-0.19140625","-0.9746094","0.047851562","1.5","4.75","-0.4375"
"1575566458427","182","-0.17773438","-0.9951172","0.0234375","1.8125","1.4375","2.125"
"1575566458427","183","-0.1796875","-0.9560547","0.046875","-1.1875","4.0625","1.875"
"1575566458427","184","-0.1640625","-0.98046875","0.041992188","2.84375","6.46875","2.0"
"1575566458427","185","-0.15039062","-0.99902344","0.047851562","-1.96875","10.96875","1.75"
"1575566458428","186","-0.16796875","-1.0009766","0.061523438","1.375","13.0","0.71875"
"1575566458428","187","-0.14355469","-1.0400391","0.043945312","-1.71875","10.0","-1.84375"
"1575566458428","188","-0.16210938","-1.0039062","0.045898438","-9.125","5.71875","-4.78125"
"1575566458429","189","-0.20605469","-0.9609375","0.06933594","-8.1875","4.8125","-4.84375"
"1575566458822","190","-0.1953125","-0.9550781","0.051757812","1.4375","5.0625","-2.9375"
"1575566458823","191","-0.18359375","-0.96777344","0.052734375","-0.5","3.53125","-0.4375"
"1575566458823","192","-0.18066406","-0.9941406","0.05078125","1.75","6.46875","0.40625"
"1575566458824","193","-0.18847656","-0.9628906","0.046875","1.375","6.15625","0.0"
"1575566458825","194","-0.15722656","-1.0048828","0.0234375","7.8125","9.03125","2.5"
"1575566458825","195","-0.16210938","-1.0107422","0.009765625","0.84375","7.8125","2.0"
"1575566458825","196","-0.13671875","-0.9980469","0.015625","-0.125","9.3125","0.46875"
"1575566458826","197","-0.12792969","-0.9941406","0.0068359375","-0.625","6.28125","1.3125"
"1575566458826","198","-0.10546875","-0.98828125","0.020507812","-3.5625","5.53125","-1.0"
"1575566458826","199","-0.11816406","-1.0","0.013671875","-1.3125","1.4375","-2.28125"
"1575566459419","200","-0.10253906","-0.98535156","0.01953125","-1.0","-1.0625","-3.0"
"1575566459419","201","-0.1015625","-0.98828125","0.022460938","-1.25","-2.09375","-3.125"
"1575566459419","202","-0.09863281","-0.9921875","0.024414062","2.25","-4.84375","-3.75"
"1575566459420","203","-0.11230469","-0.9941406","0.026367188","-0.5","-6.4375","-3.625"
"1575566459420","204","-0.16113281","-0.9873047","0.033203125","0.84375","-7.71875","-3.375"
"1575566459421","205","-0.14941406","-0.9902344","0.05078125","0.90625","-5.6875","-0.8125"
"1575566459422","206","-0.16796875","-0.9746094","0.060546875","-4.28125","-4.21875","0.65625"
"1575566459422","207","-0.16503906","-1.0029297","0.06347656","-5.25","1.28125","-0.9375"
"1575566459422","208","-0.15722656","-0.9794922","0.053710938","-7.46875","1.15625","-3.875"
"1575566459423","209","-0.13867188","-1.0019531","0.030273438","0.78125","2.90625","-1.1875"
"1575566459814","210","-0.13085938","-1.0107422","0.04296875","-1.125","4.5","-3.0"
"1575566459814","211","-0.13769531","-1.0439453","0.043945312","2.84375","4.8125","-5.21875"
"1575566459814","212","-0.12890625","-1.0722656","0.046875","-1.25","2.65625","-5.375"
"1575566459815","213","-0.14941406","-1.0771484","0.060546875","-4.09375","-1.0625","-5.4375"
"1575566459815","214","-0.17382812","-1.1103516","0.076171875","-1.46875","0.28125","-2.40625"
"1575566459815","215","-0.17675781","-1.1279297","0.06347656","4.9375","-0.375","1.3125"
"1575566459815","216","-0.16796875","-1.109375","0.064453125","1.03125","0.84375","4.6875"
"1575566459817","217","-0.20117188","-1.0527344","0.0546875","2.0","2.90625","5.21875"
"1575566459817","218","-0.20019531","-0.99121094","0.041015625","-2.28125","7.84375","5.46875"
"1575566459817","219","-0.14355469","-0.9189453","0.041015625","-6.375","8.21875","3.34375"
"1575566460013","220","-0.109375","-0.8154297","0.0078125","-10.4375","6.15625","-2.40625"
"1575566460014","221","-0.12890625","-0.6582031","0.025390625","-15.9375","1.9375","-4.15625"
"1575566460014","222","-0.17089844","-0.6855469","0.08105469","-8.125","9.3125","-3.1875"
"1575566460014","223","-0.16503906","-0.9453125","0.060546875","7.90625","18.28125","-1.0"
"1575566460014","224","-0.17773438","-1.2675781","0.015625","9.5","8.03125","0.03125"
"1575566460015","225","-0.1640625","-1.1396484","0.046875","-9.46875","-1.46875","6.28125"
"1575566460015","226","-0.15136719","-0.9121094","0.0625","-6.96875","-5.875","6.875"
"1575566460015","227","-0.16699219","-0.81933594","0.052734375","-0.75","-3.4375","6.9375"
"1575566460015","228","-0.19921875","-0.8720703","0.036132812","0.40625","-0.375","4.6875"
"1575566460016","229","-0.17089844","-0.95996094","0.022460938","2.375","2.125","-2.40625"
"1575566460412","230","-0.16894531","-0.9433594","0.028320312","-4.21875","0.0","-5.6875"
"1575566460413","231","-0.18359375","-0.91308594","0.0546875","-6.3125","-0.1875","-2.625"
"1575566460413","232","-0.18847656","-0.89941406","0.0087890625","6.40625","-2.8125","0.40625"
"1575566460413","233","-0.16992188","-0.9111328","0.0068359375","-2.6875","3.84375","-1.84375"
"1575566460413","234","-0.20800781","-0.91015625","0.029296875","0.65625","-0.625","-3.125"
"1575566460414","235","-0.15917969","-0.9140625","0.033203125","3.46875","7.90625","3.34375"
"1575566460414","236","-0.19238281","-1.0253906","0.08691406","6.28125","5.59375","-3.90625"
"1575566460414","237","-0.21289062","-1.0585938","-0.040039062","8.40625","-0.3125","2.65625"
"1575566460414","238","-0.07519531","-1.0361328","0.16308594","-1.53125","8.15625","4.0625"
"1575566460415","239","-0.3173828","-1.2089844","0.001953125","30.375","-3.0","7.5"
"1575566461005","240","-0.099609375","-1.1601562","-0.053710938","5.78125","2.65625","7.5"
"1575566461006","241","-0.08496094","-1.0761719","0.19921875","-7.03125","-7.46875","-1.78125"
"1575566461006","242","-0.2265625","-0.9277344","0.025390625","17.5","-14.3125","6.6875"
"1575566461006","243","-0.11816406","-0.90527344","-0.001953125","1.8125","0.40625","-3.4375"
"1575566461007","244","-0.16796875","-1.0537109","0.10058594","-3.5","6.40625","-3.125"
"1575566461007","245","-0.20703125","-1.1337891","0.049804688","3.59375","7.0","-3.96875"
"1575566461007","246","-0.12109375","-0.984375","0.037109375","-9.28125","0.46875","-6.90625"
"1575566461007","247","-0.16601562","-0.87109375","0.10546875","-7.53125","4.6875","-4.65625"
"1575566461008","248","-0.17480469","-0.98535156","0.06933594","-0.125","6.40625","0.65625"
"1575566461009","249","-0.12109375","-1.0488281","0.028320312","-1.0","2.25","0.28125"
"1575566461208","250","-0.15625","-0.97753906","0.032226562","-4.34375","4.25","-3.625"
"1575566461208","251","-0.14355469","-0.96191406","0.029296875","-0.4375","6.09375","-1.78125"
"1575566461209","252","-0.109375","-0.98828125","0.047851562","-4.46875","2.4375","1.21875"
"1575566461210","253","-0.13671875","-1.015625","0.036132812","4.6875","0.96875","0.84375"
"1575566461211","254","-0.1484375","-1.0507812","0.03515625","-1.34375","-0.4375","-1.25"
"1575566461211","255","-0.14941406","-1.0527344","0.05078125","-5.375","0.03125","-2.8125"
"1575566461211","256","-0.18164062","-1.0478516","0.051757812","-2.28125","-1.0625","-1.84375"
"1575566461211","257","-0.20117188","-1.0712891","0.064453125","-3.1875","0.0","0.96875"
"1575566461212","258","-0.2109375","-1.0683594","0.055664062","-3.0","3.9375","-0.625"
"1575566461212","259","-0.17578125","-1.03125","0.07324219","-3.90625","1.9375","-0.25"
"1575566461604","260","-0.18066406","-0.9902344","0.076171875","-4.59375","2.78125","-1.65625"
"1575566461605","261","-0.1875","-0.9951172","0.0859375","-5.3125","4.625","-0.125"
"1575566461605","262","-0.21289062","-1.0078125","0.10644531","-5.6875","6.75","-1.3125"
"1575566461605","263","-0.22167969","-1.0263672","0.09277344","-3.125","11.09375","-1.125"
"1575566461605","264","-0.203125","-1.0029297","0.047851562","-2.09375","10.0","-2.59375"
"1575566461607","265","-0.15917969","-0.8779297","0.024414062","-7.9375","6.5","-4.28125"
"1575566461607","266","-0.14453125","-0.7578125","0.076171875","-14.0","8.40625","-5.375"
"1575566461607","267","-0.13378906","-0.7265625","0.051757812","-10.15625","8.84375","-6.1875"
"1575566461608","268","-0.16308594","-0.92285156","0.05859375","-6.3125","11.34375","-5.9375"
"1575566461608","269","-0.22558594","-1.1435547","0.0029296875","-0.9375","10.40625","-3.375"
"1575566462001","270","-0.16992188","-1.0869141","0.024414062","-8.6875","3.84375","-1.0625"
"1575566462001","271","-0.14746094","-0.93359375","0.055664062","-3.375","-1.78125","0.40625"
"1575566462001","272","-0.14746094","-0.8623047","0.036132812","-1.59375","-3.125","0.65625"
"1575566462002","273","-0.18652344","-0.9453125","0.029296875","-1.84375","-0.625","2.0625"
"1575566462002","274","-0.20996094","-1.0371094","0.0234375","-2.28125","4.625","-1.90625"
"1575566462002","275","-0.16992188","-1.0068359","0.0087890625","-1.125","2.71875","-5.15625"
"1575566462002","276","-0.16992188","-0.9501953","0.052734375","-3.75","2.78125","-2.21875"
"1575566462003","277","-0.17871094","-0.92089844","0.02734375","5.90625","2.1875","0.65625"
"1575566462004","278","-0.12597656","-0.9580078","0.016601562","0.40625","2.84375","-2.46875"
"1575566462004","279","-0.17089844","-0.9609375","0.026367188","-0.6875","1.5","-3.96875"
"1575566462399","280","-0.17480469","-0.9482422","0.009765625","1.5","0.78125","-3.375"
"1575566462399","281","-0.15332031","-0.9472656","0.013671875","-0.5","1.5","-4.34375"
"1575566462400","282","-0.14941406","-0.9511719","0.022460938","5.84375","-1.96875","-2.9375"
"1575566462400","283","-0.17089844","-0.9003906","-0.021484375","2.96875","-8.3125","-1.71875"
"1575566462400","284","-0.13574219","-0.9277344","0.0107421875","-1.53125","3.15625","-4.34375"
"1575566462400","285","-0.140625","-1.0039062","0.095703125","4.375","-3.6875","-0.6875"
"1575566462401","286","-0.21679688","-1.0097656","0.024414062","6.75","-7.53125","0.46875"
"1575566462401","287","-0.19140625","-1.0644531","0.037109375","3.34375","2.25","1.3125"
"1575566462401","288","-0.15820312","-1.0703125","0.0625","3.34375","0.15625","5.0"
"1575566462403","289","-0.17285156","-1.0","0.05859375","4.0","0.21875","2.5625"
"1575566462797","290","-0.15625","-0.9824219","0.05859375","7.4375","-0.8125","3.78125"
"1575566462798","291","-0.15625","-0.97558594","0.015625","4.75","-6.71875","1.4375"
"1575566462798","292","-0.11035156","-1.0087891","0.09667969","-1.53125","5.0625","-1.96875"
"1575566462798","293","-0.18554688","-1.1845703","0.1953125","9.375","9.9375","0.09375"
"1575566462798","294","-0.14941406","-1.2109375","-0.15722656","23.59375","-6.71875","-4.15625"
"1575566462799","295","-0.024414062","-0.9277344","0.057617188","-31.21875","-9.71875","-5.75"
"1575566462799","296","-0.1640625","-0.75097656","0.22558594","-6.90625","-3.1875","-2.28125"
"1575566462799","297","-0.22753906","-1.0234375","0.064453125","29.40625","4.9375","5.53125"
"1575566462799","298","-0.15429688","-1.1923828","-0.049804688","1.375","6.03125","-1.90625"
"1575566462800","299","-0.13476562","-0.95410156","0.10253906","-17.40625","10.0","-9.96875"
"1575566463195","300","-0.13964844","-0.8886719","0.11230469","0.03125","8.59375","-1.125"
"1575566463196","301","-0.09277344","-0.9736328","0.0625","4.875","3.09375","3.65625"
"1575566463197","302","-0.14257812","-1.0322266","0.05078125","3.03125","3.59375","0.34375"
"1575566463197","303","-0.15234375","-1.0097656","0.061523438","-2.09375","5.96875","-0.5"
"1575566463197","304","-0.11425781","-0.94140625","0.08203125","-1.71875","2.84375","0.71875"
"1575566463198","305","-0.12207031","-0.97265625","0.060546875","3.9375","-0.875","2.0625"
"1575566463198","306","-0.14746094","-1.0507812","0.06347656","1.03125","-1.0","0.71875"
"1575566463198","307","-0.14941406","-1.0068359","0.049804688","-0.75","-0.3125","-0.5625"
"1575566463199","308","-0.125","-1.0224609","0.061523438","-3.25","1.8125","-1.0"
"1575566463199","309","-0.1484375","-1.0566406","0.06542969","0.21875","2.65625","-0.1875"
"1575566463594","310","-0.20214844","-1.0800781","0.10449219","-3.5625","0.34375","0.71875"
"1575566463595","311","-0.20410156","-1.0761719","0.08886719","3.03125","5.0","1.3125"
"1575566463595","312","-0.16503906","-1.0810547","0.10253906","-0.25","4.5","2.65625"
"1575566463596","313","-0.13769531","-0.9902344","0.08984375","-4.21875","2.4375","1.625"
"1575566463596","314","-0.16992188","-0.96972656","0.08203125","-4.71875","2.1875","-0.375"
"1575566463597","315","-0.20703125","-1.015625","0.099609375","-4.28125","4.1875","-0.6875"
"1575566463597","316","-0.21386719","-1.0869141","0.078125","-3.0625","7.96875","-2.59375"
"1575566463597","317","-0.16113281","-1.0390625","0.0234375","-7.15625","8.40625","-5.9375"
"1575566463597","318","-0.1328125","-0.9013672","0.021484375","-14.90625","5.96875","-8.5625"
"1575566463598","319","-0.14550781","-0.7763672","0.048828125","-19.5","7.3125","-9.53125"
"1575566464187","320","-0.14746094","-0.734375","0.03515625","-15.9375","10.125","-10.34375"
"1575566464187","321","-0.12207031","-0.85058594","0.049804688","-17.65625","14.03125","-12.65625"
"1575566464188","322","-0.20019531","-0.99609375","0.024414062","-13.5","14.9375","-9.15625"
"1575566464188","323","-0.19824219","-1.1113281","0.0146484375","-11.4375","15.65625","-2.34375"
"1575566464188","324","-0.16796875","-1.0449219","0.005859375","-5.09375","2.90625","-0.5"
"1575566464191","325","-0.15429688","-0.9453125","0.040039062","-4.78125","2.71875","3.53125"
"1575566464191","326","-0.103515625","-0.9042969","-0.0107421875","0.28125","-0.75","3.65625"
"1575566464191","327","-0.12597656","-0.9863281","0.0068359375","-2.9375","-2.09375","1.3125"
"1575566464192","328","-0.18261719","-0.9921875","9.765625E-4","-4.96875","-1.65625","-1.46875"
"1575566464192","329","-0.16894531","-1.0058594","0.0078125","-2.9375","3.15625","-1.90625"
"1575566464387","330","-0.15625","-1.0087891","0.0048828125","1.4375","0.09375","0.71875"
"1575566464387","331","-0.16308594","-0.9433594","0.0029296875","-0.875","-0.75","-0.1875"
"1575566464388","332","-0.14355469","-0.921875","0.0048828125","1.5","-0.9375","-0.9375"
"1575566464388","333","-0.1484375","-0.8876953","-0.009765625","3.03125","-5.5","-1.1875"
"1575566464388","334","-0.13085938","-0.89746094","0.016601562","1.03125","-2.875","-1.84375"
"1575566464388","335","-0.16796875","-0.95703125","0.0234375","1.6875","-3.25","-3.1875"
"1575566464388","336","-0.13671875","-0.9277344","-0.018554688","6.75","-6.90625","-4.65625"
"1575566464390","337","-0.11621094","-0.9375","0.04296875","-5.15625","-6.0625","-3.875"
"1575566464390","338","-0.21582031","-1.0185547","0.06347656","5.34375","-1.40625","-1.0625"
"1575566464391","339","-0.17089844","-1.0761719","0.0234375","10.65625","-2.03125","4.25"
"1575566464783","340","-0.18652344","-1.0966797","0.022460938","5.21875","0.40625","1.75"
"1575566464784","341","-0.17675781","-1.0634766","0.060546875","3.03125","0.53125","2.90625"
"1575566464784","342","-0.123046875","-0.9892578","0.057617188","5.59375","-1.0","3.03125"
"1575566464785","343","-0.12988281","-0.9482422","0.041992188","4.8125","-0.6875","-0.6875"
"1575566464785","344","-0.14160156","-0.9003906","0.111328125","0.34375","5.34375","0.34375"
"1575566464785","345","-0.19824219","-0.98828125","0.052734375","15.4375","5.59375","3.34375"
"1575566464785","346","-0.109375","-1.0673828","0.033203125","6.09375","8.03125","0.65625"
"1575566464786","347","-0.15332031","-1.2480469","0.14355469","1.5","17.6875","-1.53125"
"1575566464786","348","-0.09277344","-1.1552734","-0.09765625","11.09375","-8.8125","-5.15625"
"1575566464787","349","-0.03125","-0.8691406","0.0048828125","-17.84375","-8.125","-3.96875"
"1575566465182","350","-0.125","-0.8232422","0.171875","1.03125","6.8125","-3.96875"
"1575566465182","351","-0.15625","-1.09375","0.036132812","16.53125","4.0","6.46875"
"1575566465182","352","-0.103515625","-1.1152344","-0.028320312","-5.5625","-0.5625","-8.8125"
"1575566465183","353","-0.11230469","-0.9394531","0.06542969","-10.4375","3.9375","-11.6875"
"1575566465183","354","-0.10546875","-0.94433594","0.06542969","0.71875","1.5","-1.34375"
"1575566465183","355","-0.09863281","-0.96191406","0.0234375","3.84375","-3.75","1.8125"
"1575566465183","356","-0.14355469","-1.0273438","0.057617188","1.5","2.0625","2.65625"
"1575566465184","357","-0.1328125","-0.9873047","0.049804688","-0.1875","2.0625","1.21875"
"1575566465184","358","-0.11035156","-0.9716797","0.043945312","3.59375","-0.9375","4.25"
"1575566465185","359","-0.1328125","-1.0009766","0.045898438","1.75","-1.46875","4.8125"
"1575566465780","360","-0.13574219","-1.0146484","0.052734375","3.71875","1.03125","4.0625"
"1575566465781","361","-0.12792969","-1.0439453","0.07128906","3.65625","3.03125","5.0625"
"1575566465782","362","-0.15625","-1.0615234","0.057617188","2.90625","0.0","3.90625"
"1575566465782","363","-0.15917969","-1.0917969","0.07128906","-1.125","1.375","1.75"
"1575566465782","364","-0.18554688","-1.1191406","0.09082031","-2.875","1.8125","1.3125"
"1575566465783","365","-0.19238281","-1.0693359","0.09667969","-5.03125","3.53125","3.78125"
"1575566465783","366","-0.14453125","-0.9902344","0.06933594","-5.15625","2.25","3.59375"
"1575566465783","367","-0.11621094","-0.94433594","0.068359375","-8.5625","1.9375","-0.875"
"1575566465784","368","-0.15429688","-0.96484375","0.08300781","-8.9375","-0.4375","-2.75"
"1575566465784","369","-0.19140625","-1.0117188","0.06542969","-3.875","3.15625","-3.6875"
"1575566465977","370","-0.18554688","-1.0722656","0.0859375","-4.96875","6.625","-3.8125"
"1575566465977","371","-0.22070312","-1.0166016","0.037109375","-5.3125","3.53125","-3.3125"
"1575566465978","372","-0.16992188","-0.9453125","0.060546875","-13.5625","7.96875","-3.0"
"1575566465978","373","-0.10839844","-0.8076172","0.037109375","-13.0625","6.625","-6.53125"
"1575566465978","374","-0.12597656","-0.73828125","0.009765625","-13.5625","4.125","-8.75"
"1575566465978","375","-0.119140625","-0.7861328","0.036132812","-14.71875","8.78125","-8.9375"
"1575566465979","376","-0.18261719","-0.95703125","0.049804688","-10.40625","11.21875","-6.90625"
"1575566465979","377","-0.19921875","-1.1621094","-0.0068359375","-3.3125","8.21875","-1.84375"
"1575566465980","378","-0.17089844","-1.1201172","0.064453125","-8.25","2.375","-0.875"
"1575566465980","379","-0.1953125","-0.9746094","0.0126953125","-0.1875","-0.3125","1.8125"
"1575566466376","380","-0.12597656","-0.90527344","0.00390625","-2.03125","3.03125","2.1875"
"1575566466377","381","-0.13183594","-0.9355469","0.017578125","-5.75","1.03125","1.5625"
"1575566466377","382","-0.21679688","-0.98535156","0.0107421875","-4.03125","3.15625","-1.125"
"1575566466377","383","-0.1796875","-1.0419922","-0.0029296875","-2.6875","8.96875","-1.34375"
"1575566466377","384","-0.16699219","-1.0029297","0.025390625","-3.375","4.0625","0.28125"
"1575566466379","385","-0.15820312","-0.95996094","-0.0068359375","2.0","3.90625","0.28125"
"1575566466379","386","-0.12792969","-0.9326172","0.0087890625","0.46875","1.875","1.8125"
"1575566466379","387","-0.15332031","-0.8828125","-0.0078125","2.125","-4.59375","0.21875"
"1575566466380","388","-0.16113281","-0.9121094","0.029296875","-2.09375","0.21875","-0.6875"
"1575566466380","389","-0.15136719","-0.94433594","0.0068359375","3.78125","0.96875","-1.25"
"1575566466773","390","-0.15917969","-1.0039062","0.00390625","2.78125","-2.8125","-0.75"
"1575566466774","391","-0.18164062","-0.9716797","-0.0048828125","2.96875","-3.3125","-1.78125"
"1575566466774","392","-0.15625","-0.9316406","0.016601562","4.5","-6.65625","1.09375"
"1575566466774","393","-0.1796875","-0.9814453","0.030273438","2.65625","-4.84375","1.15625"
"1575566466774","394","-0.19726562","-1.0048828","0.051757812","6.75","-2.8125","2.78125"
"1575566466775","395","-0.16699219","-1.0839844","0.0087890625","10.96875","-6.4375","2.125"
"1575566466775","396","-0.140625","-1.0634766","0.072265625","2.375","-1.34375","-1.34375"
"1575566466776","397","-0.16210938","-1.0029297","0.052734375","7.75","-10.09375","1.375"
"1575566466777","398","-0.18066406","-0.9873047","-0.0078125","5.84375","-5.625","1.6875"
"1575566466777","399","-0.13183594","-0.9746094","0.076171875","1.375","0.09375","-0.25"
"1575566467168","400","-0.16992188","-0.9267578","0.06347656","5.28125","-5.21875","-3.5625"
"1575566467168","401","-0.21386719","-1.0058594","0.061523438","9.03125","11.28125","-0.875"
"1575566467169","402","-0.16015625","-1.2158203","0.12402344","6.9375","17.5","2.375"
"1575566467169","403","-0.09765625","-1.1572266","-0.046875","10.84375","0.34375","-6.71875"
"1575566467169","404","-0.10058594","-0.9296875","0.056640625","-16.9375","-5.6875","-5.03125"
"1575566467169","405","-0.15136719","-0.76660156","0.1640625","-4.28125","5.96875","2.0"
"1575566467170","406","-0.13574219","-1.0185547","0.068359375","21.34375","13.03125","4.0"
"1575566467170","407","-0.12402344","-1.1884766","-0.018554688","3.21875","8.15625","-2.8125"
"1575566467170","408","-0.12988281","-0.9560547","0.059570312","-10.625","6.15625","-9.90625"
"1575566467171","409","-0.09375","-0.9082031","0.08691406","2.4375","5.21875","-2.34375"
"1575566467566","410","-0.10253906","-0.98828125","0.06738281","2.96875","-2.03125","3.53125"
"1575566467566","411","-0.15625","-1.0097656","0.056640625","3.90625","0.21875","1.09375"
"1575566467566","412","-0.14257812","-1.0185547","0.037109375","1.375","3.90625","-0.875"
"1575566467567","413","-0.119140625","-0.9794922","0.052734375","1.09375","1.3125","0.0"
"1575566467567","414","-0.12597656","-0.9892578","0.06542969","3.71875","0.53125","1.5625"
"1575566467567","415","-0.13378906","-1.0332031","0.05078125","2.5625","1.75","1.375"
"1575566467567","416","-0.13085938","-1.0488281","0.052734375","-2.40625","0.59375","-1.3125"
"1575566467568","417","-0.13867188","-1.0292969","0.072265625","-4.71875","-1.1875","-0.3125"
"1575566467568","418","-0.17578125","-1.0205078","0.08984375","-6.25","-0.5","0.28125"
"1575566467568","419","-0.20019531","-1.0263672","0.06542969","1.625","0.96875","-0.125"
"1575566467965","420","-0.17285156","-1.0390625","0.099609375","-7.21875","1.625","2.3125"
"1575566467965","421","-0.13867188","-0.9814453","0.08105469","-1.53125","0.34375","1.3125"
"1575566467966","422","-0.14941406","-1.0009766","0.06347656","-0.9375","-2.46875","2.0"
"1575566467966","423","-0.171875","-1.0087891","0.07910156","-5.5625","-5.875","2.0"
"1575566467966","424","-0.18945312","-1.0039062","0.09863281","-3.3125","-4.71875","2.0625"
"1575566467966","425","-0.18652344","-1.0117188","0.072265625","-3.625","-2.15625","0.46875"
"1575566467967","426","-0.16113281","-0.99316406","0.06542969","-8.125","-0.5","-1.34375"
"1575566467967","427","-0.17578125","-0.9951172","0.05859375","-6.3125","0.40625","-2.40625"
"1575566467967","428","-0.17382812","-1.0146484","0.0546875","-9.125","4.875","-4.34375"
"1575566467967","429","-0.15625","-0.9970703","0.06738281","-9.53125","5.59375","-5.875"
"1575566468362","430","-0.16601562","-0.96972656","0.03515625","-10.625","4.5","-8.5625"
"1575566468363","431","-0.14746094","-0.9169922","0.029296875","-15.53125","5.84375","-10.4375"
"1575566468363","432","-0.111328125","-0.86328125","0.030273438","-20.875","5.59375","-13.3125"
"1575566468364","433","-0.12207031","-0.83691406","0.02734375","-20.03125","7.75","-15.59375"
"1575566468365","434","-0.15039062","-0.9267578","0.043945312","-15.8125","6.75","-9.71875"
"1575566468365","435","-0.17382812","-1.0048828","0.017578125","-9.84375","7.4375","-7.40625"
"1575566468365","436","-0.13085938","-1.0380859","0.03125","-5.75","6.09375","-3.5625"
"1575566468366","437","-0.13964844","-0.984375","0.034179688","-1.34375","1.375","-1.3125"
"1575566468366","438","-0.14550781","-0.9667969","-0.0126953125","4.375","0.46875","2.0"
"1575566468366","439","-0.14160156","-0.97265625","0.0146484375","-2.75","3.84375","1.4375"
"1575566468960","440","-0.1640625","-0.9892578","0.0126953125","2.25","4.25","2.1875"
"1575566468961","441","-0.1484375","-1.0244141","-0.009765625","2.25","7.90625","1.21875"
"1575566468961","442","-0.140625","-1.0029297","0.0087890625","-2.8125","6.5","0.21875"
"1575566468961","443","-0.14160156","-0.97265625","0.0068359375","1.3125","4.3125","2.0625"
"1575566468961","444","-0.12695312","-0.94433594","0.001953125","0.46875","4.375","1.09375"
"1575566468963","445","-0.12890625","-0.9394531","0.0078125","-0.9375","1.5","0.78125"
"1575566468963","446","-0.15039062","-0.91796875","-9.765625E-4","1.5","1.21875","0.34375"
"1575566468964","447","-0.16015625","-0.9160156","0.043945312","0.78125","6.09375","2.65625"
"1575566468964","448","-0.14453125","-0.9785156","-0.0146484375","5.78125","2.5","2.65625"
"1575566468964","449","-0.15722656","-1.0332031","0.015625","1.03125","6.5625","3.59375"
"1575566469156","450","-0.17089844","-1.0009766","0.03125","6.34375","4.5625","3.59375"
"1575566469156","451","-0.15039062","-0.9794922","-0.016601562","6.6875","2.0625","3.78125"
"1575566469156","452","-0.13378906","-0.96484375","0.022460938","2.90625","3.40625","4.3125"
"1575566469157","453","-0.15429688","-0.96972656","0.047851562","3.46875","-1.34375","3.21875"
"1575566469157","454","-0.15722656","-0.99902344","0.01171875","7.4375","-1.0625","-0.4375"
"1575566469157","455","-0.14941406","-1.0019531","0.052734375","-0.0625","-0.25","-1.125"
"1575566469157","456","-0.19628906","-1.0009766","0.05078125","3.21875","2.71875","-1.40625"
"1575566469159","457","-0.1328125","-1.0117188","0.0625","3.78125","6.46875","0.09375"
"1575566469159","458","-0.14746094","-1.0517578","0.030273438","6.5","-4.09375","1.4375"
"1575566469159","459","-0.15820312","-1.0136719","0.0146484375","5.96875","-3.125","-1.90625"
"1575566469554","460","-0.16601562","-0.96191406","0.11328125","0.53125","0.15625","0.15625"
"1575566469554","461","-0.19726562","-1.0126953","0.051757812","15.25","-1.125","2.0"
"1575566469554","462","-0.15332031","-1.1328125","0.025390625","7.375","4.4375","1.15625"
"1575566469555","463","-0.14355469","-1.0791016","0.068359375","0.90625","1.5625","-2.625"
"1575566469555","464","-0.15136719","-0.9375","0.034179688","4.25","0.15625","-2.625"
"1575566469555","465","-0.1484375","-0.91503906","0.08203125","0.03125","6.09375","3.03125"
"1575566469555","466","-0.14160156","-1.0253906","0.09277344","10.46875","9.9375","1.875"
"1575566469556","467","-0.1328125","-1.0869141","0.03125","4.5625","6.21875","-4.09375"
"1575566469556","468","-0.12011719","-0.9824219","0.044921875","-5.6875","4.0","-5.375"
"1575566469557","469","-0.1328125","-0.9277344","0.10253906","-4.59375","5.34375","-2.09375"
"1575566470148","470","-0.10253906","-0.99609375","0.04296875","7.5","3.21875","-0.125"
"1575566470148","471","-0.12792969","-1.0380859","0.045898438","-1.46875","0.0","-1.125"
"1575566470149","472","-0.15527344","-0.9765625","0.072265625","-2.8125","1.28125","-1.53125"
"1575566470149","473","-0.1328125","-0.9765625","0.057617188","0.65625","1.09375","0.53125"
"1575566470149","474","-0.123046875","-0.98046875","0.048828125","0.09375","0.28125","1.09375"
"1575566470149","475","-0.13769531","-0.99316406","0.049804688","0.84375","2.1875","1.09375"
"1575566470149","476","-0.12695312","-1.015625","0.0546875","2.25","2.1875","1.4375"
"1575566470150","477","-0.13476562","-1.0410156","0.064453125","-0.1875","0.90625","1.5625"
"1575566470150","478","-0.14355469","-1.0498047","0.06347656","-1.40625","-1.125","-1.53125"
"1575566470150","479","-0.15429688","-1.0556641","0.08886719","-4.78125","-0.75","-1.25"
"1575566470348","480","-0.16992188","-1.0634766","0.08886719","-0.4375","-1.0625","0.0"
"1575566470349","481","-0.1640625","-1.0576172","0.07519531","-2.15625","-1.71875","0.78125"
"1575566470350","482","-0.140625","-0.9794922","0.07714844","-4.15625","-1.78125","0.71875"
"1575566470350","483","-0.14355469","-0.9873047","0.07910156","-1.59375","-2.6875","-1.90625"
"1575566470350","484","-0.15332031","-1.0087891","0.06738281","-1.3125","-3.5","-3.25"
"1575566470350","485","-0.19238281","-1.0068359","0.13183594","-7.15625","-2.46875","-4.90625"
"1575566470350","486","-0.21875","-1.0224609","0.06738281","3.71875","4.4375","-2.9375"
"1575566470351","487","-0.15722656","-1.0234375","0.057617188","-3.4375","6.8125","-1.25"
"1575566470351","488","-0.16503906","-0.95703125","0.09277344","-10.6875","8.09375","-4.34375"
"1575566470351","489","-0.16113281","-0.89746094","0.072265625","-9.0625","6.75","-3.375"
"1575566470748","490","-0.12792969","-0.85253906","0.040039062","-16.8125","5.40625","-6.125"
"1575566470749","491","-0.11425781","-0.8183594","0.053710938","-18.4375","7.0625","-11.6875"
"1575566470749","492","-0.17089844","-0.93066406","0.0625","-3.625","8.09375","-9.40625"
"1575566470750","493","-0.22070312","-1.0410156","0.030273438","-3.5625","13.09375","-4.03125"
"1575566470751","494","-0.12890625","-1.0273438","0.07324219","-8.1875","14.3125","-2.03125"
"1575566470751","495","-0.15039062","-0.99316406","0.076171875","-2.75","4.875","-1.25"
"1575566470751","496","-0.13476562","-0.9423828","0.03515625","-3.25","4.1875","2.0"
"1575566470752","497","-0.125","-0.97265625","0.036132812","-1.59375","1.9375","1.3125"
"1575566470752","498","-0.15917969","-0.9970703","0.020507812","2.4375","0.71875","0.65625"
"1575566470752","499","-0.14648438","-0.9873047","0.06347656","-0.75","2.125","1.5"
"1575566471143","500","-0.16992188","-0.9863281","0.033203125","3.09375","2.375","0.0"
"1575566471143","501","-0.14160156","-0.99902344","0.04296875","-3.0","4.1875","0.46875"
"1575566471144","502","-0.13476562","-0.94140625","0.041992188","-3.0625","2.1875","-1.40625"
"1575566471144","503","-0.15527344","-0.9638672","0.033203125","-1.40625","0.09375","0.15625"
"1575566471144","504","-0.140625","-0.93847656","0.046875","-5.09375","0.90625","0.03125"
"1575566471145","505","-0.15722656","-0.9326172","0.03515625","-2.28125","1.625","-1.1875"
"1575566471146","506","-0.15136719","-0.9628906","-0.0068359375","-1.59375","-1.0625","0.21875"
"1575566471146","507","-0.17382812","-0.9316406","0.05078125","-4.84375","0.78125","-0.3125"
"1575566471146","508","-0.16113281","-0.96191406","0.03125","6.75","-0.4375","1.3125"
"1575566471146","509","-0.14160156","-1.0185547","0.046875","3.59375","1.3125","2.3125"
"1575566471541","510","-0.1953125","-1.0449219","0.05859375","7.75","-2.9375","3.34375"
"1575566471541","511","-0.15527344","-1.0009766","-0.024414062","7.0625","-5.9375","0.53125"
"1575566471541","512","-0.1328125","-0.9638672","0.09765625","-4.34375","0.59375","1.15625"
"1575566471542","513","-0.1953125","-0.9873047","0.046875","6.15625","-3.3125","1.4375"
"1575566471542","514","-0.13867188","-0.98046875","0.0029296875","2.0625","-0.9375","-1.46875"
"1575566471542","515","-0.15039062","-1.0126953","0.06542969","-3.4375","0.78125","-1.3125"
"1575566471542","516","-0.20507812","-0.9902344","0.05859375","2.5","2.84375","-1.34375"
"1575566471543","517","-0.12402344","-1.0439453","0.07910156","1.375","4.0625","0.15625"
"1575566471544","518","-0.15039062","-0.97558594","0.037109375","0.15625","2.65625","-4.46875"
"1575566471544","519","-0.12597656","-0.96191406","0.06640625","0.78125","2.78125","0.28125"
"1575566471941","520","-0.15136719","-0.98828125","0.091796875","0.46875","2.0625","-0.5"
"1575566471942","521","-0.19140625","-1.0419922","0.0625","6.03125","7.5","0.65625"
"1575566471942","522","-0.1328125","-1.0771484","0.07714844","1.21875","6.5625","2.78125"
"1575566471942","523","-0.17089844","-1.0419922","0.06640625","0.84375","2.78125","1.5"
"1575566471942","524","-0.15429688","-0.96972656","0.038085938","0.84375","2.65625","3.90625"
"1575566471943","525","-0.13085938","-0.8769531","0.06640625","-1.90625","4.625","2.71875"
"1575566471943","526","-0.17578125","-0.9482422","0.08300781","3.34375","10.0625","2.1875"
"1575566471943","527","-0.21289062","-1.1894531","0.028320312","11.15625","14.875","-1.90625"
"1575566471943","528","-0.10449219","-1.1025391","9.765625E-4","-9.125","6.75","-5.625"
"1575566471945","529","-0.083984375","-0.85546875","0.056640625","-13.0625","3.34375","-9.15625"
"1575566472534","530","-0.109375","-0.9394531","0.08300781","4.9375","4.8125","-0.25"
"1575566472535","531","-0.12402344","-1.1025391","0.024414062","0.21875","-4.21875","1.15625"
"1575566472535","532","-0.18066406","-0.9873047","0.0234375","-8.125","0.09375","-8.8125"
"1575566472535","533","-0.13964844","-0.94921875","0.057617188","-4.03125","4.5","-2.9375"
"1575566472535","534","-0.109375","-0.9628906","0.052734375","-2.09375","0.65625","-1.40625"
"1575566472536","535","-0.14648438","-1.0126953","0.034179688","1.5","-0.6875","-1.3125"
"1575566472536","536","-0.14550781","-1.0185547","0.036132812","-2.46875","0.40625","-2.40625"
"1575566472537","537","-0.12792969","-0.9980469","0.051757812","-3.25","-0.25","-3.96875"
"1575566472537","538","-0.14648438","-1.0097656","0.044921875","-1.0625","-1.1875","-2.09375"
"1575566472537","539","-0.15039062","-1.0537109","0.04296875","-2.09375","-0.5","-1.34375"
"1575566472735","540","-0.13183594","-1.0634766","0.041015625","-2.6875","-1.0625","-3.4375"
"1575566472737","541","-0.14941406","-1.0410156","0.07714844","0.0","-2.15625","-1.96875"
"1575566472737","542","-0.17480469","-1.0410156","0.07714844","3.46875","-2.34375","0.96875"
"1575566472737","543","-0.13867188","-1.0302734","0.0625","2.65625","-1.40625","-0.75"
"1575566472738","544","-0.15039062","-1.0087891","0.060546875","-0.375","-2.09375","-2.03125"
"1575566472738","545","-0.15722656","-0.9892578","0.08691406","-3.1875","-1.71875","-1.78125"
"1575566472738","546","-0.17285156","-1.0146484","0.087890625","-0.875","2.0625","-2.9375"
"1575566472738","547","-0.19921875","-1.109375","0.06640625","-0.8125","4.625","-1.0"
"1575566472739","548","-0.17382812","-1.0478516","0.005859375","-1.71875","5.53125","-4.09375"
"1575566472739","549","-0.123046875","-0.9033203","0.047851562","-11.4375","6.28125","-5.5625"
"1575566473131","550","-0.083984375","-0.70214844","0.00390625","-15.28125","4.625","-8.0"
"1575566473131","551","-0.056640625","-0.6855469","0.05078125","-18.6875","8.09375","-9.59375"
"1575566473131","552","-0.13085938","-0.85253906","0.06347656","-9.65625","6.875","-9.78125"
"1575566473133","553","-0.21289062","-1.203125","0.040039062","-1.34375","15.125","-0.5625"
"1575566473133","554","-0.15234375","-1.2363281","-0.00390625","-3.6875","6.875","-0.25"
"1575566473134","555","-0.13867188","-0.984375","0.037109375","-10.09375","2.78125","0.46875"
"1575566473134","556","-0.10546875","-0.8300781","0.049804688","-3.125","2.375","6.8125"
"1575566473134","557","-0.08886719","-0.9189453","0.040039062","-0.3125","1.9375","8.21875"
"1575566473134","558","-0.17382812","-1.0478516","0.0107421875","-1.0","2.65625","5.90625"
"1575566473135","559","-0.17089844","-1.0458984","0.01953125","-2.46875","5.71875","2.25"
"1575566473528","560","-0.14257812","-0.9746094","0.022460938","-1.0625","3.71875","1.03125"
"1575566473529","561","-0.13671875","-0.93066406","0.046875","-2.46875","3.03125","1.03125"
"1575566473529","562","-0.13867188","-0.9589844","0.025390625","0.84375","1.3125","0.40625"
"1575566473529","563","-0.13574219","-0.9609375","0.005859375","-2.34375","-0.4375","-2.53125"
"1575566473530","564","-0.16210938","-0.93847656","0.013671875","-2.75","-0.9375","-3.5"
"1575566473530","565","-0.15722656","-0.9453125","0.048828125","-1.25","-0.9375","-2.9375"
"1575566473530","566","-0.10058594","-0.9326172","-0.037109375","2.3125","-5.09375","-4.40625"
"1575566473531","567","-0.16503906","-0.9638672","0.0625","-6.59375","-3.90625","-4.28125"
"1575566473531","568","-0.18164062","-0.93847656","0.026367188","4.375","-4.65625","-1.40625"
"1575566473531","569","-0.140625","-0.97265625","-0.0078125","-2.28125","-2.34375","-3.96875"
"1575566473927","570","-0.18066406","-1.0195312","0.10644531","-1.3125","3.28125","0.0"
"1575566473928","571","-0.20410156","-1.0195312","-0.001953125","8.65625","-1.3125","2.71875"
"1575566473928","572","-0.13476562","-1.0302734","0.009765625","2.65625","6.46875","0.28125"
"1575566473928","573","-0.12890625","-0.98339844","0.060546875","2.4375","-2.46875","3.78125"
"1575566473928","574","-0.18359375","-0.97558594","0.024414062","5.84375","-1.65625","2.3125"
"1575566473929","575","-0.15625","-1.0458984","0.045898438","4.6875","9.375","0.90625"
"1575566473929","576","-0.1328125","-1.0224609","0.041015625","4.375","2.5","-0.4375"
"1575566473930","577","-0.17089844","-1.0878906","0.034179688","2.0","7.8125","-1.125"
"1575566473931","578","-0.09863281","-1.1679688","0.051757812","3.71875","4.6875","0.0"
"1575566473931","579","-0.07910156","-1.0126953","-0.043945312","-3.875","-5.9375","-7.15625"
"1575566474519","580","-0.17089844","-0.8564453","0.046875","-11.1875","2.78125","-5.9375"
"1575566474519","581","-0.17285156","-0.96484375","0.109375","0.15625","14.09375","0.28125"
"1575566474520","582","-0.12109375","-1.1171875","-0.033203125","10.0625","13.71875","-7.09375"
"1575566474520","583","-0.099609375","-1.0410156","-0.01171875","-11.71875","10.40625","-11.5"
"1575566474520","584","-0.12597656","-0.8828125","0.06738281","-6.90625","14.6875","-8.375"
"1575566474521","585","-0.08691406","-0.9746094","0.036132812","6.03125","13.28125","0.09375"
"1575566474521","586","-0.10058594","-1.0351562","0.001953125","2.96875","9.6875","-0.6875"
"1575566474521","587","-0.107421875","-0.9892578","0.009765625","1.21875","9.5","-2.46875"
"1575566474522","588","-0.083984375","-0.98046875","0.0234375","0.65625","6.8125","0.40625"
"1575566474522","589","-0.08300781","-0.9941406","0.025390625","2.90625","2.5625","1.5625"
"1575566474722","590","-0.09472656","-1.0107422","0.020507812","2.1875","-1.125","1.15625"
"1575566474722","591","-0.111328125","-1.0058594","0.0234375","0.0","-1.40625","0.15625"
"1575566474722","592","-0.109375","-0.9863281","0.01953125","-0.6875","-2.6875","1.3125"
"1575566474723","593","-0.12402344","-0.99121094","0.022460938","-0.5625","-3.3125","1.5625"
"1575566474723","594","-0.1171875","-1.0146484","0.022460938","-0.0625","-0.5","0.84375"
"1575566474723","595","-0.11425781","-1.0263672","0.037109375","-1.0","-1.40625","0.71875"
"1575566474723","596","-0.15722656","-1.0195312","0.018554688","0.65625","0.65625","-0.3125"
"1575566474724","597","-0.12402344","-1.0458984","0.064453125","-4.15625","4.0625","0.28125"
"1575566474724","598","-0.13378906","-1.0185547","0.06542969","1.5","3.03125","-1.1875"
"1575566474724","599","-0.16894531","-1.0673828","0.045898438","8.90625","2.0625","1.625"
"1575566475318","600","-0.13964844","-1.0644531","0.056640625","0.90625","3.21875","2.3125"
"1575566475319","601","-0.12402344","-1.0","0.0625","1.9375","-1.125","-0.25"
"1575566475320","602","-0.12207031","-0.9941406","0.043945312","2.65625","-1.0","-1.46875"
"1575566475320","603","-0.13769531","-1.0107422","0.03515625","-1.0625","-1.65625","-2.75"
"1575566475320","604","-0.15527344","-1.0048828","0.060546875","-5.15625","1.09375","-4.96875"
"1575566475321","605","-0.17480469","-0.99609375","0.048828125","-3.375","6.5","-3.5625"
"1575566475321","606","-0.14550781","-1.0556641","0.032226562","-3.1875","4.9375","-2.40625"
"1575566475321","607","-0.12011719","-1.0","0.028320312","-6.78125","2.90625","-7.09375"
"1575566475321","608","-0.13183594","-0.9140625","0.02734375","-6.59375","1.8125","-5.875"
"1575566475322","609","-0.09472656","-0.84765625","0.037109375","-13.1875","0.21875","-6.3125"
"1575566475912","610","-0.10058594","-0.8154297","0.041015625","-11.71875","4.25","-7.8125"
"1575566475913","611","-0.12695312","-0.9326172","0.052734375","-6.90625","6.40625","-4.09375"
"1575566475913","612","-0.17382812","-1.0322266","0.0126953125","-5.875","7.625","-1.0"
"1575566475915","613","-0.17285156","-1.0488281","0.064453125","-6.84375","9.75","2.5625"
"1575566475915","614","-0.12109375","-0.98339844","0.04296875","1.03125","6.8125","2.3125"
"1575566475915","615","-0.10644531","-0.9707031","0.040039062","1.8125","2.3125","4.375"
"1575566475915","616","-0.09765625","-0.9667969","0.034179688","0.15625","-0.5625","2.96875"
"1575566475916","617","-0.14257812","-0.9921875","0.034179688","-0.3125","2.78125","2.96875"
"1575566475916","618","-0.14453125","-1.0087891","0.029296875","1.09375","3.65625","2.84375"
"1575566475916","619","-0.16308594","-0.9824219","0.044921875","-0.1875","5.0625","2.5625"
"1575566476109","620","-0.12890625","-1.0009766","0.030273438","2.0625","5.53125","0.96875"
"1575566476109","621","-0.13476562","-0.9658203","0.037109375","-1.0","1.9375","-0.75"
"1575566476109","622","-0.15039062","-0.9667969","0.029296875","-0.1875","2.96875","-0.1875"
"1575566476110","623","-0.14160156","-0.98828125","0.025390625","0.40625","4.0625","-0.5"
"1575566476110","624","-0.14453125","-0.984375","0.020507812","0.09375","3.40625","-0.5"
"1575566476111","625","-0.13183594","-0.9501953","0.02734375","-1.65625","2.65625","-1.40625"
"1575566476111","626","-0.123046875","-0.9658203","0.021484375","-0.5","-0.4375","-0.625"
"1575566476112","627","-0.16601562","-1.0048828","0.0390625","0.71875","1.5","0.65625"
"1575566476112","628","-0.1484375","-0.95214844","-0.005859375","1.15625","-4.53125","-0.9375"
"1575566476112","629","-0.11621094","-0.92285156","0.017578125","-2.8125","-3.5","-2.03125"
"1575566476906","630","-0.14453125","-0.95214844","0.046875","-0.75","-3.8125","-1.59375"
"1575566476906","631","-0.15625","-1.0078125","0.038085938","2.59375","-1.25","0.09375"
"1575566476906","632","-0.16601562","-1.0234375","0.030273438","-0.6875","-1.0625","-1.59375"
"1575566476907","633","-0.13183594","-0.99609375","0.017578125","-1.25","-2.6875","2.1875"
"1575566476907","634","-0.14648438","-0.9667969","0.051757812","0.21875","-3.875","3.34375"
"1575566476907","635","-0.15332031","-0.99902344","0.07519531","2.59375","-0.6875","4.0"
"1575566476907","636","-0.14648438","-1.0361328","0.0390625","4.9375","-1.40625","4.3125"
"1575566476909","637","-0.15820312","-1.0205078","0.07519531","-1.71875","4.5","1.625"
"1575566476910","638","-0.15332031","-0.9980469","0.0546875","2.5625","0.65625","2.90625"
"1575566476910","639","-0.14453125","-1.0048828","0.026367188","3.53125","2.71875","3.59375"
"1575566477304","640","-0.11621094","-0.9667969","0.08496094","-2.8125","3.15625","2.84375"
"1575566477304","641","-0.13671875","-0.9814453","0.083984375","5.34375","3.40625","-0.8125"
"1575566477304","642","-0.18066406","-1.2636719","0.0078125","14.5","4.6875","-0.8125"
"1575566477305","643","-0.13867188","-1.0673828","0.017578125","-14.65625","-8.3125","0.28125"
"1575566477305","644","-0.15039062","-0.7919922","0.053710938","-9.90625","0.40625","-6.53125"
"1575566477305","645","-0.12402344","-0.953125","0.026367188","13.03125","8.59375","0.78125"
"1575566477305","646","-0.12988281","-1.1660156","0.030273438","-5.25","-0.6875","2.4375"
"1575566477305","647","-0.1640625","-0.97265625","0.0068359375","-7.9375","0.90625","-9.71875"
"1575566477306","648","-0.11621094","-0.93847656","0.030273438","-4.84375","5.0625","-1.46875"
"1575566477307","649","-0.111328125","-0.9716797","0.045898438","-1.90625","-0.0625","0.90625"
"1575566477502","650","-0.15429688","-0.99902344","0.021484375","0.28125","0.09375","0.40625"
"1575566477502","651","-0.14746094","-1.0234375","0.01953125","-1.53125","1.9375","-0.5625"
"1575566477503","652","-0.12695312","-0.96972656","0.040039062","-5.21875","-1.34375","-0.125"
"1575566477503","653","-0.15234375","-0.9628906","0.033203125","-2.03125","-0.0625","0.46875"
"1575566477503","654","-0.14648438","-1.0136719","0.025390625","-0.3125","0.0","0.78125"
"1575566477503","655","-0.14160156","-1.0068359","0.036132812","-5.03125","0.34375","-1.53125"
"1575566477503","656","-0.14160156","-0.9638672","0.029296875","-3.96875","-0.0625","-2.6875"
"1575566477504","657","-0.12109375","-1.0","0.0146484375","-1.78125","0.59375","-2.21875"
"1575566477504","658","-0.13085938","-1.0263672","0.0146484375","-4.15625","-1.25","-3.875"
"1575566477504","659","-0.16894531","-1.0107422","0.013671875","-5.4375","0.59375","-5.5625"
"1575566477704","660","-0.1328125","-1.0224609","0.021484375","-4.09375","3.53125","-4.59375"
"1575566477705","661","-0.12890625","-1.0302734","0.02734375","-1.0","1.5625","-5.3125"
"1575566477706","662","-0.15625","-1.0273438","0.025390625","4.0625","0.15625","-3.3125"
"1575566477706","663","-0.13671875","-1.0507812","0.08105469","2.4375","1.15625","-2.03125"
"1575566477706","664","-0.11621094","-1.0195312","0.047851562","6.75","-1.25","-3.0625"
"1575566477706","665","-0.12890625","-1.0107422","0.038085938","5.71875","-6.0625","-2.21875"
"1575566477707","666","-0.12109375","-0.97265625","0.0546875","1.625","-6.59375","-2.8125"
"1575566477707","667","-0.119140625","-0.9794922","0.07128906","2.0","-5.09375","-3.75"
"1575566477707","668","-0.12890625","-1.0185547","0.0625","2.125","-5.5625","-4.15625"
"1575566477707","669","-0.16113281","-1.0205078","0.07421875","-0.875","-2.875","-2.625"
"1575566478100","670","-0.16796875","-1.0009766","0.072265625","0.90625","-1.0","-1.0625"
"1575566478101","671","-0.1484375","-1.0195312","0.068359375","1.5","3.21875","-0.875"
"1575566478101","672","-0.13574219","-1.0205078","0.043945312","-3.8125","2.125","-1.3125"
"1575566478102","673","-0.13085938","-0.9765625","0.059570312","-9.59375","5.1875","-4.40625"
"1575566478102","674","-0.13574219","-0.9550781","0.041992188","-7.15625","4.3125","-4.09375"
"1575566478102","675","-0.125","-0.9160156","0.041992188","-11.0","5.0625","-3.5"
"1575566478103","676","-0.12109375","-0.88378906","0.038085938","-7.53125","3.9375","-3.0625"
"1575566478103","677","-0.111328125","-0.9091797","0.037109375","-5.875","6.03125","-3.6875"
"1575566478103","678","-0.11425781","-0.9736328","0.0126953125","-4.71875","3.53125","-4.34375"
"1575566478104","679","-0.1171875","-0.9970703","0.036132812","-8.8125","5.0625","-1.40625"
"1575566478298","680","-0.15429688","-0.99316406","0.055664062","-3.4375","6.03125","0.84375"
"1575566478299","681","-0.12792969","-0.98046875","0.0390625","2.0625","2.0","4.0"
"1575566478299","682","-0.10058594","-0.99121094","0.0107421875","4.9375","0.0","2.90625"
"1575566478300","683","-0.12207031","-0.98339844","0.034179688","-1.84375","0.15625","0.40625"
"1575566478300","684","-0.14257812","-0.9902344","0.033203125","0.21875","3.03125","0.21875"
"1575566478301","685","-0.140625","-1.0146484","0.038085938","2.375","4.6875","1.03125"
"1575566478302","686","-0.123046875","-1.0","0.026367188","1.8125","4.5625","1.3125"
"1575566478302","687","-0.11230469","-0.9794922","0.03125","-1.0625","4.1875","-0.5625"
"1575566478302","688","-0.13378906","-0.9794922","0.038085938","-0.8125","3.65625","-0.3125"
"1575566478302","689","-0.14550781","-0.98828125","0.026367188","0.15625","4.25","0.21875"
"1575566478696","690","-0.12695312","-0.98339844","0.036132812","-0.875","4.25","0.03125"
"1575566478696","691","-0.13476562","-0.96484375","0.04296875","-0.75","5.40625","0.53125"
"1575566478696","692","-0.12695312","-0.9892578","0.044921875","0.96875","4.9375","1.75"
"1575566478696","693","-0.13378906","-1.0107422","0.04296875","0.03125","2.65625","2.0625"
"1575566478697","694","-0.140625","-1.0039062","0.0390625","0.09375","4.8125","2.3125"
"1575566478697","695","-0.12695312","-1.0","0.037109375","1.09375","2.0","2.375"
"1575566478697","696","-0.13085938","-0.96484375","0.030273438","-1.53125","0.40625","1.6875"
"1575566478698","697","-0.12207031","-0.97265625","0.055664062","1.6875","3.03125","1.75"
"1575566478699","698","-0.13671875","-0.98046875","0.041992188","0.34375","0.15625","0.34375"
"1575566478699","699","-0.12402344","-1.0","0.017578125","2.65625","1.15625","-1.1875"
"1575566479093","700","-0.15820312","-0.99121094","0.06347656","-2.75","1.28125","-0.75"
"1575566479094","701","-0.12792969","-0.95410156","0.030273438","-0.875","0.90625","-1.34375"
"1575566479094","702","-0.13574219","-0.9423828","0.044921875","-2.46875","1.09375","-1.84375"
"1575566479094","703","-0.16015625","-0.9638672","0.044921875","0.65625","3.21875","0.03125"
"1575566479094","704","-0.13476562","-0.96191406","0.03515625","-0.75","2.1875","-0.625"
"1575566479095","705","-0.13476562","-0.9296875","0.060546875","-0.375","1.75","-1.25"
"1575566479095","706","-0.16894531","-0.9921875","0.044921875","5.46875","1.5625","1.5625"
"1575566479095","707","-0.16015625","-1.0341797","0.072265625","2.0","3.03125","2.1875"
"1575566479095","708","-0.17285156","-1.0058594","0.07519531","2.84375","1.21875","2.71875"
"1575566479097","709","-0.15722656","-1.0087891","0.0146484375","6.625","-0.75","3.21875"
"1575566479493","710","-0.13769531","-0.9716797","0.036132812","-2.34375","-3.375","3.34375"
"1575566479493","711","-0.16503906","-0.96191406","0.13183594","-1.0","2.90625","3.59375"
"1575566479494","712","-0.15820312","-1.2480469","0.10546875","16.53125","7.90625","4.1875"
"1575566479494","713","-0.12988281","-1.2197266","-0.068359375","-3.875","-13.3125","-1.0"
"1575566479494","714","-0.12597656","-0.82910156","0.03515625","-28.34375","-9.28125","-2.21875"
"1575566479494","715","-0.16308594","-0.7675781","0.14941406","0.21875","6.03125","-1.34375"
"1575566479495","716","-0.12988281","-1.1376953","0.01953125","18.65625","4.1875","6.21875"
"1575566479495","717","-0.140625","-1.1445312","-0.020507812","-12.65625","-2.15625","-6.125"
"1575566479495","718","-0.15136719","-0.8847656","0.060546875","-15.09375","3.28125","-7.71875"
"1575566479496","719","-0.12988281","-0.9189453","0.05859375","1.03125","4.0","0.90625"
"1575566480087","720","-0.14746094","-1.015625","0.025390625","-0.75","-0.6875","2.96875"
"1575566480088","721","-0.1640625","-1.0214844","0.01953125","-1.0","4.75","-2.34375"
"1575566480089","722","-0.1328125","-0.98828125","0.026367188","-4.03125","3.84375","-0.6875"
"1575566480089","723","-0.13476562","-0.9560547","0.013671875","-2.15625","1.3125","-1.0625"
"1575566480089","724","-0.1171875","-1.0205078","0.0029296875","-1.34375","2.96875","-2.53125"
"1575566480090","725","-0.12792969","-1.046875","0.013671875","-2.34375","1.28125","-4.65625"
"1575566480090","726","-0.15917969","-1.0078125","0.030273438","-0.5625","0.96875","-2.34375"
"1575566480090","727","-0.14355469","-1.0517578","0.034179688","2.5","3.78125","-2.09375"
"1575566480090","728","-0.13378906","-1.0488281","0.056640625","-1.96875","1.6875","-2.28125"
"1575566480091","729","-0.1875","-1.0820312","0.0703125","2.0625","3.71875","-1.78125"
"1575566480286","730","-0.16210938","-1.0888672","0.047851562","3.59375","0.96875","2.0625"
"1575566480286","731","-0.13574219","-0.9609375","0.041992188","0.21875","-0.125","-0.6875"
"1575566480286","732","-0.12695312","-0.9511719","0.07714844","-3.96875","-0.8125","-2.59375"
"1575566480288","733","-0.15722656","-1.0087891","0.048828125","0.03125","-0.75","-3.25"
"1575566480288","734","-0.21582031","-1.0712891","0.06542969","-3.6875","2.1875","-2.28125"
"1575566480288","735","-0.16015625","-1.0498047","0.0234375","-2.75","5.84375","-4.28125"
"1575566480289","736","-0.099609375","-0.96484375","0.029296875","-10.5","3.71875","-5.09375"
"1575566480289","737","-0.13183594","-0.8955078","0.033203125","-12.21875","-0.4375","-5.625"
"1575566480289","738","-0.14355469","-0.85058594","0.045898438","-8.8125","3.53125","-5.375"
"1575566480290","739","-0.11425781","-0.88378906","0.009765625","-7.40625","1.9375","-5.875"
"1575566480684","740","-0.12890625","-0.9345703","0.04296875","-10.5","2.90625","-7.09375"
"1575566480684","741","-0.15234375","-1.0009766","0.026367188","-7.46875","3.28125","-4.90625"
"1575566480684","742","-0.1484375","-0.9970703","0.0234375","-8.6875","2.59375","-3.3125"
"1575566480685","743","-0.15136719","-0.95703125","0.0625","-3.875","3.46875","0.15625"
"1575566480685","744","-0.14746094","-0.9716797","0.038085938","-1.34375","1.75","3.21875"
"1575566480686","745","-0.15625","-0.9980469","0.0146484375","-0.5625","1.3125","4.0"
"1575566480686","746","-0.14257812","-0.9951172","0.040039062","-1.84375","3.71875","2.84375"
"1575566480687","747","-0.16894531","-0.97753906","0.038085938","-0.75","4.625","2.84375"
"1575566480687","748","-0.16601562","-0.98339844","0.017578125","4.375","6.03125","2.5"
"1575566480687","749","-0.13769531","-0.98339844","0.030273438","-0.3125","4.875","1.03125"
"1575566481082","750","-0.15039062","-0.99316406","-0.001953125","4.4375","3.34375","0.28125"
"1575566481082","751","-0.13378906","-1.0","0.021484375","-0.25","3.15625","-0.5"
"1575566481082","752","-0.14257812","-0.9794922","0.030273438","-0.0625","5.1875","-1.34375"
"1575566481083","753","-0.14648438","-1.0009766","0.0146484375","1.75","5.53125","-1.0"
"1575566481083","754","-0.12792969","-0.99121094","0.00390625","0.21875","5.0625","-1.3125"
"1575566481083","755","-0.1484375","-0.9404297","0.015625","-2.34375","7.5","-3.0625"
"1575566481083","756","-0.13964844","-0.9394531","0.0234375","0.03125","7.625","-2.34375"
"1575566481084","757","-0.1328125","-0.9453125","0.0078125","3.59375","2.65625","-1.71875"
"1575566481085","758","-0.13769531","-0.95996094","-0.0126953125","3.65625","-0.8125","-2.40625"
"1575566481085","759","-0.14453125","-0.96191406","0.040039062","1.9375","-0.1875","-2.59375"
"1575566481676","760","-0.12695312","-0.92285156","0.026367188","7.3125","-5.4375","-1.3125"
"1575566481677","761","-0.14648438","-0.9355469","0.0546875","2.84375","-2.59375","-1.34375"
"1575566481677","762","-0.171875","-0.98339844","0.038085938","10.53125","-4.40625","2.25"
"1575566481677","763","-0.18164062","-0.9902344","0.029296875","5.84375","-3.25","3.90625"
"1575566481678","764","-0.17285156","-0.9824219","0.119140625","0.65625","5.40625","2.4375"
"1575566481678","765","-0.19726562","-1.0068359","0.08300781","13.15625","0.21875","6.46875"
"1575566481678","766","-0.18554688","-0.99902344","0.032226562","5.40625","5.59375","3.46875"
"1575566481678","767","-0.14257812","-0.9707031","0.13671875","1.15625","6.8125","8.46875"
"1575566481679","768","-0.19921875","-1.0087891","0.061523438","15.0625","4.25","7.90625"
"1575566481680","769","-0.18847656","-1.4150391","0.13867188","11.9375","25.25","4.0625"
"1575566481877","770","-0.125","-1.1835938","-0.0048828125","-4.84375","-14.71875","7.25"
"1575566481877","771","-0.12597656","-0.7138672","0.041015625","-29.4375","-4.28125","-2.625"
"1575566481878","772","-0.16308594","-0.81347656","0.16210938","5.78125","15.5625","-1.65625"
"1575566481878","773","-0.12597656","-1.2734375","0.046875","13.03125","4.8125","5.46875"
"1575566481878","774","-0.15039062","-1.1191406","-0.0048828125","-22.78125","-3.8125","-15.59375"
"1575566481878","775","-0.13964844","-0.8652344","0.09863281","-24.3125","2.4375","-14.53125"
"1575566481879","776","-0.13964844","-0.90234375","0.10644531","-7.65625","0.28125","-8.9375"
"1575566481879","777","-0.140625","-1.0390625","0.043945312","-6.71875","-5.03125","-5.375"
"1575566481879","778","-0.16113281","-1.0498047","0.041992188","-14.125","0.96875","-16.0"
"1575566481879","779","-0.13769531","-0.9863281","0.052734375","-15.21875","0.90625","-15.8125"
"1575566482275","780","-0.099609375","-0.9658203","0.045898438","-16.4375","0.15625","-13.125"
"1575566482276","781","-0.08496094","-0.9765625","0.001953125","-9.96875","-0.3125","-13.25"
"1575566482277","782","-0.09277344","-1.0019531","-9.765625E-4","-12.03125","0.59375","-13.3125"
"1575566482277","783","-0.05078125","-0.99609375","-0.041015625","-6.78125","2.25","-11.625"
"1575566482277","784","-0.0546875","-1.0087891","-0.033203125","-11.25","0.34375","-6.90625"
"1575566482277","785","-0.08105469","-0.9873047","-0.032226562","-12.28125","5.84375","-7.65625"
"1575566482278","786","-0.0625","-0.99121094","-0.02734375","-8.9375","13.46875","-5.5625"
"1575566482278","787","-0.037109375","-1.0185547","-0.022460938","-5.03125","13.09375","-1.71875"
"1575566482278","788","-0.056640625","-0.98828125","-0.01953125","-6.375","13.90625","-3.375"
"1575566482278","789","-0.06542969","-1.0058594","-0.026367188","-1.46875","15.375","-0.3125"
"1575566482671","790","-0.041992188","-1.0","-0.024414062","-4.28125","15.25","-0.6875"
"1575566482671","791","-0.064453125","-0.9941406","-0.032226562","-6.0","16.03125","-1.125"
"1575566482672","792","-0.07714844","-1.0","-0.017578125","-5.375","17.5625","1.21875"
"1575566482673","793","-0.14941406","-1.0078125","-0.046875","0.21875","19.09375","1.75"
"1575566482673","794","-0.10839844","-1.0097656","-0.037109375","-0.9375","26.15625","2.3125"
"1575566482673","795","-0.12402344","-0.98339844","-0.017578125","-3.25","30.3125","4.125"
"1575566482674","796","-0.15722656","-0.9980469","-0.048828125","0.96875","37.46875","5.78125"
"1575566482674","797","-0.17285156","-0.9814453","-0.057617188","-0.625","42.84375","8.46875"
"1575566482674","798","-0.19433594","-0.9863281","-0.03125","-0.1875","50.09375","13.28125"
"1575566482674","799","-0.171875","-0.98828125","-0.0703125","3.46875","54.0","15.65625"
"1575566483069","800","-0.16699219","-1.0117188","-0.07910156","2.3125","55.03125","18.0625"
"1575566483070","801","-0.15332031","-0.98828125","-0.07128906","1.5625","56.5","16.21875"
"1575566483070","802","-0.12988281","-1.0097656","-0.083984375","0.34375","54.1875","11.8125"
"1575566483071","803","-0.12109375","-1.015625","-0.11425781","-3.0","47.65625","5.0625"
"1575566483071","804","-0.09765625","-1.0371094","-0.095703125","-6.4375","47.21875","-4.21875"
"1575566483072","805","-0.099609375","-0.9902344","-0.0859375","-2.59375","37.53125","-7.875"
"1575566483072","806","-0.14453125","-0.9501953","-0.099609375","1.8125","34.53125","-9.34375"
"1575566483073","807","-0.1640625","-0.9746094","-0.11621094","6.5625","34.03125","-8.25"
"1575566483073","808","-0.16015625","-0.9785156","-0.1171875","3.90625","34.78125","-8.875"
"1575566483073","809","-0.17382812","-0.9873047","-0.09667969","4.3125","35.1875","-9.0"
