"# PR data"
"# Start time: 20191205T182311"
"# Subject: ron"
"# Activity type: Bicep curl"
"# Correctness: Correct"
"# Notes: "
""
"timestamp","seq","accel_x","accel_y","accel_z","gyro_x","gyro_y","gyro_z"
"1575566591389","0","0.022460938","-0.9941406","-0.0625","-1.59375","4.0625","-2.875"
"1575566591389","1","0.028320312","-0.9921875","-0.05859375","-0.625","6.03125","-3.0"
"1575566591389","2","0.0390625","-1.0087891","-0.076171875","0.46875","5.34375","-1.59375"
"1575566591390","3","0.041015625","-1.0097656","-0.078125","-0.6875","5.0625","-2.875"
"1575566591390","4","0.046875","-1.0214844","-0.08984375","2.84375","0.78125","-1.0625"
"1575566591391","5","0.041992188","-1.0107422","-0.06542969","1.75","1.15625","-0.5"
"1575566591391","6","0.036132812","-1.0","-0.06347656","1.03125","2.90625","-1.59375"
"1575566591391","7","0.03515625","-1.0029297","-0.059570312","1.5625","3.53125","-1.84375"
"1575566591392","8","0.046875","-0.9970703","-0.0625","2.0","2.65625","-1.3125"
"1575566591392","9","0.03515625","-1.0","-0.044921875","0.84375","1.8125","-1.0625"
"1575566591785","10","0.03515625","-1.0078125","-0.059570312","1.5625","2.4375","-1.125"
"1575566591786","11","0.041015625","-0.99121094","-0.06347656","-1.84375","1.75","-1.65625"
"1575566591786","12","0.038085938","-1.0009766","-0.038085938","0.03125","2.5625","-1.0625"
"1575566591788","13","0.03515625","-0.9902344","-0.041992188","-1.59375","3.40625","-3.0625"
"1575566591788","14","0.041992188","-1.0253906","-0.072265625","1.3125","3.34375","-1.71875"
"1575566591789","15","0.040039062","-1.0","-0.052734375","-2.75","3.65625","-1.90625"
"1575566591789","16","0.030273438","-1.0009766","-0.055664062","-1.78125","5.1875","-2.6875"
"1575566591789","17","0.048828125","-1.0048828","-0.059570312","-1.46875","5.0","-1.3125"
"1575566591790","18","0.049804688","-1.0029297","-0.052734375","-1.65625","2.3125","-1.25"
"1575566591790","19","0.038085938","-0.99902344","-0.052734375","-1.65625","2.5","-1.40625"
"1575566592182","20","0.049804688","-1.0087891","-0.059570312","-0.25","2.4375","-1.125"
"1575566592182","21","0.037109375","-1.0","-0.059570312","-0.6875","1.75","-0.625"
"1575566592183","22","0.038085938","-1.0","-0.0625","0.09375","2.125","-0.5"
"1575566592183","23","0.038085938","-1.0029297","-0.053710938","1.375","1.5625","0.0"
"1575566592183","24","0.041015625","-1.0029297","-0.059570312","0.84375","2.1875","0.15625"
"1575566592184","25","0.040039062","-1.0087891","-0.051757812","-0.25","2.0","0.46875"
"1575566592185","26","0.049804688","-1.0009766","-0.059570312","1.4375","1.75","0.40625"
"1575566592185","27","0.034179688","-1.0107422","-0.041015625","-1.1875","-1.1875","0.53125"
"1575566592185","28","0.03125","-1.0019531","-0.044921875","0.65625","2.375","0.78125"
"1575566592185","29","0.02734375","-0.9863281","-0.028320312","-2.875","2.4375","-1.25"
"1575566592580","30","0.038085938","-1.0175781","-0.0625","2.0","3.46875","-0.6875"
"1575566592580","31","0.040039062","-1.0097656","-0.045898438","-1.0","2.1875","0.0"
"1575566592581","32","0.036132812","-0.99609375","-0.048828125","0.28125","1.5","-0.375"
"1575566592581","33","0.038085938","-1.0039062","-0.05078125","0.0","1.875","0.0"
"1575566592581","34","0.036132812","-1.0166016","-0.047851562","-0.75","1.9375","-0.625"
"1575566592581","35","0.028320312","-0.99902344","-0.043945312","-2.34375","2.5","-1.71875"
"1575566592582","36","0.0390625","-1.0029297","-0.047851562","-1.46875","2.375","-1.0625"
"1575566592582","37","0.043945312","-1.0029297","-0.044921875","-2.09375","1.8125","-1.125"
"1575566592582","38","0.037109375","-1.0087891","-0.0546875","-2.28125","1.15625","-1.84375"
"1575566592583","39","0.040039062","-1.0136719","-0.059570312","-2.34375","1.28125","-1.71875"
"1575566592978","40","0.047851562","-1.0117188","-0.057617188","-3.125","0.28125","-1.3125"
"1575566592979","41","0.049804688","-0.99121094","-0.051757812","-2.9375","-0.0625","-0.375"
"1575566592979","42","0.0234375","-0.9970703","-0.045898438","-3.3125","-0.75","-1.40625"
"1575566592979","43","0.021484375","-1.0009766","-0.055664062","-3.875","1.75","-1.90625"
"1575566592980","44","0.01953125","-1.0166016","-0.061523438","-3.96875","2.3125","-1.25"
"1575566592980","45","0.040039062","-0.9970703","-0.07128906","-4.03125","6.15625","-1.96875"
"1575566592980","46","0.046875","-0.99609375","-0.046875","-6.59375","3.53125","-1.71875"
"1575566592980","47","0.0625","-1.0029297","-0.07519531","-1.34375","5.28125","-3.125"
"1575566592981","48","0.047851562","-1.046875","-0.095703125","-5.03125","4.5","-1.96875"
"1575566592982","49","0.059570312","-0.99609375","-0.07324219","-10.40625","3.03125","-4.09375"
"1575566593572","50","0.0625","-0.9746094","-0.06347656","-6.90625","1.5625","-3.25"
"1575566593572","51","0.047851562","-1.0107422","-0.07714844","-2.75","-1.125","-1.71875"
"1575566593572","52","0.040039062","-0.9863281","-0.06738281","-2.28125","-2.28125","-2.21875"
"1575566593573","53","0.044921875","-1.0068359","-0.07324219","0.21875","-3.4375","1.15625"
"1575566593573","54","0.037109375","-1.0126953","-0.07910156","1.28125","-3.6875","1.8125"
"1575566593573","55","0.041015625","-0.98339844","-0.064453125","0.96875","-1.53125","2.25"
"1575566593573","56","0.040039062","-0.9970703","-0.07324219","0.78125","-0.375","2.375"
"1575566593574","57","0.040039062","-1.0058594","-0.08105469","0.84375","-1.1875","2.5"
"1575566593574","58","0.049804688","-1.0009766","-0.08691406","0.28125","-1.125","2.25"
"1575566593574","59","0.037109375","-1.0019531","-0.07714844","-0.3125","-3.0","1.375"
"1575566593773","60","0.03125","-1.0058594","-0.080078125","1.625","-1.65625","1.3125"
"1575566593775","61","0.033203125","-0.99902344","-0.064453125","-0.1875","-0.5","0.65625"
"1575566593776","62","0.016601562","-0.9921875","-0.08300781","2.65625","-0.8125","0.40625"
"1575566593776","63","0.0146484375","-0.99902344","-0.055664062","-1.40625","-0.0625","0.0"
"1575566593776","64","0.022460938","-1.0097656","-0.08105469","2.0","1.5625","0.03125"
"1575566593777","65","0.024414062","-1.0068359","-0.07128906","1.3125","1.21875","1.21875"
"1575566593777","66","0.020507812","-0.99609375","-0.06347656","-0.4375","2.3125","0.0"
"1575566593777","67","0.03125","-0.9970703","-0.053710938","-0.5","4.125","-0.4375"
"1575566593778","68","0.0234375","-1.0058594","-0.056640625","0.65625","3.90625","-0.375"
"1575566593780","69","0.0146484375","-1.0048828","-0.0625","-0.75","3.28125","-1.125"
"1575566594169","70","0.029296875","-1.0058594","-0.059570312","0.09375","3.03125","-0.5"
"1575566594170","71","0.020507812","-1.0029297","-0.057617188","-0.1875","3.15625","-0.8125"
"1575566594170","72","0.026367188","-0.99902344","-0.061523438","0.40625","3.71875","-1.0625"
"1575566594170","73","0.032226562","-1.0146484","-0.06347656","-0.3125","2.4375","-0.8125"
"1575566594170","74","0.018554688","-0.9980469","-0.056640625","-0.75","2.0625","-0.6875"
"1575566594170","75","0.022460938","-1.0097656","-0.056640625","-0.125","2.96875","-1.0"
"1575566594171","76","0.022460938","-1.0019531","-0.056640625","-0.75","3.46875","-1.0"
"1575566594171","77","0.0234375","-1.0097656","-0.047851562","-2.15625","4.375","-0.625"
"1575566594171","78","0.017578125","-0.9863281","-0.08203125","0.28125","4.25","-1.25"
"1575566594171","79","0.032226562","-1.0087891","-0.041015625","-4.09375","3.71875","-1.40625"
"1575566594568","80","0.033203125","-1.0009766","-0.056640625","-2.09375","3.59375","-2.03125"
"1575566594568","81","0.0234375","-1.0166016","-0.07128906","-0.375","1.9375","-1.0"
"1575566594569","82","0.025390625","-0.99121094","-0.059570312","-2.75","1.6875","-1.78125"
"1575566594569","83","0.03515625","-0.99609375","-0.055664062","-2.59375","1.9375","-2.40625"
"1575566594569","84","0.02734375","-1.0107422","-0.07519531","-0.6875","-0.4375","-1.90625"
"1575566594571","85","0.0146484375","-0.99902344","-0.0625","-2.40625","0.09375","-2.15625"
"1575566594571","86","0.026367188","-1.0068359","-0.06933594","-2.28125","2.5","-3.0625"
"1575566594571","87","0.020507812","-1.0","-0.07128906","-1.34375","3.28125","-2.53125"
"1575566594572","88","0.034179688","-0.9951172","-0.072265625","-0.1875","4.8125","-1.71875"
"1575566594572","89","0.0390625","-1.0087891","-0.0703125","-0.8125","4.625","-1.125"
"1575566594966","90","0.024414062","-1.015625","-0.07714844","-1.125","3.9375","-1.25"
"1575566594966","91","0.028320312","-1.0058594","-0.061523438","-2.34375","4.0","-1.1875"
"1575566594967","92","0.040039062","-0.99316406","-0.05859375","-2.03125","4.5","-1.78125"
"1575566594967","93","0.041015625","-1.0039062","-0.051757812","-0.9375","2.96875","-1.0625"
"1575566594967","94","0.046875","-0.9863281","-0.07324219","3.34375","3.59375","-1.65625"
"1575566594967","95","0.028320312","-1.015625","-0.052734375","-2.6875","2.59375","-2.625"
"1575566594968","96","0.045898438","-1.0","-0.064453125","-1.53125","4.1875","-3.375"
"1575566594969","97","0.038085938","-1.015625","-0.07714844","0.40625","2.5625","-1.65625"
"1575566594970","98","0.025390625","-0.99902344","-0.07714844","-1.0","1.625","-2.15625"
"1575566594970","99","0.041015625","-1.0009766","-0.068359375","-1.71875","2.71875","-1.0625"
"1575566595365","100","0.044921875","-1.0166016","-0.07324219","-0.25","3.03125","-1.90625"
"1575566595365","101","0.044921875","-0.984375","-0.064453125","-2.03125","3.84375","-2.09375"
"1575566595366","102","0.0390625","-1.0136719","-0.07519531","0.46875","2.125","-1.59375"
"1575566595366","103","0.045898438","-0.9951172","-0.064453125","-0.125","2.1875","-1.59375"
"1575566595366","104","0.041015625","-1.0048828","-0.06542969","-0.125","2.78125","-1.1875"
"1575566595366","105","0.041015625","-1.0058594","-0.07324219","-1.3125","3.46875","-2.34375"
"1575566595367","106","0.04296875","-0.9921875","-0.061523438","-1.25","3.53125","-1.25"
"1575566595367","107","0.04296875","-1.0097656","-0.064453125","-1.46875","1.8125","-1.65625"
"1575566595367","108","0.046875","-0.9921875","-0.06933594","-0.3125","3.03125","-1.3125"
"1575566595368","109","0.033203125","-1.0175781","-0.06640625","-2.46875","1.15625","-1.0625"
"1575566595759","110","0.053710938","-1.0029297","-0.06542969","-0.25","3.15625","-0.8125"
"1575566595760","111","0.0390625","-0.97558594","-0.045898438","-0.8125","1.6875","-1.65625"
"1575566595760","112","0.057617188","-1.0224609","-0.076171875","2.78125","2.1875","-0.5625"
"1575566595760","113","0.048828125","-1.0058594","-0.06738281","-0.875","1.375","-0.9375"
"1575566595761","114","0.041992188","-0.98828125","-0.0546875","0.96875","0.34375","-1.46875"
"1575566595761","115","0.025390625","-1.0146484","-0.06542969","1.15625","1.3125","-0.4375"
"1575566595761","116","0.052734375","-0.98828125","-0.053710938","-0.625","2.375","-0.875"
"1575566595761","117","0.041015625","-1.0068359","-0.059570312","0.28125","0.90625","-1.125"
"1575566595762","118","0.044921875","-1.0097656","-0.061523438","-1.1875","2.4375","-0.25"
"1575566595762","119","0.049804688","-0.99902344","-0.060546875","-0.5625","2.65625","-0.6875"
"1575566596157","120","0.046875","-1.0146484","-0.068359375","-0.25","1.9375","-0.8125"
"1575566596157","121","0.05078125","-1.0126953","-0.059570312","-1.0625","1.3125","-1.125"
"1575566596158","122","0.041015625","-1.0019531","-0.060546875","-1.78125","1.28125","-1.59375"
"1575566596158","123","0.034179688","-0.9951172","-0.05859375","-1.96875","1.28125","-1.96875"
"1575566596158","124","0.044921875","-0.99902344","-0.06542969","-2.15625","2.65625","-1.59375"
"1575566596158","125","0.047851562","-1.0146484","-0.061523438","-2.75","2.78125","-1.125"
"1575566596159","126","0.05078125","-1.0019531","-0.06933594","-1.1875","3.28125","-1.25"
"1575566596159","127","0.041015625","-1.0019531","-0.044921875","-3.5625","0.40625","-1.0625"
"1575566596159","128","0.061523438","-1.0068359","-0.068359375","0.09375","1.75","-2.03125"
"1575566596160","129","0.052734375","-1.015625","-0.064453125","-1.78125","0.84375","-0.8125"
"1575566596753","130","0.047851562","-0.9892578","-0.05859375","-3.75","-0.9375","-1.59375"
"1575566596754","131","0.053710938","-0.9941406","-0.05078125","-4.59375","1.28125","-1.25"
"1575566596754","132","0.052734375","-1.0048828","-0.05859375","-4.28125","2.125","-0.875"
"1575566596754","133","0.03515625","-1.0146484","-0.07421875","-3.90625","0.71875","-2.40625"
"1575566596754","134","0.037109375","-1.0039062","-0.080078125","-2.875","0.96875","-1.78125"
"1575566596755","135","0.05078125","-0.98339844","-0.08105469","-3.1875","2.65625","-1.71875"
"1575566596755","136","0.06933594","-1.0009766","-0.08691406","0.78125","1.6875","0.90625"
"1575566596755","137","0.06738281","-1.0263672","-0.08984375","-2.40625","0.78125","0.65625"
"1575566596755","138","0.056640625","-1.0078125","-0.08203125","-5.25","0.28125","-1.34375"
"1575566596756","139","0.034179688","-0.9941406","-0.076171875","-7.53125","1.75","-2.9375"
"1575566597348","140","0.0146484375","-0.9746094","-0.068359375","-6.53125","3.15625","-3.0"
"1575566597349","141","0.030273438","-1.0136719","-0.08496094","-2.40625","4.25","-0.5"
"1575566597349","142","0.046875","-1.0097656","-0.076171875","-2.875","4.1875","0.96875"
"1575566597349","143","0.0546875","-0.9941406","-0.08300781","0.84375","5.90625","1.03125"
"1575566597350","144","0.06347656","-0.98339844","-0.08691406","-0.25","4.625","0.28125"
"1575566597350","145","0.06933594","-1.0224609","-0.11035156","1.3125","3.21875","0.96875"
"1575566597351","146","0.052734375","-0.9941406","-0.09082031","-2.03125","1.6875","0.40625"
"1575566597351","147","0.052734375","-0.99316406","-0.078125","-1.46875","2.71875","-1.0"
"1575566597351","148","0.044921875","-1.0068359","-0.083984375","1.21875","1.21875","0.0"
"1575566597351","149","0.045898438","-0.99609375","-0.072265625","0.28125","2.375","0.53125"
"1575566597546","150","0.043945312","-0.9980469","-0.08300781","1.8125","1.8125","1.15625"
"1575566597547","151","0.044921875","-1.0039062","-0.076171875","0.34375","2.0","1.625"
"1575566597547","152","0.03515625","-0.98535156","-0.08105469","1.75","1.6875","0.71875"
"1575566597547","153","0.041992188","-1.0048828","-0.08105469","1.15625","2.5","1.03125"
"1575566597548","154","0.037109375","-1.0068359","-0.08105469","-0.0625","2.25","0.90625"
"1575566597548","155","0.028320312","-1.0058594","-0.06640625","0.0","2.375","0.71875"
"1575566597548","156","0.036132812","-0.9980469","-0.072265625","0.0","2.96875","0.21875"
"1575566597549","157","0.02734375","-1.0058594","-0.07421875","1.625","1.75","0.34375"
"1575566597550","158","0.028320312","-0.984375","-0.08203125","0.40625","1.75","-0.375"
"1575566597550","159","0.040039062","-1.0214844","-0.051757812","-0.875","2.78125","0.15625"
"1575566598145","160","0.03125","-1.0","-0.0703125","-0.5","2.78125","-1.3125"
"1575566598145","161","0.041015625","-1.0117188","-0.08203125","2.1875","1.3125","0.21875"
"1575566598146","162","0.034179688","-0.99121094","-0.06347656","-0.5","0.84375","0.46875"
"1575566598146","163","0.028320312","-1.0039062","-0.06542969","-0.1875","1.5","0.0"
"1575566598146","164","0.036132812","-1.0039062","-0.06933594","1.09375","2.0625","0.03125"
"1575566598146","165","0.01953125","-1.0087891","-0.06347656","-0.0625","0.71875","0.03125"
"1575566598147","166","0.029296875","-1.0185547","-0.0625","-0.9375","2.59375","-1.40625"
"1575566598147","167","0.032226562","-1.0019531","-0.060546875","-1.34375","2.4375","-1.65625"
"1575566598147","168","0.032226562","-1.0","-0.068359375","-2.09375","3.15625","-2.28125"
"1575566598148","169","0.03125","-1.0146484","-0.07519531","-3.5625","5.0","-2.8125"
"1575566598344","170","0.041992188","-0.99902344","-0.06933594","-5.03125","5.71875","-3.3125"
"1575566598344","171","0.051757812","-0.99902344","-0.06640625","-3.6875","4.375","-2.53125"
"1575566598345","172","0.049804688","-1.0126953","-0.064453125","-4.84375","3.28125","-3.125"
"1575566598345","173","0.052734375","-1.0","-0.057617188","-4.34375","1.4375","-3.3125"
"1575566598345","174","0.03125","-0.98339844","-0.07128906","0.21875","0.09375","-2.53125"
"1575566598345","175","0.0048828125","-1.0039062","-0.056640625","-4.96875","0.84375","-3.8125"
"1575566598346","176","0.032226562","-0.9980469","-0.08886719","0.28125","3.65625","-3.8125"
"1575566598346","177","0.0390625","-1.0166016","-0.103515625","1.5","3.78125","-0.1875"
"1575566598346","178","0.041015625","-1.0019531","-0.095703125","-1.71875","4.625","-0.9375"
"1575566598346","179","0.048828125","-1.0117188","-0.08203125","-1.25","4.3125","-0.125"
"1575566598741","180","0.04296875","-1.0214844","-0.09277344","-1.40625","3.15625","-0.6875"
"1575566598742","181","0.038085938","-0.99902344","-0.08203125","-4.03125","4.125","-2.34375"
"1575566598742","182","0.046875","-0.98535156","-0.07714844","-4.46875","3.46875","-3.125"
"1575566598742","183","0.064453125","-1.0029297","-0.080078125","-1.78125","2.71875","-1.3125"
"1575566598743","184","0.05859375","-1.0087891","-0.07910156","-2.03125","1.5","-0.3125"
"1575566598743","185","0.053710938","-1.0","-0.07910156","-2.21875","1.5","-0.9375"
"1575566598743","186","0.059570312","-0.9970703","-0.07714844","-2.6875","0.59375","-0.75"
"1575566598743","187","0.04296875","-1.0048828","-0.08691406","-1.71875","-1.65625","-0.5"
"1575566598744","188","0.03515625","-1.0","-0.09277344","-0.8125","-1.78125","-0.625"
"1575566598744","189","0.043945312","-0.99902344","-0.107421875","-2.09375","-1.96875","0.15625"
"1575566599139","190","0.05078125","-1.0009766","-0.07910156","-2.34375","-0.75","-0.4375"
"1575566599139","191","0.041015625","-0.99121094","-0.087890625","-3.125","-0.625","-1.0"
"1575566599139","192","0.041992188","-1.0029297","-0.10449219","0.34375","-0.75","-0.125"
"1575566599140","193","0.04296875","-1.0078125","-0.08691406","-2.46875","0.59375","-0.6875"
"1575566599140","194","0.03515625","-0.9873047","-0.08203125","-2.40625","1.15625","-2.03125"
"1575566599141","195","0.046875","-0.99902344","-0.09472656","1.875","2.4375","-1.1875"
"1575566599141","196","0.047851562","-1.0097656","-0.08886719","-2.03125","1.28125","-1.59375"
"1575566599141","197","0.037109375","-0.9863281","-0.091796875","-1.71875","2.59375","-2.15625"
"1575566599141","198","0.044921875","-1.0195312","-0.103515625","1.3125","2.0625","-1.40625"
"1575566599142","199","0.046875","-0.99316406","-0.0859375","-1.59375","2.4375","-1.78125"
"1575566600329","200","0.059570312","-0.98828125","-0.091796875","0.03125","2.3125","-1.90625"
"1575566600330","201","0.049804688","-1.0097656","-0.09375","-0.6875","2.4375","-1.46875"
"1575566600330","202","0.047851562","-1.0029297","-0.087890625","0.0","2.4375","-2.40625"
"1575566600330","203","0.044921875","-0.9980469","-0.083984375","-0.1875","2.3125","-1.53125"
"1575566600331","204","0.053710938","-1.0048828","-0.08886719","0.65625","2.78125","-0.9375"
"1575566600332","205","0.041992188","-0.97558594","-0.111328125","4.4375","2.0","-1.40625"
"1575566600333","206","0.049804688","-1.0166016","-0.060546875","-0.6875","2.125","-0.5625"
"1575566600333","207","0.0546875","-0.99121094","-0.08203125","0.03125","4.4375","-1.84375"
"1575566600333","208","0.06542969","-1.0205078","-0.09277344","2.90625","2.90625","0.03125"
"1575566600334","209","0.051757812","-0.9951172","-0.08203125","-1.125","1.5","-0.25"
"1575566600725","210","0.04296875","-0.9941406","-0.07128906","-0.75","2.25","-0.875"
"1575566600726","211","0.055664062","-1.0078125","-0.080078125","0.90625","2.0625","0.0"
"1575566600726","212","0.041992188","-1.0009766","-0.078125","-0.8125","1.09375","-1.25"
"1575566600727","213","0.044921875","-0.9980469","-0.08496094","1.03125","2.125","-0.9375"
"1575566600727","214","0.04296875","-1.015625","-0.0859375","1.15625","2.1875","0.28125"
"1575566600727","215","0.05859375","-0.99902344","-0.07519531","0.0","2.25","-0.3125"
"1575566600727","216","0.045898438","-1.0058594","-0.08300781","1.09375","1.8125","-0.3125"
"1575566600729","217","0.05078125","-1.0058594","-0.07421875","0.71875","1.09375","0.09375"
"1575566600729","218","0.0390625","-1.0068359","-0.068359375","0.03125","0.65625","-0.625"
"1575566600730","219","0.045898438","-0.984375","-0.06347656","-0.0625","0.34375","-0.3125"
"1575566600924","220","0.053710938","-1.0029297","-0.08105469","1.3125","1.3125","-0.125"
"1575566600924","221","0.041015625","-1.0195312","-0.072265625","-3.0","-0.5","-0.75"
"1575566600925","222","0.040039062","-1.0009766","-0.06640625","-3.125","2.3125","-1.34375"
"1575566600925","223","0.047851562","-0.98828125","-0.064453125","-4.03125","1.9375","-3.125"
"1575566600925","224","0.052734375","-1.0224609","-0.09375","-0.4375","2.78125","-1.65625"
"1575566600926","225","0.0546875","-1.0048828","-0.080078125","-5.15625","2.375","-1.34375"
"1575566600926","226","0.04296875","-0.99316406","-0.07519531","-6.0625","2.65625","-3.375"
"1575566600926","227","0.04296875","-1.0058594","-0.08496094","-3.96875","2.3125","-2.875"
"1575566600926","228","0.048828125","-1.0","-0.08203125","-4.15625","3.28125","-2.8125"
"1575566600927","229","0.0625","-1.0","-0.09082031","-3.90625","3.15625","-2.6875"
"1575566601124","230","0.057617188","-1.0097656","-0.10058594","-2.8125","1.5625","-2.15625"
"1575566601124","231","0.057617188","-0.9970703","-0.08984375","-2.9375","0.71875","-1.46875"
"1575566601125","232","0.052734375","-0.9970703","-0.08984375","-2.28125","0.59375","-1.34375"
"1575566601125","233","0.053710938","-1.0068359","-0.08691406","-2.6875","0.21875","-1.25"
"1575566601125","234","0.051757812","-1.0019531","-0.09277344","-1.53125","0.0","-0.875"
"1575566601125","235","0.046875","-1.0087891","-0.09082031","-1.46875","0.84375","-0.1875"
"1575566601126","236","0.05078125","-1.0058594","-0.078125","-3.0625","1.8125","-1.25"
"1575566601126","237","0.0625","-0.9970703","-0.09375","-3.125","3.40625","-2.03125"
"1575566601127","238","0.057617188","-0.99609375","-0.09472656","-4.03125","2.1875","-2.15625"
"1575566601127","239","0.06640625","-1.0078125","-0.09472656","-2.15625","3.9375","-1.59375"
"1575566601323","240","0.052734375","-0.9873047","-0.10253906","-4.65625","3.34375","-3.1875"
"1575566601324","241","0.072265625","-1.0068359","-0.11230469","-0.0625","2.96875","-1.65625"
"1575566601325","242","0.061523438","-0.9941406","-0.109375","-0.3125","0.84375","-0.375"
"1575566601325","243","0.056640625","-1.0","-0.10546875","-0.0625","0.28125","0.0"
"1575566601325","244","0.059570312","-0.99316406","-0.10449219","0.90625","-0.25","1.3125"
"1575566601326","245","0.060546875","-1.0019531","-0.09277344","0.40625","0.0","2.0"
"1575566601326","246","0.061523438","-1.0","-0.091796875","-0.0625","1.3125","1.3125"
"1575566601326","247","0.056640625","-1.0","-0.08984375","0.65625","1.3125","1.5625"
"1575566601326","248","0.053710938","-0.9970703","-0.087890625","-0.625","3.03125","0.78125"
"1575566601327","249","0.04296875","-0.99121094","-0.09082031","-0.25","3.03125","0.0"
"1575566601918","250","0.034179688","-0.99902344","-0.09863281","0.0","4.1875","0.03125"
"1575566601918","251","0.046875","-1.0","-0.09472656","0.09375","4.9375","0.03125"
"1575566601919","252","0.040039062","-0.9980469","-0.09082031","-0.5625","3.65625","0.21875"
"1575566601920","253","0.047851562","-1.0048828","-0.095703125","-0.25","3.9375","0.34375"
"1575566601920","254","0.051757812","-1.0019531","-0.091796875","-1.46875","3.84375","0.65625"
"1575566601920","255","0.05078125","-0.9814453","-0.09667969","1.375","3.71875","0.09375"
"1575566601921","256","0.043945312","-1.0097656","-0.06933594","-2.28125","1.4375","0.0"
"1575566601921","257","0.048828125","-1.0078125","-0.09863281","0.09375","2.3125","-1.84375"
"1575566601921","258","0.044921875","-1.0048828","-0.091796875","1.625","2.25","-0.25"
"1575566601922","259","0.044921875","-0.9970703","-0.09082031","-1.25","3.28125","-1.96875"
"1575566601923","260","0.044921875","-0.99902344","-0.078125","-1.90625","3.46875","-1.96875"
"1575566601924","261","0.045898438","-1.0058594","-0.09082031","-0.375","3.84375","-1.125"
"1575566601924","262","0.037109375","-1.0126953","-0.087890625","-3.0","4.25","-1.71875"
"1575566601925","263","0.047851562","-1.0058594","-0.09082031","-2.75","3.65625","-2.28125"
"1575566601925","264","0.04296875","-1.0019531","-0.0859375","-2.625","3.28125","-1.65625"
"1575566601925","265","0.051757812","-0.99609375","-0.09277344","-2.46875","3.15625","-2.75"
"1575566601925","266","0.05078125","-1.0068359","-0.09667969","-2.8125","2.125","-2.6875"
"1575566601926","267","0.052734375","-0.9970703","-0.095703125","-3.1875","2.0","-2.15625"
"1575566601926","268","0.051757812","-1.0009766","-0.09082031","-3.125","1.8125","-2.40625"
"1575566601926","269","0.059570312","-0.9951172","-0.09375","-1.84375","3.15625","-3.125"
"1575566602516","270","0.051757812","-1.0097656","-0.09863281","-1.78125","3.03125","-2.21875"
"1575566602516","271","0.052734375","-0.9814453","-0.111328125","1.15625","2.84375","-3.4375"
"1575566602517","272","0.05859375","-1.0009766","-0.07910156","-3.5625","1.75","-2.59375"
"1575566602517","273","0.06347656","-0.98535156","-0.1015625","-0.4375","3.65625","-2.9375"
"1575566602517","274","0.06542969","-1.0195312","-0.119140625","4.8125","1.75","0.0"
"1575566602517","275","0.06933594","-0.9921875","-0.1015625","1.21875","1.75","-0.6875"
"1575566602518","276","0.061523438","-0.99609375","-0.08496094","1.21875","1.03125","-0.375"
"1575566602519","277","0.047851562","-1.0019531","-0.09765625","2.0","2.375","-0.8125"
"1575566602520","278","0.057617188","-0.9970703","-0.08886719","0.34375","2.5","-0.75"
"1575566602520","279","0.056640625","-1.0009766","-0.087890625","-0.5625","1.3125","-0.875"
"1575566602914","280","0.059570312","-1.0097656","-0.08984375","1.03125","1.4375","0.03125"
"1575566602914","281","0.059570312","-0.99609375","-0.08984375","-0.0625","2.5","-1.0625"
"1575566602915","282","0.06933594","-0.9951172","-0.09472656","0.46875","3.21875","-0.6875"
"1575566602915","283","0.056640625","-1.0126953","-0.09082031","-0.5","2.25","-1.25"
"1575566602915","284","0.06640625","-0.9921875","-0.08203125","-0.4375","2.90625","-0.625"
"1575566602915","285","0.06542969","-1.0146484","-0.083984375","-1.25","1.9375","-0.4375"
"1575566602916","286","0.051757812","-0.99121094","-0.080078125","0.03125","2.4375","-0.8125"
"1575566602916","287","0.047851562","-0.98339844","-0.10644531","1.4375","2.3125","-0.5625"
"1575566602916","288","0.061523438","-1.0195312","-0.07128906","-3.375","2.1875","-0.3125"
"1575566602918","289","0.052734375","-0.97753906","-0.0859375","-3.0","2.96875","-1.78125"
"1575566603113","290","0.068359375","-1.0283203","-0.103515625","0.71875","2.1875","1.15625"
"1575566603114","291","0.052734375","-0.99316406","-0.09472656","-3.5","0.21875","-0.6875"
"1575566603114","292","0.047851562","-0.9970703","-0.09082031","-1.40625","2.5","0.09375"
"1575566603114","293","0.06640625","-1.0087891","-0.09082031","-4.40625","2.78125","-0.4375"
"1575566603115","294","0.06542969","-0.98828125","-0.08105469","-3.96875","2.59375","-0.4375"
"1575566603115","295","0.053710938","-1.0136719","-0.09765625","-3.8125","0.34375","-0.5"
"1575566603116","296","0.060546875","-0.9980469","-0.09472656","-4.28125","1.8125","-0.8125"
"1575566603117","297","0.046875","-0.99609375","-0.1015625","-2.15625","0.90625","-1.65625"
"1575566603117","298","0.051757812","-1.0029297","-0.103515625","-1.34375","1.4375","-0.8125"
"1575566603117","299","0.061523438","-1.0058594","-0.09863281","-2.21875","1.28125","-0.5"
"1575566603512","300","0.05078125","-1.0019531","-0.10253906","-1.96875","1.09375","-0.625"
"1575566603514","301","0.049804688","-0.99609375","-0.09277344","-1.40625","0.09375","0.0"
"1575566603514","302","0.045898438","-0.99609375","-0.10546875","-0.4375","-0.1875","0.15625"
"1575566603514","303","0.05859375","-1.0136719","-0.10449219","-0.25","0.15625","1.3125"
"1575566603515","304","0.047851562","-0.9785156","-0.11230469","1.15625","0.0","-0.1875"
"1575566603515","305","0.05078125","-1.015625","-0.07714844","-3.0","1.28125","-0.4375"
"1575566603515","306","0.053710938","-0.99902344","-0.107421875","-0.875","1.03125","-1.3125"
"1575566603516","307","0.051757812","-1.0136719","-0.10253906","0.78125","-0.8125","0.65625"
"1575566603516","308","0.045898438","-0.9873047","-0.08886719","-2.15625","-1.0","-1.34375"
"1575566603516","309","0.037109375","-0.99609375","-0.08886719","-1.3125","0.96875","-1.59375"
"1575566603910","310","0.049804688","-1.0107422","-0.10546875","0.28125","1.3125","-2.09375"
"1575566603910","311","0.043945312","-0.99902344","-0.09863281","-1.84375","2.375","-2.625"
"1575566603911","312","0.053710938","-1.0107422","-0.10546875","-1.78125","2.0","-2.46875"
"1575566603912","313","0.053710938","-0.9941406","-0.1015625","-2.15625","2.0","-1.65625"
"1575566603912","314","0.055664062","-0.99609375","-0.11230469","-0.625","1.5625","-1.34375"
"1575566603913","315","0.060546875","-0.99902344","-0.10644531","-1.40625","2.3125","-1.59375"
"1575566603913","316","0.053710938","-0.9941406","-0.095703125","-1.90625","2.78125","-2.03125"
"1575566603913","317","0.055664062","-0.9970703","-0.09863281","-0.5","2.5","-2.03125"
"1575566603913","318","0.048828125","-0.99609375","-0.09667969","-1.46875","2.4375","-1.65625"
"1575566603914","319","0.059570312","-1.0","-0.10644531","-0.375","3.46875","-1.1875"
"1575566604306","320","0.05859375","-1.0058594","-0.09863281","-2.875","3.53125","-0.5625"
"1575566604307","321","0.057617188","-0.99121094","-0.11621094","0.0","4.25","-0.875"
"1575566604307","322","0.061523438","-0.99609375","-0.08300781","-4.03125","2.84375","-1.65625"
"1575566604307","323","0.059570312","-1.0136719","-0.11816406","0.0","3.90625","-2.03125"
"1575566604307","324","0.05859375","-1.0078125","-0.10449219","-0.375","2.84375","-0.75"
"1575566604309","325","0.060546875","-0.9921875","-0.10449219","-1.65625","3.46875","-1.84375"
"1575566604309","326","0.056640625","-0.99902344","-0.10058594","-0.375","3.71875","-1.125"
"1575566604309","327","0.06347656","-1.0048828","-0.10644531","1.03125","2.4375","0.0"
"1575566604310","328","0.0546875","-0.9980469","-0.107421875","0.0","1.8125","-0.25"
"1575566604310","329","0.06542969","-1.0068359","-0.10253906","0.34375","2.1875","0.46875"
"1575566605103","330","0.053710938","-0.9970703","-0.10546875","0.90625","2.84375","0.34375"
"1575566605103","331","0.059570312","-0.99902344","-0.10449219","1.75","2.71875","0.28125"
"1575566605104","332","0.060546875","-0.9970703","-0.09472656","0.84375","2.5625","-0.3125"
"1575566605104","333","0.060546875","-0.99902344","-0.08984375","1.3125","2.4375","-0.3125"
"1575566605104","334","0.053710938","-0.99902344","-0.09472656","1.15625","1.6875","0.40625"
"1575566605104","335","0.049804688","-0.99609375","-0.087890625","1.03125","1.6875","0.46875"
"1575566605105","336","0.047851562","-1.0039062","-0.09667969","2.65625","1.875","0.46875"
"1575566605106","337","0.056640625","-1.0117188","-0.07421875","-1.125","1.625","0.03125"
"1575566605106","338","0.049804688","-1.0039062","-0.09277344","0.90625","2.96875","0.28125"
"1575566605107","339","0.041992188","-0.9951172","-0.07421875","-2.15625","1.9375","-1.25"
"1575566605300","340","0.053710938","-1.0078125","-0.09667969","2.375","2.65625","-0.625"
"1575566605300","341","0.048828125","-1.0","-0.08105469","1.09375","1.875","0.28125"
"1575566605300","342","0.040039062","-1.0048828","-0.08984375","-0.6875","1.9375","-1.1875"
"1575566605300","343","0.044921875","-0.9921875","-0.076171875","-1.53125","4.625","-1.34375"
"1575566605301","344","0.053710938","-1.0078125","-0.08691406","0.90625","4.0","-1.125"
"1575566605301","345","0.044921875","-0.99902344","-0.0859375","-0.375","4.5","-1.84375"
"1575566605301","346","0.0546875","-1.0107422","-0.087890625","-1.1875","4.125","-1.59375"
"1575566605301","347","0.055664062","-0.99316406","-0.07519531","-1.40625","4.1875","-1.96875"
"1575566605302","348","0.049804688","-1.0068359","-0.08496094","-2.09375","4.5","-2.53125"
"1575566605303","349","0.051757812","-1.0009766","-0.07910156","-3.90625","5.1875","-3.5625"
"1575566605895","350","0.049804688","-1.0","-0.080078125","-3.96875","3.84375","-2.9375"
"1575566605895","351","0.052734375","-1.0048828","-0.07910156","-4.03125","4.6875","-2.46875"
"1575566605896","352","0.061523438","-1.0039062","-0.07714844","-4.03125","3.34375","-2.46875"
"1575566605896","353","0.0625","-0.9980469","-0.10058594","-1.40625","2.4375","-2.59375"
"1575566605896","354","0.06640625","-1.015625","-0.08496094","-3.75","0.84375","-2.40625"
"1575566605896","355","0.07519531","-1.0","-0.09472656","-0.4375","1.375","-2.09375"
"1575566605897","356","0.0546875","-0.9873047","-0.07421875","-5.15625","-1.125","-2.625"
"1575566605897","357","0.05859375","-0.9980469","-0.109375","0.34375","3.21875","-3.96875"
"1575566605897","358","0.0625","-1.0146484","-0.111328125","-0.6875","2.84375","-1.90625"
"1575566605897","359","0.06933594","-0.9970703","-0.10058594","-2.6875","1.9375","-3.375"
"1575566605900","360","0.055664062","-1.0009766","-0.08886719","-1.1875","1.75","-1.71875"
"1575566605901","361","0.0625","-1.0097656","-0.10839844","-1.125","2.84375","-1.78125"
"1575566605901","362","0.078125","-1.0126953","-0.10644531","-1.25","3.15625","-1.40625"
"1575566605902","363","0.07128906","-0.9951172","-0.109375","-2.75","2.3125","-2.15625"
"1575566605902","364","0.078125","-1.0068359","-0.09863281","-1.65625","2.4375","-1.1875"
"1575566605902","365","0.06738281","-1.0078125","-0.09472656","-3.90625","1.5","-2.53125"
"1575566605903","366","0.07519531","-0.984375","-0.09765625","-3.875","1.9375","-3.25"
"1575566605903","367","0.07910156","-1.0097656","-0.10449219","-4.09375","-0.5625","-1.25"
"1575566605903","368","0.07714844","-0.9814453","-0.095703125","-4.21875","0.15625","-2.03125"
"1575566605903","369","0.08496094","-1.0078125","-0.11035156","-1.46875","0.15625","0.0"
"1575566606888","370","0.07324219","-1.0078125","-0.11425781","-2.8125","-0.3125","-1.125"
"1575566606888","371","0.07714844","-1.0097656","-0.11816406","-0.75","-1.125","0.0"
"1575566606889","372","0.068359375","-0.9794922","-0.13183594","-0.3125","-0.875","-1.78125"
"1575566606889","373","0.07714844","-0.99609375","-0.08496094","-2.8125","-0.25","-1.0"
"1575566606890","374","0.052734375","-0.99316406","-0.11816406","-1.25","-0.5625","-2.34375"
"1575566606891","375","0.07421875","-1.0058594","-0.11621094","2.125","1.15625","0.40625"
"1575566606891","376","0.08203125","-1.0","-0.109375","-1.46875","-0.5625","-1.53125"
"1575566606891","377","0.049804688","-0.9765625","-0.10839844","0.21875","2.25","-4.03125"
"1575566606891","378","0.08203125","-1.015625","-0.12402344","1.09375","3.53125","-2.875"
"1575566606892","379","0.08984375","-0.9873047","-0.09765625","-2.09375","1.6875","-2.9375"
"1575566607085","380","0.072265625","-0.99316406","-0.107421875","0.96875","-0.375","-0.75"
"1575566607085","381","0.08691406","-1.0029297","-0.10449219","1.09375","-0.8125","0.46875"
"1575566607086","382","0.08300781","-1.0","-0.09765625","0.34375","-0.75","-0.3125"
"1575566607086","383","0.08105469","-1.0","-0.115234375","1.375","0.0","0.28125"
"1575566607086","384","0.07324219","-1.0117188","-0.10058594","-0.125","0.71875","0.34375"
"1575566607087","385","0.07128906","-0.9892578","-0.09863281","-0.3125","2.59375","-0.6875"
"1575566607088","386","0.08105469","-1.0019531","-0.103515625","0.65625","2.65625","0.65625"
"1575566607088","387","0.07910156","-0.9970703","-0.09667969","0.46875","-0.8125","2.0"
"1575566607088","388","0.068359375","-0.9970703","-0.09765625","1.03125","-1.53125","2.125"
"1575566607088","389","0.060546875","-1.0146484","-0.091796875","0.28125","-0.375","3.09375"
"1575566607487","390","0.06542969","-0.98535156","-0.107421875","2.0","0.71875","1.5625"
"1575566607488","391","0.060546875","-1.0039062","-0.068359375","-2.21875","1.3125","1.03125"
"1575566607488","392","0.068359375","-0.99316406","-0.1015625","0.96875","3.78125","0.46875"
"1575566607488","393","0.053710938","-1.0205078","-0.10546875","1.21875","2.5625","1.15625"
"1575566607488","394","0.045898438","-0.98046875","-0.09863281","-1.71875","3.84375","-0.25"
"1575566607489","395","0.061523438","-0.99609375","-0.08886719","-0.9375","4.8125","0.40625"
"1575566607489","396","0.06640625","-1.0019531","-0.10253906","1.03125","2.375","0.21875"
"1575566607489","397","0.056640625","-1.0009766","-0.08691406","-0.875","1.15625","0.65625"
"1575566607490","398","0.059570312","-1.0058594","-0.09082031","0.90625","1.09375","0.53125"
"1575566607491","399","0.046875","-0.9951172","-0.08984375","0.46875","1.8125","-0.625"
"1575566607882","400","0.0546875","-0.9921875","-0.09082031","1.21875","2.71875","-1.71875"
"1575566607882","401","0.048828125","-1.0087891","-0.08984375","0.09375","3.03125","-2.59375"
"1575566607883","402","0.0546875","-1.0029297","-0.083984375","-1.3125","2.96875","-3.1875"
"1575566607883","403","0.05078125","-0.98828125","-0.08105469","-1.71875","2.84375","-2.625"
"1575566607883","404","0.048828125","-0.99316406","-0.08886719","-0.6875","3.28125","-1.96875"
"1575566607883","405","0.06542969","-0.9941406","-0.09277344","-2.15625","3.71875","-1.53125"
"1575566607884","406","0.08300781","-1.0107422","-0.09765625","-0.5625","3.46875","-0.9375"
"1575566607884","407","0.07519531","-0.9892578","-0.09277344","-4.21875","0.84375","-2.6875"
"1575566607884","408","0.07910156","-1.0048828","-0.07421875","-3.0","1.28125","-1.65625"
"1575566607886","409","0.047851562","-0.97753906","-0.08886719","-2.625","1.3125","-3.625"
"1575566608079","410","0.064453125","-1.0224609","-0.109375","0.46875","2.65625","-1.59375"
"1575566608079","411","0.059570312","-0.99902344","-0.095703125","-2.40625","2.0625","-1.71875"
"1575566608079","412","0.06347656","-0.9941406","-0.09472656","-2.03125","2.25","-1.34375"
"1575566608080","413","0.07910156","-0.99902344","-0.1015625","0.0","2.5625","0.09375"
"1575566608080","414","0.07421875","-1.0195312","-0.095703125","0.03125","1.15625","0.15625"
"1575566608080","415","0.072265625","-0.9951172","-0.08691406","-1.65625","1.9375","-1.125"
"1575566608080","416","0.0703125","-1.0009766","-0.08300781","-0.6875","0.78125","-1.25"
"1575566608081","417","0.060546875","-0.9941406","-0.08300781","-0.875","1.9375","-1.71875"
"1575566608081","418","0.06738281","-0.9873047","-0.08984375","-1.71875","2.84375","-1.125"
"1575566608081","419","0.083984375","-0.9902344","-0.09375","1.5","2.65625","0.15625"
"1575566608282","420","0.0703125","-1.0136719","-0.10058594","0.96875","2.125","1.21875"
"1575566608283","421","0.060546875","-1.0175781","-0.09765625","-0.6875","3.15625","0.03125"
"1575566608283","422","0.057617188","-1.0039062","-0.095703125","-1.0625","2.59375","-0.9375"
"1575566608283","423","0.059570312","-0.9824219","-0.083984375","-1.0625","1.6875","-1.0"
"1575566608283","424","0.053710938","-0.99316406","-0.076171875","-2.6875","0.84375","-0.1875"
"1575566608284","425","0.08300781","-1.0205078","-0.09082031","0.34375","5.34375","1.8125"
"1575566608284","426","0.06542969","-1.0039062","-0.078125","-3.1875","2.78125","-1.3125"
"1575566608284","427","0.0703125","-1.0136719","-0.09277344","1.625","3.03125","-0.875"
"1575566608285","428","0.056640625","-1.0","-0.07910156","0.90625","1.4375","-1.125"
"1575566608285","429","0.041992188","-0.9824219","-0.0859375","-0.6875","2.78125","-2.625"
"1575566608678","430","0.052734375","-0.9921875","-0.076171875","-0.9375","5.59375","-1.78125"
"1575566608679","431","0.06933594","-1.0175781","-0.0859375","0.71875","5.78125","-0.8125"
"1575566608679","432","0.0703125","-1.0009766","-0.08886719","0.21875","5.78125","-0.875"
"1575566608679","433","0.0703125","-1.0078125","-0.09277344","0.0","3.90625","-0.5"
"1575566608680","434","0.061523438","-0.99902344","-0.08496094","-1.1875","4.0","-1.0625"
"1575566608680","435","0.0625","-0.99609375","-0.06640625","-1.40625","3.84375","-1.34375"
"1575566608681","436","0.06347656","-0.9863281","-0.072265625","-1.40625","5.0625","-2.34375"
"1575566608681","437","0.06347656","-1.0068359","-0.07421875","0.09375","4.875","-0.875"
"1575566608681","438","0.07714844","-1.0058594","-0.08691406","-0.3125","5.53125","-0.375"
"1575566608681","439","0.078125","-1.0019531","-0.076171875","-0.6875","3.65625","0.0"
"1575566609273","440","0.068359375","-0.9951172","-0.0703125","-1.34375","2.65625","-0.4375"
"1575566609273","441","0.068359375","-1.0068359","-0.07324219","-1.0","2.96875","-0.8125"
"1575566609273","442","0.057617188","-0.97558594","-0.10058594","1.75","3.40625","-1.46875"
"1575566609274","443","0.061523438","-1.0214844","-0.059570312","-4.78125","2.375","-1.1875"
"1575566609274","444","0.056640625","-0.984375","-0.08300781","-2.75","3.84375","-3.1875"
"1575566609275","445","0.064453125","-1.0214844","-0.103515625","-0.0625","3.84375","0.34375"
"1575566609275","446","0.068359375","-1.0068359","-0.09082031","-4.71875","2.0","-1.1875"
"1575566609276","447","0.053710938","-0.99902344","-0.0859375","-4.59375","1.625","-1.25"
"1575566609276","448","0.064453125","-1.0019531","-0.10253906","-2.15625","2.59375","-0.6875"
"1575566609276","449","0.0703125","-1.0087891","-0.09277344","-4.28125","1.9375","-1.0625"
"1575566609474","450","0.068359375","-1.0048828","-0.1015625","-5.21875","-0.0625","-0.5"
"1575566609475","451","0.07128906","-1.0019531","-0.08105469","-5.3125","0.71875","-0.875"
"1575566609475","452","0.0703125","-1.0039062","-0.09375","-3.5","0.09375","-1.59375"
"1575566609475","453","0.057617188","-0.9892578","-0.09667969","-5.15625","-0.25","-1.96875"
"1575566609475","454","0.056640625","-0.9765625","-0.099609375","-2.8125","0.84375","-1.34375"
"1575566609476","455","0.07714844","-0.9970703","-0.1171875","0.65625","3.21875","0.78125"
"1575566609476","456","0.07910156","-1.0244141","-0.12109375","0.21875","2.65625","0.65625"
"1575566609477","457","0.0546875","-1.0107422","-0.115234375","-1.0","-1.1875","-1.125"
"1575566609478","458","0.055664062","-0.9716797","-0.09277344","-5.03125","1.28125","-1.53125"
"1575566609478","459","0.05859375","-0.9980469","-0.10449219","-2.34375","0.59375","0.0"
"1575566610068","460","0.06542969","-0.98046875","-0.1171875","0.15625","1.09375","-0.375"
"1575566610068","461","0.07324219","-1.0166016","-0.07910156","-2.8125","0.84375","1.3125"
"1575566610068","462","0.07421875","-0.9951172","-0.11425781","0.15625","0.0","-0.3125"
"1575566610069","463","0.06738281","-1.0009766","-0.11035156","0.34375","-1.0625","1.3125"
"1575566610069","464","0.0703125","-0.98828125","-0.103515625","-3.4375","-0.5","-0.9375"
"1575566610069","465","0.060546875","-0.9873047","-0.10253906","-1.78125","0.46875","-1.0"
"1575566610070","466","0.068359375","-1.0195312","-0.115234375","1.21875","1.21875","-0.375"
"1575566610070","467","0.045898438","-1.0068359","-0.109375","-0.1875","-0.1875","-0.625"
"1575566610070","468","0.064453125","-0.99316406","-0.111328125","0.40625","0.40625","-0.8125"
"1575566610071","469","0.048828125","-0.9902344","-0.10644531","0.15625","0.96875","-0.3125"
"1575566610268","470","0.047851562","-1.0107422","-0.111328125","-0.125","1.3125","-0.6875"
"1575566610269","471","0.055664062","-0.99316406","-0.10058594","-2.6875","3.28125","-1.96875"
"1575566610269","472","0.06640625","-1.0029297","-0.109375","-1.125","2.59375","-0.75"
"1575566610269","473","0.06542969","-1.0009766","-0.103515625","-0.625","1.03125","-0.9375"
"1575566610270","474","0.060546875","-0.9824219","-0.1015625","0.53125","2.3125","0.09375"
"1575566610270","475","0.059570312","-1.0117188","-0.10253906","0.34375","2.0","-0.375"
"1575566610270","476","0.053710938","-0.98046875","-0.10253906","-0.4375","3.46875","-1.78125"
"1575566610270","477","0.061523438","-1.0068359","-0.09667969","0.0","3.78125","-1.59375"
"1575566610271","478","0.045898438","-0.9892578","-0.11425781","-0.6875","2.0625","-2.625"
"1575566610271","479","0.07128906","-1.0009766","-0.07324219","-1.53125","4.375","-1.0625"
"1575566610667","480","0.056640625","-1.0019531","-0.11425781","0.40625","2.71875","-1.3125"
"1575566610668","481","0.06542969","-1.0078125","-0.10644531","1.3125","2.3125","-0.1875"
"1575566610669","482","0.07128906","-0.9902344","-0.10058594","-0.8125","1.8125","-0.25"
"1575566610669","483","0.060546875","-0.9951172","-0.09472656","-0.125","2.0","-0.625"
"1575566610669","484","0.05859375","-0.9980469","-0.10253906","1.875","1.3125","-0.25"
"1575566610670","485","0.055664062","-1.0136719","-0.09863281","0.21875","1.3125","0.0"
"1575566610670","486","0.055664062","-0.9970703","-0.08984375","0.28125","2.4375","-0.125"
"1575566610670","487","0.06347656","-1.0019531","-0.09082031","-0.5625","2.4375","0.09375"
"1575566610671","488","0.06640625","-0.99121094","-0.09863281","0.0","2.4375","-0.625"
"1575566610671","489","0.0625","-0.9970703","-0.099609375","0.0","1.6875","-0.4375"
"1575566611657","490","0.0625","-1.0078125","-0.08984375","0.0","1.8125","-0.375"
"1575566611658","491","0.048828125","-1.0039062","-0.09375","-0.125","1.75","-0.625"
"1575566611658","492","0.057617188","-1.0039062","-0.099609375","-0.625","2.3125","0.09375"
"1575566611659","493","0.060546875","-1.0068359","-0.09472656","-0.875","0.78125","0.09375"
"1575566611660","494","0.053710938","-0.99609375","-0.09375","-1.53125","0.65625","0.34375"
"1575566611660","495","0.0625","-1.0068359","-0.08886719","-1.53125","-0.5","0.78125"
"1575566611661","496","0.060546875","-0.9863281","-0.11230469","2.125","-0.3125","0.21875"
"1575566611661","497","0.051757812","-1.0029297","-0.068359375","-2.75","0.09375","-1.1875"
"1575566611661","498","0.04296875","-0.9941406","-0.09765625","0.71875","2.25","-1.71875"
"1575566611661","499","0.046875","-1.0166016","-0.08984375","1.375","2.96875","-0.625"
"1575566611860","500","0.055664062","-0.9814453","-0.08691406","-1.96875","3.03125","-2.09375"
"1575566611861","501","0.045898438","-0.9941406","-0.0859375","-1.125","3.84375","-2.03125"
"1575566611861","502","0.053710938","-1.0087891","-0.09667969","0.0","4.0","-1.40625"
"1575566611861","503","0.056640625","-1.0039062","-0.099609375","-0.5625","1.9375","-1.84375"
"1575566611862","504","0.05859375","-1.0058594","-0.09082031","0.34375","1.5625","-1.53125"
"1575566611863","505","0.05078125","-0.9951172","-0.08984375","0.96875","1.5625","-1.59375"
"1575566611863","506","0.047851562","-0.9921875","-0.083984375","-0.375","2.0","-2.09375"
"1575566611864","507","0.0546875","-1.0019531","-0.083984375","-1.0","2.96875","-2.40625"
"1575566611864","508","0.059570312","-1.0087891","-0.09082031","-1.1875","3.34375","-2.59375"
"1575566611864","509","0.06542969","-0.99902344","-0.07910156","-1.78125","3.9375","-2.9375"
"1575566612255","510","0.061523438","-0.9970703","-0.087890625","-0.625","3.65625","-3.0625"
"1575566612256","511","0.0703125","-1.0097656","-0.08886719","-0.3125","3.28125","-2.34375"
"1575566612256","512","0.072265625","-0.9970703","-0.091796875","-0.6875","3.59375","-2.21875"
"1575566612256","513","0.06347656","-0.9970703","-0.09375","-3.625","2.0625","-2.28125"
"1575566612257","514","0.07519531","-1.0107422","-0.07128906","-2.34375","4.0625","-1.1875"
"1575566612257","515","0.056640625","-0.97753906","-0.07324219","-6.3125","5.28125","-3.6875"
"1575566612257","516","0.07128906","-1.0039062","-0.095703125","0.65625","7.0","-2.53125"
"1575566612259","517","0.07714844","-1.0097656","-0.1015625","-3.625","5.71875","-1.40625"
"1575566612260","518","0.07714844","-0.9921875","-0.09277344","-3.25","6.21875","-2.6875"
"1575566612260","519","0.078125","-0.9980469","-0.10449219","-1.34375","4.5","-1.125"
"1575566612453","520","0.06640625","-1.0009766","-0.1015625","-2.15625","2.84375","-0.375"
"1575566612453","521","0.07128906","-0.9970703","-0.09472656","-1.1875","2.71875","-0.625"
"1575566612453","522","0.07128906","-0.9951172","-0.1015625","0.78125","1.3125","0.21875"
"1575566612454","523","0.06933594","-1.0068359","-0.09472656","-0.125","1.4375","0.09375"
"1575566612454","524","0.0703125","-0.99121094","-0.08886719","-1.1875","1.28125","-0.8125"
"1575566612454","525","0.068359375","-0.9970703","-0.09667969","-1.34375","1.28125","-0.8125"
"1575566612455","526","0.06347656","-1.0058594","-0.09863281","-0.375","0.96875","-1.3125"
"1575566612455","527","0.072265625","-1.0","-0.09765625","-0.8125","3.15625","-0.6875"
"1575566612455","528","0.07714844","-1.0019531","-0.095703125","-1.25","1.9375","-0.75"
"1575566612456","529","0.07128906","-0.9970703","-0.095703125","-3.6875","2.65625","-0.9375"
"1575566612653","530","0.07519531","-1.0039062","-0.08984375","-3.0625","2.0","-0.5625"
"1575566612654","531","0.06640625","-0.99902344","-0.11035156","-0.125","2.3125","-0.8125"
"1575566612654","532","0.059570312","-1.0126953","-0.07910156","-7.34375","2.0","-1.59375"
"1575566612654","533","0.07714844","-0.98828125","-0.103515625","-3.1875","3.71875","-2.6875"
"1575566612654","534","0.06347656","-1.0195312","-0.11816406","0.40625","1.375","0.03125"
"1575566612655","535","0.07910156","-0.9902344","-0.1015625","-3.75","2.1875","-1.1875"
"1575566612655","536","0.07714844","-0.99609375","-0.09765625","-3.0","2.84375","-0.875"
"1575566612660","537","0.07128906","-1.0097656","-0.09863281","-1.34375","2.78125","-0.75"
"1575566612661","538","0.07128906","-0.99121094","-0.099609375","-1.25","2.59375","-0.75"
"1575566612661","539","0.07519531","-1.0048828","-0.1015625","-0.75","2.0","-0.75"
"1575566613646","540","0.068359375","-0.99902344","-0.10644531","-1.46875","1.625","-0.4375"
"1575566613648","541","0.07128906","-0.9970703","-0.09667969","-1.46875","1.625","-0.9375"
"1575566613649","542","0.06542969","-1.0048828","-0.10546875","-1.40625","2.0","-1.0"
"1575566613649","543","0.068359375","-1.0009766","-0.10449219","-2.40625","2.65625","-1.25"
"1575566613650","544","0.068359375","-1.0009766","-0.103515625","-1.71875","2.78125","-0.8125"
"1575566613650","545","0.064453125","-1.0019531","-0.109375","-1.78125","1.9375","-0.625"
"1575566613650","546","0.072265625","-0.99902344","-0.10253906","-2.8125","2.78125","-1.25"
"1575566613650","547","0.07421875","-1.0078125","-0.099609375","-1.1875","1.9375","-1.1875"
"1575566613651","548","0.06933594","-0.98535156","-0.12402344","-3.125","1.03125","-1.65625"
"1575566613651","549","0.07714844","-1.0019531","-0.08203125","-3.625","1.9375","-1.84375"
"1575566613842","550","0.0703125","-0.9902344","-0.11230469","-2.21875","0.59375","-3.0"
"1575566613843","551","0.07324219","-1.0117188","-0.12011719","-0.0625","0.09375","-1.46875"
"1575566613843","552","0.056640625","-0.98046875","-0.10839844","-3.4375","1.15625","-3.4375"
"1575566613845","553","0.06933594","-0.98828125","-0.11230469","-2.09375","3.71875","-4.40625"
"1575566613845","554","0.080078125","-1.0","-0.12695312","0.21875","3.03125","-3.4375"
"1575566613846","555","0.076171875","-1.0058594","-0.115234375","-1.59375","2.78125","-2.59375"
"1575566613846","556","0.095703125","-1.0039062","-0.125","0.21875","2.65625","-2.46875"
"1575566613846","557","0.08984375","-1.0","-0.1171875","-0.75","2.25","-1.71875"
"1575566613846","558","0.08300781","-0.98828125","-0.10546875","-0.9375","2.96875","-2.9375"
"1575566613847","559","0.087890625","-0.9873047","-0.103515625","-0.625","3.28125","-2.59375"
"1575566614240","560","0.08300781","-1.0009766","-0.103515625","-1.96875","3.03125","-2.46875"
"1575566614240","561","0.087890625","-0.9970703","-0.10546875","-1.40625","2.4375","-2.28125"
"1575566614241","562","0.07714844","-1.0039062","-0.10546875","-2.53125","2.0625","-2.21875"
"1575566614241","563","0.09667969","-0.97558594","-0.111328125","-4.03125","3.34375","-2.59375"
"1575566614241","564","0.12109375","-1.0068359","-0.123046875","-2.15625","1.625","-1.53125"
"1575566614242","565","0.09277344","-0.97265625","-0.15527344","-2.15625","-2.15625","-2.21875"
"1575566614243","566","0.08886719","-1.0205078","-0.11230469","-1.78125","1.6875","-0.3125"
"1575566614243","567","0.091796875","-0.98339844","-0.119140625","-4.28125","4.1875","-2.21875"
"1575566614243","568","0.08886719","-1.0029297","-0.12792969","0.71875","2.65625","0.0"
"1575566614243","569","0.07714844","-0.9941406","-0.125","-2.625","1.9375","0.03125"
"1575566614639","570","0.09765625","-0.9892578","-0.11816406","-3.375","4.1875","-0.9375"
"1575566614640","571","0.10449219","-0.9902344","-0.12597656","-0.875","2.59375","0.15625"
"1575566614640","572","0.095703125","-1.0097656","-0.123046875","-1.40625","0.59375","0.84375"
"1575566614640","573","0.0859375","-0.98828125","-0.125","-1.3125","2.4375","-0.125"
"1575566614641","574","0.08691406","-1.0039062","-0.13183594","3.09375","0.96875","1.03125"
"1575566614641","575","0.08496094","-0.9921875","-0.11035156","3.59375","1.5","1.03125"
"1575566614641","576","0.08300781","-0.99121094","-0.10449219","4.5625","0.78125","0.28125"
"1575566614643","577","0.07910156","-0.9902344","-0.11425781","9.75","-2.03125","0.84375"
"1575566614643","578","0.08886719","-1.0058594","-0.10839844","11.21875","-1.84375","2.90625"
"1575566614644","579","0.10546875","-1.0214844","-0.091796875","8.53125","-3.75","2.125"
"1575566614837","580","0.08496094","-1.0146484","-0.09765625","6.625","-4.59375","0.03125"
"1575566614837","581","0.07519531","-0.99316406","-0.091796875","3.46875","-3.25","-0.4375"
"1575566614838","582","0.051757812","-0.96972656","-0.103515625","3.84375","-3.4375","-0.5625"
"1575566614838","583","0.05078125","-1.015625","-0.0625","-1.0625","-0.75","1.03125"
"1575566614838","584","0.057617188","-0.9814453","-0.064453125","-2.625","2.25","-2.8125"
"1575566614838","585","0.0703125","-1.0214844","-0.08105469","-1.34375","4.0","-1.71875"
"1575566614839","586","0.06933594","-0.9824219","-0.07714844","-4.96875","3.46875","-2.15625"
"1575566614839","587","0.0859375","-0.9873047","-0.08496094","-3.0","4.1875","-1.53125"
"1575566614839","588","0.10644531","-1.0058594","-0.08984375","-0.6875","2.0","0.0"
"1575566614840","589","0.09277344","-1.0097656","-0.09277344","0.28125","0.34375","-1.25"
"1575566615040","590","0.08105469","-0.9863281","-0.08105469","0.46875","0.21875","-1.3125"
"1575566615041","591","0.07519531","-0.99902344","-0.09082031","0.84375","0.78125","-1.0"
"1575566615041","592","0.06738281","-1.0029297","-0.08105469","-0.4375","1.4375","-0.625"
"1575566615041","593","0.06640625","-1.0009766","-0.08300781","-2.15625","2.71875","-1.34375"
"1575566615041","594","0.07324219","-0.99902344","-0.087890625","-0.9375","1.375","-0.4375"
"1575566615042","595","0.08105469","-1.0117188","-0.087890625","-1.34375","-0.1875","0.03125"
"1575566615042","596","0.0703125","-0.99902344","-0.08984375","0.46875","0.0","-1.125"
"1575566615042","597","0.08300781","-1.0009766","-0.08300781","0.71875","0.71875","-0.5"
"1575566615042","598","0.08691406","-1.0","-0.09277344","3.09375","0.0","-1.1875"
"1575566615043","599","0.07519531","-1.0019531","-0.08984375","2.25","-2.21875","-0.5"
"1575566615633","600","0.080078125","-1.0058594","-0.06738281","1.6875","0.40625","1.4375"
"1575566615634","601","0.06933594","-0.9824219","-0.060546875","0.59375","-0.1875","-0.125"
"1575566615635","602","0.080078125","-1.0214844","-0.08105469","4.0625","-0.375","0.09375"
"1575566615635","603","0.06933594","-1.0029297","-0.07421875","-0.25","-1.34375","0.21875"
"1575566615635","604","0.06347656","-0.9824219","-0.056640625","-0.0625","0.40625","-1.25"
"1575566615636","605","0.0703125","-0.9941406","-0.06738281","1.3125","2.5625","-0.875"
"1575566615636","606","0.076171875","-1.0058594","-0.06738281","0.0","0.84375","-0.5"
"1575566615636","607","0.07128906","-1.0009766","-0.053710938","-2.6875","0.28125","-0.75"
"1575566615636","608","0.06640625","-0.99609375","-0.06738281","-1.3125","0.78125","-0.9375"
"1575566615637","609","0.0703125","-0.99902344","-0.061523438","-1.96875","1.6875","-1.46875"
"1575566615834","610","0.080078125","-0.9951172","-0.06347656","-2.40625","0.65625","-1.34375"
"1575566615834","611","0.07421875","-0.9951172","-0.08300781","-0.5","1.9375","-1.53125"
"1575566615834","612","0.06933594","-1.0117188","-0.07324219","-4.46875","1.75","-1.59375"
"1575566615836","613","0.07324219","-1.0068359","-0.0859375","-3.4375","2.59375","-1.84375"
"1575566615836","614","0.07519531","-1.0048828","-0.08105469","-3.90625","3.84375","-0.625"
"1575566615836","615","0.072265625","-1.0039062","-0.08105469","-4.90625","3.03125","-1.34375"
"1575566615837","616","0.07421875","-1.0019531","-0.08105469","-5.6875","3.65625","-1.125"
"1575566615837","617","0.07421875","-0.99121094","-0.07910156","-7.28125","4.3125","-1.46875"
"1575566615837","618","0.076171875","-0.98535156","-0.083984375","-3.0","6.15625","-1.84375"
"1575566615837","619","0.08886719","-1.0","-0.07128906","-5.4375","3.34375","-1.34375"
"1575566616231","620","0.091796875","-1.0126953","-0.099609375","-2.34375","2.96875","-1.34375"
"1575566616232","621","0.078125","-1.0","-0.09277344","-3.0","1.8125","-0.4375"
"1575566616232","622","0.07519531","-0.9863281","-0.09765625","-2.53125","2.59375","-0.8125"
"1575566616232","623","0.07128906","-1.0","-0.1015625","-1.59375","3.65625","-0.5"
"1575566616232","624","0.0703125","-1.0068359","-0.103515625","-0.5625","3.65625","-0.1875"
"1575566616234","625","0.072265625","-0.99316406","-0.103515625","-0.375","3.28125","0.21875"
"1575566616234","626","0.078125","-1.0009766","-0.099609375","0.03125","2.65625","0.90625"
"1575566616234","627","0.06640625","-0.9902344","-0.09277344","-0.375","2.96875","0.65625"
"1575566616234","628","0.07324219","-0.99609375","-0.08984375","0.03125","3.46875","0.96875"
"1575566616235","629","0.08105469","-1.0009766","-0.091796875","-0.375","3.03125","0.03125"
"1575566616630","630","0.07519531","-0.9970703","-0.08496094","-0.3125","2.84375","-0.5625"
"1575566616631","631","0.07714844","-1.0","-0.087890625","0.21875","3.03125","0.21875"
"1575566616631","632","0.08203125","-0.9941406","-0.083984375","-0.0625","3.28125","-0.5625"
"1575566616631","633","0.06933594","-1.0019531","-0.09277344","1.75","2.1875","0.03125"
"1575566616632","634","0.07324219","-1.0097656","-0.08984375","0.46875","2.0625","0.21875"
"1575566616632","635","0.06542969","-1.0087891","-0.08300781","-0.3125","3.15625","-0.3125"
"1575566616632","636","0.060546875","-0.9736328","-0.10839844","2.84375","2.90625","-0.6875"
"1575566616634","637","0.06347656","-1.0146484","-0.06738281","-0.625","2.78125","-0.1875"
"1575566616634","638","0.056640625","-0.9824219","-0.07519531","-0.25","3.9375","-1.125"
"1575566616634","639","0.07324219","-1.0234375","-0.09277344","2.1875","3.40625","0.65625"
"1575566617225","640","0.078125","-1.0","-0.08105469","-0.9375","2.65625","-0.25"
"1575566617226","641","0.06738281","-0.9970703","-0.076171875","-0.9375","3.03125","-0.75"
"1575566617226","642","0.06738281","-0.9902344","-0.07910156","-0.6875","5.1875","-1.25"
"1575566617226","643","0.076171875","-1.0097656","-0.07324219","0.03125","3.40625","-0.375"
"1575566617227","644","0.0625","-1.0039062","-0.07421875","-1.90625","2.90625","-0.8125"
"1575566617227","645","0.06738281","-1.0048828","-0.07714844","-1.1875","4.25","-1.0"
"1575566617227","646","0.068359375","-1.0029297","-0.07910156","-1.71875","3.65625","-1.1875"
"1575566617227","647","0.0625","-0.9951172","-0.080078125","-2.15625","3.84375","-1.84375"
"1575566617228","648","0.06640625","-1.0019531","-0.078125","-3.0625","4.875","-2.09375"
"1575566617229","649","0.06738281","-0.9941406","-0.08691406","-2.34375","4.625","-1.53125"
"1575566617425","650","0.07421875","-1.0058594","-0.08691406","-0.875","3.53125","-0.75"
"1575566617426","651","0.06542969","-1.0039062","-0.08105469","-0.6875","2.0625","-0.75"
"1575566617426","652","0.06640625","-1.0","-0.07714844","-1.59375","1.5","-0.875"
"1575566617426","653","0.06542969","-1.0087891","-0.078125","-1.96875","0.90625","-1.0"
"1575566617427","654","0.06542969","-1.0048828","-0.08691406","-2.53125","1.9375","-1.1875"
"1575566617427","655","0.06933594","-0.99121094","-0.109375","1.5","3.34375","-1.125"
"1575566617427","656","0.07714844","-1.0078125","-0.06933594","-3.90625","2.65625","-0.9375"
"1575566617427","657","0.06542969","-0.9863281","-0.087890625","-0.875","3.84375","-2.875"
"1575566617428","658","0.07128906","-1.0224609","-0.087890625","1.09375","3.34375","-0.3125"
"1575566617428","659","0.0625","-0.99121094","-0.08886719","-2.875","2.125","-1.59375"
"1575566618018","660","0.07128906","-0.9863281","-0.0859375","-0.1875","2.5","-1.0"
"1575566618020","661","0.07421875","-1.0136719","-0.103515625","1.15625","3.21875","0.0"
"1575566618020","662","0.08300781","-1.0","-0.09082031","-2.03125","2.0","-0.8125"
"1575566618020","663","0.068359375","-0.9970703","-0.08496094","-3.3125","1.03125","-0.75"
"1575566618021","664","0.07421875","-0.9951172","-0.09082031","-1.84375","2.25","-1.125"
"1575566618021","665","0.07519531","-1.0019531","-0.08691406","-2.28125","1.15625","-0.625"
"1575566618021","666","0.068359375","-0.9951172","-0.09082031","-4.15625","1.375","-1.71875"
"1575566618022","667","0.08105469","-1.0","-0.08691406","-2.6875","1.28125","-1.1875"
"1575566618022","668","0.06542969","-1.0048828","-0.095703125","-2.28125","-0.5","-1.53125"
"1575566618022","669","0.0625","-0.9794922","-0.09863281","-1.1875","-0.1875","-1.34375"
"1575566618218","670","0.072265625","-1.0166016","-0.09375","-0.375","0.15625","0.90625"
"1575566618219","671","0.07128906","-1.0009766","-0.10253906","-0.5625","-1.25","-0.75"
"1575566618219","672","0.053710938","-0.9970703","-0.087890625","-0.9375","-0.25","-0.3125"
"1575566618221","673","0.08496094","-0.9892578","-0.09375","-0.3125","-0.0625","-0.8125"
"1575566618221","674","0.068359375","-1.0175781","-0.09082031","-0.625","-1.90625","-0.1875"
"1575566618222","675","0.078125","-0.98535156","-0.09375","1.09375","-0.125","-0.9375"
"1575566618222","676","0.041992188","-0.99121094","-0.07128906","-1.3125","-0.625","-1.96875"
"1575566618222","677","0.07519531","-1.0078125","-0.10644531","0.96875","2.90625","-2.9375"
"1575566618222","678","0.057617188","-1.0078125","-0.09765625","-0.875","-0.375","-0.4375"
"1575566618223","679","0.07128906","-0.97558594","-0.08984375","-1.84375","1.625","-0.75"
"1575566618617","680","0.083984375","-1.0107422","-0.08300781","0.03125","0.90625","-0.375"
"1575566618618","681","0.0625","-1.0097656","-0.09375","0.84375","0.40625","-0.75"
"1575566618618","682","0.07714844","-0.9794922","-0.08105469","0.34375","0.53125","-1.65625"
"1575566618618","683","0.07519531","-1.0","-0.08984375","2.3125","-0.375","-1.1875"
"1575566618618","684","0.07128906","-1.0107422","-0.08496094","2.59375","-0.3125","-0.9375"
"1575566618620","685","0.051757812","-1.0019531","-0.09277344","3.28125","-0.125","-0.75"
"1575566618620","686","0.076171875","-1.0058594","-0.08300781","2.84375","0.65625","-0.125"
"1575566618621","687","0.0625","-1.0107422","-0.080078125","2.0625","-0.9375","0.0"
"1575566618621","688","0.06738281","-0.9824219","-0.06738281","1.375","0.90625","-0.25"
"1575566618621","689","0.080078125","-1.0039062","-0.068359375","1.3125","1.21875","0.0"
"1575566619212","690","0.0703125","-1.0097656","-0.064453125","0.78125","0.84375","-1.0"
"1575566619212","691","0.06738281","-0.99902344","-0.06933594","0.46875","1.625","-1.125"
"1575566619213","692","0.06542969","-1.0029297","-0.0703125","-0.6875","1.4375","-1.90625"
"1575566619213","693","0.07714844","-1.0117188","-0.09375","0.65625","1.625","-1.53125"
"1575566619213","694","0.07324219","-1.0244141","-0.091796875","-1.34375","0.21875","-1.84375"
"1575566619213","695","0.07910156","-1.0058594","-0.080078125","-1.46875","0.40625","-2.34375"
"1575566619214","696","0.057617188","-0.9785156","-0.049804688","-4.46875","-1.78125","-3.5625"
"1575566619215","697","0.07128906","-0.9785156","-0.07128906","0.65625","-0.75","-1.71875"
"1575566619215","698","0.06640625","-0.99902344","-0.051757812","1.375","-3.375","0.0"
"1575566619215","699","0.051757812","-0.9892578","-0.061523438","3.40625","-3.125","-0.5625"
"1575566619611","700","0.0625","-0.9980469","-0.056640625","2.71875","0.09375","-0.8125"
"1575566619611","701","0.06933594","-1.0166016","-0.07324219","1.3125","1.6875","-1.34375"
"1575566619612","702","0.061523438","-0.99316406","-0.047851562","-3.0625","3.9375","-3.3125"
"1575566619612","703","0.060546875","-0.9980469","-0.060546875","-1.90625","6.875","-5.375"
"1575566619612","704","0.091796875","-1.0","-0.0703125","-2.09375","9.4375","-2.6875"
"1575566619612","705","0.10253906","-0.99609375","-0.0625","-2.6875","7.0625","-2.03125"
"1575566619613","706","0.09667969","-0.9941406","-0.049804688","-2.875","5.1875","-2.34375"
"1575566619613","707","0.0859375","-0.9980469","-0.06640625","-0.6875","1.09375","-1.0625"
"1575566619613","708","0.087890625","-1.0029297","-0.06640625","-0.75","0.03125","-0.8125"
"1575566619614","709","0.06347656","-0.9941406","-0.06933594","0.03125","-0.5","-0.8125"
"1575566619808","710","0.076171875","-1.0019531","-0.07128906","-0.0625","0.28125","0.21875"
"1575566619808","711","0.055664062","-0.9970703","-0.068359375","-1.1875","1.5","0.03125"
"1575566619809","712","0.07324219","-1.0","-0.06347656","-1.65625","4.5","0.40625"
"1575566619809","713","0.08203125","-1.0126953","-0.060546875","-1.40625","4.625","1.15625"
"1575566619809","714","0.06640625","-0.9785156","-0.07714844","1.3125","7.375","-0.5625"
"1575566619809","715","0.08496094","-1.0117188","-0.052734375","-1.40625","5.71875","1.09375"
"1575566619810","716","0.08691406","-0.984375","-0.057617188","-1.34375","6.875","-1.25"
"1575566619810","717","0.09765625","-1.0107422","-0.076171875","0.71875","5.65625","0.71875"
"1575566619810","718","0.07714844","-0.9921875","-0.06347656","-1.34375","4.6875","-0.75"
"1575566619811","719","0.06933594","-0.9980469","-0.060546875","-0.0625","4.6875","0.34375"
"1575566620405","720","0.068359375","-1.0039062","-0.07128906","0.34375","5.0","0.40625"
"1575566620407","721","0.07519531","-1.015625","-0.06640625","-1.40625","5.1875","-0.1875"
"1575566620408","722","0.0703125","-0.99316406","-0.06640625","-0.8125","3.40625","0.65625"
"1575566620408","723","0.06542969","-1.0058594","-0.06738281","0.40625","2.1875","1.4375"
"1575566620408","724","0.057617188","-1.0","-0.057617188","-0.6875","3.28125","1.09375"
"1575566620409","725","0.076171875","-1.0029297","-0.052734375","-1.25","3.84375","0.0"
"1575566620409","726","0.068359375","-0.9980469","-0.048828125","-0.75","4.0","-1.125"
"1575566620409","727","0.07519531","-1.0058594","-0.059570312","-0.125","3.40625","-1.25"
"1575566620409","728","0.0703125","-0.9921875","-0.056640625","-2.21875","2.90625","-1.1875"
"1575566620410","729","0.055664062","-0.99902344","-0.06738281","-0.25","3.34375","-0.25"
"1575566621000","730","0.07128906","-1.0078125","-0.0703125","-0.9375","2.65625","-0.4375"
"1575566621001","731","0.057617188","-1.0009766","-0.0703125","-2.28125","3.65625","-1.1875"
"1575566621001","732","0.072265625","-0.9980469","-0.068359375","-3.125","3.53125","-1.125"
"1575566621003","733","0.061523438","-0.9951172","-0.08886719","0.90625","2.78125","-0.25"
"1575566621003","734","0.07421875","-1.0126953","-0.053710938","-4.53125","1.03125","0.65625"
"1575566621003","735","0.06738281","-0.9921875","-0.07128906","-0.375","1.28125","-1.125"
"1575566621004","736","0.072265625","-1.0185547","-0.07324219","0.65625","0.65625","0.71875"
"1575566621004","737","0.076171875","-0.9873047","-0.057617188","-1.78125","-1.3125","0.15625"
"1575566621004","738","0.06347656","-0.9970703","-0.059570312","1.15625","-1.71875","-0.1875"
"1575566621004","739","0.055664062","-0.9970703","-0.061523438","1.09375","-1.0625","-0.3125"
"1575566621199","740","0.059570312","-1.0009766","-0.064453125","1.4375","0.09375","-0.6875"
"1575566621200","741","0.06933594","-1.0","-0.06933594","0.84375","-0.375","-0.125"
"1575566621200","742","0.06738281","-0.99902344","-0.060546875","1.03125","-0.9375","0.28125"
"1575566621200","743","0.055664062","-1.0039062","-0.056640625","0.65625","-0.625","0.28125"
"1575566621200","744","0.057617188","-0.9921875","-0.06347656","0.71875","0.03125","0.03125"
"1575566621201","745","0.061523438","-1.0048828","-0.057617188","0.03125","0.28125","0.46875"
"1575566621201","746","0.05859375","-1.0039062","-0.052734375","-0.3125","0.46875","-0.125"
"1575566621201","747","0.055664062","-1.0029297","-0.059570312","0.46875","0.65625","0.0"
"1575566621201","748","0.055664062","-1.0058594","-0.059570312","-0.25","0.90625","0.34375"
"1575566621202","749","0.053710938","-0.99902344","-0.051757812","-1.3125","1.4375","-0.875"
"1575566621398","750","0.0546875","-1.0029297","-0.051757812","-0.8125","1.3125","-0.5625"
"1575566621398","751","0.057617188","-1.015625","-0.059570312","-1.0","2.25","-0.3125"
"1575566621399","752","0.056640625","-0.98339844","-0.064453125","-2.75","1.03125","-0.6875"
"1575566621399","753","0.049804688","-1.0019531","-0.030273438","-1.53125","1.6875","-0.125"
"1575566621399","754","0.057617188","-0.9902344","-0.053710938","-2.40625","2.5","-1.40625"
"1575566621400","755","0.057617188","-1.0205078","-0.06738281","-0.1875","2.0","-0.625"
"1575566621400","756","0.053710938","-0.98828125","-0.059570312","-4.34375","2.4375","-0.9375"
"1575566621400","757","0.053710938","-0.9980469","-0.056640625","-2.40625","3.15625","-1.40625"
"1575566621400","758","0.043945312","-1.0097656","-0.064453125","-1.71875","2.84375","-1.40625"
"1575566621401","759","0.052734375","-1.0166016","-0.049804688","-2.15625","3.53125","-1.25"
"1575566621797","760","0.052734375","-1.0","-0.0546875","-2.53125","1.9375","-2.21875"
"1575566621798","761","0.05859375","-0.9970703","-0.0625","-1.96875","1.28125","-2.03125"
"1575566621798","762","0.06347656","-0.9892578","-0.06347656","-1.0625","2.125","-2.625"
"1575566621798","763","0.052734375","-1.0126953","-0.064453125","-1.25","2.125","-2.53125"
"1575566621798","764","0.049804688","-1.0058594","-0.055664062","-3.25","3.65625","-3.375"
"1575566621799","765","0.06738281","-0.99902344","-0.053710938","-1.59375","3.59375","-3.0625"
"1575566621799","766","0.061523438","-1.0097656","-0.0703125","-1.59375","3.28125","-2.9375"
"1575566621799","767","0.06738281","-0.9921875","-0.06640625","-2.28125","3.59375","-2.6875"
"1575566621799","768","0.07519531","-1.0039062","-0.064453125","-1.90625","3.84375","-1.90625"
"1575566621800","769","0.083984375","-0.9951172","-0.064453125","-1.34375","3.03125","-2.09375"
"1575566622194","770","0.06933594","-1.0166016","-0.064453125","-2.9375","2.125","-1.59375"
"1575566622194","771","0.0859375","-0.9863281","-0.07128906","0.15625","3.78125","-1.65625"
"1575566622195","772","0.057617188","-1.0126953","-0.053710938","-2.40625","-0.5","-0.9375"
"1575566622196","773","0.06933594","-0.99121094","-0.06933594","-0.4375","3.46875","-1.84375"
"1575566622196","774","0.08105469","-1.0195312","-0.076171875","-0.1875","2.84375","0.28125"
"1575566622196","775","0.07128906","-0.9873047","-0.06738281","-1.90625","1.6875","-1.0625"
"1575566622196","776","0.06542969","-1.0","-0.059570312","-0.9375","3.34375","-0.5625"
"1575566622197","777","0.06738281","-1.0107422","-0.07421875","0.40625","3.03125","-0.1875"
"1575566622197","778","0.0703125","-1.0","-0.06347656","-0.8125","2.25","0.03125"
"1575566622197","779","0.06640625","-0.9980469","-0.0703125","0.90625","1.5","-0.5"
"1575566622786","780","0.068359375","-1.0009766","-0.0703125","0.46875","2.0","0.34375"
"1575566622787","781","0.064453125","-0.9951172","-0.056640625","-0.5625","2.0625","-0.125"
"1575566622787","782","0.053710938","-1.0068359","-0.06347656","0.90625","3.09375","-0.75"
"1575566622787","783","0.0625","-1.0009766","-0.059570312","-1.25","3.9375","-0.6875"
"1575566622788","784","0.06347656","-1.0019531","-0.061523438","-0.4375","2.90625","-0.625"
"1575566622788","785","0.0625","-0.99902344","-0.07128906","-1.53125","2.65625","-0.6875"
"1575566622788","786","0.08984375","-1.0068359","-0.07519531","-5.03125","1.9375","-2.28125"
"1575566622788","787","0.0703125","-0.98535156","-0.033203125","-1.65625","2.71875","-3.625"
"1575566622789","788","0.07128906","-1.0117188","-0.060546875","0.15625","-0.4375","-1.0"
"1575566622789","789","0.07128906","-1.0117188","-0.07519531","1.875","0.84375","-0.875"
"1575566623185","790","0.052734375","-0.9980469","-0.05078125","-2.40625","-0.9375","-1.0"
"1575566623186","791","0.056640625","-0.9873047","-0.059570312","2.25","2.0625","-1.65625"
"1575566623186","792","0.060546875","-1.0332031","-0.072265625","2.0","2.125","-0.1875"
"1575566623188","793","0.059570312","-0.9970703","-0.06347656","-1.34375","2.375","-0.75"
"1575566623188","794","0.060546875","-0.99121094","-0.055664062","0.28125","3.21875","0.0"
"1575566623188","795","0.06640625","-1.0117188","-0.06640625","0.0","4.0","0.0"
"1575566623188","796","0.07519531","-1.0029297","-0.0546875","-1.65625","3.71875","-0.375"
"1575566623189","797","0.080078125","-0.99609375","-0.0546875","-0.8125","1.9375","-0.5625"
"1575566623189","798","0.07519531","-1.0058594","-0.060546875","-0.625","0.65625","-0.6875"
"1575566623189","799","0.0703125","-1.0039062","-0.060546875","-2.09375","0.84375","-1.34375"
"1575566623584","800","0.06640625","-0.9902344","-0.06347656","-1.46875","1.3125","-1.78125"
"1575566623584","801","0.072265625","-1.0087891","-0.060546875","-0.25","1.3125","-0.125"
"1575566623585","802","0.060546875","-1.0107422","-0.057617188","-0.125","0.84375","-0.6875"
"1575566623585","803","0.06347656","-1.0009766","-0.060546875","0.28125","1.3125","0.28125"
"1575566623585","804","0.06542969","-0.99902344","-0.056640625","0.46875","0.84375","-0.125"
"1575566623586","805","0.07324219","-1.0019531","-0.0625","0.40625","1.3125","0.21875"
"1575566623587","806","0.06347656","-1.0078125","-0.053710938","-1.125","-1.46875","-0.125"
"1575566623587","807","0.06640625","-1.0039062","-0.05859375","1.5625","-0.1875","0.65625"
"1575566623587","808","0.05859375","-1.0","-0.022460938","-2.53125","-1.34375","-1.0"
"1575566623587","809","0.052734375","-0.9951172","-0.06347656","3.03125","-0.4375","-2.09375"
"1575566624577","810","0.047851562","-1.0195312","-0.05859375","0.21875","1.3125","-0.8125"
"1575566624578","811","0.060546875","-0.98339844","-0.04296875","-2.03125","2.4375","-2.09375"
"1575566624578","812","0.072265625","-0.9941406","-0.037109375","-0.75","5.1875","-1.53125"
"1575566624578","813","0.07421875","-1.0048828","-0.052734375","0.0","3.34375","-1.40625"
"1575566624579","814","0.06347656","-1.0029297","-0.057617188","-0.4375","0.21875","-1.71875"
"1575566624579","815","0.07421875","-1.0029297","-0.053710938","-0.75","-2.09375","-0.5625"
"1575566624579","816","0.061523438","-1.0078125","-0.052734375","-0.1875","-2.875","-1.53125"
"1575566624580","817","0.06542969","-0.99316406","-0.055664062","-1.0","-1.71875","-1.78125"
"1575566624581","818","0.057617188","-1.0009766","-0.057617188","-0.375","-0.25","-1.3125"
"1575566624581","819","0.06738281","-1.0029297","-0.048828125","-0.9375","1.4375","-1.0625"
"1575566624775","820","0.0703125","-1.0029297","-0.043945312","-1.90625","1.9375","-1.3125"
"1575566624776","821","0.06933594","-1.0","-0.038085938","-1.96875","1.6875","-0.875"
"1575566624776","822","0.06347656","-1.0009766","-0.036132812","-2.09375","0.78125","-0.75"
"1575566624776","823","0.07324219","-1.0","-0.051757812","-1.25","2.78125","-2.09375"
"1575566624776","824","0.07519531","-1.0058594","-0.051757812","-2.40625","1.4375","-1.40625"
"1575566624777","825","0.078125","-1.0048828","-0.046875","-0.625","3.53125","-0.9375"
"1575566624777","826","0.06640625","-0.99121094","-0.05078125","-2.59375","2.0625","-2.21875"
"1575566624777","827","0.08105469","-1.0195312","-0.06933594","-0.1875","2.78125","-0.8125"
"1575566624777","828","0.060546875","-0.99121094","-0.046875","-2.59375","1.4375","-0.75"
"1575566624779","829","0.051757812","-0.9765625","-0.046875","-1.125","3.46875","-0.875"
"1575566624972","830","0.06542969","-0.9951172","-0.046875","-0.5625","4.375","-0.5625"
"1575566624973","831","0.06738281","-1.0087891","-0.044921875","-0.4375","3.71875","-0.3125"
"1575566624973","832","0.068359375","-0.9951172","-0.052734375","-0.25","2.5","-0.75"
"1575566624973","833","0.07714844","-1.0097656","-0.052734375","0.21875","1.5","0.0"
"1575566624974","834","0.06738281","-0.9951172","-0.048828125","0.0","2.25","-0.875"
"1575566624974","835","0.06542969","-0.9951172","-0.047851562","0.0","2.4375","-0.875"
"1575566624974","836","0.06542969","-1.0019531","-0.049804688","-0.5625","3.03125","-1.125"
"1575566624974","837","0.061523438","-0.9970703","-0.045898438","-0.1875","3.15625","-1.3125"
"1575566624975","838","0.068359375","-1.0009766","-0.047851562","-0.1875","3.9375","-0.625"
"1575566624975","839","0.06542969","-1.0009766","-0.049804688","0.15625","2.3125","-0.6875"
"1575566624977","840","0.072265625","-0.9970703","-0.045898438","0.03125","3.90625","-0.9375"
"1575566624979","841","0.068359375","-1.0009766","-0.040039062","-0.9375","2.90625","-0.875"
"1575566624979","842","0.07128906","-0.9941406","-0.0546875","1.4375","4.4375","-0.6875"
"1575566624980","843","0.06738281","-0.99609375","-0.025390625","-1.125","1.5","-1.25"
"1575566624980","844","0.08496094","-1.0048828","-0.049804688","2.0","2.84375","-0.6875"
"1575566624980","845","0.06347656","-1.0107422","-0.047851562","0.53125","1.8125","-0.1875"
"1575566624980","846","0.07421875","-0.9892578","-0.043945312","-0.5625","2.3125","-0.5"
"1575566624980","847","0.0703125","-1.0","-0.03125","0.21875","2.0","0.15625"
"1575566624981","848","0.061523438","-1.0068359","-0.047851562","1.5","2.375","0.28125"
"1575566624981","849","0.060546875","-1.0","-0.034179688","0.15625","2.5","0.40625"
"1575566625373","850","0.06640625","-1.0087891","-0.037109375","0.0","2.1875","0.0"
"1575566625374","851","0.060546875","-1.0009766","-0.032226562","-1.53125","3.28125","-0.4375"
"1575566625374","852","0.06933594","-0.9970703","-0.034179688","-1.0","2.78125","-0.625"
"1575566625375","853","0.068359375","-1.0058594","-0.034179688","-0.625","1.5","0.09375"
"1575566625375","854","0.052734375","-1.0048828","-0.03515625","-1.34375","1.8125","-1.1875"
"1575566625375","855","0.056640625","-1.0019531","-0.041015625","-1.125","2.65625","-0.875"
"1575566625376","856","0.059570312","-1.0009766","-0.028320312","-1.90625","2.65625","-0.75"
"1575566625376","857","0.059570312","-0.9941406","-0.032226562","-1.59375","3.34375","-1.40625"
"1575566625376","858","0.06738281","-1.0078125","-0.037109375","-3.0","4.3125","-1.0"
"1575566625376","859","0.06640625","-0.9980469","-0.059570312","0.15625","5.21875","-1.40625"
"1575566625772","860","0.06542969","-1.0097656","-0.0234375","-5.75","3.28125","-2.03125"
"1575566625772","861","0.057617188","-0.98828125","-0.046875","-3.75","5.59375","-4.28125"
"1575566625772","862","0.07421875","-1.0224609","-0.049804688","-3.625","6.625","-2.46875"
"1575566625773","863","0.06542969","-0.99121094","-0.044921875","-5.625","3.59375","-3.1875"
"1575566625773","864","0.06738281","-0.9941406","-0.05078125","-4.40625","3.15625","-2.875"
"1575566625774","865","0.07714844","-1.0117188","-0.06347656","-2.28125","3.28125","-2.21875"
"1575566625774","866","0.07128906","-0.99609375","-0.052734375","-3.75","2.78125","-2.09375"
"1575566625775","867","0.076171875","-0.99316406","-0.0546875","-2.875","2.71875","-1.59375"
"1575566625775","868","0.078125","-1.0107422","-0.068359375","-1.65625","1.9375","-1.0625"
"1575566625775","869","0.072265625","-0.9970703","-0.0546875","-2.8125","2.71875","-1.59375"
"1575566626169","870","0.07421875","-1.0029297","-0.0625","-1.0","2.84375","-1.53125"
"1575566626169","871","0.08105469","-1.0068359","-0.0625","-2.53125","2.96875","-0.9375"
"1575566626170","872","0.07128906","-0.9951172","-0.056640625","-1.78125","1.9375","-1.25"
"1575566626170","873","0.07128906","-1.0009766","-0.06347656","-1.90625","2.375","-0.8125"
"1575566626170","874","0.087890625","-0.99316406","-0.061523438","-2.28125","3.03125","-1.0"
"1575566626170","875","0.083984375","-1.015625","-0.06542969","-0.5","0.65625","-0.125"
"1575566626171","876","0.059570312","-0.98046875","-0.07714844","-1.90625","-0.375","0.03125"
"1575566626172","877","0.08496094","-1.0205078","-0.052734375","-2.09375","-0.25","1.875"
"1575566626172","878","0.072265625","-0.98046875","-0.05078125","-2.75","-1.53125","-1.53125"
"1575566626173","879","0.07128906","-1.0195312","-0.08203125","0.28125","0.71875","0.0"
"1575566626761","880","0.080078125","-0.99609375","-0.07324219","-3.75","0.03125","0.0"
"1575566626762","881","0.06640625","-0.99121094","-0.06738281","-2.09375","-0.4375","-1.25"
"1575566626762","882","0.06542969","-0.99902344","-0.06738281","-0.3125","1.28125","0.34375"
"1575566626762","883","0.060546875","-1.0058594","-0.0703125","0.09375","0.65625","0.0"
"1575566626762","884","0.0625","-1.0029297","-0.06933594","-1.1875","1.375","0.0"
"1575566626762","885","0.0703125","-0.99902344","-0.068359375","-1.0625","1.4375","0.65625"
"1575566626763","886","0.06738281","-1.0009766","-0.06542969","-1.125","1.28125","0.09375"
"1575566626763","887","0.07519531","-0.98535156","-0.05859375","0.71875","0.84375","0.46875"
"1575566626763","888","0.0703125","-1.0048828","-0.0703125","0.34375","0.0","0.46875"
"1575566626764","889","0.064453125","-1.0107422","-0.06640625","-1.125","1.28125","0.0"
"1575566627164","890","0.07910156","-0.99902344","-0.05859375","-2.03125","-0.25","-0.125"
"1575566627165","891","0.057617188","-0.9921875","-0.06347656","0.65625","-1.78125","0.21875"
"1575566627165","892","0.072265625","-1.0068359","-0.057617188","-1.65625","-0.3125","0.0"
"1575566627165","893","0.0625","-0.9921875","-0.046875","-0.0625","-0.875","-1.34375"
"1575566627166","894","0.068359375","-0.98535156","-0.080078125","3.78125","1.4375","-1.53125"
"1575566627166","895","0.0625","-1.0029297","-0.04296875","-1.78125","0.40625","-2.53125"
"1575566627166","896","0.061523438","-0.9980469","-0.068359375","2.25","0.65625","-2.6875"
"1575566627166","897","0.043945312","-1.0244141","-0.07714844","2.375","-0.4375","-0.75"
"1575566627167","898","0.056640625","-0.9902344","-0.06542969","-1.34375","1.3125","-1.46875"
"1575566627167","899","0.064453125","-0.99609375","-0.052734375","-0.3125","3.15625","-1.46875"
"1575566627362","900","0.06933594","-1.0146484","-0.06542969","0.78125","2.96875","-0.5625"
"1575566627363","901","0.06542969","-1.0029297","-0.056640625","-1.0","2.96875","-0.875"
"1575566627364","902","0.080078125","-1.0078125","-0.051757812","0.0","2.4375","0.0"
"1575566627364","903","0.076171875","-1.0078125","-0.041015625","0.21875","2.0","-0.25"
"1575566627364","904","0.06933594","-1.0009766","-0.04296875","0.34375","0.96875","-1.1875"
"1575566627365","905","0.0703125","-0.9902344","-0.048828125","-1.25","1.625","-1.1875"
"1575566627365","906","0.064453125","-1.0029297","-0.04296875","0.0","1.5","-0.9375"
"1575566627365","907","0.055664062","-0.9941406","-0.053710938","-1.0","2.375","-1.59375"
"1575566627366","908","0.052734375","-1.0009766","-0.051757812","-0.9375","3.15625","-0.9375"
"1575566627366","909","0.05859375","-1.0029297","-0.055664062","-2.28125","3.53125","-1.90625"
"1575566627758","910","0.06347656","-0.99316406","-0.057617188","-1.53125","3.9375","-1.59375"
"1575566627759","911","0.072265625","-0.99902344","-0.060546875","-3.0","2.1875","-1.78125"
"1575566627759","912","0.078125","-1.0087891","-0.041015625","-2.75","2.96875","-0.8125"
"1575566627760","913","0.059570312","-0.9873047","-0.056640625","-2.40625","0.65625","-1.96875"
"1575566627761","914","0.068359375","-1.0214844","-0.072265625","-0.125","0.78125","-1.0625"
"1575566627761","915","0.07421875","-0.9921875","-0.056640625","-3.8125","1.09375","-1.25"
"1575566627761","916","0.076171875","-0.99121094","-0.043945312","-2.46875","2.65625","-1.53125"
"1575566627761","917","0.076171875","-0.9921875","-0.0546875","-0.875","3.34375","-1.71875"
"1575566627762","918","0.07519531","-1.0029297","-0.046875","-2.21875","5.0625","-2.40625"
"1575566627762","919","0.072265625","-0.99609375","-0.053710938","-1.90625","4.375","-2.9375"
"1575566628157","920","0.07324219","-1.0107422","-0.06738281","0.0","2.71875","-2.15625"
"1575566628158","921","0.068359375","-0.9941406","-0.07714844","0.09375","1.8125","-1.46875"
"1575566628158","922","0.06933594","-1.0039062","-0.076171875","0.0","0.09375","-0.5625"
"1575566628158","923","0.0625","-1.0","-0.06738281","-0.625","0.65625","-0.5"
"1575566628159","924","0.061523438","-1.0048828","-0.059570312","-0.625","1.375","0.0"
"1575566628160","925","0.06738281","-1.0009766","-0.052734375","-0.75","2.71875","0.28125"
"1575566628161","926","0.07421875","-0.99609375","-0.045898438","-0.8125","4.5","-0.3125"
"1575566628161","927","0.091796875","-1.0048828","-0.047851562","0.53125","4.3125","0.0"
"1575566628161","928","0.07519531","-0.984375","-0.0625","-1.1875","2.3125","-1.25"
"1575566628161","929","0.083984375","-1.0087891","-0.040039062","-1.3125","4.6875","-0.75"
"1575566628555","930","0.072265625","-0.9892578","-0.048828125","-2.40625","3.9375","-2.21875"
"1575566628555","931","0.078125","-1.0234375","-0.068359375","1.09375","4.375","-0.125"
"1575566628555","932","0.07519531","-0.99316406","-0.061523438","-0.75","3.53125","-0.25"
"1575566628556","933","0.07324219","-0.9951172","-0.06347656","-0.0625","2.96875","0.03125"
"1575566628556","934","0.07324219","-0.9941406","-0.055664062","0.53125","2.5625","0.65625"
"1575566628556","935","0.06542969","-1.0068359","-0.055664062","0.0","2.65625","0.65625"
"1575566628556","936","0.0625","-0.9951172","-0.060546875","-0.0625","3.84375","-0.375"
"1575566628558","937","0.0625","-1.0126953","-0.059570312","0.03125","4.75","-0.125"
"1575566628558","938","0.064453125","-0.9980469","-0.043945312","-0.5","5.1875","0.0"
"1575566628558","939","0.07324219","-0.9921875","-0.043945312","-0.5","5.0625","0.15625"
"1575566628952","940","0.068359375","-1.0","-0.04296875","0.03125","4.875","0.09375"
"1575566628953","941","0.06738281","-1.0058594","-0.051757812","2.5","1.5","1.625"
"1575566628953","942","0.06640625","-1.0048828","-0.040039062","0.53125","0.65625","1.75"
"1575566628953","943","0.053710938","-0.9970703","-0.037109375","0.78125","2.4375","0.78125"
"1575566628953","944","0.061523438","-1.0048828","-0.036132812","2.3125","4.4375","0.34375"
"1575566628954","945","0.048828125","-0.97753906","-0.068359375","3.09375","4.6875","-0.4375"
"1575566628954","946","0.057617188","-1.0195312","-0.022460938","-1.78125","4.6875","-0.5625"
"1575566628954","947","0.053710938","-0.98339844","-0.04296875","-1.59375","4.25","-3.0"
"1575566628955","948","0.061523438","-1.015625","-0.049804688","1.09375","4.125","-0.3125"
"1575566628956","949","0.059570312","-0.9980469","-0.046875","-0.875","1.28125","-0.75"
"1575566629744","950","0.056640625","-0.99902344","-0.03515625","-1.125","0.84375","0.03125"
"1575566629745","951","0.056640625","-0.9980469","-0.038085938","0.53125","2.4375","-0.8125"
"1575566629746","952","0.057617188","-1.0009766","-0.03515625","-1.125","3.28125","-1.125"
"1575566629747","953","0.068359375","-0.9970703","-0.040039062","-1.46875","3.65625","-1.34375"
"1575566629747","954","0.053710938","-1.0117188","-0.05078125","-0.875","1.9375","-0.9375"
"1575566629748","955","0.064453125","-0.9980469","-0.0390625","-2.625","2.1875","-1.0625"
"1575566629748","956","0.061523438","-1.0068359","-0.047851562","-1.65625","0.90625","-1.34375"
"1575566629748","957","0.056640625","-0.9980469","-0.053710938","-1.46875","0.78125","-1.0625"
"1575566629749","958","0.059570312","-1.0058594","-0.047851562","-1.3125","1.15625","0.0"
"1575566629749","959","0.055664062","-1.0019531","-0.04296875","-1.71875","0.09375","-0.625"
"1575566629750","960","0.051757812","-0.99609375","-0.0390625","-2.34375","0.96875","-1.125"
"1575566629750","961","0.061523438","-1.0087891","-0.049804688","-1.96875","1.15625","-0.75"
"1575566629751","962","0.057617188","-0.9824219","-0.06738281","0.0","1.875","-1.59375"
"1575566629751","963","0.059570312","-1.0097656","-0.024414062","-5.21875","1.03125","-2.21875"
"1575566629751","964","0.061523438","-0.9902344","-0.048828125","-3.875","1.6875","-3.6875"
"1575566629752","965","0.06347656","-1.0175781","-0.06347656","-1.34375","2.1875","-1.34375"
"1575566629752","966","0.059570312","-0.9970703","-0.0546875","-4.96875","0.59375","-2.625"
"1575566629753","967","0.057617188","-0.9980469","-0.0546875","-6.78125","2.125","-3.1875"
"1575566629753","968","0.061523438","-1.0009766","-0.055664062","-5.21875","3.9375","-3.90625"
"1575566629753","969","0.068359375","-0.9863281","-0.06933594","-3.8125","3.84375","-3.75"
"1575566630145","970","0.07128906","-1.0","-0.078125","-3.625","3.40625","-2.625"
"1575566630145","971","0.06738281","-1.0097656","-0.06738281","-4.46875","4.3125","-1.96875"
"1575566630145","972","0.06640625","-0.99609375","-0.06933594","-3.875","4.625","-2.09375"
"1575566630147","973","0.064453125","-1.0","-0.06933594","-4.28125","3.71875","-2.03125"
"1575566630147","974","0.06640625","-0.99316406","-0.07324219","-4.46875","4.5","-1.65625"
"1575566630147","975","0.07421875","-1.0","-0.07519531","-2.9375","5.0625","-1.25"
"1575566630148","976","0.0859375","-1.0029297","-0.072265625","-1.90625","2.84375","-0.75"
"1575566630148","977","0.07324219","-0.99902344","-0.0703125","-2.8125","2.65625","-0.4375"
"1575566630148","978","0.080078125","-1.0048828","-0.064453125","-2.6875","2.71875","-0.625"
"1575566630148","979","0.078125","-0.9785156","-0.09277344","1.15625","1.09375","-0.9375"
"1575566630544","980","0.06542969","-1.0039062","-0.05078125","-5.75","-0.0625","-1.65625"
"1575566630544","981","0.07714844","-0.99121094","-0.08203125","-0.5","1.28125","-2.28125"
"1575566630544","982","0.078125","-1.0195312","-0.08300781","-0.25","0.28125","-0.5625"
"1575566630545","983","0.0703125","-0.97265625","-0.07910156","-0.9375","0.71875","-1.78125"
"1575566630545","984","0.06933594","-1.0029297","-0.076171875","-2.15625","2.4375","-1.53125"
"1575566630546","985","0.07128906","-0.99121094","-0.08300781","-0.3125","2.78125","-1.40625"
"1575566630547","986","0.056640625","-1.0146484","-0.083984375","-1.46875","3.15625","-1.78125"
"1575566630547","987","0.091796875","-0.98828125","-0.080078125","-0.9375","3.65625","-0.5625"
"1575566630547","988","0.080078125","-1.0146484","-0.0859375","-1.125","1.8125","0.0"
"1575566630548","989","0.07519531","-0.98339844","-0.076171875","-1.78125","3.15625","-1.3125"
"1575566630939","990","0.0859375","-1.0058594","-0.08105469","-0.8125","3.15625","0.0"
"1575566630940","991","0.080078125","-1.0019531","-0.08105469","-1.125","1.3125","-0.25"
"1575566630940","992","0.0625","-1.0029297","-0.08691406","-0.625","2.65625","-0.125"
"1575566630940","993","0.07910156","-0.98828125","-0.078125","-1.125","3.9375","0.0"
"1575566630941","994","0.08105469","-1.0039062","-0.08496094","0.21875","2.65625","0.21875"
"1575566630941","995","0.061523438","-0.99902344","-0.07714844","-2.59375","2.5","-0.3125"
"1575566630941","996","0.08886719","-1.0","-0.08496094","1.15625","5.34375","1.09375"
"1575566630942","997","0.064453125","-1.0039062","-0.06933594","-3.25","2.59375","-0.4375"
"1575566630942","998","0.08300781","-1.0","-0.08496094","1.3125","4.0625","0.90625"
"1575566630942","999","0.06542969","-1.0107422","-0.080078125","-0.5","3.28125","0.90625"
"1575566631336","1000","0.06542969","-0.984375","-0.07910156","-1.3125","5.59375","-1.25"
"1575566631337","1001","0.0703125","-0.9921875","-0.08300781","-0.6875","6.03125","-0.75"
"1575566631337","1002","0.078125","-1.0009766","-0.07324219","-0.1875","6.09375","0.09375"
"1575566631338","1003","0.06347656","-1.0039062","-0.08496094","0.15625","4.375","-0.8125"
"1575566631338","1004","0.06933594","-1.0009766","-0.08691406","0.0","4.875","-0.1875"
"1575566631338","1005","0.07519531","-1.0029297","-0.07910156","0.78125","3.09375","0.15625"
"1575566631338","1006","0.06933594","-0.98339844","-0.072265625","-0.9375","3.65625","-0.75"
"1575566631339","1007","0.08496094","-1.0087891","-0.068359375","1.5","4.3125","1.09375"
"1575566631339","1008","0.06347656","-1.0166016","-0.0703125","0.0","1.4375","1.15625"
"1575566631340","1009","0.056640625","-0.99316406","-0.06640625","1.375","1.8125","0.90625"
