"# PR data"
"# Start time: 20191205T183033"
"# Subject: ron"
"# Activity type: Leg slide"
"# Correctness: Correct"
"# Notes: "
""
"timestamp","seq","accel_x","accel_y","accel_z","gyro_x","gyro_y","gyro_z"
"1575567034398","0","-0.25097656","-1.0585938","-0.013671875","0.96875","12.0625","-0.125"
"1575567034400","1","-0.07910156","-0.98046875","-0.0146484375","-5.3125","7.96875","2.71875"
"1575567034401","2","-0.076171875","-0.92578125","0.0087890625","-3.0625","2.96875","-7.15625"
"1575567034402","3","-0.14355469","-1.0400391","0.00390625","2.0625","-7.59375","1.03125"
"1575567034402","4","-0.13867188","-1.0205078","-0.0146484375","-1.90625","-9.34375","-0.875"
"1575567034402","5","-0.10839844","-0.96972656","0.030273438","-4.03125","-8.875","-5.03125"
"1575567034402","6","-0.15332031","-0.96875","-0.0107421875","0.03125","-9.90625","-6.0"
"1575567034403","7","-0.13085938","-1.0","-0.030273438","2.90625","-6.0625","-5.3125"
"1575567034403","8","-0.10449219","-1.0039062","-0.0048828125","0.71875","-2.40625","-7.46875"
"1575567034403","9","-0.10644531","-1.0009766","0.00390625","1.15625","-6.65625","-7.8125"
"1575567034795","10","-0.087890625","-0.99316406","0.0048828125","2.3125","-6.125","-7.40625"
"1575567034796","11","-0.08105469","-1.0","0.017578125","2.65625","-4.78125","-6.71875"
"1575567034796","12","-0.07128906","-0.99316406","0.040039062","2.84375","-8.5625","-6.65625"
"1575567034797","13","-0.032226562","-0.9892578","0.07421875","3.03125","-11.1875","-4.84375"
"1575567034798","14","-0.020507812","-0.99609375","0.09863281","2.0625","-14.25","-3.4375"
"1575567034798","15","-0.038085938","-1.0126953","0.07910156","3.34375","-14.90625","-4.96875"
"1575567034799","16","-0.021484375","-1.0253906","0.06542969","-1.71875","-8.6875","-8.375"
"1575567034799","17","0.0078125","-1.0097656","0.083984375","-1.34375","-9.65625","-6.96875"
"1575567034799","18","-0.033203125","-0.9667969","0.109375","-3.4375","-11.0625","-2.6875"
"1575567034799","19","-0.08496094","-0.96972656","0.091796875","5.0","-9.40625","0.65625"
"1575567034994","20","-0.111328125","-1.0136719","0.06738281","1.625","4.3125","0.65625"
"1575567034995","21","-0.080078125","-1.0419922","0.083984375","-2.40625","9.09375","0.40625"
"1575567034995","22","-0.040039062","-1.0234375","0.07910156","-6.96875","8.78125","-0.3125"
"1575567034995","23","-0.037109375","-1.0146484","0.048828125","-4.90625","7.1875","-3.875"
"1575567034996","24","-0.053710938","-0.96875","0.048828125","-9.40625","5.46875","-0.8125"
"1575567034996","25","-0.0234375","-0.9921875","0.03515625","-3.875","-1.40625","1.3125"
"1575567034996","26","-0.080078125","-0.984375","0.0068359375","-4.53125","-6.1875","-2.28125"
"1575567034996","27","-0.13378906","-1.0322266","-0.026367188","-0.8125","-5.4375","-0.875"
"1575567034997","28","-0.12695312","-1.0263672","-0.0390625","-6.0625","0.15625","-1.53125"
"1575567034997","29","-0.115234375","-0.9453125","0.0048828125","-5.8125","6.75","-2.75"
"1575567035391","30","-0.13183594","-0.9501953","-0.01171875","3.53125","17.1875","-2.40625"
"1575567035391","31","-0.0625","-1.0371094","-0.0234375","-5.09375","23.3125","-1.40625"
"1575567035392","32","-0.0234375","-1.0634766","-0.022460938","-7.59375","19.875","-8.0625"
"1575567035392","33","-0.068359375","-0.9736328","-0.0126953125","-4.59375","10.78125","-3.1875"
"1575567035392","34","-0.099609375","-0.921875","0.0078125","3.03125","9.375","2.25"
"1575567035392","35","-0.040039062","-1.0","-0.005859375","6.875","7.5","2.84375"
"1575567035393","36","-0.032226562","-1.015625","-0.029296875","2.1875","-2.625","-2.6875"
"1575567035394","37","-0.07519531","-0.984375","-0.0234375","1.09375","-9.125","0.71875"
"1575567035394","38","-0.0859375","-0.99609375","0.001953125","6.875","-12.46875","5.34375"
"1575567035394","39","-0.08496094","-0.97265625","0.016601562","5.1875","-9.46875","4.875"
"1575567035589","40","-0.09667969","-0.96875","0.0078125","9.1875","-9.59375","6.15625"
"1575567035590","41","-0.08300781","-0.98339844","0.04296875","10.96875","-9.34375","7.125"
"1575567035590","42","-0.059570312","-0.9863281","0.047851562","17.125","-9.15625","2.90625"
"1575567035590","43","-0.029296875","-0.9785156","0.076171875","18.46875","-17.21875","-1.46875"
"1575567035590","44","0.001953125","-0.94628906","0.10644531","19.15625","-17.59375","-7.9375"
"1575567035591","45","-0.0146484375","-1.0","0.171875","21.65625","-11.0","-13.75"
"1575567035591","46","-0.024414062","-1.0439453","0.13085938","25.0625","-5.875","-16.25"
"1575567035591","47","-0.029296875","-1.09375","0.14257812","14.6875","-1.0625","-16.875"
"1575567035591","48","-0.016601562","-1.0097656","0.12890625","7.0625","-3.96875","-17.46875"
"1575567035593","49","0.016601562","-0.9355469","0.17578125","4.8125","-4.78125","-15.59375"
"1575567035987","50","9.765625E-4","-0.9296875","0.1953125","4.875","1.3125","-14.40625"
"1575567035987","51","-0.03125","-0.9892578","0.19238281","4.875","12.25","-14.65625"
"1575567035987","52","0.03515625","-0.9628906","0.18554688","-1.125","16.21875","-15.46875"
"1575567035988","53","0.06933594","-0.89746094","0.21484375","-2.46875","10.0","-13.75"
"1575567035988","54","0.07128906","-0.8515625","0.21191406","0.40625","7.125","-11.25"
"1575567035988","55","0.056640625","-0.9042969","0.21191406","4.5625","11.28125","-12.09375"
"1575567035988","56","0.009765625","-1.0400391","0.20117188","7.90625","14.5","-15.625"
"1575567035988","57","-0.0126953125","-1.0537109","0.14550781","-0.125","21.53125","-13.4375"
"1575567035989","58","0.028320312","-0.9970703","0.14257812","-5.21875","27.5625","-12.15625"
"1575567035989","59","0.0234375","-1.0986328","0.15527344","2.0625","17.75","-0.75"
"1575567036387","60","-0.06933594","-1.1552734","0.083984375","2.0","5.90625","4.3125"
"1575567036388","61","-0.11621094","-1.1455078","0.064453125","-6.90625","0.46875","11.15625"
"1575567036388","62","-0.11328125","-1.0097656","0.09472656","-8.25","-0.4375","14.75"
"1575567036389","63","-0.072265625","-0.96484375","0.15332031","-5.875","4.625","15.84375"
"1575567036389","64","-0.02734375","-1.0283203","0.1484375","-0.5625","8.96875","15.96875"
"1575567036389","65","-9.765625E-4","-1.0166016","0.17675781","-7.09375","5.84375","13.28125"
"1575567036390","66","0.02734375","-0.9345703","0.18066406","-3.625","5.40625","13.71875"
"1575567036390","67","0.05078125","-0.9482422","0.203125","0.90625","5.90625","10.71875"
"1575567036390","68","0.02734375","-0.97753906","0.15234375","2.125","0.53125","5.78125"
"1575567036390","69","-0.0029296875","-0.93847656","0.17675781","-3.3125","-1.96875","5.21875"
"1575567036784","70","-0.017578125","-0.9091797","0.18847656","2.1875","-2.9375","4.9375"
"1575567036785","71","-0.016601562","-0.96484375","0.16894531","5.40625","-2.15625","6.6875"
"1575567036785","72","-0.013671875","-0.9765625","0.16796875","2.3125","-6.4375","7.0"
"1575567036786","73","-0.045898438","-0.96484375","0.1875","-0.5","-4.96875","9.25"
"1575567036786","74","-0.08300781","-0.9707031","0.13964844","-0.75","4.1875","11.03125"
"1575567036787","75","-0.0625","-0.9902344","0.16113281","-12.96875","14.875","11.59375"
"1575567036787","76","-0.078125","-1.0048828","0.19042969","-19.53125","16.84375","13.03125"
"1575567036787","77","-0.13769531","-1.046875","0.11621094","-13.5625","14.15625","11.28125"
"1575567036787","78","-0.0126953125","-1.0175781","0.087890625","-19.65625","3.46875","7.8125"
"1575567036788","79","0.08886719","-0.8671875","0.20996094","-23.75","-5.21875","7.5625"
"1575567036986","80","-0.07714844","-0.88964844","0.21972656","0.15625","-7.15625","10.46875"
"1575567036986","81","-0.20898438","-1.0820312","0.07910156","10.90625","1.3125","10.84375"
"1575567036987","82","-0.15429688","-1.0664062","0.10449219","-10.875","12.3125","11.8125"
"1575567036987","83","-0.11425781","-0.953125","0.14648438","-10.9375","11.75","13.53125"
"1575567036987","84","-0.20996094","-0.99121094","0.1328125","-9.59375","18.71875","18.40625"
"1575567036988","85","-0.28222656","-1.0195312","0.072265625","-6.71875","29.09375","28.78125"
"1575567036988","86","-0.23144531","-1.0039062","0.032226562","-19.53125","32.09375","33.4375"
"1575567036988","87","-0.17285156","-0.9716797","0.032226562","-14.46875","30.125","27.15625"
"1575567036989","88","-0.16113281","-1.0195312","0.025390625","-12.53125","17.9375","14.625"
"1575567036989","89","-0.12402344","-0.96777344","0.030273438","-16.4375","0.71875","10.90625"
"1575567037977","90","-0.16210938","-0.8798828","-0.026367188","-14.84375","-13.03125","4.3125"
"1575567037978","91","-0.24023438","-0.8564453","-0.05078125","-11.0625","-21.25","6.09375"
"1575567037978","92","-0.29003906","-0.95996094","-0.059570312","-15.09375","-23.34375","11.8125"
"1575567037978","93","-0.25585938","-0.9404297","-0.06640625","-20.78125","-33.59375","4.1875"
"1575567037979","94","-0.24902344","-0.87402344","0.033203125","-25.65625","-40.25","2.1875"
"1575567037979","95","-0.34472656","-0.8339844","-0.05078125","-16.0625","-37.75","1.15625"
"1575567037979","96","-0.31347656","-1.0048828","0.045898438","-25.46875","-15.53125","3.34375"
"1575567037985","97","-0.3779297","-1.1123047","0.06933594","-19.0","-2.03125","-2.15625"
"1575567037985","98","-0.3017578","-1.1416016","0.026367188","-4.09375","5.71875","-6.65625"
"1575567037986","99","-0.15625","-1.0986328","0.059570312","-1.84375","8.21875","-7.40625"
"1575567038176","100","-0.25097656","-0.97265625","0.068359375","3.71875","3.65625","-8.125"
"1575567038176","101","-0.34472656","-0.9433594","-0.009765625","13.15625","7.125","-1.125"
"1575567038176","102","-0.28808594","-1.0166016","-0.041992188","9.25","13.53125","0.96875"
"1575567038177","103","-0.27929688","-1.015625","-0.046875","0.96875","14.5","-2.53125"
"1575567038177","104","-0.27734375","-0.9501953","-0.034179688","2.5625","9.5625","-3.1875"
"1575567038177","105","-0.26757812","-0.8808594","-0.05078125","2.5","8.84375","-1.1875"
"1575567038177","106","-0.2421875","-0.84375","-0.041015625","4.6875","11.15625","1.3125"
"1575567038178","107","-0.265625","-0.96484375","-0.0078125","7.625","16.65625","-2.59375"
"1575567038178","108","-0.26367188","-1.0332031","-0.055664062","8.28125","15.0625","-9.65625"
"1575567038180","109","-0.2578125","-0.953125","0.009765625","-2.6875","12.1875","-8.1875"
"1575567038373","110","-0.21289062","-0.8935547","-0.053710938","7.90625","10.25","-11.71875"
"1575567038373","111","-0.17578125","-0.94921875","-0.041992188","6.03125","5.65625","-12.71875"
"1575567038374","112","-0.21484375","-0.95214844","-0.051757812","3.28125","-1.78125","-18.03125"
"1575567038374","113","-0.22753906","-0.9785156","0.032226562","-0.125","2.65625","-23.5"
"1575567038374","114","-0.2939453","-1.0","0.028320312","10.375","6.21875","-22.15625"
"1575567038374","115","-0.31933594","-1.0429688","-0.01171875","17.6875","13.71875","-11.5625"
"1575567038375","116","-0.17089844","-0.9501953","-0.026367188","11.59375","16.53125","-7.71875"
"1575567038375","117","-0.048828125","-0.9667969","0.009765625","0.03125","9.125","-12.65625"
"1575567038375","118","-0.12988281","-0.9765625","0.0703125","7.625","-4.65625","-14.0625"
"1575567038375","119","-0.18359375","-0.9941406","0.040039062","15.25","-14.65625","-8.75"
"1575567038578","120","-0.11425781","-0.94140625","0.043945312","16.09375","-15.09375","-13.6875"
"1575567038578","121","-0.05859375","-0.9423828","0.07714844","20.6875","-26.375","-12.34375"
"1575567038579","122","-0.060546875","-0.9794922","0.15917969","16.09375","-31.03125","-13.1875"
"1575567038579","123","-0.14550781","-1.0419922","0.16210938","20.75","-25.40625","-17.15625"
"1575567038579","124","-0.123046875","-1.1289062","0.09472656","22.3125","-22.46875","-16.25"
"1575567038580","125","-0.119140625","-1.0517578","0.06347656","6.5","-17.46875","-13.8125"
"1575567038580","126","-0.048828125","-0.94140625","0.109375","-5.03125","-10.8125","-11.71875"
"1575567038580","127","-0.044921875","-0.9013672","0.19433594","-0.0625","-5.21875","-9.53125"
"1575567038580","128","-0.07128906","-0.93652344","0.17871094","2.5","0.0","-10.5625"
"1575567038580","129","-0.083984375","-0.984375","0.16601562","-0.75","12.4375","-13.8125"
"1575567038972","130","-0.07714844","-0.95410156","0.171875","-5.875","21.65625","-16.625"
"1575567038973","131","0.001953125","-0.85253906","0.1484375","0.96875","23.59375","-11.90625"
"1575567038973","132","0.044921875","-0.84765625","0.16601562","5.90625","19.53125","-7.78125"
"1575567038980","133","0.018554688","-0.9169922","0.20117188","5.78125","17.0","-6.4375"
"1575567038981","134","-0.06347656","-0.9785156","0.18847656","9.5","17.3125","-7.09375"
"1575567038981","135","-0.009765625","-1.0917969","0.15625","19.34375","22.375","-10.40625"
"1575567038981","136","0.0048828125","-1.0761719","0.16992188","3.59375","16.09375","-10.5"
"1575567038981","137","-0.033203125","-1.0917969","0.17382812","5.0","9.03125","-3.75"
"1575567038982","138","-0.044921875","-1.1572266","0.14746094","9.125","5.0","1.625"
"1575567038982","139","-0.068359375","-1.1689453","0.15625","-0.5625","-2.625","5.0625"
"1575567039369","140","-0.07421875","-1.0488281","0.18554688","-1.78125","-2.875","4.25"
"1575567039370","141","-0.07324219","-1.0332031","0.20214844","0.21875","3.21875","6.875"
"1575567039370","142","-0.045898438","-1.0605469","0.19628906","0.46875","4.5625","3.46875"
"1575567039370","143","-0.0234375","-1.0068359","0.18261719","-5.3125","6.40625","0.28125"
"1575567039371","144","-0.0048828125","-0.9091797","0.13085938","-6.53125","1.28125","1.15625"
"1575567039371","145","-9.765625E-4","-0.8232422","0.17285156","-7.9375","-3.4375","3.53125"
"1575567039371","146","-0.041992188","-0.8076172","0.21972656","-2.6875","-2.28125","2.84375"
"1575567039371","147","-0.03515625","-0.875","0.21972656","4.5625","3.34375","2.5625"
"1575567039379","148","-0.04296875","-1.0449219","0.17773438","7.5","3.78125","1.5"
"1575567039379","149","-0.029296875","-1.0419922","0.1484375","-11.1875","0.59375","-0.375"
"1575567039964","150","-0.005859375","-0.9511719","0.17773438","-19.4375","2.0625","-1.3125"
"1575567039965","151","-0.04296875","-0.9560547","0.13671875","-16.25","5.1875","3.34375"
"1575567039965","152","-0.076171875","-1.0029297","0.15917969","-24.25","10.96875","5.0"
"1575567039965","153","-0.119140625","-1.0292969","0.11230469","-23.5625","16.28125","6.875"
"1575567039965","154","-0.049804688","-1.0800781","0.09765625","-21.6875","11.65625","5.90625"
"1575567039965","155","0.013671875","-0.9785156","0.13769531","-28.65625","-6.25","6.8125"
"1575567039966","156","0.022460938","-0.8496094","0.14453125","-22.125","-10.8125","8.21875"
"1575567039969","157","-0.11621094","-0.9423828","0.12792969","-6.4375","-1.65625","9.03125"
"1575567039969","158","-0.23632812","-1.0595703","0.06738281","-1.78125","6.875","12.9375"
"1575567039969","159","-0.14160156","-1.0126953","0.049804688","-12.40625","14.6875","18.21875"
"1575567040165","160","-0.083984375","-0.953125","0.06347656","-11.78125","14.9375","18.125"
"1575567040165","161","-0.15820312","-0.96484375","0.0390625","-6.59375","19.6875","19.9375"
"1575567040165","162","-0.23632812","-1.0185547","0.033203125","-8.6875","24.8125","29.90625"
"1575567040165","163","-0.17675781","-1.0166016","-0.057617188","-4.34375","19.09375","33.5625"
"1575567040166","164","-0.12597656","-1.0253906","0.01953125","-16.875","20.84375","21.71875"
"1575567040166","165","-0.18359375","-0.96972656","0.0029296875","-3.125","9.4375","14.375"
"1575567040166","166","-0.047851562","-1.0068359","-0.00390625","-7.78125","-2.625","8.84375"
"1575567040166","167","-0.08496094","-0.92285156","-0.029296875","-10.5625","-23.6875","-0.8125"
"1575567040166","168","-0.11621094","-0.9355469","-0.029296875","-13.625","-32.71875","-8.0"
"1575567040167","169","-0.2109375","-0.9863281","-0.043945312","-14.46875","-42.9375","-9.71875"
"1575567040562","170","-0.2685547","-0.9033203","-0.057617188","-12.78125","-49.6875","-4.46875"
"1575567040563","171","-0.27734375","-0.9394531","-0.005859375","-12.90625","-40.71875","-0.4375"
"1575567040563","172","-0.35351562","-0.9316406","-0.021484375","0.15625","-32.25","-0.25"
"1575567040563","173","-0.28808594","-0.9609375","0.005859375","-7.8125","-18.15625","5.78125"
"1575567040563","174","-0.27148438","-0.9980469","0.038085938","-2.53125","-3.875","-0.4375"
"1575567040563","175","-0.24121094","-1.0761719","0.036132812","-3.75","-1.125","0.46875"
"1575567040564","176","-0.22265625","-1.0302734","0.06640625","-4.84375","-7.40625","0.03125"
"1575567040564","177","-0.26464844","-0.93066406","0.056640625","1.3125","-2.34375","4.4375"
"1575567040564","178","-0.27929688","-0.9873047","0.06347656","7.6875","15.5625","9.125"
"1575567040564","179","-0.20605469","-1.046875","0.068359375","5.125","25.125","5.53125"
"1575567041156","180","-0.19042969","-1.03125","0.060546875","5.78125","19.5625","2.375"
"1575567041157","181","-0.21484375","-1.0585938","0.03125","6.5625","15.71875","3.65625"
"1575567041158","182","-0.27539062","-1.0419922","-0.005859375","4.0","17.1875","-1.65625"
"1575567041158","183","-0.22363281","-0.96191406","-0.009765625","2.65625","19.09375","1.09375"
"1575567041158","184","-0.203125","-0.9140625","-0.0146484375","8.71875","18.84375","-1.0625"
"1575567041158","185","-0.19824219","-0.94433594","-0.060546875","12.375","13.03125","0.15625"
"1575567041158","186","-0.16503906","-0.9824219","-0.038085938","0.65625","7.5","-1.3125"
"1575567041159","187","-0.24707031","-0.9501953","-0.0107421875","3.78125","2.4375","-3.125"
"1575567041159","188","-0.24902344","-0.9736328","-0.030273438","7.5625","0.0","2.90625"
"1575567041160","189","-0.2783203","-0.9453125","0.0234375","3.40625","5.78125","2.375"
"1575567041558","190","-0.22753906","-0.9736328","-0.0078125","4.4375","4.75","2.84375"
"1575567041558","191","-0.22851562","-0.9707031","0.029296875","-4.53125","3.03125","-0.8125"
"1575567041558","192","-0.24023438","-0.9248047","0.02734375","-2.34375","-0.1875","-3.75"
"1575567041560","193","-0.23144531","-0.93652344","0.0087890625","-1.40625","-4.09375","-8.875"
"1575567041560","194","-0.25097656","-0.9277344","0.044921875","-3.4375","-2.15625","-13.5"
"1575567041561","195","-0.26953125","-1.0039062","0.06347656","-1.53125","6.21875","-22.40625"
"1575567041561","196","-0.27441406","-1.0097656","0.0546875","-2.34375","8.65625","-21.5"
"1575567041561","197","-0.24316406","-0.96484375","0.016601562","3.46875","9.125","-18.375"
"1575567041561","198","-0.23828125","-1.0146484","0.0068359375","2.65625","10.71875","-13.3125"
"1575567041561","199","-0.19140625","-0.9277344","-0.032226562","6.21875","4.5625","-9.40625"
"1575567041950","200","-0.09765625","-0.95703125","0.072265625","-1.96875","-1.96875","-14.59375"
"1575567041950","201","-0.115234375","-0.9345703","0.09277344","19.46875","-22.28125","-12.46875"
"1575567041950","202","-0.08496094","-0.9394531","0.076171875","27.34375","-38.65625","-9.71875"
"1575567041950","203","-0.041992188","-0.9580078","0.10253906","25.0","-43.09375","-12.34375"
"1575567041951","204","-0.059570312","-1.0302734","0.18359375","21.28125","-32.0625","-16.0"
"1575567041951","205","-0.12597656","-1.1015625","0.14257812","26.15625","-27.34375","-20.46875"
"1575567041952","206","-0.13085938","-1.0839844","0.068359375","13.0","-20.28125","-16.0625"
"1575567041952","207","-0.078125","-0.96484375","0.08496094","-1.0625","-8.6875","-13.4375"
"1575567041952","208","-0.024414062","-0.9082031","0.17480469","-2.21875","0.96875","-13.6875"
"1575567041952","209","-0.046875","-0.9560547","0.19726562","-1.0625","3.59375","-14.25"
"1575567042152","210","-0.056640625","-0.98535156","0.18261719","0.21875","7.25","-15.34375"
"1575567042152","211","-0.047851562","-0.9609375","0.14453125","-2.9375","12.8125","-17.65625"
"1575567042152","212","-0.056640625","-0.8984375","0.16113281","-5.5625","21.78125","-18.75"
"1575567042152","213","0.024414062","-0.9013672","0.17089844","0.78125","27.4375","-16.375"
"1575567042153","214","0.08886719","-0.9550781","0.17382812","3.34375","21.53125","-17.71875"
"1575567042153","215","0.029296875","-0.9326172","0.13964844","-0.125","11.875","-14.25"
"1575567042153","216","-0.022460938","-1.0292969","0.16015625","9.9375","10.1875","-15.03125"
"1575567042153","217","-0.00390625","-1.1113281","0.15527344","8.15625","9.5","-12.28125"
"1575567042154","218","9.765625E-4","-1.1240234","0.17285156","1.5625","10.1875","-8.5"
"1575567042154","219","0.033203125","-1.1376953","0.1640625","4.875","-0.5","-4.71875"
"1575567042550","220","-0.036132812","-1.0429688","0.1484375","-3.0625","-7.09375","1.03125"
"1575567042551","221","-0.06738281","-0.9951172","0.16699219","0.65625","-2.875","5.34375"
"1575567042551","222","-0.06542969","-1.0107422","0.19433594","2.4375","5.78125","6.9375"
"1575567042551","223","-0.041992188","-1.0048828","0.18847656","2.96875","10.1875","6.6875"
"1575567042551","224","-0.026367188","-0.9716797","0.17480469","-1.46875","16.34375","5.53125"
"1575567042551","225","9.765625E-4","-0.96875","0.18066406","1.6875","15.5","7.125"
"1575567042552","226","0.0234375","-0.93359375","0.1640625","-0.6875","7.84375","8.15625"
"1575567042552","227","0.025390625","-0.86816406","0.20507812","-0.5625","5.0","6.5625"
"1575567042552","228","0.013671875","-0.9326172","0.20898438","7.125","3.34375","8.28125"
"1575567042554","229","-0.022460938","-0.99316406","0.20507812","1.3125","-0.6875","6.46875"
"1575567042947","230","-0.03515625","-0.9785156","0.18261719","-0.25","0.90625","8.46875"
"1575567042947","231","-0.026367188","-0.99609375","0.14746094","-7.46875","2.96875","8.71875"
"1575567042948","232","-0.015625","-0.9736328","0.19042969","-13.8125","6.5","10.0625"
"1575567042948","233","-0.07910156","-0.98339844","0.16699219","-8.75","9.875","13.96875"
"1575567042948","234","-0.07910156","-1.0009766","0.123046875","-16.4375","14.75","12.625"
"1575567042949","235","-0.02734375","-0.9453125","0.19042969","-29.0625","20.96875","9.9375"
"1575567042949","236","-0.022460938","-0.9902344","0.19140625","-17.90625","14.3125","6.6875"
"1575567042949","237","-0.061523438","-1.140625","0.119140625","-7.40625","-3.4375","5.34375"
"1575567042949","238","-0.06933594","-0.96484375","0.07421875","-32.59375","-8.125","6.5625"
"1575567042950","239","-0.057617188","-0.82910156","0.15136719","-22.15625","-2.59375","5.65625"
"1575567043344","240","-0.16308594","-0.9580078","0.13671875","-0.875","3.03125","4.0625"
"1575567043345","241","-0.15332031","-1.0761719","0.051757812","-2.875","10.65625","4.875"
"1575567043346","242","-0.115234375","-1.0302734","0.05859375","-16.9375","10.78125","7.90625"
"1575567043346","243","-0.16894531","-0.92578125","0.099609375","-16.96875","18.34375","10.59375"
"1575567043346","244","-0.22070312","-0.94140625","0.056640625","-4.59375","23.65625","21.96875"
"1575567043347","245","-0.17578125","-1.0351562","0.016601562","-7.71875","31.34375","28.4375"
"1575567043347","246","-0.171875","-0.9785156","0.0068359375","-6.84375","28.125","23.4375"
"1575567043347","247","-0.15234375","-1.0175781","-0.01171875","-6.25","20.375","15.5"
"1575567043347","248","-0.09375","-1.0351562","-0.0126953125","-7.65625","3.9375","14.09375"
"1575567043348","249","-0.078125","-0.921875","0.029296875","-13.375","-12.40625","8.15625"
"1575567044931","250","-0.07910156","-0.8876953","-0.00390625","-2.21875","-23.40625","3.78125"
"1575567044932","251","-0.16894531","-0.99609375","-0.041992188","1.5","-41.15625","10.84375"
"1575567044932","252","-0.26464844","-1.0439453","-0.00390625","-12.65625","-48.59375","10.1875"
"1575567044933","253","-0.3125","-0.9580078","0.048828125","-20.53125","-42.1875","3.71875"
"1575567044934","254","-0.29296875","-0.91503906","0.0107421875","-11.125","-35.65625","0.71875"
"1575567044934","255","-0.30371094","-0.9404297","0.0","-11.625","-31.375","4.0"
"1575567044935","256","-0.29785156","-0.9189453","-0.03125","-8.0","-28.6875","4.9375"
"1575567044935","257","-0.265625","-0.94140625","0.034179688","-8.875","-13.125","4.8125"
"1575567044935","258","-0.2421875","-0.97558594","0.048828125","-3.8125","-8.375","-2.03125"
"1575567044935","259","-0.203125","-1.0146484","0.049804688","-5.25","-13.5","-9.90625"
"1575567044937","260","-0.26953125","-1.0039062","0.109375","-1.84375","-10.4375","-6.4375"
"1575567044938","261","-0.375","-1.0136719","0.12011719","8.46875","5.40625","0.0"
"1575567044938","262","-0.32617188","-1.0283203","0.072265625","10.46875","21.84375","0.09375"
"1575567044938","263","-0.22949219","-1.0361328","0.038085938","8.28125","29.40625","-1.3125"
"1575567044938","264","-0.20996094","-1.0039062","0.091796875","1.5","30.8125","-3.0625"
"1575567044939","265","-0.25585938","-0.95996094","0.056640625","4.25","25.9375","-4.21875"
"1575567044941","266","-0.21582031","-0.9550781","-0.018554688","14.09375","23.96875","-1.96875"
"1575567044942","267","-0.18652344","-0.9921875","-0.015625","5.21875","20.90625","-1.125"
"1575567044942","268","-0.23730469","-0.9453125","0.021484375","2.0","19.15625","-5.09375"
"1575567044942","269","-0.2529297","-0.9482422","0.015625","4.75","15.0","-1.34375"
"1575567045528","270","-0.19726562","-0.96875","-0.0048828125","10.0625","13.0","-2.21875"
"1575567045529","271","-0.20410156","-0.9785156","-0.005859375","3.78125","6.875","-4.71875"
"1575567045529","272","-0.22949219","-0.9814453","0.038085938","0.71875","10.25","-6.125"
"1575567045530","273","-0.22265625","-0.9980469","0.0126953125","3.34375","8.46875","-9.21875"
"1575567045530","274","-0.17773438","-0.97558594","0.026367188","-1.46875","4.1875","-7.59375"
"1575567045530","275","-0.20605469","-0.9169922","0.047851562","0.09375","0.03125","-10.8125"
"1575567045530","276","-0.2421875","-0.9511719","0.032226562","5.21875","3.21875","-10.875"
"1575567045531","277","-0.2109375","-0.9863281","0.037109375","2.3125","6.875","-11.625"
"1575567045531","278","-0.16992188","-0.9482422","0.07324219","2.65625","3.53125","-14.84375"
"1575567045531","279","-0.2109375","-1.0078125","0.107421875","4.75","5.40625","-12.96875"
"1575567045726","280","-0.3232422","-1.0166016","0.038085938","12.1875","8.71875","-7.8125"
"1575567045727","281","-0.15332031","-0.98339844","0.03515625","6.46875","8.84375","1.15625"
"1575567045727","282","-0.053710938","-0.9589844","0.091796875","1.875","3.78125","-10.75"
"1575567045727","283","-0.107421875","-0.9560547","0.12792969","3.71875","-10.75","-8.5"
"1575567045728","284","-0.15917969","-0.96777344","0.09765625","14.5625","-16.3125","-8.625"
"1575567045728","285","-0.087890625","-0.9658203","0.095703125","14.75","-21.875","-10.28125"
"1575567045728","286","-0.040039062","-0.98046875","0.12207031","13.21875","-25.46875","-12.65625"
"1575567045729","287","-0.09277344","-1.0166016","0.15039062","13.09375","-25.71875","-16.0625"
"1575567045729","288","-0.125","-1.0439453","0.13769531","11.875","-17.59375","-16.125"
"1575567045731","289","-0.12109375","-1.0273438","0.10449219","7.4375","-8.1875","-13.4375"
"1575567045732","290","-0.080078125","-0.9746094","0.10644531","-0.9375","-0.875","-9.59375"
"1575567045732","291","-0.078125","-0.9296875","0.18164062","-7.21875","3.9375","-5.03125"
"1575567045732","292","-0.068359375","-0.97558594","0.18066406","2.5625","6.46875","-4.96875"
"1575567045732","293","-0.048828125","-1.0068359","0.16210938","0.28125","8.59375","-9.40625"
"1575567045733","294","-0.051757812","-0.9345703","0.17285156","-3.375","7.96875","-12.84375"
"1575567045733","295","-0.08300781","-0.8564453","0.22070312","1.625","12.25","-9.90625"
"1575567045733","296","-0.036132812","-0.89453125","0.23632812","13.71875","20.96875","-9.34375"
"1575567045734","297","-0.049804688","-1.0078125","0.18457031","18.71875","23.0625","-10.5625"
"1575567045734","298","-0.064453125","-0.984375","0.18652344","11.59375","20.84375","-7.28125"
"1575567045734","299","-0.10449219","-0.96191406","0.15429688","15.84375","20.625","-6.96875"
"1575567046125","300","-0.06542969","-1.0263672","0.18359375","12.25","19.40625","-4.65625"
"1575567046126","301","-0.05859375","-1.0878906","0.15039062","10.25","15.0625","-5.09375"
"1575567046126","302","-0.06542969","-1.0703125","0.15136719","-1.46875","-0.0625","-1.3125"
"1575567046126","303","-0.1015625","-0.9951172","0.17578125","-1.1875","-3.96875","1.03125"
"1575567046127","304","-0.1171875","-1.0449219","0.20019531","3.15625","-2.09375","7.375"
"1575567046127","305","-0.109375","-1.0429688","0.17871094","1.5","0.03125","4.1875"
"1575567046127","306","-0.07421875","-1.0039062","0.20019531","-2.28125","0.84375","3.03125"
"1575567046128","307","-0.07421875","-0.9794922","0.22070312","-4.59375","1.28125","4.0"
"1575567046128","308","-0.057617188","-0.95703125","0.203125","-2.40625","-1.53125","4.9375"
"1575567046128","309","-0.080078125","-0.92089844","0.21679688","-7.875","0.0","2.5"
"1575567046325","310","-0.08984375","-0.9140625","0.21289062","-3.6875","3.65625","-0.4375"
"1575567046326","311","-0.0859375","-0.953125","0.21777344","-4.71875","5.96875","-1.40625"
"1575567046326","312","-0.033203125","-0.9736328","0.20605469","-1.59375","5.71875","-3.4375"
"1575567046327","313","0.00390625","-0.9902344","0.19335938","-0.6875","1.375","-4.59375"
"1575567046328","314","-0.021484375","-0.9453125","0.19042969","-6.1875","-6.78125","-3.0625"
"1575567046328","315","-0.045898438","-0.9638672","0.20898438","-3.875","-3.75","-1.0625"
"1575567046328","316","-0.061523438","-0.9589844","0.16210938","-1.1875","0.21875","-0.1875"
"1575567046328","317","-0.046875","-1.0009766","0.16113281","-7.28125","6.8125","4.0"
"1575567046329","318","-0.0859375","-0.9863281","0.15820312","-16.96875","11.65625","5.65625"
"1575567046329","319","-0.05859375","-0.98339844","0.1796875","-20.53125","15.125","6.46875"
"1575567046723","320","-0.07714844","-1.0117188","0.16210938","-24.90625","13.21875","7.6875"
"1575567046723","321","-0.053710938","-1.0351562","0.13378906","-26.625","12.0","5.40625"
"1575567046724","322","-0.072265625","-1.0214844","0.14941406","-24.78125","3.9375","4.4375"
"1575567046724","323","-0.12988281","-0.96972656","0.12402344","-23.34375","1.09375","9.25"
"1575567046724","324","-0.109375","-0.90722656","0.119140625","-21.8125","11.09375","9.03125"
"1575567046725","325","-0.16113281","-0.9550781","0.11425781","-10.6875","19.46875","11.9375"
"1575567046726","326","-0.20898438","-1.0009766","0.10546875","-10.875","27.375","19.625"
"1575567046726","327","-0.20410156","-0.9707031","0.0390625","-9.46875","26.84375","24.75"
"1575567046726","328","-0.15527344","-0.9707031","-0.0146484375","-9.125","23.0","30.6875"
"1575567046726","329","-0.14160156","-0.9628906","0.048828125","-10.6875","20.8125","28.125"
"1575567047517","330","-0.18066406","-1.0830078","-0.029296875","1.375","11.71875","15.0625"
"1575567047518","331","-0.13476562","-1.1259766","0.0087890625","-18.03125","0.46875","12.5"
"1575567047518","332","-0.13867188","-0.90625","0.06933594","-20.21875","-12.59375","10.25"
"1575567047518","333","-0.16503906","-0.8623047","-0.0078125","-2.53125","-19.375","7.8125"
"1575567047519","334","-0.24511719","-0.99609375","-0.026367188","-7.59375","-22.46875","9.03125"
"1575567047519","335","-0.2548828","-0.99316406","-0.036132812","-15.53125","-23.28125","8.71875"
"1575567047519","336","-0.26367188","-0.9277344","-0.046875","-8.8125","-29.3125","4.6875"
"1575567047520","337","-0.2783203","-0.8876953","-0.020507812","-8.875","-26.875","4.0"
"1575567047520","338","-0.2734375","-0.9404297","0.00390625","-6.71875","-23.8125","-0.75"
"1575567047521","339","-0.2919922","-0.94140625","-0.030273438","-8.125","-22.53125","-3.875"
"1575567047714","340","-0.24804688","-0.9042969","0.017578125","-10.875","-20.84375","-5.6875"
"1575567047715","341","-0.29296875","-0.82910156","0.032226562","-6.3125","-18.875","-4.46875"
"1575567047715","342","-0.25585938","-0.9794922","-0.0068359375","-0.625","-5.8125","-1.78125"
"1575567047715","343","-0.21582031","-1.0869141","0.038085938","-12.96875","-6.3125","-10.28125"
"1575567047715","344","-0.24414062","-1.0283203","0.033203125","-2.8125","-17.46875","-5.3125"
"1575567047715","345","-0.34472656","-0.9951172","0.06640625","4.0625","-6.59375","-0.4375"
"1575567047716","346","-0.37890625","-1.0253906","0.017578125","15.625","13.65625","9.125"
"1575567047716","347","-0.22265625","-1.0986328","0.07910156","8.46875","23.125","3.78125"
"1575567047716","348","-0.22070312","-1.0166016","0.06542969","9.8125","12.625","-0.5625"
"1575567047717","349","-0.27441406","-1.0048828","0.055664062","8.21875","13.15625","5.78125"
"1575567048114","350","-0.25195312","-1.0009766","0.059570312","4.6875","18.40625","2.78125"
"1575567048115","351","-0.2626953","-0.9453125","0.032226562","4.6875","18.53125","-2.34375"
"1575567048115","352","-0.24902344","-0.9511719","0.041015625","5.125","20.0","-4.65625"
"1575567048115","353","-0.28515625","-0.9248047","0.001953125","6.03125","17.75","-2.625"
"1575567048116","354","-0.26171875","-0.9169922","0.001953125","9.25","18.40625","1.09375"
"1575567048116","355","-0.27148438","-0.9550781","-0.0078125","7.125","18.53125","2.65625"
"1575567048117","356","-0.24707031","-0.96875","-0.0146484375","4.875","19.8125","-0.75"
"1575567048117","357","-0.23242188","-0.95410156","0.013671875","2.125","13.65625","-2.59375"
"1575567048117","358","-0.2109375","-0.9433594","0.021484375","0.96875","8.15625","-8.9375"
"1575567048118","359","-0.18652344","-0.9589844","0.016601562","0.84375","-1.125","-13.375"
"1575567048907","360","-0.19726562","-0.9511719","0.0146484375","4.3125","-12.59375","-18.625"
"1575567048908","361","-0.21484375","-0.9404297","0.03125","0.15625","-12.46875","-22.78125"
"1575567048909","362","-0.17578125","-0.97265625","0.09667969","-3.0625","-8.5","-31.03125"
"1575567048909","363","-0.28320312","-0.99902344","0.13183594","4.0","-8.125","-31.3125"
"1575567048910","364","-0.33984375","-1.0244141","0.021484375","21.40625","2.4375","-20.28125"
"1575567048910","365","-0.140625","-0.9951172","0.0087890625","13.15625","4.0625","-10.4375"
"1575567048910","366","-0.0390625","-0.953125","0.09472656","0.09375","-0.9375","-19.5"
"1575567048911","367","-0.053710938","-0.9326172","0.140625","13.0","-19.96875","-14.46875"
"1575567048911","368","-0.09375","-0.9892578","0.15527344","23.1875","-31.15625","-9.96875"
"1575567048911","369","-0.057617188","-0.9716797","0.13867188","15.78125","-25.40625","-17.40625"
"1575567049104","370","-0.080078125","-1.0175781","0.14746094","22.5625","-14.34375","-20.21875"
"1575567049105","371","-0.059570312","-1.1064453","0.10839844","15.375","-18.4375","-19.53125"
"1575567049105","372","-0.08691406","-1.0224609","0.11425781","2.90625","-17.84375","-17.90625"
"1575567049107","373","-0.05078125","-0.92578125","0.11328125","-2.625","-13.125","-14.46875"
"1575567049107","374","-0.033203125","-0.93847656","0.18554688","3.15625","-9.78125","-9.40625"
"1575567049107","375","-0.08691406","-0.99316406","0.17871094","3.84375","-4.03125","-11.375"
"1575567049108","376","-0.08984375","-1.0078125","0.16210938","0.15625","9.125","-8.875"
"1575567049108","377","-0.06640625","-0.9707031","0.16601562","-5.03125","18.65625","-5.875"
"1575567049108","378","-0.043945312","-0.93652344","0.18457031","-10.8125","22.375","-1.65625"
"1575567049108","379","0.017578125","-0.89453125","0.19140625","-3.3125","26.0","1.5"
"1575567049502","380","0.0146484375","-0.9511719","0.16210938","3.71875","17.0625","3.34375"
"1575567049502","381","-0.00390625","-0.9277344","0.20507812","1.875","13.03125","2.71875"
"1575567049502","382","-0.07910156","-0.99902344","0.22851562","9.5","14.09375","-0.75"
"1575567049503","383","-0.064453125","-1.0175781","0.18652344","8.84375","20.625","-1.3125"
"1575567049503","384","-0.053710938","-1.0224609","0.1796875","10.71875","24.8125","-1.46875"
"1575567049504","385","0.016601562","-1.0546875","0.13964844","3.78125","12.375","2.3125"
"1575567049505","386","-0.016601562","-0.9941406","0.18554688","-3.90625","-1.84375","5.53125"
"1575567049505","387","-0.11035156","-1.0458984","0.16308594","8.84375","-7.53125","8.71875"
"1575567049505","388","-0.13183594","-1.0703125","0.18066406","0.78125","-5.5","5.34375"
"1575567049505","389","-0.09472656","-1.0185547","0.20507812","0.21875","-1.25","0.65625"
"1575567049701","390","-0.095703125","-1.0390625","0.18554688","-0.3125","0.03125","-2.40625"
"1575567049701","391","-0.046875","-1.0302734","0.19433594","-5.3125","3.46875","-5.15625"
"1575567049702","392","-0.0068359375","-0.95703125","0.18164062","-4.15625","0.03125","-6.375"
"1575567049702","393","-0.03125","-0.8935547","0.15722656","-1.78125","-3.0","-6.375"
"1575567049702","394","-0.026367188","-0.88964844","0.1953125","0.28125","2.0","-4.78125"
"1575567049702","395","-0.030273438","-0.93359375","0.18554688","-0.75","5.1875","-5.15625"
"1575567049702","396","-0.0390625","-1.0039062","0.18066406","-0.5","3.84375","-3.4375"
"1575567049704","397","-0.025390625","-1.0039062","0.17382812","-8.0","-0.0625","-1.46875"
"1575567049704","398","-0.01953125","-0.9667969","0.17871094","-10.625","-1.1875","-1.65625"
"1575567049704","399","-0.0390625","-0.9658203","0.15820312","-4.78125","2.84375","1.375"
"1575567050102","400","-0.06542969","-0.9736328","0.13574219","-10.21875","7.96875","4.6875"
"1575567050103","401","-0.080078125","-0.96875","0.16308594","-14.25","11.09375","8.46875"
"1575567050103","402","-0.076171875","-0.9951172","0.14453125","-10.34375","13.78125","13.03125"
"1575567050103","403","-0.061523438","-1.0185547","0.13476562","-21.75","11.75","13.59375"
"1575567050104","404","-0.037109375","-0.96972656","0.13378906","-30.09375","12.3125","13.84375"
"1575567050104","405","-0.09765625","-1.0087891","0.17871094","-28.03125","12.6875","10.84375"
"1575567050104","406","-0.12597656","-1.0908203","0.060546875","-7.28125","3.15625","9.125"
"1575567050104","407","-0.047851562","-0.98046875","0.022460938","-19.90625","-3.25","12.625"
"1575567050104","408","-0.076171875","-0.87109375","0.13085938","-22.78125","-1.25","11.71875"
"1575567050106","409","-0.1953125","-0.9902344","0.1328125","-3.96875","3.9375","10.59375"
"1575567050301","410","-0.18847656","-1.0488281","0.036132812","-2.34375","8.65625","8.46875"
"1575567050302","411","-0.17675781","-0.98046875","0.08203125","-17.65625","12.4375","13.28125"
"1575567050302","412","-0.23144531","-0.91796875","0.056640625","-8.0625","19.5625","22.6875"
"1575567050302","413","-0.21679688","-0.9560547","0.009765625","-3.6875","30.0625","30.625"
"1575567050303","414","-0.14160156","-1.0439453","0.01171875","-4.28125","33.625","26.21875"
"1575567050303","415","-0.14550781","-1.1152344","-0.057617188","-6.90625","21.34375","14.375"
"1575567050303","416","-0.12597656","-1.0205078","-0.0146484375","-15.59375","2.5","15.96875"
"1575567050303","417","-0.11230469","-0.890625","0.0234375","-8.0","-15.9375","15.1875"
"1575567050304","418","-0.16503906","-0.89746094","0.01171875","-0.5","-25.40625","13.0"
"1575567050304","419","-0.23632812","-0.9736328","-0.03515625","0.28125","-31.5625","16.65625"
"1575567050698","420","-0.2607422","-0.9794922","-0.028320312","-3.1875","-34.5","19.53125"
"1575567050699","421","-0.2763672","-0.9267578","0.021484375","-2.34375","-36.28125","15.65625"
"1575567050700","422","-0.37109375","-0.8964844","0.03515625","-3.6875","-37.6875","14.15625"
"1575567050700","423","-0.31445312","-0.92871094","0.0126953125","-2.59375","-33.78125","11.15625"
"1575567050700","424","-0.32128906","-0.8798828","0.056640625","-5.25","-36.46875","7.625"
"1575567050701","425","-0.34765625","-0.8496094","0.06347656","-3.75","-35.40625","4.5625"
"1575567050701","426","-0.37304688","-0.9511719","0.040039062","-9.0625","-27.0625","4.1875"
"1575567050701","427","-0.32421875","-1.0292969","0.07910156","-26.75","-19.0","-4.09375"
"1575567050702","428","-0.29101562","-0.9667969","0.11425781","-19.0","-23.9375","-8.1875"
"1575567050702","429","-0.36132812","-0.9550781","0.12207031","-8.8125","-23.34375","-7.875"
"1575567051294","430","-0.41308594","-0.96875","0.06738281","0.09375","-2.46875","-2.9375"
"1575567051294","431","-0.29492188","-1.0439453","0.091796875","-3.25","15.625","-8.125"
"1575567051294","432","-0.26953125","-1.0244141","0.099609375","-0.75","17.0","-12.40625"
"1575567051295","433","-0.25585938","-0.9433594","0.07910156","1.4375","18.40625","-10.15625"
"1575567051296","434","-0.23828125","-0.9394531","0.07714844","2.71875","22.875","-6.0625"
"1575567051296","435","-0.25683594","-0.9658203","0.053710938","8.59375","24.40625","-5.3125"
"1575567051296","436","-0.28320312","-0.98339844","0.053710938","5.59375","28.0","-5.75"
"1575567051296","437","-0.30859375","-0.95214844","0.028320312","8.90625","25.75","-4.59375"
"1575567051297","438","-0.3046875","-0.9511719","0.013671875","10.84375","29.09375","-1.84375"
"1575567051297","439","-0.2529297","-0.9658203","0.0068359375","9.6875","30.875","-5.15625"
"1575567051494","440","-0.23632812","-0.9765625","9.765625E-4","9.03125","22.6875","-2.8125"
"1575567051494","441","-0.26464844","-0.95410156","0.033203125","6.03125","17.4375","-1.90625"
"1575567051494","442","-0.26171875","-0.9277344","0.0126953125","8.46875","15.0625","-4.84375"
"1575567051495","443","-0.25195312","-0.984375","0.0029296875","8.34375","15.1875","-6.125"
"1575567051495","444","-0.19921875","-0.96777344","-0.0068359375","5.40625","11.15625","-6.25"
"1575567051496","445","-0.17285156","-0.94433594","0.029296875","3.90625","2.5","-9.78125"
"1575567051497","446","-0.24121094","-0.9482422","0.020507812","5.59375","-5.875","-15.8125"
"1575567051497","447","-0.20410156","-1.0039062","0.0087890625","4.375","-5.4375","-18.6875"
"1575567051497","448","-0.19433594","-0.9765625","0.068359375","-2.53125","-8.3125","-25.03125"
"1575567051497","449","-0.25195312","-0.98046875","0.1171875","0.40625","-4.65625","-28.53125"
"1575567051891","450","-0.35546875","-1.0332031","0.068359375","8.34375","4.5625","-20.03125"
"1575567051891","451","-0.18359375","-1.0019531","0.0390625","4.6875","12.625","-11.0625"
"1575567051891","452","-0.040039062","-0.96875","0.099609375","-2.9375","3.34375","-19.0625"
"1575567051891","453","-0.09472656","-0.9394531","0.1171875","3.34375","-13.125","-21.0625"
"1575567051892","454","-0.16210938","-0.9873047","0.10058594","8.78125","-16.375","-12.59375"
"1575567051892","455","-0.14355469","-0.9902344","0.09082031","5.28125","-10.8125","-15.625"
"1575567051892","456","-0.107421875","-0.96777344","0.11035156","4.3125","-6.96875","-13.1875"
"1575567051893","457","-0.103515625","-0.9951172","0.1171875","7.4375","-7.8125","-10.03125"
"1575567051894","458","-0.103515625","-0.97753906","0.103515625","7.84375","-11.25","-10.15625"
"1575567051894","459","-0.08496094","-0.9824219","0.12695312","4.3125","-10.28125","-8.625"
