"# PR data"
"# Start time: 20191113T104848"
"# Subject: sharan"
"# Activity type: Heel raises"
"# Correctness: Incorrect"
"# Notes: "
""
"timestamp","seq","accel_x","accel_y","accel_z","gyro_x","gyro_y","gyro_z"
"1573642128962","0","0.21875","-0.9765625","-0.051757812","1.21875","6.5625","-1.3125"
"1573642128963","1","0.21484375","-0.9716797","-0.059570312","0.28125","2.90625","-0.8125"
"1573642128963","2","0.21484375","-0.9873047","-0.018554688","0.34375","6.21875","-0.4375"
"1573642128963","3","0.18457031","-0.9746094","-0.049804688","0.53125","3.34375","-1.0625"
"1573642128963","4","0.20507812","-0.98535156","-0.038085938","2.1875","5.34375","0.21875"
"1573642128964","5","0.20800781","-0.9921875","-0.034179688","1.3125","4.6875","0.53125"
"1573642128964","6","0.20410156","-0.97753906","-0.03515625","0.34375","3.46875","0.28125"
"1573642128964","7","0.21289062","-0.9863281","-0.03125","1.3125","3.46875","-0.25"
"1573642128964","8","0.20898438","-0.984375","-0.03125","0.65625","3.78125","0.40625"
"1573642128965","9","0.20019531","-0.9873047","-0.024414062","0.21875","2.5","0.28125"
"1573642129358","10","0.20214844","-0.9785156","-0.016601562","-0.25","-0.25","-0.25"
"1573642129358","11","0.19628906","-1.0009766","-0.0126953125","-0.875","-0.25","-1.0625"
"1573642129358","12","0.20605469","-1.0009766","-0.056640625","-0.6875","0.28125","-2.59375"
"1573642129359","13","0.22753906","-0.9814453","-9.765625E-4","-3.125","0.34375","-1.0625"
"1573642129359","14","0.18554688","-0.97265625","-0.0390625","-2.09375","-0.375","-0.3125"
"1573642129359","15","0.20703125","-0.98339844","-0.032226562","-1.78125","0.90625","0.53125"
"1573642129360","16","0.20605469","-0.9824219","-0.041015625","-1.40625","1.5","0.53125"
"1573642129360","17","0.20214844","-0.9716797","-0.02734375","-1.1875","2.0","0.53125"
"1573642129360","18","0.21191406","-0.9765625","-0.041992188","0.15625","2.125","0.0"
"1573642129361","19","0.22265625","-0.97753906","-0.05078125","0.65625","2.65625","0.65625"
"1573642129755","20","0.22167969","-0.9785156","-0.040039062","0.28125","2.3125","1.75"
"1573642129755","21","0.21484375","-0.96875","-0.040039062","0.53125","1.09375","1.15625"
"1573642129756","22","0.19628906","-0.9707031","-0.02734375","0.15625","-1.71875","1.8125"
"1573642129756","23","0.1953125","-0.9814453","-0.047851562","0.40625","3.71875","1.6875"
"1573642129756","24","0.19726562","-0.97753906","-0.041992188","-0.3125","-2.34375","-0.1875"
"1573642129756","25","0.21484375","-0.9873047","-0.038085938","1.15625","1.8125","1.03125"
"1573642129757","26","0.1875","-0.9765625","-0.03515625","-0.75","1.03125","0.71875"
"1573642129757","27","0.1796875","-0.9785156","-0.043945312","0.03125","4.6875","1.21875"
"1573642129757","28","0.203125","-0.97558594","-0.034179688","0.53125","5.90625","1.4375"
"1573642129758","29","0.19726562","-0.9824219","-0.022460938","0.34375","6.21875","1.21875"
"1573642130155","30","0.18652344","-0.98535156","-0.0068359375","1.21875","6.46875","2.0"
"1573642130155","31","0.16992188","-0.97558594","0.0107421875","0.65625","5.0625","3.21875"
"1573642130156","32","0.18066406","-0.98339844","0.0107421875","1.4375","6.8125","4.0"
"1573642130156","33","0.20605469","-0.9716797","-0.028320312","5.0","5.0","2.90625"
"1573642130156","34","0.203125","-0.9658203","0.0625","5.0625","-1.25","5.59375"
"1573642130156","35","0.125","-0.9814453","0.0107421875","11.40625","0.46875","6.5625"
"1573642130157","36","0.18261719","-1.0009766","0.0048828125","11.15625","3.03125","4.6875"
"1573642130158","37","0.15625","-0.98828125","0.024414062","11.59375","2.125","7.125"
"1573642130158","38","0.15527344","-0.99121094","0.044921875","9.9375","0.46875","7.8125"
"1573642130159","39","0.13671875","-0.9941406","0.07714844","8.78125","-1.46875","8.34375"
"1573642130549","40","0.12207031","-1.0195312","0.06933594","9.375","1.3125","5.78125"
"1573642130550","41","0.13769531","-1.0097656","0.103515625","9.8125","1.15625","6.15625"
"1573642130550","42","0.078125","-1.0097656","0.1015625","6.46875","2.375","5.65625"
"1573642130550","43","0.10644531","-0.9970703","0.12011719","3.78125","1.6875","3.59375"
"1573642130551","44","0.10644531","-0.9941406","0.12402344","4.375","8.34375","5.53125"
"1573642130551","45","0.09765625","-0.9716797","0.10253906","2.5625","0.71875","3.34375"
"1573642130551","46","0.1015625","-0.9951172","0.11816406","2.5625","5.34375","1.3125"
"1573642130551","47","0.09277344","-0.9765625","0.11621094","0.0","4.875","3.09375"
"1573642130552","48","0.087890625","-0.9873047","0.12695312","-0.375","7.4375","0.53125"
"1573642130553","49","0.08300781","-1.0009766","0.125","-1.40625","8.65625","-1.34375"
"1573642130948","50","0.103515625","-1.0029297","0.12109375","-2.34375","8.84375","0.71875"
"1573642130948","51","0.12109375","-1.0322266","0.14160156","-1.90625","8.78125","-2.46875"
"1573642130949","52","0.10449219","-1.0419922","0.14160156","-2.75","6.03125","-0.8125"
"1573642130949","53","0.10058594","-1.0039062","0.13085938","-2.75","3.84375","1.875"
"1573642130949","54","0.10058594","-0.98046875","0.10644531","-2.8125","4.625","-1.0625"
"1573642130949","55","0.12402344","-1.0","0.123046875","-2.875","3.15625","-2.875"
"1573642130950","56","0.09472656","-1.0097656","0.09375","-2.34375","4.0","-1.78125"
"1573642130950","57","0.11230469","-0.9941406","0.09082031","-3.6875","3.28125","-4.28125"
"1573642130950","58","0.095703125","-0.984375","0.059570312","-6.5","2.4375","-1.96875"
"1573642130951","59","0.12207031","-0.98535156","0.10058594","-4.78125","5.28125","-5.375"
"1573642131347","60","0.1171875","-1.0058594","0.09375","-4.53125","3.40625","-5.625"
"1573642131349","61","0.12695312","-1.0058594","0.06347656","-1.78125","5.46875","-2.75"
"1573642131350","62","0.13867188","-1.0039062","0.083984375","-3.90625","2.59375","-2.8125"
"1573642131350","63","0.15332031","-1.0058594","0.06933594","-3.375","2.78125","-4.40625"
"1573642131350","64","0.13085938","-1.0175781","0.03515625","-6.0","-1.125","-6.0625"
"1573642131350","65","0.17089844","-1.015625","0.09765625","-5.9375","-0.5","-4.84375"
"1573642131351","66","0.1171875","-0.9316406","0.0126953125","-2.03125","-3.75","3.21875"
"1573642131351","67","0.15527344","-0.8964844","0.0546875","-7.15625","-4.96875","2.0"
"1573642131351","68","0.1171875","-0.9169922","0.08886719","-7.59375","-5.8125","-3.625"
"1573642131352","69","0.087890625","-0.96875","0.033203125","-4.65625","0.0","-3.25"
"1573642132140","70","0.13769531","-0.9667969","0.05078125","-1.0","4.9375","8.03125"
"1573642132140","71","0.12695312","-1.0019531","0.0234375","0.78125","4.3125","3.03125"
"1573642132140","72","0.14746094","-1.0361328","0.06640625","-4.28125","7.0625","-2.09375"
"1573642132142","73","0.14746094","-0.9511719","0.041992188","-3.875","0.78125","2.71875"
"1573642132142","74","0.0703125","-0.9501953","0.072265625","-0.75","0.46875","3.78125"
"1573642132142","75","0.11328125","-1.015625","0.1015625","2.25","10.0625","2.25"
"1573642132142","76","0.10253906","-0.9902344","0.068359375","2.25","3.59375","-0.25"
"1573642132143","77","0.09375","-0.9814453","0.076171875","3.40625","3.09375","1.75"
"1573642132143","78","0.095703125","-0.95996094","0.064453125","-0.5","4.9375","1.625"
"1573642132143","79","0.123046875","-0.9550781","0.07324219","0.65625","4.6875","-0.875"
"1573642132341","80","0.10058594","-0.9746094","0.053710938","-2.53125","1.3125","-2.75"
"1573642132342","81","0.13964844","-0.9453125","0.05859375","-2.40625","2.3125","-2.6875"
"1573642132342","82","0.115234375","-0.984375","0.07128906","-2.53125","-1.96875","-5.15625"
"1573642132342","83","0.08105469","-1.0292969","0.080078125","-2.03125","1.28125","-2.75"
"1573642132342","84","0.13574219","-1.0205078","0.09863281","-1.0625","1.75","-1.25"
"1573642132344","85","0.08984375","-0.98046875","0.055664062","-2.15625","-3.375","-1.65625"
"1573642132344","86","0.14160156","-0.9482422","0.10253906","-1.65625","-0.1875","1.21875"
"1573642132344","87","0.09472656","-0.98046875","0.06933594","-2.6875","-1.78125","-4.96875"
"1573642132345","88","0.06640625","-1.0175781","0.08886719","-5.9375","1.75","-4.96875"
"1573642132345","89","0.13867188","-0.9501953","0.099609375","-4.09375","0.84375","0.0"
"1573642132538","90","0.09375","-0.9902344","0.13769531","-3.96875","-2.34375","-3.0625"
"1573642132539","91","0.059570312","-0.9638672","0.11425781","-4.78125","2.78125","-0.125"
"1573642132539","92","0.0859375","-0.953125","0.10644531","-3.75","2.0625","-1.96875"
"1573642132539","93","0.080078125","-0.90625","0.10644531","-1.3125","2.90625","-1.46875"
"1573642132540","94","0.08203125","-0.79589844","0.12109375","-4.53125","0.78125","2.25"
"1573642132540","95","0.043945312","-0.7988281","0.057617188","-4.15625","0.59375","-3.3125"
"1573642132540","96","-0.016601562","-0.7402344","0.099609375","-5.09375","5.96875","0.65625"
"1573642132542","97","0.08496094","-0.6591797","0.095703125","-6.3125","12.4375","1.75"
"1573642132542","98","0.19433594","-0.7392578","0.123046875","10.84375","-16.125","-8.625"
"1573642132542","99","-0.06640625","-0.8828125","0.13574219","11.09375","-4.59375","8.90625"
"1573642133527","100","0.7060547","-2.0","1.5283203","-58.96875","38.0625","-7.03125"
"1573642133528","101","-0.37695312","-1.0039062","-0.55371094","28.96875","26.09375","41.3125"
"1573642133528","102","1.3710938","-0.4267578","0.39941406","26.09375","-41.53125","82.375"
"1573642133528","103","-0.08496094","0.12890625","0.09472656","-4.28125","-82.84375","-29.96875"
"1573642133529","104","-0.33203125","-0.94140625","0.029296875","12.6875","-23.15625","-13.3125"
"1573642133529","105","0.23730469","-2.0","0.09277344","-32.125","19.5625","-63.96875"
"1573642133530","106","0.20117188","-1.0625","-0.026367188","-11.71875","-0.9375","33.0625"
"1573642133530","107","0.3125","-0.7080078","-0.041015625","-0.3125","-6.4375","3.21875"
"1573642133530","108","0.24511719","-0.5390625","0.07324219","-3.5625","-25.40625","-17.59375"
"1573642133531","109","-0.125","-1.2109375","-0.017578125","-1.40625","4.5","-18.375"
"1573642133533","110","0.09472656","-1.1875","0.056640625","0.90625","29.40625","-5.25"
"1573642133533","111","0.34765625","-0.8886719","0.037109375","1.375","16.15625","4.6875"
"1573642133535","112","0.2626953","-0.88964844","0.013671875","1.28125","-6.1875","-1.53125"
"1573642133535","113","0.12011719","-0.9941406","0.04296875","-2.15625","-10.03125","-9.78125"
"1573642133536","114","0.072265625","-1.0498047","0.057617188","-0.75","5.84375","-7.71875"
"1573642133536","115","0.20507812","-0.9951172","0.048828125","0.96875","7.125","2.5"
"1573642133536","116","0.2529297","-0.95214844","0.0625","-1.34375","-3.625","-3.4375"
"1573642133537","117","0.16796875","-1.0039062","0.059570312","-4.78125","-12.65625","-6.71875"
"1573642133537","118","0.10839844","-1.015625","0.048828125","-7.875","-6.1875","-3.1875"
"1573642133537","119","0.14550781","-0.97265625","0.044921875","-3.875","0.46875","-1.90625"
"1573642133730","120","0.1796875","-0.97558594","0.049804688","-4.59375","1.75","-1.90625"
"1573642133731","121","0.16992188","-0.9863281","0.037109375","-5.15625","-1.0625","-3.25"
"1573642133732","122","0.16308594","-0.9892578","0.057617188","-4.40625","0.21875","-2.09375"
"1573642133732","123","0.15136719","-0.9765625","0.05078125","-4.28125","0.59375","-0.625"
"1573642133732","124","0.18554688","-0.9824219","0.055664062","-4.53125","2.1875","-2.21875"
"1573642133732","125","0.17089844","-1.0","0.037109375","-6.71875","1.28125","-2.53125"
"1573642133733","126","0.18847656","-0.9863281","0.038085938","-5.75","-3.0","-2.46875"
"1573642133733","127","0.18261719","-0.98046875","0.01953125","-2.53125","-1.78125","-1.0625"
"1573642133733","128","0.19824219","-0.9716797","0.01953125","-5.3125","-2.21875","-2.46875"
"1573642133733","129","0.17871094","-0.9716797","0.0087890625","-3.625","-0.1875","-3.75"
"1573642134524","130","0.19726562","-1.0029297","0.0087890625","-1.90625","-0.0625","-3.1875"
"1573642134525","131","0.19921875","-0.9707031","0.0048828125","-2.9375","-0.0625","-3.4375"
"1573642134525","132","0.1953125","-0.9785156","-9.765625E-4","-0.5625","-1.59375","-1.84375"
"1573642134526","133","0.1953125","-0.97558594","0.015625","-0.875","0.28125","-0.5"
"1573642134527","134","0.18554688","-0.9736328","0.0078125","-1.46875","0.15625","-0.1875"
"1573642134527","135","0.17675781","-0.9824219","0.026367188","-2.03125","1.5625","-1.96875"
"1573642134527","136","0.1796875","-0.9746094","0.013671875","-1.84375","3.59375","-0.875"
"1573642134527","137","0.18945312","-0.96972656","0.025390625","0.28125","5.34375","-0.625"
"1573642134528","138","0.18066406","-0.97265625","0.018554688","1.875","6.34375","1.3125"
"1573642134528","139","0.19042969","-0.97753906","0.025390625","2.90625","4.0","2.4375"
"1573642134722","140","0.18652344","-0.98339844","9.765625E-4","4.4375","5.34375","3.21875"
"1573642134722","141","0.17675781","-0.96777344","0.025390625","2.96875","-0.5625","4.9375"
"1573642134723","142","0.18164062","-0.9921875","0.018554688","5.21875","4.0625","4.5625"
"1573642134723","143","0.19238281","-0.9824219","0.036132812","3.90625","0.90625","5.40625"
"1573642134723","144","0.17675781","-0.9765625","0.043945312","4.0","0.46875","4.875"
"1573642134725","145","0.1484375","-1.0","0.06542969","3.03125","1.3125","4.3125"
"1573642134725","146","0.14160156","-0.99902344","0.053710938","4.25","5.90625","4.4375"
"1573642134725","147","0.16699219","-0.9716797","0.059570312","4.6875","7.125","4.25"
"1573642134726","148","0.140625","-0.9902344","0.078125","3.65625","5.0","4.5625"
"1573642134726","149","0.11425781","-1.0097656","0.08300781","3.40625","6.9375","3.53125"
"1573642135122","150","0.14648438","-1.0009766","0.08300781","2.71875","5.90625","1.875"
"1573642135123","151","0.13769531","-1.0224609","0.09667969","4.0625","5.21875","3.65625"
"1573642135123","152","0.12695312","-1.0273438","0.10058594","2.375","4.6875","3.03125"
"1573642135123","153","0.13867188","-1.0117188","0.10644531","2.71875","5.125","3.34375"
"1573642135123","154","0.12597656","-0.99902344","0.109375","1.15625","2.125","4.1875"
"1573642135124","155","0.13964844","-1.0117188","0.11328125","-0.0625","2.125","4.25"
"1573642135124","156","0.12011719","-1.0087891","0.08886719","-2.46875","-3.875","4.6875"
"1573642135125","157","0.09277344","-0.9921875","0.14453125","-0.4375","-4.03125","6.03125"
"1573642135125","158","0.08886719","-0.99902344","0.12695312","2.71875","1.375","4.9375"
"1573642135126","159","0.10449219","-1.0214844","0.12792969","3.40625","3.40625","4.375"
"1573642135519","160","0.08300781","-1.0029297","0.13378906","4.0","3.46875","5.21875"
"1573642135520","161","0.068359375","-1.0175781","0.13769531","4.0625","6.5625","2.5625"
"1573642135520","162","0.07421875","-1.0029297","0.14550781","2.90625","4.8125","5.78125"
"1573642135520","163","0.08886719","-0.9580078","0.13867188","0.71875","5.0625","4.1875"
"1573642135521","164","0.07910156","-0.9433594","0.10644531","0.90625","0.96875","4.6875"
"1573642135521","165","0.12207031","-0.9892578","0.12109375","1.4375","1.375","2.25"
"1573642135521","166","0.080078125","-0.98535156","0.14941406","0.78125","-2.34375","0.21875"
"1573642135521","167","0.05859375","-1.0166016","0.123046875","1.28125","-0.1875","0.40625"
"1573642135522","168","0.10839844","-1.0019531","0.10644531","-2.625","-1.3125","-1.0625"
"1573642135523","169","0.10058594","-1.0205078","0.14550781","-5.25","-2.40625","-4.53125"
"1573642136511","170","0.06933594","-0.99316406","0.06933594","-6.125","-6.5","0.65625"
"1573642136512","171","0.049804688","-0.93652344","0.0625","-8.6875","-2.75","-0.3125"
"1573642136512","172","0.09082031","-0.91015625","0.119140625","-6.71875","-0.0625","-0.1875"
"1573642136512","173","0.056640625","-0.95703125","0.049804688","-4.53125","2.1875","-1.71875"
"1573642136512","174","0.091796875","-0.9511719","0.09082031","-3.375","4.3125","1.5"
"1573642136513","175","0.0703125","-0.9296875","0.11328125","-6.25","5.0","-3.0"
"1573642136513","176","0.07128906","-1.0136719","0.0859375","-0.9375","1.09375","-5.3125"
"1573642136513","177","0.10449219","-1.0332031","0.09375","-1.65625","1.15625","2.90625"
"1573642136513","178","0.14257812","-0.93359375","0.123046875","-3.6875","-2.09375","-0.625"
"1573642136514","179","0.049804688","-0.9970703","0.109375","-0.8125","-6.1875","-0.625"
"1573642136708","180","0.048828125","-0.97265625","0.08105469","-0.875","-0.5625","2.0"
"1573642136710","181","0.08984375","-0.9394531","0.115234375","-2.6875","2.375","1.15625"
"1573642136710","182","0.08300781","-0.94921875","0.08300781","0.59375","-1.46875","0.28125"
"1573642136710","183","0.0703125","-0.96777344","0.11230469","-0.3125","6.8125","-4.40625"
"1573642136711","184","0.08886719","-1.0371094","0.111328125","-2.21875","-1.40625","-0.125"
"1573642136711","185","0.07910156","-1.0146484","0.13085938","0.65625","6.875","-3.4375"
"1573642136711","186","0.08105469","-0.9765625","0.09667969","-1.59375","-0.6875","0.28125"
"1573642136712","187","0.08203125","-1.0234375","0.12988281","-2.53125","3.03125","-4.78125"
"1573642136712","188","0.11621094","-0.96875","0.11035156","-4.84375","2.65625","-2.03125"
"1573642136712","189","0.05078125","-0.9482422","0.119140625","-5.8125","2.0625","-4.21875"
"1573642136906","190","0.059570312","-0.92871094","0.14648438","-8.0","1.3125","-6.0"
"1573642136907","191","0.030273438","-0.9140625","0.12207031","-4.15625","8.84375","-6.90625"
"1573642136907","192","0.13867188","-0.7939453","0.14941406","-6.59375","4.75","2.90625"
"1573642136908","193","-0.020507812","-0.6699219","0.060546875","-1.0","0.0","5.0"
"1573642136908","194","-0.029296875","-0.6425781","0.08203125","-9.0","13.53125","1.21875"
"1573642136909","195","0.15136719","-0.6230469","0.1328125","-4.40625","14.875","-13.5"
"1573642136909","196","0.12207031","-0.79003906","0.18164062","4.0625","-14.84375","-16.8125"
"1573642136909","197","0.0029296875","-1.3515625","0.30078125","3.03125","9.375","-11.25"
"1573642136910","198","0.39453125","-2.0","0.703125","-33.40625","7.84375","-17.53125"
"1573642136910","199","-0.1953125","-1.0849609","-0.6035156","18.90625","5.34375","26.71875"
"1573642137109","200","1.1435547","-0.4765625","0.38085938","-1.125","-27.40625","54.90625"
"1573642137110","201","-0.11328125","0.016601562","0.07519531","-5.375","-35.28125","-9.28125"
"1573642137110","202","-0.30371094","-0.8613281","0.030273438","8.21875","8.90625","-37.625"
"1573642137110","203","0.23144531","-2.0","0.028320312","-42.4375","61.375","-61.65625"
"1573642137111","204","0.3251953","-0.98828125","0.064453125","-15.28125","-9.34375","34.40625"
"1573642137112","205","0.38183594","-0.5439453","0.034179688","-2.15625","-14.84375","10.71875"
"1573642137112","206","0.076171875","-0.6279297","0.07714844","-9.125","-31.15625","-14.78125"
"1573642137112","207","-0.13476562","-1.2988281","0.0126953125","-9.0","6.03125","-20.21875"
"1573642137112","208","0.15332031","-1.2060547","0.024414062","-3.75","16.09375","3.40625"
"1573642137113","209","0.36914062","-0.8701172","0.045898438","-3.3125","-1.40625","12.75"
"1573642137506","210","0.20605469","-0.80859375","0.032226562","-1.71875","-22.53125","-0.125"
"1573642137506","211","0.009765625","-1.0234375","0.03125","-5.875","-18.5","-10.625"
"1573642137506","212","0.026367188","-1.1035156","0.0625","-4.71875","5.1875","-5.21875"
"1573642137507","213","0.20898438","-0.953125","0.032226562","-1.3125","3.15625","3.34375"
"1573642137507","214","0.203125","-0.953125","0.034179688","-3.375","-7.65625","-3.875"
"1573642137507","215","0.15332031","-1.0322266","0.022460938","-8.0625","-6.0625","-9.28125"
"1573642137507","216","0.119140625","-1.0136719","0.041992188","-7.875","-5.375","-2.03125"
"1573642137508","217","0.13964844","-0.9550781","0.033203125","-9.21875","-0.6875","-1.90625"
"1573642137508","218","0.16796875","-0.97753906","0.009765625","-6.78125","-0.5625","-6.0625"
"1573642137509","219","0.15039062","-1.0126953","0.0126953125","-7.28125","-0.5625","-1.3125"
"1573642138894","220","0.15625","-0.9951172","0.020507812","-4.53125","0.03125","-0.8125"
"1573642138894","221","0.14550781","-0.9716797","0.0107421875","-5.25","0.15625","-1.125"
"1573642138895","222","0.16796875","-0.9785156","0.013671875","-4.65625","2.1875","-2.09375"
"1573642138895","223","0.16894531","-0.9824219","9.765625E-4","-4.09375","-0.0625","-1.0625"
"1573642138895","224","0.16015625","-0.9980469","0.0","-4.21875","-1.46875","-1.25"
"1573642138895","225","0.16210938","-0.984375","0.017578125","-5.25","5.53125","-2.40625"
"1573642138896","226","0.16210938","-0.9707031","-0.00390625","-2.59375","0.09375","-3.1875"
"1573642138896","227","0.16699219","-1.0","-0.0107421875","-2.09375","2.3125","-1.34375"
"1573642138896","228","0.16308594","-0.9667969","0.0068359375","-2.40625","3.15625","-2.6875"
"1573642138898","229","0.14160156","-0.9794922","-0.0146484375","0.96875","4.1875","-1.3125"
"1573642139093","230","0.18066406","-0.9892578","-9.765625E-4","0.65625","4.375","-1.59375"
"1573642139093","231","0.16601562","-0.984375","-0.017578125","1.03125","0.78125","-0.1875"
"1573642139094","232","0.1796875","-0.9863281","-0.0048828125","2.3125","2.0","-0.125"
"1573642139094","233","0.17285156","-0.97558594","-0.00390625","1.875","0.53125","0.0"
"1573642139094","234","0.16601562","-0.98339844","-0.005859375","2.71875","0.96875","-0.3125"
"1573642139095","235","0.17285156","-0.9892578","-0.0048828125","3.71875","0.0","1.3125"
"1573642139095","236","0.17675781","-1.0068359","0.017578125","2.3125","-0.3125","0.21875"
"1573642139095","237","0.14648438","-0.98339844","-0.036132812","4.1875","-1.0","2.125"
"1573642139096","238","0.17382812","-0.99121094","0.045898438","0.09375","2.25","1.5625"
"1573642139097","239","0.140625","-0.984375","-0.0068359375","3.65625","5.0","2.125"
"1573642139097","240","0.17871094","-1.0126953","0.026367188","2.4375","5.34375","3.03125"
"1573642139098","241","0.13671875","-0.9765625","0.018554688","0.46875","4.3125","2.375"
"1573642139098","242","0.1484375","-0.9902344","0.059570312","0.0","2.25","-1.25"
"1573642139099","243","0.15722656","-1.0","0.045898438","2.375","3.59375","-0.9375"
"1573642139099","244","0.14746094","-1.0029297","0.056640625","2.90625","1.8125","1.75"
"1573642139099","245","0.140625","-0.98339844","0.07421875","2.3125","0.09375","2.0625"
"1573642139100","246","0.11816406","-1.0","0.06738281","2.0","0.78125","0.71875"
"1573642139100","247","0.14453125","-0.9794922","0.08105469","2.0","2.375","1.21875"
"1573642139100","248","0.111328125","-1.0126953","0.0625","1.6875","-3.3125","6.03125"
"1573642139100","249","0.107421875","-1.0449219","0.015625","-2.53125","-4.84375","-0.625"
"1573642139296","250","0.15722656","-1.0576172","0.111328125","-7.28125","-11.4375","1.03125"
"1573642139296","251","0.09375","-0.9941406","0.048828125","-7.28125","-6.53125","3.09375"
"1573642139296","252","0.1640625","-1.0195312","0.068359375","-6.71875","2.90625","-4.28125"
"1573642139298","253","0.09667969","-0.99609375","0.048828125","-6.78125","1.3125","0.96875"
"1573642139298","254","0.10253906","-0.9941406","0.072265625","-3.3125","3.71875","2.78125"
"1573642139298","255","0.11425781","-0.9824219","0.06347656","-1.46875","5.1875","2.5625"
"1573642139298","256","0.119140625","-0.9589844","0.068359375","1.4375","7.125","2.0"
"1573642139299","257","0.078125","-0.96875","0.07910156","6.15625","7.375","5.53125"
"1573642139299","258","0.099609375","-0.94628906","0.07519531","8.71875","10.59375","6.03125"
"1573642139300","259","0.1328125","-0.9638672","0.099609375","8.59375","9.03125","2.0625"
"1573642139889","260","0.09277344","-1.0224609","0.13867188","12.375","11.28125","1.15625"
"1573642139890","261","0.06347656","-1.0351562","0.033203125","10.375","9.125","4.1875"
"1573642139890","262","0.13671875","-1.0214844","0.107421875","2.65625","4.125","3.65625"
"1573642139891","263","0.09472656","-0.94140625","0.08203125","1.09375","3.34375","1.8125"
"1573642139891","264","0.08105469","-0.9609375","0.048828125","0.59375","-0.1875","0.96875"
"1573642139892","265","0.103515625","-0.94140625","0.078125","-4.40625","5.1875","-5.3125"
"1573642139892","266","0.083984375","-0.9501953","0.0703125","-2.875","-0.6875","-0.8125"
"1573642139893","267","0.09863281","-1.0175781","0.1015625","-2.34375","1.09375","-3.96875"
"1573642139893","268","0.119140625","-0.9746094","0.06640625","-1.0625","7.5625","-3.875"
"1573642139893","269","0.115234375","-0.95410156","0.08300781","-1.96875","-2.59375","4.3125"
"1573642140086","270","0.087890625","-0.9814453","0.07714844","-1.125","5.84375","-8.375"
"1573642140087","271","0.12890625","-1.0097656","0.078125","-1.53125","-1.96875","-0.8125"
"1573642140087","272","0.08203125","-0.9814453","0.083984375","-4.09375","-4.90625","-0.25"
"1573642140087","273","0.12597656","-0.9658203","0.10058594","-2.875","4.0","-1.125"
"1573642140088","274","0.1015625","-1.0273438","0.0703125","-1.0","-4.71875","-3.1875"
"1573642140088","275","0.111328125","-0.9873047","0.068359375","-2.21875","3.40625","-0.4375"
"1573642140088","276","0.13476562","-0.95703125","0.08105469","-4.53125","-1.34375","0.0"
"1573642140089","277","0.09863281","-1.0234375","0.080078125","-2.75","0.03125","-5.9375"
"1573642140090","278","0.09472656","-1.0009766","0.048828125","-3.75","0.59375","-1.125"
"1573642140090","279","0.16699219","-0.94433594","0.09472656","-4.78125","0.71875","0.65625"
"1573642140485","280","0.08886719","-0.9716797","0.0859375","-1.71875","0.96875","-4.40625"
"1573642140485","281","0.095703125","-0.98339844","0.07519531","-1.46875","4.5","0.53125"
"1573642140486","282","0.1328125","-0.9873047","0.072265625","-1.84375","3.53125","1.09375"
"1573642140486","283","0.12988281","-1.0048828","0.083984375","-0.75","2.25","-1.78125"
"1573642140486","284","0.12011719","-0.99121094","0.044921875","0.84375","0.71875","-1.125"
"1573642140487","285","0.1328125","-0.9785156","0.1171875","-2.34375","0.90625","0.28125"
"1573642140487","286","0.11816406","-0.9902344","0.080078125","-0.8125","-0.0625","-1.53125"
"1573642140487","287","0.11621094","-0.9941406","0.07421875","-0.625","0.0","0.46875"
"1573642140487","288","0.10546875","-0.984375","0.0703125","-2.46875","0.90625","0.09375"
"1573642140488","289","0.095703125","-0.99121094","0.1015625","-4.28125","2.25","-4.09375"
"1573642140687","290","0.11816406","-0.9794922","0.068359375","-3.5","4.6875","-0.75"
"1573642140687","291","0.13085938","-0.98339844","0.083984375","-2.15625","1.28125","-1.0"
"1573642140688","292","0.1015625","-1.0048828","0.076171875","-3.6875","3.65625","-0.625"
"1573642140688","293","0.13476562","-0.984375","0.083984375","-4.09375","3.28125","-2.03125"
"1573642140688","294","0.1171875","-0.984375","0.080078125","-4.40625","1.15625","-1.46875"
"1573642140688","295","0.11035156","-0.9628906","0.08886719","-4.84375","-2.8125","-0.75"
"1573642140689","296","0.12011719","-0.9824219","0.09082031","-2.8125","5.0625","-1.0625"
"1573642140689","297","0.08300781","-0.9794922","0.080078125","-5.9375","3.15625","-3.3125"
"1573642140689","298","0.09082031","-0.9951172","0.10546875","-6.3125","5.46875","-4.46875"
"1573642140690","299","0.036132812","-0.9873047","0.068359375","-8.5","2.96875","-2.21875"
"1573642141284","300","0.055664062","-1.0009766","0.13085938","-7.15625","13.0","-4.53125"
"1573642141285","301","0.091796875","-0.91308594","0.1015625","-10.34375","6.09375","-3.0625"
"1573642141286","302","0.0625","-0.8125","0.064453125","-10.15625","9.1875","3.34375"
"1573642141286","303","0.107421875","-0.7392578","0.0625","-7.59375","7.1875","1.15625"
"1573642141286","304","0.09375","-0.828125","0.06347656","-3.5","-0.3125","-6.0625"
"1573642141286","305","0.08300781","-0.8623047","0.14648438","-5.9375","4.875","-4.65625"
"1573642141287","306","0.09082031","-0.97753906","0.076171875","6.625","-10.9375","1.75"
"1573642141287","307","0.09863281","-0.9609375","0.2705078","0.0","31.25","18.0625"
"1573642141287","308","-0.25097656","-2.0","-0.4609375","-11.6875","59.6875","-55.1875"
"1573642141287","309","0.53222656","-1.0195312","-0.064453125","-10.09375","-45.65625","79.5"
"1573642141481","310","0.30664062","-0.095703125","0.078125","31.34375","0.15625","22.125"
"1573642141482","311","-0.18359375","-0.4921875","-0.025390625","-21.5625","-32.5625","-37.96875"
"1573642141482","312","-0.15625","-1.9023438","0.040039062","-10.28125","53.9375","-53.3125"
"1573642141482","313","0.2919922","-1.0761719","-0.056640625","-21.5","21.90625","16.40625"
"1573642141482","314","0.37402344","-0.8105469","-0.00390625","-9.96875","-2.46875","4.1875"
"1573642141483","315","0.24511719","-0.6933594","-0.044921875","-3.90625","-13.6875","-16.75"
"1573642141483","316","0.0068359375","-1.0810547","-0.0048828125","-6.5","-6.5","-12.53125"
"1573642141483","317","0.024414062","-1.1992188","-0.001953125","-5.09375","15.5","-5.5"
"1573642141483","318","0.29003906","-0.92089844","-0.051757812","-3.5","6.09375","3.34375"
"1573642141484","319","0.26757812","-0.9189453","-0.0087890625","-3.875","-9.125","1.03125"
"1573642141878","320","0.10546875","-1.0273438","-0.032226562","-6.71875","-9.65625","-4.84375"
"1573642141879","321","0.107421875","-1.0537109","-0.034179688","-5.15625","0.96875","-3.75"
"1573642141879","322","0.17578125","-0.9638672","-0.0078125","-5.4375","2.65625","1.15625"
"1573642141879","323","0.16894531","-0.96777344","-0.02734375","-8.125","-1.125","-3.1875"
"1573642141879","324","0.16894531","-1.0058594","-0.025390625","-6.0625","-1.84375","-3.75"
"1573642141881","325","0.14257812","-1.0039062","-0.044921875","-5.25","0.28125","-1.125"
"1573642141881","326","0.15429688","-0.97753906","-0.020507812","-3.375","2.25","1.3125"
"1573642141881","327","0.16503906","-0.9736328","-0.024414062","-2.15625","3.28125","-0.875"
"1573642141881","328","0.14941406","-0.98535156","-0.038085938","0.34375","3.59375","-0.5625"
"1573642141882","329","0.14941406","-0.9794922","-0.06347656","0.65625","1.15625","0.78125"
"1573642142278","330","0.19238281","-0.98828125","0.024414062","-1.46875","5.53125","0.53125"
"1573642142278","331","0.13964844","-0.98046875","-0.053710938","0.65625","2.25","-1.125"
"1573642142279","332","0.17285156","-1.0039062","-0.0234375","-0.6875","1.09375","-0.625"
"1573642142279","333","0.15429688","-0.9794922","-0.036132812","-1.125","1.03125","-1.125"
"1573642142279","334","0.15234375","-0.99316406","-0.016601562","-1.40625","0.96875","-2.34375"
"1573642142280","335","0.15917969","-0.98828125","-0.0390625","0.84375","3.71875","-1.84375"
"1573642142280","336","0.16992188","-0.9863281","-0.032226562","1.3125","3.46875","-1.125"
"1573642142281","337","0.15332031","-0.98535156","-0.03515625","1.3125","3.34375","-0.125"
"1573642142282","338","0.171875","-0.9814453","-0.0234375","1.75","3.59375","-0.5"
"1573642142282","339","0.17089844","-0.97753906","-0.041992188","3.21875","3.21875","0.09375"
"1573642142675","340","0.15820312","-0.96484375","-0.043945312","2.59375","-3.25","0.78125"
"1573642142675","341","0.17675781","-0.99902344","0.016601562","2.65625","2.84375","1.875"
"1573642142675","342","0.1484375","-0.9716797","-0.041992188","2.78125","-4.28125","-0.625"
"1573642142675","343","0.18164062","-1.0058594","-0.013671875","3.65625","-3.3125","0.90625"
"1573642142676","344","0.16113281","-0.98828125","-0.020507812","1.8125","-4.15625","1.03125"
"1573642142676","345","0.15820312","-0.9980469","-0.001953125","1.28125","-5.15625","-1.125"
"1573642142676","346","0.16015625","-0.9951172","-0.0078125","1.375","-3.3125","-0.75"
"1573642142676","347","0.15625","-1.0","0.0029296875","1.75","-1.90625","0.65625"
"1573642142677","348","0.14453125","-0.98535156","0.026367188","1.75","0.09375","1.625"
"1573642142678","349","0.13378906","-1.0","0.036132812","2.1875","0.34375","0.65625"
"1573642143072","350","0.12207031","-0.98828125","0.026367188","1.09375","2.125","-0.125"
"1573642143072","351","0.14257812","-0.9736328","0.049804688","-0.5","-1.3125","-1.34375"
"1573642143072","352","0.1171875","-1.0039062","0.046875","0.03125","5.34375","-1.34375"
"1573642143073","353","0.11816406","-1.015625","0.02734375","-2.8125","2.125","-3.5"
"1573642143073","354","0.16796875","-1.0390625","0.022460938","-0.8125","4.875","-3.8125"
"1573642143073","355","0.16503906","-1.0449219","0.041992188","-1.46875","1.28125","-3.5625"
"1573642143073","356","0.12597656","-1.0390625","0.068359375","-1.34375","1.75","-3.125"
"1573642143074","357","0.15429688","-1.0361328","0.052734375","-0.75","3.34375","-1.65625"
"1573642143074","358","0.15039062","-1.0097656","0.040039062","0.03125","2.96875","-0.9375"
"1573642143075","359","0.115234375","-1.0","0.047851562","0.0","4.0","2.1875"
"1573642143470","360","0.13671875","-0.9707031","0.029296875","0.28125","5.78125","1.3125"
"1573642143471","361","0.14160156","-0.9824219","0.029296875","0.0","3.78125","-0.3125"
"1573642143472","362","0.140625","-0.97265625","0.06347656","-0.625","0.65625","0.78125"
"1573642143473","363","0.10546875","-1.0332031","0.072265625","0.65625","4.125","-0.8125"
"1573642143473","364","0.10449219","-0.9824219","0.043945312","2.96875","5.0","5.0625"
"1573642143473","365","0.16796875","-0.9707031","0.0546875","3.59375","6.03125","4.0"
"1573642143474","366","0.123046875","-1.0234375","0.0625","0.53125","3.03125","-1.34375"
"1573642143474","367","0.123046875","-0.9951172","0.036132812","3.03125","3.21875","1.5"
"1573642143474","368","0.13476562","-0.94433594","0.053710938","0.28125","4.1875","2.5625"
"1573642143474","369","0.09667969","-0.90234375","-0.005859375","0.53125","3.21875","2.90625"
"1573642143867","370","0.16503906","-0.85058594","0.03515625","-2.625","2.96875","2.0625"
"1573642143867","371","0.13574219","-0.89453125","0.057617188","-2.40625","-1.0625","-6.0625"
"1573642143867","372","0.091796875","-1.0449219","0.0390625","0.21875","1.6875","-4.59375"
"1573642143869","373","0.15820312","-1.0019531","0.047851562","-2.28125","2.25","1.5625"
"1573642143869","374","0.10546875","-1.0722656","0.08886719","-0.4375","2.71875","-1.96875"
"1573642143869","375","0.08984375","-1.0449219","0.028320312","-0.3125","2.0625","2.78125"
"1573642143869","376","0.17382812","-0.92871094","0.0546875","-0.1875","2.59375","4.6875"
"1573642143870","377","0.10644531","-0.94433594","0.07519531","-2.09375","-0.875","0.78125"
"1573642143870","378","0.09082031","-0.99609375","0.040039062","-2.40625","3.9375","-3.6875"
"1573642143870","379","0.15332031","-1.0048828","0.055664062","-3.75","-0.8125","-1.3125"
"1573642144658","380","0.123046875","-1.0117188","0.051757812","-1.40625","-1.25","-1.1875"
"1573642144658","381","0.12207031","-1.0126953","0.07128906","-1.25","1.5","-1.53125"
"1573642144659","382","0.13574219","-0.9814453","0.053710938","-3.4375","0.21875","1.375"
"1573642144659","383","0.115234375","-0.96191406","0.033203125","-2.8125","-0.25","-1.96875"
"1573642144660","384","0.12988281","-0.9550781","0.0068359375","-7.15625","-2.15625","-3.5"
"1573642144661","385","0.16210938","-0.99316406","0.10839844","-6.84375","-0.3125","-5.21875"
"1573642144661","386","0.119140625","-0.9892578","0.02734375","-4.96875","-1.3125","-5.8125"
"1573642144662","387","0.15039062","-1.0039062","0.055664062","-6.375","-3.5625","-4.78125"
"1573642144662","388","0.11230469","-0.9921875","0.046875","-5.15625","-2.6875","-0.1875"
"1573642144662","389","0.14941406","-0.9794922","0.033203125","-4.53125","0.71875","-2.34375"
"1573642144858","390","0.15332031","-0.97558594","0.041015625","-3.0625","-2.53125","-3.5625"
"1573642144859","391","0.12011719","-0.99609375","0.038085938","-1.40625","-0.25","-1.59375"
"1573642144859","392","0.13769531","-0.9863281","0.056640625","-1.71875","-0.5","-0.75"
"1573642144859","393","0.091796875","-0.9638672","0.06738281","-3.875","0.59375","-1.46875"
"1573642144860","394","0.08300781","-0.93847656","0.07128906","-3.90625","5.59375","-2.03125"
"1573642144860","395","0.056640625","-0.8564453","-0.009765625","-3.5","4.625","1.15625"
"1573642144860","396","0.16210938","-0.7919922","0.115234375","-10.4375","14.4375","-0.125"
"1573642144861","397","0.08105469","-0.7236328","0.06347656","-4.21875","9.75","-11.1875"
"1573642144862","398","0.022460938","-0.84277344","0.049804688","-3.75","18.65625","-1.71875"
"1573642144862","399","0.08886719","-0.9169922","0.033203125","-1.34375","22.09375","-7.40625"
"1573642145653","400","0.11621094","-1.1025391","0.09277344","1.6875","14.375","-2.03125"
"1573642145653","401","0.12402344","-1.1572266","0.048828125","-0.625","33.25","7.8125"
"1573642145654","402","0.40722656","-2.0","-0.21289062","-10.15625","22.3125","-76.5"
"1573642145654","403","0.40722656","-1.0126953","-0.3154297","-7.9375","-54.03125","54.4375"
"1573642145654","404","0.4453125","-0.31445312","0.1484375","19.6875","-15.8125","30.5625"
"1573642145655","405","-0.07519531","-0.48242188","0.033203125","-15.09375","-35.46875","-21.0"
"1573642145655","406","-0.09863281","-1.6328125","-0.021484375","-2.59375","22.4375","-43.84375"
"1573642145655","407","0.22949219","-1.0654297","-0.061523438","-1.59375","4.8125","17.875"
"1573642145655","408","0.35351562","-0.8798828","-0.0068359375","2.4375","-3.5625","25.75"
"1573642145657","409","0.25878906","-0.85546875","-0.025390625","-2.875","-15.03125","-8.3125"
"1573642145852","410","0.064453125","-1.0136719","0.0146484375","-2.59375","-9.53125","-6.71875"
"1573642145853","411","0.034179688","-1.1044922","0.00390625","-2.21875","9.4375","2.5625"
"1573642145853","412","0.25097656","-0.9345703","0.013671875","-2.34375","11.53125","4.6875"
"1573642145854","413","0.26464844","-0.9345703","-0.001953125","-1.25","-2.40625","4.125"
"1573642145854","414","0.15136719","-1.0292969","0.0048828125","-2.6875","-6.65625","-1.90625"
"1573642145854","415","0.11035156","-1.0068359","-0.017578125","-2.625","0.34375","1.3125"
"1573642145854","416","0.18554688","-0.9472656","-9.765625E-4","-2.15625","1.5","2.375"
"1573642145855","417","0.18847656","-0.9794922","0.028320312","-2.9375","0.59375","-2.875"
"1573642145855","418","0.14648438","-1.0048828","-0.00390625","-4.84375","-1.3125","-4.71875"
"1573642145855","419","0.16015625","-1.0097656","-0.03125","-5.4375","-1.46875","-3.375"
"1573642145857","420","0.19824219","-1.0068359","-0.01953125","-8.0625","1.03125","-5.8125"
"1573642145859","421","0.16503906","-0.98046875","-0.0126953125","-10.03125","-2.6875","-6.78125"
"1573642145859","422","0.16894531","-0.9824219","-0.01953125","-7.9375","-1.1875","-5.21875"
"1573642145860","423","0.16308594","-0.9892578","-0.034179688","-6.90625","0.15625","-4.21875"
"1573642145860","424","0.1640625","-0.9814453","-0.030273438","-4.28125","4.6875","-2.40625"
"1573642145860","425","0.16113281","-0.9707031","-0.00390625","-0.1875","3.84375","1.625"
"1573642145861","426","0.16796875","-0.9785156","-0.038085938","1.5625","4.75","1.3125"
"1573642145861","427","0.16699219","-0.98828125","-0.052734375","-1.0","0.71875","-0.25"
"1573642145861","428","0.19921875","-1.0009766","0.00390625","-4.15625","0.71875","-0.125"
"1573642145862","429","0.17382812","-0.984375","-0.045898438","-2.46875","-1.34375","-2.40625"
"1573642146451","430","0.20019531","-1.0146484","-0.03515625","-2.59375","-1.1875","-1.65625"
"1573642146451","431","0.16699219","-0.96875","-0.024414062","-3.75","-3.0625","-0.6875"
"1573642146452","432","0.16113281","-0.97558594","-0.026367188","-1.84375","-2.03125","-0.1875"
"1573642146453","433","0.16210938","-0.9785156","-0.036132812","-0.25","0.65625","1.375"
"1573642146453","434","0.17578125","-0.9863281","-0.04296875","2.25","4.5625","2.375"
"1573642146454","435","0.18554688","-0.9814453","-0.048828125","2.5625","5.0625","4.3125"
"1573642146454","436","0.18164062","-0.984375","-0.036132812","2.71875","4.6875","3.53125"
"1573642146454","437","0.16796875","-0.98535156","9.765625E-4","2.96875","6.9375","3.03125"
"1573642146454","438","0.17773438","-0.97265625","-0.07324219","3.53125","6.03125","1.5625"
"1573642146455","439","0.17285156","-0.97265625","-0.013671875","0.65625","-1.65625","2.3125"
"1573642146650","440","0.1796875","-0.9921875","-0.041015625","3.34375","2.25","1.5625"
"1573642146651","441","0.17285156","-0.984375","-0.029296875","2.71875","-0.5625","1.875"
"1573642146651","442","0.17089844","-0.984375","-0.015625","3.84375","-0.1875","2.25"
"1573642146651","443","0.15917969","-0.9980469","0.0029296875","3.65625","-1.3125","1.4375"
"1573642146651","444","0.171875","-1.0048828","0.013671875","2.84375","-0.4375","0.71875"
"1573642146652","445","0.15625","-1.0009766","0.030273438","3.46875","-0.875","0.71875"
"1573642146653","446","0.14160156","-1.0263672","0.041015625","3.9375","-1.78125","0.46875"
"1573642146653","447","0.12011719","-1.0273438","0.040039062","3.9375","-1.40625","0.65625"
"1573642146653","448","0.123046875","-1.0507812","0.043945312","3.65625","-2.46875","2.0"
"1573642146653","449","0.14160156","-1.0556641","0.0703125","5.21875","4.9375","2.1875"
"1573642147046","450","0.123046875","-0.9892578","0.068359375","4.25","-0.5625","2.84375"
"1573642147046","451","0.12792969","-0.97753906","0.0703125","6.46875","1.625","4.0"
"1573642147046","452","0.10449219","-1.0214844","0.087890625","3.71875","4.75","3.03125"
"1573642147047","453","0.12890625","-1.0439453","0.1015625","1.3125","7.5","-1.25"
"1573642147047","454","0.11328125","-1.0205078","0.072265625","1.6875","4.375","1.375"
"1573642147047","455","0.10546875","-0.9345703","0.07128906","0.71875","7.0","7.8125"
"1573642147047","456","0.12890625","-0.90234375","0.09472656","2.3125","5.78125","4.125"
"1573642147049","457","0.06347656","-1.0166016","0.08886719","4.0","3.34375","-2.21875"
"1573642147049","458","0.0859375","-1.0322266","0.103515625","2.71875","9.375","5.40625"
"1573642147049","459","0.12890625","-0.96777344","0.038085938","0.46875","5.90625","2.4375"
"1573642147640","460","0.11328125","-1.0166016","0.10839844","-2.6875","2.25","-2.34375"
"1573642147641","461","0.07324219","-0.95214844","0.05078125","-1.46875","5.84375","2.0"
"1573642147641","462","0.10839844","-0.89941406","0.051757812","-1.59375","3.28125","2.84375"
"1573642147641","463","0.123046875","-0.8779297","0.0546875","-1.65625","-0.75","-0.5"
"1573642147642","464","0.107421875","-0.9511719","0.057617188","-1.1875","-1.46875","-7.46875"
"1573642147642","465","0.13085938","-1.0136719","0.08105469","-1.40625","-3.90625","-4.90625"
"1573642147642","466","0.08984375","-0.9863281","0.05078125","-2.09375","-0.9375","-1.65625"
"1573642147642","467","0.07519531","-0.9921875","0.072265625","-0.75","1.8125","0.0"
"1573642147643","468","0.10546875","-0.9814453","0.07421875","-0.375","5.0625","-0.625"
"1573642147644","469","0.13671875","-0.9736328","0.076171875","-1.78125","2.1875","-0.1875"
"1573642147842","470","0.111328125","-0.99316406","0.087890625","-1.0","1.5625","-3.125"
"1573642147842","471","0.103515625","-1.0273438","0.072265625","-1.65625","1.28125","0.28125"
"1573642147842","472","0.123046875","-1.0087891","0.07421875","-1.3125","0.21875","0.28125"
"1573642147842","473","0.1015625","-0.9785156","0.06542969","-3.0625","0.34375","2.4375"
"1573642147843","474","0.14453125","-0.96972656","0.06542969","-4.21875","1.15625","-1.46875"
"1573642147843","475","0.10449219","-1.0029297","0.07128906","-4.90625","-0.75","-2.46875"
"1573642147843","476","0.1015625","-1.0058594","0.064453125","-5.875","-0.9375","0.03125"
"1573642147843","477","0.109375","-0.97753906","0.061523438","-7.71875","-2.46875","0.0"
"1573642147844","478","0.12597656","-0.9863281","0.095703125","-7.9375","0.59375","-3.4375"
"1573642147844","479","0.09765625","-0.98339844","0.07128906","-6.25","0.46875","-4.53125"
"1573642148435","480","0.10449219","-0.9765625","0.033203125","-9.34375","-1.3125","-4.65625"
"1573642148437","481","0.1015625","-0.96191406","0.095703125","-7.71875","-0.375","-4.03125"
"1573642148437","482","0.123046875","-0.98535156","0.07714844","-3.375","-0.0625","-6.25"
"1573642148438","483","0.07421875","-1.078125","0.030273438","-4.53125","2.0625","-5.25"
"1573642148438","484","0.14941406","-1.0195312","0.09863281","-9.34375","-0.375","-3.4375"
"1573642148438","485","0.099609375","-0.9433594","0.07324219","-9.53125","-2.53125","-2.46875"
"1573642148438","486","0.08886719","-0.8642578","0.017578125","-8.8125","-3.5","-0.9375"
"1573642148439","487","0.15625","-0.71191406","0.03515625","-12.90625","-7.53125","3.53125"
"1573642148440","488","0.08691406","-0.62402344","0.037109375","-8.625","-10.75","-1.90625"
"1573642148441","489","0.0","-0.83203125","-0.017578125","-6.375","-12.21875","-3.375"
"1573642148835","490","0.1171875","-1.0771484","0.049804688","-5.03125","12.0","-13.8125"
"1573642148835","491","0.15039062","-1.1972656","-0.13183594","-7.71875","-8.625","2.65625"
"1573642148835","492","0.46191406","-2.0","0.35546875","-36.875","27.28125","-5.8125"
"1573642148837","493","0.17578125","-1.0058594","-0.3720703","-10.4375","20.5625","-11.4375"
"1573642148837","494","0.59765625","-0.5625","0.14160156","-14.25","-35.21875","42.59375"
"1573642148838","495","-0.13183594","-0.28027344","0.05078125","14.4375","-27.1875","-2.625"
"1573642148838","496","-0.18554688","-1.2900391","9.765625E-4","-2.6875","32.9375","-24.96875"
"1573642148838","497","0.3017578","-1.2558594","-0.1875","-10.21875","26.28125","-7.65625"
"1573642148839","498","0.38085938","-0.9873047","-0.052734375","-15.9375","0.59375","9.8125"
"1573642148839","499","0.25878906","-0.8310547","-0.068359375","-6.0","-20.40625","-1.0625"
"1573642149626","500","0.06640625","-0.91015625","-0.018554688","-6.5","-15.59375","-6.78125"
"1573642149627","501","0.0078125","-1.1162109","-0.11816406","-1.90625","11.34375","-1.125"
"1573642149627","502","0.28320312","-0.9453125","0.00390625","-3.6875","14.5625","-2.21875"
"1573642149628","503","0.2578125","-0.9375","-0.078125","1.625","-1.25","-0.3125"
"1573642149628","504","0.13671875","-1.0292969","-0.056640625","0.15625","-6.65625","-0.1875"
"1573642149629","505","0.10253906","-0.9824219","-0.044921875","0.34375","4.0","-1.40625"
"1573642149630","506","0.15820312","-0.984375","-0.048828125","0.40625","10.25","-0.1875"
"1573642149630","507","0.18847656","-0.99902344","-0.048828125","-0.8125","6.5","-1.65625"
"1573642149630","508","0.15136719","-0.99902344","-0.049804688","-0.6875","2.59375","-1.40625"
"1573642149630","509","0.1484375","-0.9863281","-0.040039062","-0.1875","3.9375","0.34375"
"1573642149827","510","0.15527344","-0.9716797","-0.048828125","0.78125","5.53125","-1.0"
"1573642149827","511","0.16210938","-0.98828125","-0.034179688","0.21875","2.65625","-1.53125"
"1573642149828","512","0.15136719","-0.9970703","-0.04296875","0.96875","4.8125","-0.1875"
"1573642149828","513","0.13085938","-0.9892578","-0.040039062","-0.875","1.6875","-1.0625"
"1573642149828","514","0.15820312","-0.98828125","-0.046875","1.5","6.6875","-1.53125"
"1573642149828","515","0.15722656","-0.9921875","-0.037109375","0.28125","5.46875","-0.875"
"1573642149829","516","0.15917969","-0.9873047","-0.036132812","-0.25","5.28125","-2.625"
"1573642149830","517","0.16113281","-0.9892578","-0.036132812","-0.5","5.96875","-2.8125"
"1573642149831","518","0.14941406","-0.9892578","-0.029296875","0.21875","6.34375","-2.6875"
"1573642149831","519","0.16503906","-0.9921875","-0.034179688","1.5625","6.9375","-1.84375"
"1573642150423","520","0.16015625","-0.9951172","-0.024414062","0.46875","4.5625","-1.125"
"1573642150423","521","0.16894531","-0.9921875","-0.028320312","1.3125","4.4375","-2.09375"
"1573642150424","522","0.15722656","-0.9892578","-0.048828125","1.625","2.5625","-2.46875"
"1573642150424","523","0.17871094","-1.0009766","-0.009765625","-0.125","2.125","-1.40625"
"1573642150424","524","0.16503906","-0.97558594","-0.024414062","0.78125","1.625","-2.28125"
"1573642150425","525","0.17675781","-0.99609375","-0.038085938","1.625","-0.5625","-1.25"
"1573642150425","526","0.17089844","-0.9794922","-0.038085938","0.96875","-1.0","0.96875"
"1573642150425","527","0.16894531","-0.9892578","-0.0390625","0.03125","0.03125","-0.3125"
"1573642150425","528","0.18164062","-0.99609375","-0.036132812","0.15625","0.15625","0.15625"
"1573642150427","529","0.18359375","-0.99316406","-0.036132812","0.65625","0.46875","0.90625"
"1573642150624","530","0.16992188","-0.99902344","-0.040039062","-0.3125","-1.0","1.09375"
"1573642150624","531","0.19042969","-0.98339844","-0.018554688","-1.25","-2.46875","-1.3125"
"1573642150625","532","0.1875","-0.98535156","-0.0146484375","-0.875","-5.875","0.65625"
"1573642150625","533","0.16796875","-0.98828125","-0.022460938","-1.0","-5.21875","-1.46875"
"1573642150625","534","0.17773438","-0.99902344","-0.017578125","-2.15625","-3.8125","-1.71875"
"1573642150625","535","0.16015625","-0.9951172","-0.018554688","-1.71875","-0.625","-2.625"
"1573642150626","536","0.17675781","-0.99121094","0.013671875","-0.75","-2.03125","0.46875"
"1573642150626","537","0.123046875","-0.9892578","0.01171875","-0.4375","-2.8125","4.25"
"1573642150626","538","0.13476562","-1.0019531","0.013671875","-0.1875","2.1875","1.5"
"1573642150626","539","0.15429688","-1.0009766","0.0234375","2.125","3.65625","1.5"
"1573642151020","540","0.14257812","-1.0224609","0.017578125","3.03125","2.0625","4.6875"
"1573642151021","541","0.14453125","-1.0244141","0.030273438","0.53125","0.78125","2.96875"
"1573642151022","542","0.14746094","-1.0068359","0.0146484375","2.5","-0.3125","2.5"
"1573642151022","543","0.12109375","-1.0009766","0.0146484375","0.0","-2.15625","3.46875"
"1573642151023","544","0.16796875","-1.0009766","0.07519531","-0.25","1.9375","1.6875"
"1573642151023","545","0.111328125","-1.015625","0.0","-0.0625","-1.46875","-0.3125"
"1573642151023","546","0.14550781","-1.0478516","0.016601562","-1.25","1.4375","-3.625"
"1573642151023","547","0.0859375","-0.9765625","0.030273438","-0.6875","-0.375","4.6875"
"1573642151024","548","0.109375","-0.9511719","0.028320312","2.0","1.875","2.96875"
"1573642151024","549","0.107421875","-0.94628906","0.05078125","2.65625","2.25","1.875"
"1573642151218","550","0.08691406","-0.9433594","0.05078125","3.46875","5.40625","2.4375"
"1573642151218","551","0.13476562","-0.9716797","0.060546875","3.21875","6.46875","-1.65625"
"1573642151218","552","0.12207031","-0.9765625","0.056640625","3.65625","1.15625","1.15625"
"1573642151220","553","0.12890625","-0.98046875","0.08300781","3.90625","1.5","0.65625"
"1573642151220","554","0.11816406","-0.9970703","0.0146484375","4.125","2.4375","0.84375"
"1573642151221","555","0.12695312","-1.0058594","0.072265625","1.21875","0.15625","0.71875"
"1573642151221","556","0.12207031","-1.0117188","0.055664062","2.5","4.125","0.0"
"1573642151221","557","0.119140625","-1.0390625","0.06542969","1.09375","2.71875","0.71875"
"1573642151221","558","0.119140625","-1.0","0.043945312","0.40625","6.03125","-1.0"
"1573642151222","559","0.13574219","-0.9716797","0.046875","-0.6875","1.9375","4.1875"
"1573642151419","560","0.13867188","-0.97558594","0.057617188","-0.8125","1.9375","-1.71875"
"1573642151420","561","0.10253906","-0.9824219","0.01171875","0.21875","0.65625","-0.875"
"1573642151420","562","0.12109375","-0.93652344","0.04296875","-0.75","-0.4375","5.46875"
"1573642151420","563","0.09667969","-0.9667969","0.046875","-1.71875","-1.59375","-2.6875"
"1573642151421","564","0.10253906","-1.0146484","9.765625E-4","-3.25","-0.1875","-1.0"
"1573642151422","565","0.15136719","-0.9785156","0.083984375","-3.1875","-0.875","0.09375"
"1573642151422","566","0.030273438","-0.99609375","0.052734375","-3.1875","-3.4375","0.34375"
"1573642151423","567","0.07324219","-1.0683594","0.024414062","-0.3125","8.96875","0.65625"
"1573642151423","568","0.1484375","-0.94628906","0.03125","-7.09375","3.59375","1.75"
"1573642151423","569","0.123046875","-0.8730469","0.10839844","-9.71875","-2.75","0.28125"
"1573642151818","570","-0.040039062","-0.89746094","0.06347656","-7.78125","4.5","-9.0"
"1573642151818","571","0.056640625","-0.98339844","0.053710938","-8.75","11.75","-6.3125"
"1573642151819","572","0.08105469","-0.8925781","0.05078125","-6.0625","6.03125","-2.75"
"1573642151819","573","0.038085938","-0.8378906","0.029296875","-1.125","2.3125","1.03125"
"1573642151819","574","0.02734375","-0.6357422","0.064453125","-5.8125","10.96875","9.6875"
"1573642151820","575","0.083984375","-0.7441406","0.078125","-0.4375","4.25","3.21875"
"1573642151820","576","0.05859375","-1.1552734","0.07324219","4.875","16.40625","-22.90625"
"1573642151821","577","0.53515625","-2.0","0.3935547","-67.21875","14.28125","-17.96875"
"1573642151822","578","0.25683594","-0.88964844","-0.4736328","11.71875","42.78125","36.84375"
"1573642151822","579","0.7763672","-0.4765625","0.203125","3.34375","-35.53125","57.53125"
"1573642152215","580","-0.087890625","-0.22363281","0.064453125","-11.0","-39.8125","-28.875"
"1573642152215","581","-0.3125","-1.2636719","-0.026367188","-13.6875","19.875","-36.8125"
"1573642152215","582","0.24511719","-1.4990234","-0.18554688","-9.84375","23.0625","-0.25"
"1573642152216","583","0.44140625","-0.83496094","0.045898438","-14.90625","3.53125","16.09375"
"1573642152216","584","0.22851562","-0.6376953","-0.0625","-4.40625","-26.875","-11.90625"
"1573642152216","585","0.0078125","-0.9482422","-0.0029296875","-11.6875","-28.28125","-20.09375"
"1573642152216","586","-0.09277344","-1.2939453","-0.07324219","-4.46875","11.65625","-7.34375"
"1573642152217","587","0.23730469","-0.9501953","-0.029296875","-5.5625","6.5","-3.5"
"1573642152217","588","0.27441406","-0.87890625","-0.044921875","-1.71875","-4.59375","-3.3125"
"1573642152218","589","0.11816406","-1.015625","-0.034179688","-3.8125","-15.28125","-5.3125"
"1573642152612","590","0.05078125","-1.0507812","-0.07714844","-6.78125","-4.09375","-5.6875"
"1573642152612","591","0.15332031","-0.9580078","-0.051757812","-4.28125","3.34375","-1.3125"
"1573642152615","592","0.18457031","-0.9736328","-0.046875","-2.09375","0.21875","-2.09375"
"1573642152615","593","0.14550781","-1.0078125","-0.044921875","-3.5","-3.75","-3.0625"
"1573642152615","594","0.115234375","-0.9970703","-0.043945312","-5.09375","-1.65625","-1.96875"
"1573642152616","595","0.1484375","-0.97558594","-0.043945312","-1.46875","4.1875","-2.21875"
"1573642152616","596","0.1484375","-0.9716797","-0.08300781","-0.1875","1.375","-2.59375"
"1573642152616","597","0.17675781","-0.9902344","0.0107421875","-2.40625","4.5","-2.15625"
"1573642152617","598","0.13964844","-0.96875","-0.0625","2.5625","3.34375","-1.78125"
"1573642152617","599","0.15917969","-0.98535156","-0.034179688","1.8125","2.25","-0.875"
"1573642153010","600","0.14941406","-0.9873047","-0.03515625","2.0","1.4375","-0.9375"
"1573642153010","601","0.15136719","-1.0029297","-0.030273438","2.1875","1.875","-2.28125"
"1573642153011","602","0.140625","-0.9873047","-0.048828125","1.4375","1.21875","-1.84375"
"1573642153011","603","0.14941406","-0.9970703","-0.044921875","3.34375","2.25","0.0"
"1573642153011","604","0.16308594","-0.9892578","-0.030273438","1.875","1.625","0.71875"
"1573642153011","605","0.14746094","-0.98535156","-0.025390625","0.65625","0.40625","0.28125"
"1573642153012","606","0.16113281","-0.9970703","-0.0068359375","1.21875","0.90625","1.6875"
"1573642153012","607","0.14550781","-0.99316406","-0.06542969","3.71875","1.3125","2.0"
"1573642153012","608","0.15917969","-0.98535156","-0.0087890625","-0.0625","-2.28125","1.4375"
"1573642153012","609","0.14746094","-0.98046875","-0.049804688","4.6875","1.5","2.3125"
"1573642153407","610","0.14550781","-0.9951172","-0.028320312","3.46875","-1.125","3.78125"
"1573642153408","611","0.15625","-0.9892578","-0.036132812","2.71875","0.65625","3.34375"
"1573642153408","612","0.14648438","-0.984375","-0.022460938","2.0","-0.8125","2.90625"
"1573642153410","613","0.14160156","-0.9814453","-0.0087890625","2.25","-2.21875","3.09375"
"1573642153411","614","0.12695312","-0.9980469","-0.025390625","4.0","-1.25","2.90625"
"1573642153411","615","0.13574219","-0.9980469","-0.0029296875","2.0625","0.15625","2.0"
"1573642153411","616","0.12109375","-0.9794922","-0.01171875","4.0625","-0.1875","1.3125"
"1573642153412","617","0.12402344","-0.9736328","-9.765625E-4","3.53125","-3.5625","2.84375"
"1573642153412","618","0.12988281","-0.99902344","0.015625","4.875","2.5","3.03125"
"1573642153412","619","0.115234375","-0.99902344","0.0048828125","3.15625","-1.78125","2.375"
"1573642153804","620","0.12792969","-1.0097656","-0.001953125","4.6875","1.75","2.0"
"1573642153804","621","0.1171875","-0.9980469","0.0048828125","2.78125","1.3125","3.78125"
"1573642153805","622","0.12011719","-0.9951172","0.022460938","2.3125","3.40625","2.5"
"1573642153805","623","0.12207031","-0.9892578","0.020507812","2.3125","3.59375","2.5"
"1573642153805","624","0.123046875","-0.9921875","0.018554688","2.84375","4.1875","1.3125"
"1573642153806","625","0.11035156","-1.0029297","0.032226562","1.15625","4.375","-0.9375"
"1573642153807","626","0.125","-1.0078125","0.040039062","0.03125","3.34375","-1.90625"
"1573642153807","627","0.13671875","-1.0048828","0.056640625","-0.8125","1.75","-2.34375"
"1573642153807","628","0.10839844","-0.9902344","0.033203125","-3.96875","-3.0625","-3.3125"
"1573642153807","629","0.087890625","-1.0195312","0.076171875","-1.96875","1.09375","-2.53125"
"1573642154202","630","0.099609375","-1.0449219","0.068359375","-3.25","2.71875","-1.0"
"1573642154202","631","0.12890625","-1.0087891","0.055664062","-1.53125","-1.0","1.4375"
"1573642154202","632","0.056640625","-1.0576172","0.043945312","-3.875","0.59375","0.03125"
"1573642154203","633","0.09765625","-1.0019531","0.061523438","-1.65625","5.0625","1.3125"
"1573642154203","634","0.10546875","-0.99316406","0.06542969","0.21875","3.90625","0.53125"
"1573642154203","635","0.09375","-1.0087891","0.06347656","0.15625","4.0625","-3.5625"
"1573642154204","636","0.08105469","-1.0048828","0.06640625","0.46875","3.90625","-1.78125"
"1573642154205","637","0.087890625","-0.95996094","0.083984375","1.875","0.0","0.46875"
"1573642154205","638","0.076171875","-0.9658203","0.09472656","2.1875","2.4375","-0.8125"
"1573642154205","639","0.09765625","-0.97558594","0.048828125","1.6875","1.03125","-3.1875"
"1573642154994","640","0.10253906","-0.9902344","0.08496094","-0.6875","-0.75","-2.6875"
"1573642154995","641","0.080078125","-0.97558594","0.053710938","-0.5625","1.5625","-1.0"
"1573642154995","642","0.125","-0.98046875","0.072265625","0.34375","1.3125","-0.6875"
"1573642154995","643","0.08203125","-0.9970703","0.080078125","-0.4375","0.59375","-0.625"
"1573642154995","644","0.06542969","-1.0673828","0.072265625","2.1875","6.34375","-2.75"
"1573642154996","645","0.095703125","-1.0302734","0.057617188","0.0","8.59375","0.84375"
"1573642154996","646","0.11328125","-0.9746094","0.05078125","-0.25","4.9375","3.03125"
"1573642154996","647","0.091796875","-0.94921875","0.11035156","-3.90625","-2.09375","1.15625"
"1573642154997","648","0.078125","-0.87597656","0.0126953125","0.34375","6.8125","3.21875"
"1573642154997","649","0.12011719","-0.9707031","0.038085938","2.5","5.90625","1.6875"
"1573642154998","650","0.16699219","-0.984375","0.057617188","1.28125","-1.59375","-2.59375"
"1573642154999","651","0.0126953125","-1.0595703","0.049804688","-3.0","-8.25","0.15625"
"1573642155000","652","0.057617188","-1.0136719","0.05859375","-0.25","9.1875","-1.65625"
"1573642155000","653","0.15625","-0.94140625","0.060546875","-3.6875","1.375","3.09375"
"1573642155000","654","0.12402344","-0.9736328","0.08886719","-0.8125","-6.4375","-2.9375"
"1573642155000","655","0.043945312","-0.9824219","0.056640625","-2.8125","-1.0625","0.28125"
"1573642155001","656","0.14648438","-0.9814453","0.052734375","-4.65625","0.46875","-2.40625"
"1573642155001","657","0.07910156","-0.96875","0.068359375","-6.25","0.96875","-3.5625"
"1573642155001","658","0.083984375","-0.9609375","0.06347656","-2.46875","1.5625","-2.34375"
"1573642155001","659","0.115234375","-0.95703125","0.068359375","-2.03125","1.75","0.0"
"1573642155395","660","0.08886719","-1.0048828","0.06347656","-2.40625","-3.3125","-2.03125"
"1573642155396","661","0.11230469","-0.98339844","0.09667969","-5.5","2.4375","-2.59375"
"1573642155397","662","0.08300781","-0.9013672","0.072265625","-7.71875","-5.4375","0.46875"
"1573642155397","663","0.047851562","-1.0253906","0.091796875","-6.125","-2.03125","-8.875"
"1573642155397","664","0.05859375","-0.90527344","0.076171875","-10.40625","0.34375","-1.78125"
"1573642155397","665","0.0625","-0.8095703","0.1015625","-7.28125","7.84375","2.0"
"1573642155398","666","0.10253906","-0.7832031","0.11328125","-6.375","-0.5","-7.8125"
"1573642155398","667","-0.020507812","-0.9345703","0.053710938","4.9375","7.90625","-10.40625"
"1573642155398","668","0.01953125","-1.0634766","0.091796875","4.875","21.09375","-0.875"
"1573642155398","669","0.12402344","-1.0810547","0.16015625","-3.625","31.53125","4.3125"
"1573642155791","670","0.16503906","-2.0","-0.35351562","7.625","28.125","-60.3125"
"1573642155791","671","0.24707031","-0.8183594","0.09765625","-26.03125","3.34375","27.6875"
"1573642155791","672","0.29101562","-0.44921875","0.064453125","1.5","8.03125","42.28125"
"1573642155792","673","-0.055664062","-0.6035156","0.0087890625","-1.78125","8.53125","-35.71875"
"1573642155793","674","0.17382812","-1.5986328","0.0078125","-11.1875","24.65625","-50.25"
"1573642155793","675","0.24804688","-1.1220703","-0.030273438","-10.6875","14.6875","6.6875"
"1573642155793","676","0.30566406","-0.7988281","-0.01953125","-4.46875","-4.78125","20.75"
"1573642155793","677","0.18164062","-0.75390625","-0.0078125","-3.4375","-14.46875","-9.65625"
"1573642155794","678","0.064453125","-1.0664062","-0.025390625","-2.21875","-6.0","-14.96875"
"1573642155794","679","0.1484375","-1.1455078","-0.0087890625","-0.6875","7.0625","-2.46875"
"1573642156586","680","0.24511719","-0.9296875","-0.013671875","-1.96875","-0.875","6.6875"
"1573642156586","681","0.1796875","-0.9169922","-0.017578125","-1.34375","-9.0","0.53125"
"1573642156586","682","0.10546875","-1.0097656","-0.025390625","-2.03125","-4.53125","-5.6875"
"1573642156586","683","0.12695312","-1.0234375","-0.03515625","-2.34375","3.9375","-2.09375"
"1573642156587","684","0.20800781","-0.98339844","-0.020507812","-2.28125","3.53125","-0.8125"
"1573642156588","685","0.1953125","-0.9824219","-0.026367188","-4.65625","-1.78125","-2.15625"
"1573642156588","686","0.15820312","-1.0136719","-0.034179688","-8.1875","-2.875","-1.96875"
"1573642156588","687","0.15722656","-0.99316406","-0.024414062","-9.125","0.40625","-2.59375"
"1573642156589","688","0.18945312","-0.9794922","-0.028320312","-6.0","0.40625","1.03125"
"1573642156589","689","0.18164062","-0.9765625","-0.026367188","-5.3125","-0.25","1.375"
"1573642156782","690","0.16699219","-0.9902344","-0.0078125","-5.625","-2.28125","-2.28125"
"1573642156783","691","0.16113281","-0.984375","-0.028320312","-2.21875","-3.4375","-1.65625"
"1573642156783","692","0.16894531","-0.97753906","-0.029296875","-2.09375","-4.53125","0.09375"
"1573642156783","693","0.15234375","-0.98535156","-9.765625E-4","-2.75","-1.125","-1.1875"
"1573642156783","694","0.15527344","-0.9863281","-0.01953125","-1.34375","-1.53125","-1.96875"
"1573642156784","695","0.16894531","-0.9863281","-0.032226562","-2.59375","-0.625","-2.21875"
"1573642156784","696","0.18359375","-0.9785156","-0.013671875","-2.9375","-0.875","-0.875"
"1573642156788","697","0.14257812","-0.98046875","-0.04296875","-0.1875","0.84375","-0.4375"
"1573642156789","698","0.17578125","-0.9921875","-0.037109375","3.09375","1.5625","3.09375"
"1573642156789","699","0.20703125","-0.98535156","-0.029296875","4.625","-1.40625","7.375"
"1573642156985","700","0.13574219","-0.96484375","-0.00390625","7.5625","-4.96875","11.9375"
"1573642156985","701","0.17871094","-0.9951172","-0.048828125","12.4375","-6.1875","12.75"
"1573642156986","702","0.16992188","-0.9716797","-0.001953125","11.34375","-7.34375","12.625"
"1573642156986","703","0.1171875","-0.9892578","-0.025390625","10.40625","-8.125","13.28125"
"1573642156986","704","0.13085938","-0.9921875","0.04296875","7.1875","-2.53125","11.28125"
"1573642156986","705","0.09667969","-0.96191406","0.00390625","6.40625","-2.28125","8.46875"
"1573642156986","706","0.09472656","-1.0097656","0.0126953125","7.375","3.09375","6.6875"
"1573642156987","707","0.14355469","-1.0107422","0.016601562","3.90625","3.21875","6.5625"
"1573642156987","708","0.08984375","-0.98046875","0.024414062","3.34375","1.3125","4.875"
"1573642156988","709","0.119140625","-0.9873047","0.06738281","2.125","-4.03125","3.78125"
"1573642157384","710","0.078125","-1.0048828","0.034179688","0.71875","-1.125","0.46875"
"1573642157384","711","0.07519531","-1.0224609","0.053710938","4.0","0.53125","-1.59375"
"1573642157384","712","0.11328125","-1.0214844","0.09082031","1.6875","2.0","-1.59375"
"1573642157385","713","0.064453125","-0.99121094","0.09277344","-2.75","-5.75","-0.875"
"1573642157385","714","0.08105469","-1.0458984","0.056640625","-1.0","0.78125","-7.34375"
"1573642157385","715","0.057617188","-1.015625","0.09667969","-4.90625","-4.53125","-2.03125"
"1573642157385","716","0.08203125","-1.1025391","0.05859375","-1.65625","11.65625","-7.71875"
"1573642157386","717","0.06542969","-1.0048828","0.10644531","-5.75","-2.28125","-0.875"
"1573642157386","718","0.078125","-0.9941406","0.08496094","-5.375","3.9375","-6.5"
"1573642157386","719","0.091796875","-0.9667969","0.109375","-3.375","-0.1875","0.34375"
"1573642158373","720","0.06347656","-1.0058594","0.015625","-0.875","0.28125","-5.875"
"1573642158373","721","0.10449219","-0.99316406","0.07714844","-1.53125","-1.78125","-1.34375"
"1573642158374","722","0.061523438","-0.99609375","0.045898438","-0.6875","1.75","-5.625"
"1573642158375","723","0.119140625","-0.99902344","0.07421875","-0.75","-1.1875","-2.09375"
"1573642158375","724","0.08984375","-1.0224609","0.080078125","-0.25","5.1875","-2.15625"
"1573642158375","725","0.12109375","-0.99902344","0.046875","-0.875","-0.0625","1.09375"
"1573642158376","726","0.08984375","-0.9609375","0.059570312","-4.34375","2.90625","-0.875"
"1573642158376","727","0.10253906","-0.94433594","0.0625","-2.8125","3.40625","-0.625"
"1573642158376","728","0.11230469","-0.9658203","0.029296875","-2.34375","8.09375","-4.21875"
"1573642158377","729","0.12011719","-0.9921875","0.028320312","-6.1875","2.5","-2.15625"
"1573642158377","730","0.13867188","-0.9941406","0.08105469","-4.53125","4.375","-5.375"
"1573642158378","731","0.099609375","-1.046875","0.032226562","-5.4375","-2.34375","-4.03125"
"1573642158378","732","0.10449219","-0.9736328","0.045898438","-5.5","3.84375","-1.84375"
"1573642158378","733","0.12011719","-0.9511719","0.013671875","-3.0","-0.375","1.8125"
"1573642158379","734","0.12109375","-0.9482422","0.01953125","-6.3125","3.59375","-7.34375"
"1573642158379","735","0.12597656","-1.0351562","0.020507812","-3.875","-3.125","-7.78125"
"1573642158380","736","0.099609375","-0.9902344","-0.025390625","-3.1875","1.625","-0.9375"
"1573642158380","737","0.15039062","-0.9091797","0.064453125","-9.46875","0.28125","-4.53125"
"1573642158380","738","0.12792969","-1.0166016","0.0126953125","-2.40625","-4.21875","-4.65625"
"1573642158384","739","0.07421875","-0.9873047","0.00390625","-5.375","3.59375","-0.125"
"1573642158574","740","0.171875","-0.9121094","0.026367188","-3.0625","-1.3125","2.65625"
"1573642158574","741","0.08691406","-0.9951172","0.022460938","-0.1875","0.59375","-4.09375"
"1573642158575","742","0.15136719","-0.984375","0.06542969","-0.5","0.78125","2.71875"
"1573642158575","743","0.091796875","-1.0","0.0126953125","0.21875","2.71875","-1.59375"
"1573642158575","744","0.10449219","-0.984375","0.059570312","-1.1875","2.90625","2.25"
"1573642158576","745","0.123046875","-0.9736328","0.041992188","-0.0625","5.1875","-1.40625"
"1573642158577","746","0.10839844","-0.94921875","0.0859375","-1.71875","0.40625","-1.40625"
"1573642158577","747","-0.03515625","-0.8066406","0.049804688","-6.53125","-0.5","2.0"
"1573642158577","748","0.08984375","-0.71972656","0.119140625","2.65625","13.59375","1.03125"
"1573642158577","749","-9.765625E-4","-0.73046875","0.0390625","4.5625","4.25","3.46875"
"1573642158972","750","-0.0087890625","-0.83691406","0.080078125","2.375","13.71875","0.0"
"1573642158973","751","0.19726562","-1.0097656","0.0625","7.5625","4.8125","-11.25"
"1573642158973","752","0.6123047","-2.0","0.7167969","-38.78125","-13.625","-55.625"
"1573642158973","753","0.107421875","-0.9638672","-0.27929688","6.8125","58.8125","4.5625"
"1573642158974","754","0.8808594","-0.5673828","0.16308594","-10.09375","-47.625","71.21875"
"1573642158974","755","-0.053710938","-0.125","0.13769531","7.96875","-43.65625","-20.65625"
"1573642158974","756","-0.29101562","-1.1474609","-0.037109375","-11.96875","-0.5625","-39.1875"
"1573642158976","757","0.22753906","-1.71875","-0.032226562","0.53125","30.0","-24.75"
"1573642158976","758","0.41210938","-0.88964844","0.02734375","-16.625","10.96875","30.1875"
"1573642158976","759","0.29589844","-0.76953125","-0.07910156","-12.53125","-14.0625","-0.875"
"1573642159370","760","0.1171875","-0.84375","0.015625","-12.09375","-23.28125","-18.75"
"1573642159370","761","-0.015625","-1.2236328","-0.07421875","-8.5","10.96875","-2.53125"
"1573642159371","762","0.24121094","-0.99121094","-0.029296875","-7.03125","11.75","4.9375"
"1573642159371","763","0.29296875","-0.88183594","-0.064453125","-7.71875","0.34375","3.90625"
"1573642159371","764","0.18554688","-0.9892578","-0.046875","-8.25","-15.34375","-3.0"
"1573642159371","765","0.08886719","-1.0341797","-0.06738281","-8.0625","-6.375","-1.84375"
"1573642159372","766","0.15917969","-0.9824219","-0.064453125","-4.03125","5.96875","1.5625"
"1573642159372","767","0.20703125","-0.94140625","-0.055664062","-3.875","5.46875","-0.625"
"1573642159372","768","0.18945312","-0.9814453","-0.057617188","-3.3125","0.90625","-3.5625"
"1573642159373","769","0.16308594","-1.0048828","-0.045898438","-4.28125","2.0","-2.34375"
"1573642159766","770","0.18554688","-0.98046875","-0.052734375","-5.09375","5.1875","-3.875"
"1573642159767","771","0.17089844","-0.9589844","-0.11035156","-3.5","1.28125","-4.40625"
"1573642159767","772","0.19628906","-0.9794922","-0.040039062","-6.78125","-1.84375","-4.28125"
"1573642159767","773","0.19042969","-0.9873047","-0.10546875","-3.0625","0.15625","-3.5625"
"1573642159768","774","0.19433594","-0.9794922","-0.072265625","-3.0","-0.5625","-1.125"
"1573642159768","775","0.1953125","-0.9609375","-0.08496094","-2.09375","0.0","-1.96875"
"1573642159768","776","0.18652344","-0.9902344","-0.076171875","-2.875","-0.8125","-2.09375"
"1573642159768","777","0.19238281","-0.98339844","-0.080078125","-1.65625","1.375","-1.84375"
"1573642159769","778","0.19140625","-0.9765625","-0.07421875","0.21875","1.21875","-0.3125"
"1573642159769","779","0.18261719","-0.97558594","-0.06933594","1.21875","1.21875","-0.5625"
"1573642160165","780","0.18945312","-0.97265625","-0.06640625","2.0","2.25","-0.1875"
"1573642160166","781","0.19140625","-0.9794922","-0.059570312","2.90625","1.15625","0.90625"
"1573642160167","782","0.19335938","-0.98828125","-0.057617188","3.90625","2.0625","1.03125"
"1573642160167","783","0.17480469","-0.98535156","-0.09765625","4.5625","1.03125","0.34375"
"1573642160167","784","0.20703125","-0.9814453","-0.03515625","0.28125","0.0","2.5625"
"1573642160167","785","0.18261719","-0.9785156","-0.076171875","4.75","2.78125","1.4375"
"1573642160168","786","0.19433594","-0.9951172","-0.043945312","4.875","0.21875","3.78125"
"1573642160168","787","0.16796875","-0.98339844","-0.05859375","4.5625","2.1875","3.09375"
"1573642160168","788","0.17578125","-0.9794922","-0.032226562","4.5625","1.875","2.96875"
"1573642160169","789","0.16015625","-0.984375","-0.055664062","4.8125","2.0625","4.9375"
"1573642160561","790","0.18164062","-0.99609375","-0.0390625","7.0","0.28125","8.46875"
"1573642160561","791","0.17675781","-0.9716797","-0.0234375","7.75","-1.46875","8.71875"
"1573642160562","792","0.14257812","-0.97558594","-0.033203125","11.8125","3.59375","8.34375"
"1573642160563","793","0.16308594","-1.0078125","-0.0087890625","11.03125","4.0","7.5625"
"1573642160563","794","0.15332031","-0.99902344","0.013671875","9.375","3.46875","7.5625"
"1573642160563","795","0.13085938","-0.9873047","-0.005859375","8.59375","3.34375","7.90625"
"1573642160564","796","0.11816406","-0.9794922","0.024414062","5.65625","0.34375","4.0"
"1573642160564","797","0.12109375","-1.0214844","0.037109375","5.21875","4.875","4.9375"
"1573642160564","798","0.103515625","-1.0009766","0.053710938","2.65625","1.5625","5.65625"
"1573642160565","799","0.09667969","-1.0029297","0.057617188","2.5","2.90625","5.21875"
"1573642160958","800","0.080078125","-1.0126953","0.08203125","-0.0625","6.03125","2.25"
"1573642160959","801","0.10058594","-0.99902344","0.06738281","-0.5625","3.28125","1.4375"
"1573642160959","802","0.078125","-1.0341797","0.08105469","-1.59375","2.5","0.21875"
"1573642160959","803","0.068359375","-1.0302734","0.072265625","-1.34375","4.75","0.78125"
"1573642160960","804","0.051757812","-1.0419922","0.07128906","-0.8125","4.25","-0.375"
"1573642160960","805","0.09472656","-0.9902344","0.08691406","-0.125","7.0625","1.21875"
"1573642160961","806","0.07714844","-1.0087891","0.07714844","0.0","3.40625","-0.25"
"1573642160961","807","0.08886719","-1.0136719","0.087890625","-1.125","3.46875","-1.3125"
"1573642160962","808","0.10644531","-0.99902344","0.091796875","-2.09375","-3.0","-0.5625"
"1573642160962","809","0.103515625","-0.99902344","0.08203125","-1.46875","-2.40625","-2.875"
"1573642161551","810","0.08886719","-1.0371094","0.0859375","-3.0625","-4.84375","-3.90625"
"1573642161552","811","0.06933594","-1.0048828","0.076171875","-2.46875","-1.59375","-3.96875"
"1573642161552","812","0.103515625","-0.9765625","0.06640625","-2.875","0.34375","-2.75"
"1573642161553","813","0.10644531","-0.9951172","0.08300781","-3.90625","-3.0","-4.90625"
"1573642161553","814","0.059570312","-0.99316406","0.06933594","-1.34375","2.84375","-0.1875"
"1573642161554","815","0.078125","-0.9716797","0.051757812","-0.8125","7.5625","3.21875"
"1573642161554","816","0.1015625","-0.9638672","0.056640625","-1.90625","9.4375","-0.5625"
"1573642161555","817","0.09667969","-0.9716797","0.048828125","-1.71875","7.3125","0.21875"
"1573642161555","818","0.087890625","-0.9482422","0.029296875","-3.875","5.53125","0.46875"
"1573642161555","819","0.12402344","-0.9160156","0.07519531","-5.8125","8.78125","-0.3125"
"1573642161755","820","0.056640625","-0.9453125","0.005859375","-4.90625","-1.34375","-5.6875"
"1573642161755","821","0.119140625","-0.99609375","0.08203125","-3.5","4.625","-3.4375"
"1573642161755","822","0.08105469","-1.0351562","0.048828125","-7.34375","0.59375","-5.3125"
"1573642161756","823","0.09863281","-1.0136719","0.049804688","-5.375","3.03125","-0.1875"
"1573642161756","824","0.119140625","-0.9609375","0.0390625","-4.21875","-1.53125","-1.40625"
"1573642161756","825","0.087890625","-1.0","0.05078125","-3.25","-2.75","-0.9375"
"1573642161756","826","0.08203125","-0.9707031","0.04296875","-3.5625","2.5","0.21875"
"1573642161757","827","0.10449219","-0.9589844","0.06542969","-6.0625","3.46875","-2.6875"
"1573642161757","828","0.07910156","-0.95410156","0.078125","-7.09375","3.71875","-6.65625"
"1573642161758","829","-0.0087890625","-0.87402344","0.005859375","-9.0","3.15625","-3.625"
"1573642162351","830","0.076171875","-0.6777344","-0.017578125","-7.8125","7.625","5.34375"
"1573642162351","831","0.24414062","-0.6875","0.16796875","-3.0625","-2.9375","-4.96875"
"1573642162352","832","0.0234375","-0.78808594","0.09277344","-1.90625","-10.875","-11.25"
"1573642162352","833","0.0546875","-1.1640625","0.044921875","6.5","-4.21875","-8.9375"
"1573642162352","834","0.026367188","-1.2353516","0.10449219","-1.40625","17.125","-4.53125"
"1573642162352","835","0.28320312","-2.0","-0.3388672","-6.96875","-26.625","-45.96875"
"1573642162353","836","0.5048828","-0.72558594","-0.111328125","-15.40625","-23.4375","17.1875"
"1573642162353","837","0.41015625","-0.39160156","0.115234375","-1.59375","-41.75","39.53125"
"1573642162353","838","-0.203125","-0.50878906","0.016601562","9.3125","-30.28125","-21.1875"
"1573642162353","839","-0.099609375","-1.7900391","0.057617188","6.5625","40.875","-33.34375"
"1573642162747","840","0.23632812","-1.0126953","-0.056640625","-11.3125","15.0","9.03125"
"1573642162748","841","0.2763672","-0.8652344","-0.030273438","-9.96875","-2.59375","9.5625"
"1573642162749","842","0.203125","-0.8417969","0.017578125","-5.875","-6.0625","-17.90625"
"1573642162749","843","0.005859375","-1.0527344","-0.03515625","-7.34375","-4.46875","-12.15625"
"1573642162750","844","0.12890625","-1.1035156","-0.043945312","-4.34375","17.9375","-2.875"
"1573642162750","845","0.28320312","-0.9199219","-0.03125","-9.78125","7.75","-2.40625"
"1573642162750","846","0.203125","-0.95410156","-0.0390625","-7.28125","-5.09375","-5.25"
"1573642162751","847","0.12011719","-1.0351562","-0.043945312","-7.9375","-6.125","-5.5625"
"1573642162751","848","0.13085938","-0.9824219","-0.047851562","-7.03125","3.84375","-1.65625"
"1573642162751","849","0.2109375","-0.95410156","-0.032226562","-3.75","6.8125","-0.9375"
"1573642163146","850","0.1953125","-0.98535156","-0.043945312","-4.96875","0.96875","-3.125"
"1573642163146","851","0.16210938","-1.0048828","-0.057617188","-5.25","-0.5","-1.46875"
"1573642163146","852","0.1875","-0.9824219","-0.03515625","-3.875","3.46875","-0.625"
"1573642163147","853","0.17480469","-0.9736328","-0.07324219","-1.125","5.0625","-2.6875"
"1573642163147","854","0.19433594","-0.9824219","-0.0390625","-3.3125","1.28125","-2.9375"
"1573642163148","855","0.1796875","-0.9765625","-0.06347656","-0.8125","1.09375","-2.6875"
"1573642163148","856","0.18554688","-0.99316406","-0.052734375","0.0","0.96875","-1.125"
"1573642163148","857","0.18359375","-0.9814453","-0.051757812","0.40625","0.96875","-1.1875"
"1573642163148","858","0.17773438","-0.9814453","-0.048828125","0.03125","0.15625","-0.5625"
"1573642163149","859","0.19042969","-0.9794922","-0.053710938","0.40625","0.34375","-0.875"
"1573642164336","860","0.19726562","-0.98046875","-0.049804688","1.3125","0.0","-0.6875"
"1573642164336","861","0.19042969","-0.9863281","-0.038085938","1.5625","-1.125","0.40625"
"1573642164337","862","0.19042969","-0.9785156","-0.04296875","1.4375","-1.46875","0.0"
"1573642164337","863","0.19335938","-0.9951172","-0.02734375","1.3125","-0.5625","-0.6875"
"1573642164339","864","0.18261719","-0.98535156","-0.060546875","1.09375","-2.53125","-2.15625"
"1573642164340","865","0.203125","-0.99609375","-0.02734375","-0.375","-2.15625","-1.59375"
"1573642164341","866","0.19140625","-0.98535156","-0.064453125","-1.84375","-0.5","-4.53125"
"1573642164341","867","0.234375","-1.0058594","-0.05859375","-0.375","2.71875","-5.4375"
"1573642164342","868","0.19335938","-0.96972656","-0.045898438","0.28125","-0.875","-2.34375"
"1573642164342","869","0.140625","-0.96191406","-0.026367188","2.1875","-0.375","1.875"
"1573642164342","870","0.19726562","-0.99121094","-0.040039062","0.09375","5.125","-1.1875"
"1573642164342","871","0.21972656","-0.99121094","-0.03515625","2.0","3.40625","0.21875"
"1573642164343","872","0.19433594","-0.9902344","-0.017578125","1.75","3.65625","2.1875"
"1573642164343","873","0.18554688","-0.98339844","-0.041015625","-1.3125","3.84375","-0.8125"
"1573642164343","874","0.20703125","-0.9746094","-0.033203125","0.21875","4.6875","-2.28125"
"1573642164343","875","0.16894531","-0.96777344","-0.056640625","-0.5625","0.90625","-3.90625"
"1573642164344","876","0.22363281","-0.98828125","9.765625E-4","0.03125","3.21875","1.5"
"1573642164344","877","0.20410156","-0.97753906","-0.030273438","2.125","1.4375","0.46875"
"1573642164344","878","0.20214844","-0.9980469","-0.025390625","2.4375","1.4375","3.53125"
"1573642164345","879","0.19238281","-0.9785156","-0.0078125","2.84375","-0.4375","6.8125"
"1573642164536","880","0.14746094","-0.99609375","0.005859375","2.84375","1.4375","2.78125"
"1573642164536","881","0.15039062","-0.9951172","0.022460938","2.65625","2.0625","5.0"
"1573642164536","882","0.16601562","-1.0263672","0.03125","1.4375","4.3125","4.0"
"1573642164536","883","0.171875","-1.0195312","0.043945312","0.84375","5.46875","-0.25"
"1573642164537","884","0.15820312","-1.0322266","0.032226562","1.15625","2.1875","2.65625"
"1573642164537","885","0.15917969","-1.0175781","0.059570312","2.65625","2.0","2.78125"
"1573642164537","886","0.14746094","-0.9941406","0.030273438","4.25","-1.71875","3.34375"
"1573642164537","887","0.13476562","-1.0087891","0.08203125","4.9375","1.6875","6.5625"
"1573642164538","888","0.11621094","-0.9892578","0.051757812","4.0","4.4375","3.90625"
"1573642164539","889","0.1640625","-1.0029297","0.068359375","2.0","1.4375","3.34375"
"1573642164930","890","0.13574219","-1.0029297","0.064453125","1.625","-0.6875","4.1875"
"1573642164930","891","0.0859375","-0.9814453","0.057617188","0.28125","-0.375","1.75"
"1573642164930","892","0.14160156","-0.97753906","0.055664062","2.65625","1.6875","3.34375"
"1573642164930","893","0.11328125","-0.95214844","0.05859375","2.0","0.28125","4.8125"
"1573642164931","894","0.12402344","-0.9277344","0.038085938","1.9375","-0.8125","3.40625"
"1573642164931","895","0.1171875","-0.9794922","0.057617188","-0.3125","-1.65625","1.625"
"1573642164931","896","0.11621094","-0.99121094","0.0625","-3.4375","-4.21875","-1.40625"
"1573642164931","897","0.11230469","-1.0244141","0.016601562","-4.03125","-2.625","-4.40625"
"1573642164932","898","0.17285156","-0.9296875","0.10449219","-4.78125","-4.46875","2.4375"
"1573642164932","899","0.040039062","-0.96777344","0.005859375","-4.15625","-4.59375","-5.15625"
"1573642164934","900","0.20117188","-0.9951172","0.06738281","-4.40625","-1.53125","-0.875"
"1573642164935","901","0.078125","-0.9560547","0.028320312","-9.53125","-12.46875","-3.8125"
"1573642164936","902","0.15332031","-0.9814453","0.021484375","-5.03125","-5.625","-3.3125"
"1573642164936","903","0.140625","-0.9707031","0.07519531","-8.5625","-11.125","-1.125"
"1573642164936","904","-0.0048828125","-0.99316406","0.076171875","-5.5625","4.6875","-9.96875"
"1573642164937","905","0.18261719","-0.9140625","0.107421875","-1.53125","4.25","3.65625"
"1573642164937","906","0.0126953125","-0.8515625","0.043945312","1.09375","6.6875","-1.1875"
"1573642164937","907","0.087890625","-0.83496094","-0.00390625","3.34375","15.4375","-0.75"
"1573642164937","908","0.24414062","-0.83496094","0.029296875","-0.8125","11.65625","-8.75"
"1573642164937","909","0.16992188","-0.89453125","0.11621094","-2.59375","-6.53125","-6.53125"
"1573642165529","910","0.07519531","-1.1308594","0.047851562","1.6875","-1.0625","-20.28125"
"1573642165529","911","0.0546875","-0.99121094","0.01171875","-1.0625","-0.5","3.03125"
"1573642165530","912","0.3779297","-1.9863281","0.33496094","-23.03125","17.25","-17.34375"
"1573642165531","913","-0.06933594","-1.3222656","-0.052734375","-20.03125","49.3125","-4.65625"
"1573642165532","914","0.6269531","-0.8066406","0.0859375","-7.03125","-33.9375","41.4375"
"1573642165532","915","0.15625","-0.265625","0.052734375","11.75","-10.625","-5.03125"
"1573642165532","916","-0.15722656","-1.1152344","-0.0048828125","-12.21875","14.8125","-14.84375"
"1573642165532","917","0.22851562","-1.4941406","-0.048828125","-9.34375","25.4375","-13.4375"
"1573642165533","918","0.3720703","-0.8623047","-0.0146484375","-26.375","1.9375","16.84375"
"1573642165533","919","0.23144531","-0.8359375","-0.09082031","-10.4375","-15.53125","-0.625"
