"# PR data"
"# Start time: 20191113T105526"
"# Subject: sharan"
"# Activity type: Leg slide"
"# Correctness: Incorrect"
"# Notes: "
""
"timestamp","seq","accel_x","accel_y","accel_z","gyro_x","gyro_y","gyro_z"
"1573642526658","0","0.2548828","-0.9658203","0.032226562","0.96875","33.8125","0.28125"
"1573642526659","1","0.23242188","-0.96484375","0.053710938","7.25","32.875","0.34375"
"1573642526659","2","0.2109375","-0.94628906","0.09375","7.90625","30.9375","1.75"
"1573642526660","3","0.21679688","-0.9091797","0.109375","12.5","30.25","2.1875"
"1573642526660","4","0.27441406","-0.93359375","0.11035156","10.84375","27.15625","-1.1875"
"1573642526660","5","0.29101562","-0.9824219","0.13378906","6.46875","24.34375","-6.90625"
"1573642526660","6","0.2529297","-1.0654297","0.10546875","0.78125","25.0","-7.28125"
"1573642526661","7","0.21191406","-1.0380859","0.12988281","-6.5","29.65625","-5.09375"
"1573642526661","8","0.22167969","-0.94433594","0.125","-6.125","34.28125","-2.75"
"1573642526661","9","0.19824219","-0.9013672","0.13574219","-6.53125","36.0","-2.28125"
"1573642527056","10","0.19824219","-0.9326172","0.171875","-5.375","51.75","1.5625"
"1573642527056","11","0.12792969","-1.0107422","0.11328125","-14.40625","53.875","3.21875"
"1573642527057","12","0.11035156","-0.97558594","0.17578125","-21.875","71.28125","10.71875"
"1573642527058","13","0.060546875","-0.99121094","0.15332031","-17.96875","68.15625","18.40625"
"1573642527058","14","0.0107421875","-1.0693359","0.109375","-15.15625","88.65625","29.03125"
"1573642527058","15","0.140625","-1.0078125","0.13085938","-18.875","92.875","41.3125"
"1573642527058","16","0.005859375","-0.9609375","0.09765625","-24.84375","93.3125","34.71875"
"1573642527059","17","-0.0703125","-1.0195312","0.040039062","-28.34375","101.375","24.8125"
"1573642527059","18","-0.0029296875","-1.0654297","0.044921875","-33.09375","108.6875","16.40625"
"1573642527059","19","0.13476562","-0.98535156","-0.009765625","-33.59375","93.125","1.3125"
"1573642528246","20","0.13476562","-0.9589844","-0.013671875","-29.1875","75.53125","-12.71875"
"1573642528247","21","0.08105469","-0.92871094","0.0107421875","-21.8125","60.90625","-12.34375"
"1573642528247","22","0.03125","-0.9609375","-0.0625","-13.9375","50.8125","-16.5"
"1573642528247","23","0.072265625","-1.0400391","-0.07324219","-12.78125","40.34375","-25.34375"
"1573642528247","24","0.08300781","-1.015625","-0.11230469","-13.5625","25.5625","-24.96875"
"1573642528248","25","0.06738281","-0.984375","-0.11328125","-14.34375","13.65625","-20.875"
"1573642528249","26","0.060546875","-0.96875","-0.12402344","-12.21875","8.28125","-22.0"
"1573642528249","27","0.06738281","-0.9921875","-0.15234375","-8.375","4.1875","-19.53125"
"1573642528249","28","0.045898438","-1.0361328","-0.16796875","-4.53125","4.875","-13.875"
"1573642528250","29","0.07421875","-0.98535156","-0.16113281","-2.15625","0.28125","-13.75"
"1573642528448","30","0.06933594","-0.9746094","-0.14746094","-1.59375","-2.875","-10.28125"
"1573642528448","31","0.032226562","-0.953125","-0.20214844","-0.0625","-5.25","-10.03125"
"1573642528449","32","0.033203125","-0.9794922","-0.15527344","0.78125","-0.1875","-12.59375"
"1573642528449","33","0.15136719","-1.0751953","-0.123046875","3.53125","3.65625","-24.75"
"1573642528449","34","0.25","-1.0322266","-0.06542969","5.96875","-2.34375","-26.5"
"1573642528450","35","0.16503906","-0.93359375","-0.06640625","13.53125","-10.5625","-7.21875"
"1573642528450","36","0.12207031","-0.8798828","-0.053710938","20.25","-5.9375","-6.59375"
"1573642528451","37","0.18164062","-0.98339844","0.026367188","21.21875","4.6875","-13.4375"
"1573642528452","38","0.265625","-1.0048828","0.057617188","28.125","0.90625","-8.8125"
"1573642528452","39","0.27929688","-0.91503906","0.107421875","27.6875","-5.3125","1.5"
"1573642528645","40","0.32421875","-0.9140625","0.09082031","31.40625","-9.84375","7.5"
"1573642528646","41","0.3125","-1.0029297","0.107421875","31.125","-12.15625","3.40625"
"1573642528646","42","0.234375","-1.0214844","0.038085938","31.53125","-8.625","6.8125"
"1573642528646","43","0.30566406","-0.9638672","0.18457031","27.34375","-7.9375","17.4375"
"1573642528646","44","0.20410156","-0.9326172","0.19140625","28.0","-6.375","17.1875"
"1573642528647","45","0.1171875","-0.984375","0.22753906","21.96875","-1.65625","15.84375"
"1573642528647","46","0.043945312","-0.9658203","0.25878906","14.15625","10.0625","19.6875"
"1573642528647","47","0.111328125","-0.9716797","0.25976562","6.8125","11.59375","18.0"
"1573642528647","48","0.18359375","-0.9638672","0.28515625","-4.28125","16.59375","12.5"
"1573642528649","49","0.08984375","-1.0019531","0.22753906","-8.9375","20.3125","9.9375"
"1573642529042","50","0.03515625","-1.0976562","0.15625","-10.6875","19.875","8.84375"
"1573642529042","51","0.13964844","-0.9658203","0.17578125","-14.71875","22.03125","19.9375"
"1573642529042","52","0.27246094","-0.84765625","0.26953125","-8.5625","14.09375","18.84375"
"1573642529043","53","0.059570312","-0.95996094","0.14648438","-8.0625","14.3125","15.3125"
"1573642529043","54","-0.06640625","-1.0478516","0.11035156","-13.125","10.40625","12.375"
"1573642529043","55","-0.0048828125","-0.99121094","0.10449219","-1.84375","16.78125","23.65625"
"1573642529044","56","0.016601562","-0.9765625","0.125","5.0","14.8125","20.0625"
"1573642529044","57","-0.020507812","-0.94921875","0.12988281","9.9375","6.34375","17.0625"
"1573642529044","58","-0.043945312","-1.0039062","0.13671875","10.1875","-7.8125","25.375"
"1573642529044","59","-0.00390625","-1.0166016","0.103515625","6.8125","-28.40625","15.5"
"1573642529239","60","0.01953125","-0.9453125","0.111328125","5.96875","-49.6875","6.5625"
"1573642529240","61","-0.08691406","-0.8720703","0.14648438","-3.25","-63.75","11.28125"
"1573642529241","62","-0.16113281","-1.0175781","0.17089844","-3.90625","-57.03125","1.03125"
"1573642529241","63","-0.20703125","-1.0644531","0.17382812","-1.59375","-36.5625","-15.9375"
"1573642529241","64","-0.06347656","-1.0068359","0.18847656","-1.46875","-13.125","-8.9375"
"1573642529241","65","0.0","-0.8623047","0.15234375","-1.25","-16.5","-10.40625"
"1573642529242","66","-0.04296875","-1.0","0.15917969","0.09375","-10.40625","-12.03125"
"1573642529242","67","-0.09765625","-1.0537109","0.20117188","-6.0","-5.875","-10.75"
"1573642529242","68","-0.0859375","-0.96191406","0.20117188","-4.46875","8.53125","-13.1875"
"1573642529242","69","-0.01171875","-0.97753906","0.18261719","-2.46875","13.90625","-15.53125"
"1573642529442","70","0.0234375","-0.96484375","0.18164062","-5.03125","13.65625","-17.40625"
"1573642529442","71","-0.03125","-1.0166016","0.16308594","-7.65625","13.21875","-16.0"
"1573642529443","72","-0.025390625","-1.0097656","0.16796875","-15.75","19.15625","-20.53125"
"1573642529444","73","-0.009765625","-0.9794922","0.15527344","-15.625","31.71875","-25.28125"
"1573642529444","74","0.046875","-0.9638672","0.07714844","-12.34375","32.6875","-21.375"
"1573642529444","75","0.099609375","-0.9863281","0.15429688","-9.84375","33.84375","-14.0625"
"1573642529445","76","0.09765625","-0.94628906","0.076171875","-3.375","29.53125","-4.84375"
"1573642529445","77","0.17285156","-0.984375","0.10449219","1.5625","23.65625","-0.6875"
"1573642529445","78","0.14160156","-0.9638672","0.12011719","2.3125","14.3125","-5.5"
"1573642529446","79","0.14355469","-0.9638672","0.13769531","7.0","6.03125","-0.875"
"1573642530036","80","0.09375","-0.9628906","0.119140625","12.75","6.8125","1.15625"
"1573642530036","81","0.119140625","-0.98535156","0.15039062","16.09375","4.9375","1.21875"
"1573642530037","82","0.107421875","-0.9794922","0.17089844","14.5","0.84375","0.34375"
"1573642530037","83","0.11035156","-0.95703125","0.18261719","14.5625","-0.375","-0.8125"
"1573642530037","84","0.13476562","-0.9902344","0.19921875","12.1875","0.46875","-1.125"
"1573642530039","85","0.0703125","-1.0078125","0.16503906","7.5","-1.0625","-2.625"
"1573642530039","86","0.111328125","-0.9941406","0.24023438","5.46875","0.0","-4.65625"
"1573642530039","87","0.099609375","-0.9345703","0.20996094","5.1875","-0.25","-4.21875"
"1573642530040","88","0.09472656","-0.96875","0.23535156","5.90625","3.03125","-3.8125"
"1573642530040","89","0.08886719","-0.9609375","0.23925781","5.46875","8.15625","-4.34375"
"1573642530631","90","0.10449219","-0.9472656","0.24902344","4.6875","9.8125","-3.0625"
"1573642530632","91","0.1171875","-0.9501953","0.24511719","2.1875","8.71875","-3.375"
"1573642530632","92","0.123046875","-0.9501953","0.24804688","2.0","6.5625","-4.21875"
"1573642530632","93","0.10449219","-0.9511719","0.25","0.65625","4.0","-5.4375"
"1573642530633","94","0.11425781","-0.9658203","0.26464844","1.03125","0.90625","-5.875"
"1573642530633","95","0.10449219","-0.9433594","0.23828125","4.9375","-1.40625","-3.5625"
"1573642530633","96","0.07519531","-0.94921875","0.22070312","3.34375","-4.84375","-3.6875"
"1573642530634","97","0.107421875","-0.96191406","0.2919922","4.375","-0.125","-1.25"
"1573642530634","98","0.115234375","-0.9189453","0.24511719","5.84375","-1.46875","-1.3125"
"1573642530635","99","0.09863281","-0.94628906","0.26367188","3.59375","-2.03125","-0.8125"
"1573642531228","100","0.10253906","-0.94921875","0.26660156","4.8125","0.0","0.84375"
"1573642531228","101","0.119140625","-0.9326172","0.296875","4.25","-0.25","0.65625"
"1573642531229","102","0.111328125","-0.93847656","0.2607422","4.875","0.65625","-1.90625"
"1573642531229","103","0.111328125","-0.95996094","0.265625","7.0","3.71875","-0.1875"
"1573642531229","104","0.12988281","-0.9404297","0.2939453","4.25","2.71875","1.4375"
"1573642531229","105","0.119140625","-0.9248047","0.28808594","2.59375","-1.25","0.96875"
"1573642531231","106","0.11621094","-0.9453125","0.27539062","1.875","2.0","0.96875"
"1573642531231","107","0.10253906","-0.9394531","0.2705078","-1.84375","-2.15625","1.09375"
"1573642531231","108","0.08886719","-0.9472656","0.32714844","-3.0","3.53125","2.125"
"1573642531232","109","0.060546875","-0.9423828","0.2783203","-3.875","2.0","1.375"
"1573642531233","110","0.10644531","-0.96484375","0.28808594","-3.5625","4.8125","1.8125"
"1573642531233","111","0.107421875","-0.9316406","0.2861328","-5.4375","2.1875","1.75"
"1573642531233","112","0.08105469","-0.9472656","0.27246094","-2.9375","3.46875","2.3125"
"1573642531233","113","0.11328125","-0.9277344","0.28515625","-2.28125","2.375","2.0"
"1573642531234","114","0.103515625","-0.9199219","0.2890625","-0.4375","0.40625","0.78125"
"1573642531234","115","0.08105469","-0.9433594","0.28808594","1.03125","2.71875","-0.5625"
"1573642531234","116","0.111328125","-0.9345703","0.3017578","-0.375","2.59375","-1.125"
"1573642531235","117","0.08203125","-0.9394531","0.2890625","-0.6875","1.15625","-1.1875"
"1573642531235","118","0.099609375","-0.9628906","0.30664062","-1.84375","2.4375","-3.25"
"1573642531235","119","0.08105469","-0.9482422","0.25976562","-1.0625","2.84375","-0.125"
"1573642531429","120","0.11328125","-0.94140625","0.3095703","-3.5625","0.71875","-1.1875"
"1573642531429","121","0.091796875","-0.9355469","0.26660156","-1.71875","1.4375","-1.25"
"1573642531430","122","0.125","-0.9423828","0.30273438","-3.4375","0.40625","0.40625"
"1573642531430","123","0.08984375","-0.9326172","0.28320312","-3.96875","-0.5625","1.09375"
"1573642531430","124","0.09277344","-0.94628906","0.30273438","-4.15625","1.9375","0.03125"
"1573642531430","125","0.10644531","-0.92285156","0.296875","-5.15625","2.5","2.5"
"1573642531431","126","0.07714844","-0.93847656","0.2861328","-4.46875","2.0625","2.1875"
"1573642531431","127","0.06640625","-0.9589844","0.29589844","-4.09375","3.9375","2.5625"
"1573642531431","128","0.08984375","-0.9511719","0.28222656","-3.1875","2.125","4.9375"
"1573642531431","129","0.107421875","-0.94628906","0.29882812","-4.28125","0.78125","3.78125"
"1573642531826","130","0.07519531","-0.9375","0.26757812","-4.03125","-3.375","2.96875"
"1573642531827","131","0.09667969","-0.9433594","0.2841797","-5.4375","-0.8125","2.5"
"1573642531827","132","0.08105469","-0.93847656","0.2783203","-11.5","-1.78125","4.8125"
"1573642531828","133","0.10058594","-0.9345703","0.25683594","-14.25","1.375","8.03125"
"1573642531829","134","0.0859375","-0.9482422","0.25976562","-19.84375","1.28125","10.0625"
"1573642531829","135","0.02734375","-0.9658203","0.29003906","-24.96875","1.4375","14.8125"
"1573642531829","136","-0.24511719","-1.1484375","0.107421875","-17.15625","2.0625","14.3125"
"1573642531830","137","0.064453125","-1.0205078","0.1953125","-11.25","30.5625","34.21875"
"1573642531830","138","0.21972656","-0.79296875","0.23046875","-8.8125","8.78125","26.40625"
"1573642531830","139","-0.078125","-0.85058594","0.16894531","-8.8125","4.75","11.15625"
"1573642532620","140","-0.1015625","-1.0732422","0.17578125","-4.53125","20.0","2.65625"
"1573642532620","141","0.02734375","-1.078125","0.18261719","-6.25","17.6875","15.71875"
"1573642532621","142","0.029296875","-0.91308594","0.1796875","-6.0","11.75","17.875"
"1573642532621","143","-0.05859375","-0.91503906","0.14941406","-6.0","5.96875","8.71875"
"1573642532621","144","-0.055664062","-1.0205078","0.16992188","-3.96875","3.15625","9.25"
"1573642532621","145","-0.046875","-1.0097656","0.15234375","-3.125","-1.0","7.5625"
"1573642532622","146","-0.052734375","-0.96191406","0.14648438","-3.96875","-6.59375","10.84375"
"1573642532622","147","-0.07519531","-0.97753906","0.140625","-4.09375","-9.34375","11.03125"
"1573642532622","148","-0.15820312","-1.0107422","0.14941406","-7.28125","-5.4375","9.25"
"1573642532622","149","-0.12109375","-0.96484375","0.15429688","-5.21875","0.46875","6.8125"
"1573642532818","150","-0.07421875","-0.9355469","0.16308594","-3.1875","1.75","6.875"
"1573642532818","151","-0.12011719","-0.99121094","0.17871094","-3.4375","2.3125","8.03125"
"1573642532819","152","-0.0625","-1.0","0.16113281","-4.09375","-0.4375","5.78125"
"1573642532819","153","-0.10058594","-0.98046875","0.16796875","-6.78125","-1.1875","6.46875"
"1573642532819","154","-0.12890625","-0.9453125","0.1484375","-7.21875","-0.25","5.40625"
"1573642532819","155","-0.078125","-0.95410156","0.13867188","-5.21875","-5.875","1.6875"
"1573642532820","156","-0.12890625","-1.0068359","0.15234375","-8.75","-6.5","4.6875"
"1573642532820","157","-0.12402344","-0.9667969","0.14941406","-7.8125","-9.96875","9.5625"
"1573642532820","158","-0.16210938","-0.9638672","0.15917969","-3.4375","-2.625","6.46875"
"1573642532821","159","-0.15039062","-1.0107422","0.15039062","-4.90625","-2.8125","5.59375"
"1573642533018","160","-0.12695312","-0.953125","0.14453125","-8.1875","-0.4375","12.5"
"1573642533019","161","-0.16113281","-0.94140625","0.095703125","-7.03125","-3.375","8.46875"
"1573642533019","162","-0.14160156","-1.0097656","0.13183594","-8.3125","-2.53125","3.21875"
"1573642533019","163","-0.16699219","-0.9941406","0.12402344","-8.125","-8.0","7.8125"
"1573642533019","164","-0.20507812","-1.0068359","0.15625","-5.8125","-2.875","4.5625"
"1573642533020","165","-0.15234375","-0.9902344","0.1875","-8.125","-4.71875","1.75"
"1573642533020","166","-0.20019531","-0.95996094","0.1640625","-4.84375","-2.34375","5.46875"
"1573642533020","167","-0.20019531","-0.94921875","0.109375","-2.15625","2.59375","10.71875"
"1573642533020","168","-0.14160156","-1.0068359","0.123046875","-1.1875","3.71875","4.9375"
"1573642533021","169","-0.140625","-0.9892578","0.12207031","-7.40625","0.78125","6.6875"
"1573642533418","170","-0.14355469","-0.94140625","0.11328125","-3.875","-5.5625","0.40625"
"1573642533418","171","-0.16894531","-0.97753906","0.11621094","-2.40625","-7.53125","0.84375"
"1573642533419","172","-0.1640625","-0.96777344","0.119140625","-2.6875","-12.84375","4.9375"
"1573642533419","173","-0.22265625","-0.96191406","0.13183594","-1.96875","-8.75","5.34375"
"1573642533419","174","-0.22851562","-0.97265625","0.13867188","-2.09375","-4.96875","3.21875"
"1573642533420","175","-0.19726562","-0.9667969","0.1328125","-0.25","-0.0625","3.21875"
"1573642533420","176","-0.19824219","-0.9902344","0.13769531","-1.3125","-0.375","3.21875"
"1573642533420","177","-0.21386719","-0.9873047","0.11621094","-1.65625","1.75","1.3125"
"1573642533420","178","-0.1796875","-0.9667969","0.13085938","-2.625","0.15625","-0.5"
"1573642533421","179","-0.18945312","-0.9746094","0.119140625","-1.59375","2.0","-0.875"
"1573642533814","180","-0.17773438","-0.98339844","0.10058594","-2.75","-1.84375","-2.53125"
"1573642533815","181","-0.19140625","-0.9707031","0.14941406","-2.625","2.3125","-1.78125"
"1573642533815","182","-0.18457031","-0.9667969","0.12597656","-2.34375","0.59375","-6.375"
"1573642533816","183","-0.1640625","-0.98046875","0.123046875","-1.125","0.40625","-6.25"
"1573642533816","184","-0.18554688","-0.98339844","0.1328125","-1.96875","1.4375","-3.625"
"1573642533816","185","-0.1875","-0.96484375","0.125","-2.15625","3.28125","-4.09375"
"1573642533817","186","-0.19921875","-0.9716797","0.14160156","-1.71875","5.84375","-4.84375"
"1573642533817","187","-0.17675781","-0.9746094","0.12011719","-1.0625","8.40625","-4.84375"
"1573642533817","188","-0.17089844","-0.9892578","0.13085938","-1.71875","9.1875","-5.5625"
"1573642533817","189","-0.17285156","-0.9794922","0.12890625","-1.59375","7.1875","-8.3125"
"1573642534211","190","-0.15527344","-0.9765625","0.11035156","-1.46875","4.875","-7.59375"
"1573642534211","191","-0.16796875","-0.9892578","0.12695312","-0.375","5.0625","-5.625"
"1573642534211","192","-0.21875","-0.9970703","0.09082031","-3.0","7.75","-7.8125"
"1573642534212","193","-0.16113281","-0.94140625","0.14550781","2.4375","11.15625","-9.46875"
"1573642534212","194","-0.17382812","-0.93652344","0.12890625","9.5","15.3125","-4.03125"
"1573642534213","195","-0.19921875","-1.0253906","0.109375","7.90625","19.46875","3.90625"
"1573642534213","196","-0.15429688","-1.0058594","0.16210938","7.90625","21.28125","-4.53125"
"1573642534213","197","-0.19042969","-0.98046875","0.109375","2.78125","24.15625","-6.53125"
"1573642534213","198","-0.14746094","-0.9902344","0.15429688","1.6875","21.21875","-10.34375"
"1573642534214","199","-0.14453125","-0.9345703","0.09765625","3.09375","21.15625","-7.8125"
"1573642534807","200","-0.16210938","-0.90722656","0.103515625","3.21875","16.84375","-11.6875"
"1573642534807","201","-0.11328125","-0.94628906","0.14550781","4.0625","15.1875","-21.25"
"1573642534808","202","-0.08300781","-1.0986328","0.14257812","-3.25","8.53125","-40.96875"
"1573642534808","203","-0.043945312","-1.0791016","0.17382812","-6.0","-3.75","-41.09375"
"1573642534808","204","-0.095703125","-0.9267578","0.06933594","-1.34375","-6.71875","-18.4375"
"1573642534810","205","-0.09472656","-0.8964844","0.115234375","1.9375","-0.5625","-21.0625"
"1573642534811","206","-0.064453125","-1.0185547","0.11328125","-0.5625","4.125","-30.96875"
"1573642534811","207","0.07519531","-1.0595703","0.16113281","-0.75","-0.5","-31.21875"
"1573642534811","208","0.059570312","-0.95214844","0.15722656","-3.4375","-10.34375","-21.0"
"1573642534811","209","0.020507812","-0.9482422","0.14160156","0.46875","-9.125","-15.9375"
"1573642535204","210","0.028320312","-0.9785156","0.12207031","1.375","-5.375","-13.03125"
"1573642535205","211","0.040039062","-1.0068359","0.15527344","0.71875","-2.40625","-13.375"
"1573642535205","212","0.061523438","-0.9785156","0.14453125","2.78125","-1.125","-10.625"
"1573642535205","213","0.038085938","-0.9736328","0.15722656","2.59375","-3.375","-4.78125"
"1573642535206","214","0.018554688","-0.9794922","0.14648438","3.65625","0.65625","-4.09375"
"1573642535206","215","0.05859375","-0.984375","0.17089844","4.0","1.5","-3.625"
"1573642535206","216","0.056640625","-0.97265625","0.12597656","7.125","0.71875","-0.9375"
"1573642535207","217","0.072265625","-0.96484375","0.19335938","5.46875","-3.5625","-1.59375"
"1573642535208","218","0.04296875","-0.96484375","0.14550781","8.03125","0.0","-3.0"
"1573642535208","219","0.061523438","-0.9716797","0.17871094","6.625","-0.8125","-7.21875"
"1573642535403","220","0.08105469","-0.9667969","0.16796875","7.3125","-1.90625","-7.8125"
"1573642535404","221","0.11621094","-0.9550781","0.234375","7.75","-6.125","-10.34375"
"1573642535404","222","0.11035156","-0.9355469","0.23144531","11.21875","-14.84375","-7.875"
"1573642535404","223","0.0390625","-0.953125","0.18554688","17.625","-10.625","-1.40625"
"1573642535404","224","0.052734375","-1.0058594","0.21777344","18.28125","1.15625","-2.40625"
"1573642535405","225","0.1171875","-0.97265625","0.23339844","14.875","1.6875","-4.21875"
"1573642535405","226","0.091796875","-0.9609375","0.23046875","12.25","3.34375","-4.15625"
"1573642535405","227","0.07910156","-0.9667969","0.22753906","11.40625","1.5","-3.90625"
"1573642535405","228","0.08203125","-0.97753906","0.26757812","11.15625","6.15625","2.0"
"1573642535406","229","0.09277344","-0.9355469","0.24804688","10.1875","1.3125","-1.25"
"1573642535802","230","0.08984375","-0.94140625","0.25878906","11.46875","-0.25","-3.75"
"1573642535802","231","0.10839844","-0.9472656","0.27734375","8.15625","-2.15625","-5.3125"
"1573642535803","232","0.13183594","-0.93066406","0.28515625","6.40625","-3.6875","-6.84375"
"1573642535803","233","0.12011719","-0.92578125","0.29785156","5.71875","-6.96875","-8.375"
"1573642535803","234","0.11621094","-0.9189453","0.31054688","6.40625","-5.375","-8.0"
"1573642535803","235","0.14257812","-0.92578125","0.30859375","7.96875","-5.9375","-6.65625"
"1573642535804","236","0.15039062","-0.91015625","0.35058594","7.84375","-4.65625","-7.40625"
"1573642535804","237","0.125","-0.9082031","0.31054688","4.8125","-5.03125","-5.6875"
"1573642535804","238","0.11328125","-0.92578125","0.36132812","2.84375","-0.875","-4.03125"
"1573642535804","239","0.11425781","-0.92871094","0.31933594","2.65625","1.21875","-5.21875"
"1573642536198","240","0.17675781","-0.93359375","0.3544922","1.4375","0.90625","-6.0625"
"1573642536199","241","0.095703125","-0.9277344","0.3359375","2.5","5.78125","2.0"
"1573642536199","242","0.14257812","-0.9111328","0.34960938","3.65625","7.8125","0.84375"
"1573642536200","243","0.19042969","-0.8652344","0.34179688","0.46875","6.03125","-5.09375"
"1573642536200","244","0.16699219","-0.9140625","0.3466797","-1.59375","2.96875","-5.875"
"1573642536200","245","0.1328125","-0.93359375","0.35058594","-1.96875","3.9375","-2.34375"
"1573642536200","246","0.15234375","-0.90625","0.3466797","-0.5","5.1875","-0.25"
"1573642536201","247","0.16113281","-0.8984375","0.34960938","-1.59375","2.3125","-2.40625"
"1573642536201","248","0.14941406","-0.90722656","0.3310547","-1.78125","-3.0625","-2.625"
"1573642536201","249","0.15527344","-0.92578125","0.34277344","-1.78125","-1.0","-2.46875"
"1573642536995","250","0.13574219","-0.90625","0.31347656","-1.84375","-2.09375","-1.125"
"1573642536995","251","0.11328125","-0.91015625","0.3720703","-0.8125","1.4375","1.75"
"1573642536996","252","0.11035156","-0.91015625","0.31152344","-1.1875","2.125","0.34375"
"1573642536997","253","0.12695312","-0.9326172","0.34375","0.53125","3.71875","4.0625"
"1573642536997","254","0.1484375","-0.8984375","0.34765625","-1.0625","1.5","1.4375"
"1573642536998","255","0.11621094","-0.93847656","0.33789062","-0.875","1.9375","-0.8125"
"1573642536998","256","0.13378906","-0.9316406","0.3466797","-1.0625","3.84375","0.34375"
"1573642536998","257","0.15625","-0.90234375","0.33691406","-1.71875","1.3125","2.375"
"1573642536998","258","0.13085938","-0.921875","0.3310547","-1.40625","2.1875","0.65625"
"1573642536999","259","0.13183594","-0.9296875","0.33984375","-4.28125","2.0625","0.0"
"1573642537392","260","0.13085938","-0.9082031","0.31933594","-3.4375","1.5625","0.90625"
"1573642537392","261","0.109375","-0.9199219","0.3154297","-4.40625","2.0625","0.15625"
"1573642537393","262","0.12988281","-0.9267578","0.3486328","-4.71875","4.5","0.65625"
"1573642537393","263","0.13769531","-0.91015625","0.30859375","-5.9375","2.3125","0.21875"
"1573642537393","264","0.12597656","-0.92871094","0.3330078","-4.78125","4.1875","0.65625"
"1573642537395","265","0.14257812","-0.93359375","0.3173828","-6.125","2.71875","-2.53125"
"1573642537395","266","0.14746094","-0.9248047","0.32714844","-8.1875","1.28125","-2.09375"
"1573642537395","267","0.13085938","-0.9326172","0.31445312","-8.8125","-1.71875","0.34375"
"1573642537395","268","0.12988281","-0.93652344","0.3203125","-7.59375","2.4375","1.5625"
"1573642537396","269","0.15039062","-0.9169922","0.30664062","-4.90625","2.71875","4.0"
"1573642537590","270","0.15332031","-0.9082031","0.33203125","-5.6875","-0.875","2.96875"
"1573642537591","271","0.11230469","-0.90234375","0.2998047","-5.75","0.46875","2.90625"
"1573642537591","272","0.14453125","-0.9560547","0.30859375","-6.3125","-5.25","4.3125"
"1573642537592","273","0.13769531","-0.94628906","0.3203125","-11.5625","-6.65625","3.03125"
"1573642537592","274","0.11035156","-0.9550781","0.29785156","-14.3125","-13.03125","3.90625"
"1573642537592","275","0.08203125","-0.96484375","0.31054688","-16.1875","-0.3125","6.21875"
"1573642537593","276","0.12011719","-0.9423828","0.29589844","-11.4375","3.9375","5.46875"
"1573642537594","277","0.09472656","-0.95703125","0.2939453","-13.375","10.125","6.15625"
"1573642537594","278","0.13476562","-0.9394531","0.25976562","-15.03125","7.5","1.8125"
"1573642537595","279","0.11328125","-0.9111328","0.25878906","-25.34375","5.1875","8.21875"
"1573642537788","280","0.099609375","-0.9199219","0.21484375","-27.25","7.75","7.8125"
"1573642537789","281","0.015625","-1.0273438","0.22265625","-26.75","0.59375","8.46875"
"1573642537789","282","-0.0234375","-1.0693359","0.10546875","-25.71875","15.125","11.40625"
"1573642537789","283","0.22558594","-0.9267578","0.21484375","-23.03125","5.96875","18.65625"
"1573642537789","284","0.048828125","-0.8339844","0.16015625","-17.78125","-1.90625","9.8125"
"1573642537790","285","-0.026367188","-0.9404297","0.16601562","-16.9375","1.9375","-7.59375"
"1573642537790","286","0.033203125","-1.0566406","0.09472656","-10.4375","15.78125","-1.3125"
"1573642537790","287","0.119140625","-0.9970703","0.12792969","-9.59375","12.4375","4.6875"
"1573642537790","288","0.048828125","-0.93066406","0.109375","-9.71875","7.0625","4.0625"
"1573642537792","289","0.041015625","-0.99121094","0.12109375","-9.46875","9.1875","4.5625"
"1573642538386","290","0.053710938","-1.0029297","0.12695312","-5.6875","7.625","5.78125"
"1573642538386","291","0.044921875","-0.9560547","0.13476562","-1.53125","11.75","9.9375"
"1573642538387","292","0.022460938","-0.9716797","0.12109375","2.125","13.65625","11.15625"
"1573642538387","293","0.05078125","-1.0029297","0.16308594","3.34375","14.28125","8.03125"
"1573642538387","294","-0.015625","-0.98535156","0.13964844","0.28125","1.5625","6.09375"
"1573642538387","295","-0.046875","-0.9785156","0.10546875","0.78125","4.125","-0.375"
"1573642538388","296","0.0078125","-0.99121094","0.140625","0.28125","0.03125","0.03125"
"1573642538388","297","-0.032226562","-1.0","0.125","2.4375","1.5625","4.9375"
"1573642538388","298","-0.034179688","-0.97558594","0.17285156","4.1875","4.5625","6.8125"
"1573642538388","299","-0.052734375","-0.9746094","0.14453125","3.78125","8.59375","6.5625"
"1573642538586","300","-0.040039062","-1.0","0.15429688","3.03125","13.71875","4.8125"
"1573642538587","301","0.0078125","-0.9902344","0.14941406","2.0625","12.25","3.90625"
"1573642538588","302","0.041015625","-0.9794922","0.15039062","0.28125","4.375","6.46875"
"1573642538588","303","-9.765625E-4","-0.9921875","0.14941406","-3.8125","-2.625","3.90625"
"1573642538588","304","-0.06347656","-0.99121094","0.15039062","-3.8125","-3.625","-2.875"
"1573642538589","305","-0.018554688","-0.98535156","0.15917969","-2.9375","-2.625","2.96875"
"1573642538589","306","-0.0126953125","-0.9746094","0.123046875","0.09375","-1.53125","1.75"
"1573642538589","307","-0.022460938","-0.9824219","0.15234375","-0.8125","-5.03125","5.59375"
"1573642538590","308","-0.08203125","-0.94921875","0.12011719","0.21875","-0.875","5.78125"
"1573642538590","309","-0.059570312","-0.9941406","0.125","-0.6875","1.375","7.90625"
"1573642539179","310","-0.038085938","-1.0166016","0.123046875","-3.75","1.375","6.875"
"1573642539180","311","-0.032226562","-0.99121094","0.14160156","-7.09375","-3.1875","3.21875"
"1573642539180","312","-0.036132812","-1.0078125","0.16894531","-4.09375","-2.6875","-2.28125"
"1573642539181","313","-0.032226562","-0.98535156","0.15429688","-5.4375","-7.15625","-2.40625"
"1573642539181","314","-0.0703125","-0.9765625","0.13574219","-5.6875","-6.0625","-3.1875"
"1573642539182","315","-0.06933594","-1.0097656","0.13183594","-8.25","-4.71875","-1.3125"
"1573642539182","316","-0.06933594","-0.984375","0.13769531","-7.78125","-1.96875","2.25"
"1573642539182","317","-0.053710938","-0.9736328","0.12988281","-3.4375","-0.1875","3.90625"
"1573642539183","318","-0.048828125","-0.98535156","0.13183594","-4.40625","-1.1875","4.3125"
"1573642539183","319","-0.06933594","-0.9785156","0.12597656","-3.6875","1.375","0.65625"
"1573642539380","320","-0.0546875","-0.99902344","0.13574219","-2.625","1.9375","4.25"
"1573642539380","321","-0.064453125","-0.99121094","0.140625","-3.8125","2.0625","7.25"
"1573642539380","322","-0.061523438","-0.9794922","0.13085938","-1.53125","1.5","4.1875"
"1573642539381","323","-0.055664062","-0.9892578","0.12792969","-0.875","-2.8125","5.0625"
"1573642539381","324","-0.07128906","-0.98339844","0.12109375","-0.8125","-1.65625","6.34375"
"1573642539382","325","-0.0859375","-0.98339844","0.13867188","-1.40625","-2.40625","4.8125"
"1573642539382","326","-0.11328125","-0.96972656","0.11816406","-2.46875","-1.125","3.71875"
"1573642539382","327","-0.076171875","-0.9824219","0.14550781","-2.03125","0.90625","1.4375"
"1573642539383","328","-0.091796875","-0.9921875","0.14257812","0.0","2.125","2.71875"
"1573642539383","329","-0.072265625","-0.9794922","0.12109375","0.65625","1.03125","6.15625"
"1573642539974","330","-0.09667969","-0.98828125","0.123046875","1.8125","2.0625","1.6875"
"1573642539975","331","-0.109375","-0.98535156","0.12890625","-1.40625","0.21875","-0.1875"
"1573642539975","332","-0.0859375","-0.9765625","0.12792969","-1.96875","0.59375","6.6875"
"1573642539975","333","-0.076171875","-0.9785156","0.11816406","-2.03125","-4.21875","0.90625"
"1573642539976","334","-0.12011719","-0.98339844","0.123046875","-2.59375","-1.1875","-0.6875"
"1573642539976","335","-0.10546875","-0.99121094","0.125","-1.46875","0.78125","-4.96875"
"1573642539976","336","-0.109375","-0.99121094","0.13476562","-5.625","0.65625","-10.9375"
"1573642539977","337","-0.11621094","-0.9628906","0.15234375","-0.0625","3.84375","-8.3125"
"1573642539977","338","-0.034179688","-1.0107422","0.14746094","2.0625","1.15625","-3.4375"
"1573642539978","339","-0.091796875","-1.0302734","0.13964844","0.96875","2.25","-2.8125"
"1573642540174","340","-0.13378906","-1.015625","0.1328125","-4.21875","0.96875","-5.3125"
"1573642540175","341","-0.061523438","-0.9628906","0.14746094","-0.5","5.28125","-9.34375"
"1573642540175","342","-0.09667969","-1.0068359","0.12988281","-2.34375","7.625","0.21875"
"1573642540176","343","-0.11328125","-1.0068359","0.10449219","-2.09375","10.84375","-1.0"
"1573642540176","344","-0.09765625","-0.96191406","0.13183594","-2.75","13.0","1.8125"
"1573642540179","345","-0.12792969","-0.9560547","0.09863281","-1.65625","15.90625","4.125"
"1573642540179","346","-0.07324219","-0.99609375","0.12109375","-1.71875","19.28125","2.25"
"1573642540179","347","-0.0546875","-0.9785156","0.13964844","-2.53125","13.0","-6.125"
"1573642540180","348","-0.08300781","-0.9736328","0.059570312","-4.71875","2.59375","-7.15625"
"1573642540180","349","-0.038085938","-0.9970703","0.037109375","-8.6875","-7.46875","-8.4375"
"1573642540767","350","-0.009765625","-0.9423828","0.09375","-5.5","-9.125","-9.15625"
"1573642540768","351","-0.061523438","-0.9238281","0.11230469","-3.1875","-9.28125","-17.53125"
"1573642540768","352","-0.048828125","-0.9980469","0.19726562","0.71875","-11.6875","-33.40625"
"1573642540769","353","-0.022460938","-1.1416016","0.19140625","-1.0","9.3125","-48.59375"
"1573642540769","354","-0.0029296875","-1.0117188","0.16699219","-2.40625","1.28125","-23.5625"
"1573642540769","355","-0.034179688","-0.87402344","0.07714844","1.75","7.375","-0.25"
"1573642540770","356","0.08300781","-0.9482422","0.08496094","0.40625","14.09375","-12.96875"
"1573642540770","357","0.15820312","-1.0722656","0.19238281","-3.96875","3.65625","-19.5"
"1573642540770","358","0.05859375","-0.9794922","0.16015625","-4.40625","-13.03125","-9.65625"
"1573642540771","359","0.038085938","-0.9355469","0.09667969","2.59375","-6.71875","-2.75"
"1573642540968","360","0.07910156","-0.96484375","0.09863281","6.40625","-2.59375","-7.28125"
"1573642540969","361","0.08691406","-1.0029297","0.1640625","3.53125","-1.53125","-6.0625"
"1573642540969","362","0.083984375","-0.9550781","0.13378906","5.71875","-3.8125","-6.3125"
"1573642540970","363","0.08691406","-0.96777344","0.12597656","10.3125","-4.03125","-0.5625"
"1573642540970","364","0.047851562","-0.99121094","0.14453125","9.75","-1.125","0.15625"
"1573642540971","365","0.033203125","-0.9667969","0.17578125","10.375","2.96875","-2.34375"
"1573642540971","366","0.047851562","-0.95996094","0.17089844","11.40625","3.34375","-2.34375"
"1573642540971","367","0.09863281","-0.9765625","0.18945312","14.09375","3.78125","-2.6875"
"1573642540971","368","0.083984375","-0.9716797","0.20507812","12.875","0.71875","-2.6875"
"1573642540972","369","0.0146484375","-0.9638672","0.16894531","13.65625","-2.28125","-3.90625"
"1573642541566","370","0.08300781","-0.9746094","0.19726562","12.8125","-0.9375","-7.53125"
"1573642541566","371","0.11425781","-0.9511719","0.19628906","12.9375","-3.96875","-6.59375"
"1573642541567","372","0.13183594","-0.97558594","0.22070312","11.65625","-11.3125","-0.625"
"1573642541568","373","0.038085938","-0.97753906","0.23925781","11.46875","-8.5625","2.96875"
"1573642541568","374","0.08300781","-0.9941406","0.23828125","11.875","-6.125","3.78125"
"1573642541569","375","0.123046875","-0.9472656","0.23730469","10.1875","-7.8125","3.59375"
"1573642541569","376","0.068359375","-0.9550781","0.2578125","6.8125","-7.28125","4.75"
"1573642541570","377","0.051757812","-0.95703125","0.27148438","2.90625","-1.84375","-0.25"
"1573642541570","378","0.103515625","-0.9326172","0.25585938","1.09375","-0.375","-1.46875"
"1573642541570","379","0.11230469","-0.921875","0.27734375","-1.40625","4.6875","3.46875"
"1573642541764","380","0.08203125","-0.9013672","0.2529297","-2.6875","6.09375","2.5625"
"1573642541764","381","0.068359375","-0.99609375","0.26464844","-4.71875","8.09375","-3.5"
"1573642541765","382","0.091796875","-1.0546875","0.2919922","-6.53125","4.625","-5.09375"
"1573642541765","383","0.05078125","-0.9902344","0.24414062","-3.1875","-2.875","9.6875"
"1573642541765","384","0.078125","-0.9238281","0.25","0.28125","-1.34375","13.65625"
"1573642541766","385","0.10839844","-0.89746094","0.24804688","-3.96875","-5.25","0.78125"
"1573642541766","386","0.052734375","-0.96875","0.24902344","-7.65625","-7.59375","-4.53125"
"1573642541767","387","0.036132812","-0.9980469","0.24316406","-7.21875","-3.0625","-6.4375"
"1573642541767","388","0.07128906","-0.9628906","0.24707031","-4.59375","3.9375","-3.0"
"1573642541767","389","0.08203125","-0.9453125","0.24804688","-3.75","4.8125","0.0"
"1573642542557","390","0.061523438","-0.94140625","0.25390625","-3.0","4.8125","-0.1875"
"1573642542558","391","0.08496094","-0.9628906","0.24804688","-2.75","4.5","-2.59375"
"1573642542558","392","0.10058594","-0.9824219","0.23144531","-4.59375","2.4375","-6.1875"
"1573642542558","393","0.12597656","-0.9375","0.27441406","-5.6875","-0.875","-7.8125"
"1573642542559","394","0.06347656","-0.9277344","0.24707031","-2.59375","-1.71875","-3.0"
"1573642542559","395","0.08300781","-0.95703125","0.24804688","-1.25","1.6875","-3.125"
"1573642542559","396","0.099609375","-0.9658203","0.24609375","-4.59375","-1.1875","-4.84375"
"1573642542560","397","0.103515625","-0.9628906","0.2578125","-4.90625","0.59375","-4.46875"
"1573642542560","398","0.07324219","-0.93359375","0.24804688","-2.28125","1.03125","-0.3125"
"1573642542560","399","0.09375","-0.9501953","0.24609375","-0.625","4.3125","-1.59375"
"1573642542754","400","0.09472656","-0.95703125","0.26660156","-0.875","4.75","-2.21875"
"1573642542754","401","0.08496094","-0.95703125","0.25","-2.21875","4.75","-2.875"
"1573642542754","402","0.09375","-0.94140625","0.2626953","-4.65625","1.03125","-1.125"
"1573642542755","403","0.029296875","-0.9589844","0.23828125","-1.59375","6.625","-0.4375"
"1573642542755","404","0.1015625","-0.9716797","0.24121094","-3.875","4.5","-0.25"
"1573642542755","405","0.08984375","-0.9589844","0.23925781","-3.875","6.03125","1.3125"
"1573642542755","406","0.08300781","-0.9609375","0.23632812","-4.28125","1.6875","2.0"
"1573642542756","407","0.051757812","-0.9814453","0.23632812","-3.5","3.84375","2.0"
"1573642542756","408","0.08203125","-0.98046875","0.23828125","-3.875","6.15625","0.28125"
"1573642542757","409","0.041992188","-0.9501953","0.22949219","-6.125","5.40625","0.96875"
"1573642543156","410","0.09375","-0.95703125","0.22167969","-2.46875","7.1875","-1.0"
"1573642543156","411","0.103515625","-0.9707031","0.22558594","-1.25","9.5","1.21875"
"1573642543157","412","0.12011719","-0.9609375","0.22753906","0.03125","5.125","0.40625"
"1573642543157","413","0.08886719","-0.93847656","0.22363281","2.375","2.65625","-1.125"
"1573642543157","414","0.09082031","-0.94433594","0.23144531","8.03125","2.96875","-3.125"
"1573642543157","415","0.11035156","-0.8935547","0.2685547","15.0","3.03125","-1.25"
"1573642543158","416","0.12402344","-0.89941406","0.2578125","17.125","-1.90625","-8.5"
"1573642543158","417","0.12402344","-0.98046875","0.3125","15.5","-7.71875","-14.96875"
"1573642543158","418","0.0107421875","-0.9707031","0.25585938","7.96875","-5.5625","-7.78125"
"1573642543158","419","0.12402344","-0.9589844","0.28808594","13.53125","2.65625","0.21875"
"1573642543747","420","0.16796875","-0.8876953","0.29785156","6.21875","-0.75","0.28125"
"1573642543749","421","0.1484375","-0.92089844","0.2685547","-4.90625","-3.625","-3.125"
"1573642543750","422","0.13476562","-0.96972656","0.32421875","-16.96875","-8.1875","-2.8125"
"1573642543750","423","0.046875","-1.0087891","0.29101562","-21.6875","1.28125","5.59375"
"1573642543750","424","0.0546875","-1.0527344","0.28125","-23.03125","10.1875","13.40625"
"1573642543751","425","0.01171875","-1.0410156","0.23925781","-18.6875","9.4375","22.03125"
"1573642543752","426","0.10253906","-0.9794922","0.20800781","-20.21875","24.46875","32.09375"
"1573642543752","427","0.18847656","-0.8935547","0.20898438","-27.0","14.5625","17.5625"
"1573642543752","428","-0.026367188","-0.91796875","0.19042969","-32.5625","6.875","6.21875"
"1573642543753","429","-0.068359375","-0.99902344","0.14453125","-27.1875","18.96875","-2.46875"
"1573642543753","430","0.029296875","-1.0185547","0.15332031","-21.375","14.3125","6.09375"
"1573642543753","431","0.02734375","-0.9511719","0.12011719","-18.375","13.78125","2.96875"
"1573642543754","432","0.028320312","-0.9345703","0.13085938","-13.25","8.96875","-2.09375"
"1573642543754","433","0.0390625","-0.9589844","0.10644531","-10.75","5.59375","-4.96875"
"1573642543754","434","0.030273438","-1.0048828","0.107421875","-11.25","-0.8125","-4.71875"
"1573642543755","435","0.005859375","-0.99121094","0.099609375","-9.0625","-0.0625","-2.53125"
"1573642543755","436","0.0146484375","-0.97558594","0.11621094","-8.4375","-1.78125","0.65625"
"1573642543755","437","0.018554688","-0.9941406","0.11035156","-4.84375","0.59375","0.09375"
"1573642543756","438","0.041015625","-0.9951172","0.12792969","-6.96875","-2.6875","0.0"
"1573642543756","439","0.015625","-0.98339844","0.087890625","-6.125","-3.0","5.21875"
"1573642544150","440","0.0068359375","-0.98828125","0.12207031","-5.875","-1.65625","7.5625"
"1573642544150","441","0.024414062","-0.9785156","0.13671875","3.21875","2.84375","11.8125"
"1573642544151","442","-0.0390625","-0.98339844","0.17480469","11.40625","6.28125","18.40625"
"1573642544151","443","-0.09472656","-0.99121094","0.107421875","1.8125","10.1875","17.6875"
"1573642544151","444","0.022460938","-1.03125","0.09863281","-2.875","8.40625","8.59375"
"1573642544153","445","-9.765625E-4","-0.9736328","0.12402344","-5.8125","1.9375","6.6875"
"1573642544153","446","-0.051757812","-0.97558594","0.115234375","-6.4375","3.9375","6.09375"
"1573642544153","447","-0.076171875","-0.96191406","0.083984375","-3.4375","0.03125","9.5625"
"1573642544154","448","-0.034179688","-0.99121094","0.11621094","-1.46875","4.375","6.21875"
"1573642544154","449","-0.043945312","-1.0019531","0.109375","-4.34375","-1.90625","3.09375"
"1573642544547","450","-0.0546875","-1.0097656","0.09863281","-3.5","-4.34375","5.21875"
"1573642544548","451","-0.045898438","-0.9941406","0.095703125","-2.8125","-4.15625","6.8125"
"1573642544548","452","-0.08203125","-1.0058594","0.10839844","-2.40625","-2.21875","9.03125"
"1573642544549","453","-0.099609375","-0.9921875","0.09765625","-0.8125","3.9375","11.15625"
"1573642544550","454","-0.09472656","-1.0","0.09667969","-3.625","6.21875","10.46875"
"1573642544550","455","-0.09667969","-1.0068359","0.09375","-4.90625","7.4375","9.125"
"1573642544550","456","-0.07128906","-0.9921875","0.06640625","-5.375","2.71875","9.03125"
"1573642544551","457","-0.078125","-0.9667969","0.11425781","-7.03125","0.28125","10.0625"
"1573642544551","458","-0.12109375","-0.9658203","0.08105469","-3.1875","-4.21875","11.71875"
"1573642544551","459","-0.11621094","-0.98535156","0.07519531","-3.8125","-7.34375","9.03125"
"1573642544944","460","-0.12792969","-0.9794922","0.09472656","-4.21875","-9.40625","8.84375"
"1573642544945","461","-0.15429688","-0.9794922","0.09277344","-3.90625","-9.0","7.6875"
"1573642544945","462","-0.1640625","-0.9951172","0.091796875","-2.09375","-8.4375","8.15625"
"1573642544945","463","-0.15332031","-0.97753906","0.09765625","-1.0","-5.75","6.6875"
"1573642544946","464","-0.1875","-0.98828125","0.09277344","-0.0625","-1.90625","5.78125"
"1573642544946","465","-0.16699219","-0.97265625","0.10449219","0.65625","3.21875","5.53125"
"1573642544946","466","-0.14355469","-0.96777344","0.107421875","0.53125","4.25","4.3125"
"1573642544946","467","-0.13476562","-0.98046875","0.1015625","0.84375","0.71875","0.71875"
"1573642544947","468","-0.16503906","-1.0","0.123046875","-1.34375","-2.09375","-0.625"
"1573642544948","469","-0.16699219","-1.0","0.10449219","0.65625","1.4375","-1.3125"
"1573642545342","470","-0.13378906","-1.0039062","0.10839844","-0.625","1.6875","-0.8125"
"1573642545343","471","-0.123046875","-0.98828125","0.11425781","-1.84375","0.03125","-1.90625"
"1573642545343","472","-0.16113281","-0.9707031","0.09667969","-4.28125","-1.71875","-0.9375"
"1573642545343","473","-0.17382812","-0.9736328","0.107421875","-1.78125","3.15625","0.0"
"1573642545344","474","-0.16796875","-0.9873047","0.09082031","-0.375","6.8125","4.0625"
"1573642545344","475","-0.13867188","-0.9667969","0.09277344","0.46875","2.84375","4.6875"
"1573642545344","476","-0.16992188","-0.984375","0.0859375","0.15625","5.0","3.65625"
"1573642545344","477","-0.12890625","-0.96484375","0.12890625","1.15625","2.96875","-0.375"
"1573642545345","478","-0.19140625","-0.9716797","0.08105469","2.96875","1.03125","3.34375"
"1573642545345","479","-0.16113281","-0.98828125","0.08691406","-1.0","0.84375","2.65625"
"1573642545738","480","-0.16503906","-0.9814453","0.11816406","-1.34375","0.65625","-4.34375"
"1573642545739","481","-0.19921875","-1.0019531","0.107421875","-2.21875","2.0","-3.75"
"1573642545739","482","-0.18261719","-0.98339844","0.12207031","-0.375","1.9375","0.28125"
"1573642545739","483","-0.1484375","-0.9638672","0.12988281","-0.4375","-1.34375","-1.25"
"1573642545740","484","-0.20019531","-0.98339844","0.07519531","-1.59375","-1.1875","-0.5"
"1573642545740","485","-0.16699219","-1.0087891","0.09472656","-0.8125","5.71875","-2.40625"
"1573642545740","486","-0.14160156","-1.0009766","0.10839844","-3.375","3.03125","-4.09375"
"1573642545741","487","-0.16601562","-0.9736328","0.11230469","-4.59375","4.1875","-4.78125"
"1573642545741","488","-0.15527344","-0.97753906","0.109375","-3.5","1.15625","-5.4375"
"1573642545741","489","-0.20214844","-1.0078125","0.12695312","-3.90625","8.53125","-3.125"
"1573642546532","490","-0.17285156","-0.984375","0.09277344","-2.53125","7.625","-4.03125"
"1573642546532","491","-0.171875","-0.9580078","0.095703125","0.96875","8.71875","1.3125"
"1573642546533","492","-0.2109375","-0.9707031","0.11425781","3.21875","9.03125","5.90625"
"1573642546534","493","-0.16503906","-0.9970703","0.068359375","-1.25","6.75","2.5"
"1573642546535","494","-0.10644531","-0.96777344","0.109375","-0.25","-2.46875","-2.53125"
"1573642546535","495","-0.19628906","-0.96972656","0.043945312","-5.9375","-3.6875","3.40625"
"1573642546535","496","-0.140625","-1.0117188","0.14160156","-4.03125","-2.625","-11.90625"
"1573642546535","497","-0.21875","-0.9628906","0.17089844","1.5625","0.71875","-6.65625"
"1573642546536","498","-0.28710938","-0.96777344","0.10839844","2.5625","18.34375","4.75"
"1573642546536","499","-0.12207031","-0.9423828","0.0859375","9.375","25.75","-0.9375"
"1573642546729","500","-0.083984375","-0.96875","0.09082031","1.15625","7.90625","-1.53125"
"1573642546729","501","-0.09472656","-0.90722656","0.03515625","0.59375","-0.25","-5.4375"
"1573642546730","502","-0.095703125","-0.92578125","0.103515625","10.84375","-7.53125","-8.9375"
"1573642546730","503","-0.21386719","-1.0195312","0.095703125","9.09375","-5.03125","-12.21875"
"1573642546730","504","-0.15234375","-1.0009766","0.1015625","3.59375","0.15625","-23.21875"
"1573642546731","505","-0.030273438","-1.0400391","0.18261719","1.5625","-6.78125","-36.09375"
"1573642546732","506","-0.099609375","-1.0664062","0.12011719","-0.875","-12.03125","-32.71875"
"1573642546732","507","-0.04296875","-1.0048828","0.07421875","2.65625","-25.84375","-14.3125"
"1573642546732","508","-0.0107421875","-0.90234375","0.11230469","3.40625","-28.03125","-21.375"
"1573642546733","509","-0.045898438","-0.98339844","0.10058594","0.21875","-31.4375","-21.5"
"1573642547130","510","0.0087890625","-0.99902344","0.16796875","0.96875","-17.78125","-20.46875"
"1573642547131","511","-0.01171875","-0.97265625","0.18554688","-1.78125","-22.59375","-22.28125"
"1573642547131","512","-0.0126953125","-0.9550781","0.20507812","5.0625","-13.5625","-16.5625"
"1573642547131","513","0.0","-0.9550781","0.22265625","10.84375","-5.15625","-10.21875"
"1573642547132","514","0.033203125","-0.9472656","0.19824219","15.25","-1.84375","-12.84375"
"1573642547132","515","0.037109375","-0.9345703","0.20214844","18.65625","1.09375","-14.1875"
"1573642547132","516","-0.017578125","-0.9707031","0.17089844","20.75","3.21875","-13.9375"
"1573642547134","517","0.0703125","-0.9707031","0.21582031","22.6875","17.5","-12.78125"
"1573642547134","518","0.1015625","-0.9423828","0.23730469","23.3125","14.5","-13.03125"
"1573642547134","519","0.087890625","-0.97753906","0.2939453","25.5625","2.90625","-8.0"
"1573642547527","520","0.048828125","-0.9550781","0.24707031","19.28125","-2.53125","-6.125"
"1573642547528","521","0.029296875","-0.92871094","0.29003906","19.21875","4.1875","-5.25"
"1573642547528","522","0.09472656","-0.9628906","0.30566406","21.46875","19.625","-10.6875"
"1573642547528","523","0.17285156","-1.0009766","0.3310547","19.625","18.34375","-10.21875"
"1573642547529","524","0.09082031","-0.98339844","0.31933594","9.3125","-9.53125","4.5625"
"1573642547529","525","0.10253906","-0.9013672","0.32617188","8.28125","-14.0625","9.125"
"1573642547529","526","0.09765625","-0.8671875","0.3330078","10.3125","-13.8125","3.59375"
"1573642547529","527","0.078125","-0.9111328","0.31933594","13.78125","-5.09375","-1.3125"
"1573642547530","528","0.16503906","-0.9121094","0.37890625","12.1875","-7.8125","-3.875"
"1573642547530","529","0.049804688","-0.8613281","0.3515625","8.78125","-13.625","1.09375"
"1573642547727","530","0.076171875","-0.9160156","0.36523438","10.40625","-7.78125","-1.0"
"1573642547727","531","0.15039062","-0.9082031","0.38085938","12.5","3.21875","-0.5625"
"1573642547728","532","0.09375","-0.91796875","0.390625","5.46875","-8.9375","0.65625"
"1573642547728","533","0.1171875","-0.8847656","0.3466797","10.0","-4.78125","3.21875"
"1573642547728","534","0.13378906","-0.8779297","0.41601562","7.4375","-4.90625","4.0"
"1573642547728","535","0.07324219","-0.87890625","0.37890625","5.1875","-8.625","1.6875"
"1573642547729","536","0.09863281","-0.89453125","0.41601562","4.375","-3.25","-2.46875"
"1573642547729","537","0.095703125","-0.8886719","0.38867188","3.53125","-2.15625","0.96875"
"1573642547729","538","0.10839844","-0.8886719","0.44726562","4.5625","3.09375","-1.25"
"1573642547729","539","0.059570312","-0.9199219","0.41601562","4.25","5.78125","0.90625"
"1573642548322","540","0.123046875","-0.93066406","0.45214844","0.46875","5.53125","0.15625"
"1573642548324","541","0.080078125","-0.9082031","0.38964844","0.34375","3.03125","3.34375"
"1573642548324","542","0.07714844","-0.92871094","0.48632812","-4.46875","2.90625","2.1875"
"1573642548324","543","0.041015625","-0.86621094","0.39257812","-2.40625","2.3125","0.0"
"1573642548325","544","0.13183594","-0.91503906","0.40039062","-1.34375","5.84375","-2.03125"
"1573642548325","545","0.09765625","-0.8613281","0.41015625","-5.625","2.96875","1.15625"
"1573642548325","546","0.099609375","-0.8564453","0.44335938","-6.0","-1.1875","-0.875"
"1573642548325","547","0.02734375","-0.8984375","0.40039062","-7.40625","-4.40625","-0.4375"
"1573642548326","548","0.033203125","-0.9355469","0.39453125","-2.9375","5.71875","1.875"
"1573642548326","549","0.09082031","-0.875","0.42871094","-4.65625","9.1875","2.1875"
"1573642548522","550","0.087890625","-0.8935547","0.3876953","-2.75","5.40625","2.4375"
"1573642548522","551","0.119140625","-0.8964844","0.3828125","-4.21875","-0.9375","0.03125"
"1573642548523","552","0.078125","-0.8886719","0.37890625","-4.59375","0.59375","0.0"
"1573642548525","553","0.080078125","-0.9121094","0.42871094","-8.6875","-4.65625","-6.125"
"1573642548525","554","0.032226562","-0.89746094","0.40820312","-9.96875","1.03125","-5.15625"
"1573642548525","555","0.055664062","-0.9326172","0.37695312","-10.5625","7.625","-3.6875"
"1573642548526","556","0.08105469","-0.8828125","0.35742188","-10.09375","9.75","-1.34375"
"1573642548526","557","0.14355469","-0.9003906","0.38476562","-11.4375","10.53125","0.15625"
"1573642548526","558","0.061523438","-0.9003906","0.34570312","-8.375","5.28125","4.375"
"1573642548526","559","0.1171875","-0.9013672","0.3779297","-5.5625","7.0625","4.125"
"1573642549315","560","0.12792969","-0.8886719","0.38085938","-4.09375","-0.6875","3.21875"
"1573642549316","561","0.10546875","-0.91503906","0.41308594","-0.875","-4.71875","6.46875"
"1573642549316","562","0.064453125","-0.9199219","0.34179688","-1.59375","-6.0625","0.40625"
"1573642549316","563","0.047851562","-0.8613281","0.40234375","-7.09375","-12.40625","1.3125"
"1573642549316","564","0.080078125","-0.9013672","0.33398438","1.3125","2.78125","0.0"
"1573642549318","565","0.068359375","-0.91015625","0.38183594","-2.40625","2.59375","1.75"
"1573642549318","566","0.052734375","-0.9560547","0.36035156","-3.5","2.96875","6.6875"
"1573642549319","567","-0.00390625","-0.94628906","0.3388672","-8.4375","3.40625","4.0"
"1573642549319","568","0.076171875","-0.9794922","0.359375","-8.5625","9.4375","6.09375"
"1573642549319","569","0.087890625","-0.91503906","0.34570312","-10.6875","1.03125","5.46875"
"1573642550704","570","0.08203125","-0.9033203","0.3408203","-10.5","-3.3125","5.59375"
"1573642550705","571","0.06640625","-0.9111328","0.3359375","-11.125","-3.875","7.25"
"1573642550705","572","0.030273438","-0.88378906","0.32714844","-14.84375","-5.21875","8.46875"
"1573642550705","573","0.047851562","-0.88964844","0.33398438","-15.09375","2.5","9.25"
"1573642550705","574","0.049804688","-0.9003906","0.328125","-15.21875","-4.65625","7.90625"
"1573642550706","575","0.10449219","-0.98046875","0.3359375","-10.6875","3.15625","11.28125"
"1573642550706","576","0.08105469","-0.92578125","0.34277344","-11.90625","-5.03125","15.3125"
"1573642550707","577","0.0146484375","-0.9794922","0.3388672","-10.6875","-11.90625","16.53125"
"1573642550707","578","-0.072265625","-1.0058594","0.203125","-8.0","-1.96875","14.5"
"1573642550708","579","0.03125","-0.9501953","0.30078125","-11.71875","-3.125","19.625"
"1573642550907","580","0.047851562","-0.8828125","0.21679688","-11.25","-9.34375","15.0625"
"1573642550907","581","-0.06933594","-0.9189453","0.24707031","-11.25","-9.21875","3.34375"
"1573642550908","582","-0.0029296875","-1.0458984","0.23339844","-10.5","-4.84375","0.09375"
"1573642550908","583","-0.036132812","-0.9472656","0.22167969","-12.90625","-6.375","2.125"
"1573642550908","584","-0.057617188","-0.91796875","0.25683594","-9.34375","-1.46875","3.34375"
"1573642550908","585","-0.12695312","-0.9267578","0.23535156","-5.75","9.625","-0.625"
"1573642550909","586","-9.765625E-4","-0.9921875","0.25390625","-1.53125","12.6875","0.0"
"1573642550910","587","-0.0703125","-0.94140625","0.24902344","-3.5625","8.09375","5.0"
"1573642550910","588","-0.08300781","-0.97558594","0.25195312","-4.15625","11.34375","4.3125"
"1573642550911","589","-0.03515625","-0.9707031","0.22949219","-2.8125","13.34375","-2.625"
"1573642551103","590","-0.044921875","-0.9794922","0.22363281","-6.0","12.9375","0.34375"
"1573642551103","591","-0.028320312","-1.015625","0.26171875","-7.40625","9.4375","-1.0625"
"1573642551104","592","-0.08105469","-0.9794922","0.265625","-18.6875","11.875","-3.6875"
"1573642551104","593","-0.12109375","-0.96972656","0.18847656","-21.875","16.46875","-6.71875"
"1573642551104","594","-0.024414062","-0.9580078","0.20507812","-19.375","21.96875","-3.875"
"1573642551104","595","-0.0107421875","-0.96484375","0.16699219","-13.75","27.5625","4.125"
"1573642551105","596","-0.021484375","-0.92871094","0.12597656","-6.4375","23.375","15.625"
"1573642551105","597","-0.05078125","-0.9873047","0.13867188","-1.46875","24.21875","15.84375"
"1573642551105","598","-0.072265625","-0.9609375","0.14355469","-3.5","18.46875","9.9375"
"1573642551105","599","-0.041015625","-0.96191406","0.15722656","-1.46875","10.65625","10.1875"
"1573642551501","600","-0.13671875","-0.9892578","0.15917969","-5.75","2.125","-5.75"
"1573642551503","601","-0.13769531","-0.96972656","0.14453125","-6.90625","4.0","-2.28125"
"1573642551503","602","-0.12597656","-0.98535156","0.16699219","-6.4375","1.8125","-4.21875"
"1573642551504","603","-0.16210938","-0.98046875","0.15820312","-5.09375","5.84375","-0.875"
"1573642551504","604","-0.15039062","-0.9970703","0.140625","-4.34375","10.65625","1.03125"
"1573642551504","605","-0.09082031","-0.96972656","0.15820312","-4.90625","9.1875","-2.53125"
"1573642551505","606","-0.11816406","-0.96484375","0.12792969","-3.125","7.84375","-1.59375"
"1573642551505","607","-0.125","-0.98535156","0.12207031","-1.71875","6.8125","1.6875"
"1573642551509","608","-0.0859375","-0.99316406","0.14257812","-2.9375","4.6875","-1.25"
"1573642551509","609","-0.13183594","-0.9824219","0.12988281","-4.03125","-1.0625","-1.78125"
"1573642551898","610","-0.14941406","-0.984375","0.11816406","-2.09375","3.84375","0.03125"
"1573642551899","611","-0.13085938","-0.9921875","0.14550781","-1.46875","5.34375","2.65625"
"1573642551899","612","-0.16601562","-0.9736328","0.13964844","-2.59375","6.21875","2.96875"
"1573642551900","613","-0.109375","-0.96972656","0.14941406","-0.375","7.5","1.4375"
"1573642551901","614","-0.091796875","-0.9873047","0.08886719","-0.4375","3.84375","0.03125"
"1573642551901","615","-0.11035156","-1.0039062","0.16796875","-3.1875","2.0625","0.53125"
"1573642551902","616","-0.1328125","-0.9609375","0.109375","-2.09375","3.84375","-3.4375"
"1573642551902","617","-0.10644531","-0.96875","0.12597656","-1.125","0.84375","-2.46875"
"1573642551902","618","-0.12792969","-0.9941406","0.13574219","0.65625","3.09375","-0.6875"
"1573642551902","619","-0.14160156","-0.9785156","0.12597656","-1.90625","0.90625","-1.96875"
"1573642552095","620","-0.12695312","-0.96191406","0.13183594","0.09375","3.21875","-1.78125"
"1573642552095","621","-0.123046875","-0.96484375","0.12011719","2.65625","3.21875","-1.25"
"1573642552096","622","-0.13574219","-0.9970703","0.13769531","1.15625","1.5","-1.25"
"1573642552096","623","-0.1171875","-0.9892578","0.13671875","0.0","1.8125","-4.59375"
"1573642552096","624","-0.13574219","-0.9941406","0.119140625","-0.5625","1.375","-3.125"
"1573642552097","625","-0.115234375","-0.9794922","0.15332031","-0.125","3.46875","-3.1875"
"1573642552097","626","-0.12988281","-0.9746094","0.12695312","-1.0","2.0625","-3.375"
"1573642552097","627","-0.14160156","-0.97558594","0.12695312","0.0","2.71875","-2.8125"
"1573642552097","628","-0.12988281","-0.9873047","0.12988281","-1.0625","5.53125","-4.90625"
"1573642552098","629","-0.11035156","-0.9921875","0.14648438","-0.5625","4.75","-5.8125"
"1573642552297","630","-0.13671875","-0.9873047","0.13867188","-1.71875","5.40625","-3.75"
"1573642552298","631","-0.111328125","-0.97265625","0.13867188","0.46875","5.0","-4.53125"
"1573642552298","632","-0.115234375","-0.96777344","0.13085938","2.0625","4.6875","0.34375"
"1573642552298","633","-0.15234375","-1.0009766","0.12109375","-1.65625","5.0625","1.3125"
"1573642552299","634","-0.07128906","-0.9902344","0.12890625","-2.46875","3.53125","-8.75"
"1573642552299","635","-0.15429688","-0.97558594","0.15625","-4.59375","9.09375","-5.8125"
"1573642552300","636","-0.11816406","-0.9941406","0.12792969","-2.46875","7.75","-4.78125"
"1573642552300","637","0.0068359375","-0.9501953","0.15332031","-0.125","1.03125","-14.0"
"1573642552300","638","-0.12890625","-0.95703125","0.10546875","-3.0625","-1.71875","-12.40625"
"1573642552301","639","-0.15234375","-0.97558594","0.111328125","2.0","6.09375","-4.34375"
"1573642552695","640","-0.00390625","-0.93847656","0.11328125","3.59375","6.09375","-7.9375"
"1573642552696","641","-0.07324219","-0.93652344","0.099609375","-0.4375","0.0","-17.09375"
"1573642552698","642","-0.072265625","-1.09375","0.16992188","-2.28125","1.9375","-31.21875"
"1573642552698","643","-9.765625E-4","-1.0966797","0.14746094","-2.875","-2.8125","-35.65625"
"1573642552699","644","-9.765625E-4","-0.9941406","0.12988281","1.28125","-11.375","-1.25"
"1573642552699","645","-0.038085938","-0.8261719","0.12890625","3.84375","-4.46875","-6.90625"
"1573642552700","646","-0.021484375","-0.99609375","0.11328125","1.3125","-3.0","-17.28125"
"1573642552700","647","0.072265625","-1.0712891","0.16699219","2.59375","-3.6875","-17.28125"
"1573642552700","648","0.051757812","-0.9589844","0.14453125","1.09375","-12.34375","-7.9375"
"1573642552701","649","0.0029296875","-0.9472656","0.17773438","6.5","-9.0625","-2.6875"
"1573642553093","650","-0.0048828125","-0.95410156","0.18652344","9.09375","-1.125","-5.375"
"1573642553093","651","0.05859375","-0.9902344","0.19726562","10.0625","1.09375","-8.1875"
"1573642553094","652","0.022460938","-0.9785156","0.18945312","7.75","-1.71875","-6.125"
"1573642553094","653","0.0078125","-0.95703125","0.19238281","9.875","-0.5625","-4.34375"
"1573642553094","654","0.0146484375","-0.9511719","0.19628906","8.40625","-1.53125","-9.90625"
"1573642553094","655","0.009765625","-0.96875","0.20703125","10.46875","3.65625","-12.21875"
"1573642553095","656","0.06933594","-0.96875","0.21679688","12.3125","-2.53125","-13.625"
"1573642553095","657","0.08203125","-0.98046875","0.20996094","12.625","2.375","-8.5"
"1573642553095","658","0.08886719","-0.9824219","0.21386719","10.65625","-2.40625","-6.78125"
"1573642553095","659","0.0625","-0.98046875","0.20898438","9.6875","0.90625","-5.15625"
"1573642553491","660","0.08984375","-0.9550781","0.21484375","9.03125","0.46875","-5.03125"
"1573642553493","661","0.13769531","-0.94921875","0.23535156","9.75","-3.25","-4.84375"
"1573642553493","662","0.12988281","-0.95214844","0.2548828","7.4375","-8.6875","-3.875"
"1573642553493","663","0.080078125","-0.9355469","0.25390625","7.4375","-9.21875","-3.0625"
"1573642553494","664","0.051757812","-0.95214844","0.24414062","3.9375","-6.84375","-5.5625"
"1573642553494","665","0.10449219","-0.94628906","0.26464844","5.78125","0.21875","-6.375"
"1573642553494","666","0.14355469","-0.9277344","0.28515625","4.9375","-2.9375","-2.6875"
"1573642553494","667","0.11328125","-0.93359375","0.27246094","7.4375","-2.21875","-0.8125"
"1573642553495","668","0.13867188","-0.9355469","0.30371094","5.71875","-3.0625","0.15625"
"1573642553495","669","0.099609375","-0.92578125","0.2861328","4.0625","-2.21875","0.40625"
"1573642554085","670","0.1328125","-0.92578125","0.31835938","3.34375","-0.3125","-1.71875"
"1573642554085","671","0.095703125","-0.9169922","0.30273438","-0.1875","-0.5","-1.125"
"1573642554086","672","0.06347656","-0.96777344","0.30078125","2.0625","4.375","0.40625"
"1573642554087","673","0.12890625","-0.9345703","0.3154297","-0.125","3.84375","1.8125"
"1573642554087","674","0.11035156","-0.93359375","0.29785156","-1.40625","-1.1875","2.4375"
"1573642554088","675","0.07128906","-0.9355469","0.3330078","0.28125","2.65625","0.53125"
"1573642554088","676","0.076171875","-0.94921875","0.27929688","-0.125","1.9375","2.96875"
"1573642554088","677","0.048828125","-0.9423828","0.3251953","-0.625","6.75","0.65625"
"1573642554089","678","0.046875","-0.9433594","0.26953125","-0.4375","10.3125","2.65625"
"1573642554089","679","0.09082031","-0.9580078","0.30664062","-2.6875","10.53125","2.0"
"1573642554286","680","0.080078125","-0.9716797","0.2998047","-5.03125","6.9375","2.96875"
"1573642554286","681","0.08203125","-0.9589844","0.30078125","-6.0","5.71875","2.4375"
"1573642554287","682","0.07128906","-0.91796875","0.2998047","-4.28125","2.125","1.5625"
"1573642554287","683","0.08300781","-0.9042969","0.28125","1.15625","0.40625","2.0625"
"1573642554287","684","0.125","-0.90722656","0.29589844","-0.6875","-1.46875","0.34375"
"1573642554288","685","0.0859375","-0.93847656","0.2890625","-0.0625","-2.21875","-0.375"
"1573642554288","686","0.060546875","-0.9404297","0.29589844","-2.09375","-2.59375","-2.59375"
"1573642554289","687","0.09765625","-0.9375","0.30566406","-0.8125","0.96875","-3.875"
"1573642554289","688","0.08496094","-0.9345703","0.29882812","-1.96875","-0.5625","-1.90625"
"1573642554289","689","0.08984375","-0.93652344","0.30859375","-1.90625","-0.5","-1.84375"
"1573642555078","690","0.07519531","-0.93652344","0.29882812","-4.28125","-0.75","-2.875"
"1573642555079","691","0.07910156","-0.9482422","0.3046875","-4.28125","3.65625","-4.15625"
"1573642555079","692","0.08984375","-0.9277344","0.30371094","-5.625","3.28125","-5.375"
"1573642555080","693","0.09082031","-0.9326172","0.3017578","-5.15625","0.46875","-2.28125"
"1573642555080","694","0.06738281","-0.9453125","0.29882812","-6.90625","1.75","-0.5625"
"1573642555080","695","0.07910156","-0.9326172","0.28222656","-3.6875","3.15625","-2.03125"
"1573642555081","696","0.08496094","-0.94433594","0.29492188","-5.5","2.0","0.03125"
"1573642555082","697","0.06738281","-0.9589844","0.25878906","-3.90625","4.875","0.21875"
"1573642555083","698","0.095703125","-0.9472656","0.296875","-4.71875","4.75","-0.1875"
"1573642555083","699","0.080078125","-0.93652344","0.25683594","-3.75","3.53125","0.03125"
"1573642555275","700","0.083984375","-0.95996094","0.28125","-4.21875","0.90625","-0.75"
"1573642555275","701","0.076171875","-0.9560547","0.25976562","-3.0625","2.96875","1.03125"
"1573642555276","702","0.08984375","-0.94628906","0.28710938","-0.75","5.34375","1.3125"
"1573642555276","703","0.11230469","-0.91503906","0.29003906","1.375","2.4375","2.1875"
"1573642555276","704","0.11328125","-0.9199219","0.31054688","1.21875","0.46875","-1.25"
"1573642555276","705","0.07324219","-0.94433594","0.24902344","2.375","-0.625","-3.96875"
"1573642555277","706","0.107421875","-0.9394531","0.34179688","1.375","-0.3125","-2.09375"
"1573642555277","707","0.06933594","-0.91015625","0.2861328","6.03125","2.0","-2.6875"
"1573642555277","708","0.10253906","-0.93066406","0.32617188","7.4375","-2.875","-1.3125"
"1573642555278","709","0.051757812","-0.92089844","0.30664062","7.75","-2.28125","0.84375"
"1573642555480","710","0.059570312","-0.9550781","0.3203125","2.90625","2.0","-1.78125"
"1573642555482","711","0.059570312","-0.9746094","0.3017578","-0.125","4.6875","1.5"
"1573642555483","712","0.078125","-0.9433594","0.3095703","-1.84375","6.5","1.3125"
"1573642555483","713","0.076171875","-0.9628906","0.28222656","-3.875","5.0","5.46875"
"1573642555483","714","0.09667969","-0.96484375","0.3076172","-6.71875","1.625","9.03125"
"1573642555484","715","0.08105469","-0.90234375","0.28515625","-8.3125","-3.0625","9.03125"
"1573642555484","716","0.09082031","-0.95214844","0.28515625","-8.0625","2.125","9.8125"
"1573642555484","717","0.043945312","-0.92578125","0.3095703","-12.65625","-2.15625","9.6875"
"1573642555484","718","0.053710938","-0.9091797","0.2734375","-9.96875","5.84375","10.1875"
"1573642555485","719","0.072265625","-0.95214844","0.28515625","-14.53125","4.75","6.09375"
"1573642555875","720","0.05078125","-0.9638672","0.27929688","-16.96875","6.5","6.5625"
"1573642555876","721","0.060546875","-0.9589844","0.2763672","-19.4375","8.09375","9.03125"
"1573642555876","722","-0.034179688","-1.0302734","0.22460938","-16.0","11.09375","6.6875"
"1573642555876","723","0.038085938","-0.99316406","0.26367188","-15.21875","19.8125","12.5"
"1573642555877","724","0.06542969","-0.8730469","0.24511719","-12.34375","9.09375","17.0"
"1573642555877","725","-0.07421875","-0.9169922","0.21386719","-7.15625","10.0","12.0625"
"1573642555877","726","-0.0703125","-1.0097656","0.21679688","-7.78125","14.3125","4.1875"
"1573642555877","727","-0.026367188","-0.984375","0.21289062","-8.1875","17.6875","5.46875"
"1573642555877","728","-0.0107421875","-0.9404297","0.18261719","-7.34375","13.09375","8.46875"
"1573642555878","729","-0.044921875","-0.9638672","0.18066406","-4.53125","13.21875","10.46875"
"1573642556272","730","-0.05859375","-1.0048828","0.18945312","-3.3125","15.0","15.96875"
"1573642556273","731","-0.08886719","-0.98535156","0.18652344","-6.0","14.875","16.09375"
"1573642556273","732","-0.083984375","-0.9892578","0.17773438","-6.78125","14.6875","17.4375"
"1573642556274","733","-0.06933594","-1.0019531","0.1875","-8.1875","13.09375","14.875"
"1573642556274","734","-0.10253906","-0.9863281","0.16796875","-10.40625","11.21875","18.0625"
"1573642556274","735","-0.099609375","-0.98339844","0.1796875","-12.09375","12.3125","13.40625"
"1573642556274","736","-0.068359375","-0.9921875","0.16601562","-13.3125","6.875","5.40625"
"1573642556275","737","-0.09082031","-0.98046875","0.15527344","-13.625","-0.5","10.1875"
"1573642556275","738","-0.13183594","-0.9453125","0.15039062","-11.5","-4.96875","11.40625"
"1573642556275","739","-0.16699219","-0.9707031","0.13183594","-11.0625","-6.53125","10.59375"
"1573642556673","740","-0.22363281","-0.98046875","0.13476562","-9.78125","0.03125","7.625"
"1573642556673","741","-0.17480469","-0.97558594","0.125","-7.59375","4.0","8.84375"
"1573642556673","742","-0.17578125","-0.96972656","0.140625","-9.34375","5.34375","11.03125"
"1573642556674","743","-0.20800781","-0.92871094","0.11425781","-8.6875","4.5","8.59375"
"1573642556674","744","-0.1953125","-0.9511719","0.1328125","-6.84375","7.625","4.5625"
"1573642556675","745","-0.20214844","-0.9814453","0.107421875","-6.71875","5.53125","-0.5"
"1573642556676","746","-0.19824219","-0.99609375","0.09765625","-6.71875","4.9375","-1.71875"
"1573642556676","747","-0.20019531","-0.9511719","0.115234375","-4.28125","3.15625","2.25"
"1573642556676","748","-0.20117188","-0.9658203","0.11035156","-6.3125","2.59375","1.375"
"1573642556676","749","-0.18847656","-0.9765625","0.064453125","-5.3125","0.46875","-3.25"
"1573642557266","750","-0.18554688","-0.96972656","0.0859375","-6.375","-5.8125","-1.46875"
"1573642557266","751","-0.19726562","-0.9609375","0.09765625","-2.59375","0.34375","0.21875"
"1573642557266","752","-0.23046875","-0.9892578","0.09667969","-3.125","-1.25","1.6875"
"1573642557267","753","-0.20703125","-0.9736328","0.13085938","-1.65625","4.8125","-1.125"
"1573642557267","754","-0.20703125","-0.95996094","0.11816406","-0.0625","4.5","2.0"
"1573642557267","755","-0.19335938","-0.9716797","0.11230469","0.28125","5.78125","0.46875"
"1573642557268","756","-0.16699219","-0.9785156","0.11816406","0.53125","4.875","-0.9375"
"1573642557269","757","-0.18457031","-0.9785156","0.09667969","-1.0625","0.09375","0.46875"
"1573642557269","758","-0.18554688","-0.96875","0.09082031","-2.9375","-2.21875","-1.46875"
"1573642557270","759","-0.1875","-0.9794922","0.12792969","-2.40625","-4.15625","-2.625"
"1573642557665","760","-0.21777344","-0.9736328","0.08203125","-1.0625","1.4375","1.3125"
"1573642557665","761","-0.18945312","-0.9628906","0.095703125","-0.125","-1.96875","2.65625"
"1573642557666","762","-0.19335938","-0.96777344","0.107421875","3.40625","4.5625","-0.3125"
"1573642557666","763","-0.19824219","-0.9941406","0.111328125","0.15625","2.125","-1.25"
"1573642557666","764","-0.19628906","-0.97265625","0.11621094","-0.25","1.75","-3.125"
"1573642557666","765","-0.19335938","-0.9824219","0.11816406","-1.46875","0.15625","-3.4375"
"1573642557667","766","-0.20214844","-0.9658203","0.10839844","-0.6875","0.59375","-4.21875"
"1573642557667","767","-0.20019531","-0.97753906","0.115234375","-0.375","3.28125","-4.53125"
"1573642557667","768","-0.19628906","-0.9707031","0.107421875","-0.8125","2.59375","-5.21875"
"1573642557668","769","-0.19824219","-0.9736328","0.10253906","-0.625","4.0625","-4.46875"
"1573642557863","770","-0.18554688","-0.9667969","0.1015625","-1.0625","2.25","-4.78125"
"1573642557863","771","-0.19042969","-0.97265625","0.12988281","-1.71875","3.84375","-3.75"
"1573642557863","772","-0.18847656","-0.96972656","0.1015625","0.78125","1.875","-2.625"
"1573642557863","773","-0.24023438","-0.9628906","0.09082031","5.125","3.65625","2.65625"
"1573642557864","774","-0.20117188","-0.98339844","0.12109375","3.59375","12.5","4.9375"
"1573642557864","775","-0.14648438","-0.94433594","0.109375","6.5625","6.8125","-0.75"
"1573642557864","776","-0.19042969","-0.9638672","0.119140625","3.59375","-2.03125","-2.40625"
"1573642557864","777","-0.22460938","-1.0","0.10058594","4.125","2.0","-0.4375"
"1573642557865","778","-0.15039062","-0.99121094","0.15625","4.25","1.3125","-1.65625"
"1573642557865","779","-0.17480469","-0.99121094","0.09667969","-3.90625","-11.71875","-10.21875"
"1573642558259","780","-0.12792969","-0.9404297","0.1015625","-2.03125","-23.625","-16.6875"
"1573642558261","781","-0.23242188","-0.8671875","0.07324219","-4.15625","-31.5625","-23.5"
"1573642558262","782","-0.21191406","-1.0361328","0.20605469","-16.3125","-5.75","-37.75"
"1573642558262","783","0.08105469","-1.3388672","0.31347656","-12.46875","-27.46875","-106.71875"
"1573642558262","784","-0.028320312","-1.0263672","0.09863281","-22.65625","-35.40625","-25.46875"
"1573642558262","785","-0.103515625","-0.7558594","0.14453125","-8.0625","-20.875","-6.65625"
"1573642558263","786","-0.0390625","-0.77246094","0.059570312","-23.28125","-12.78125","-49.5625"
"1573642558263","787","0.15136719","-1.2568359","0.12011719","-24.3125","-26.8125","-69.40625"
"1573642558263","788","0.12695312","-1.0419922","0.07324219","-21.75","-39.75","-33.40625"
"1573642558263","789","0.13183594","-0.8886719","0.028320312","-15.875","-41.34375","-18.09375"
