"# PR data"
"# Start time: 20191113T105714"
"# Subject: sharan"
"# Activity type: Step ups"
"# Correctness: Incorrect"
"# Notes: "
""
"timestamp","seq","accel_x","accel_y","accel_z","gyro_x","gyro_y","gyro_z"
"1573642634977","0","0.21484375","-0.9873047","-0.12402344","-3.5625","3.84375","0.65625"
"1573642634977","1","0.2109375","-0.9609375","-0.123046875","-3.6875","4.9375","-0.875"
"1573642634978","2","0.22851562","-0.9824219","-0.11328125","-3.75","5.28125","0.65625"
"1573642634978","3","0.22265625","-0.98339844","-0.12207031","-2.8125","5.59375","0.0"
"1573642634978","4","0.22558594","-0.96972656","-0.13085938","-3.1875","3.9375","0.53125"
"1573642634978","5","0.22363281","-0.9736328","-0.12890625","-3.375","4.0","0.40625"
"1573642634979","6","0.21484375","-0.9765625","-0.12988281","-2.8125","2.5","0.15625"
"1573642634979","7","0.20898438","-0.96875","-0.12597656","-2.28125","2.59375","-0.3125"
"1573642634980","8","0.22070312","-0.9716797","-0.11621094","-2.03125","0.90625","0.28125"
"1573642634980","9","0.20703125","-0.9716797","-0.12890625","0.34375","3.65625","0.03125"
"1573642635375","10","0.20996094","-0.9658203","-0.123046875","-1.40625","-1.3125","-0.6875"
"1573642635376","11","0.22363281","-0.9736328","-0.12109375","1.21875","0.15625","-0.125"
"1573642635376","12","0.21679688","-0.9707031","-0.12109375","-0.0625","-2.9375","0.0"
"1573642635377","13","0.22460938","-0.96777344","-0.13183594","0.40625","-2.53125","-1.1875"
"1573642635377","14","0.22363281","-0.9785156","-0.119140625","-0.4375","-2.59375","-2.21875"
"1573642635377","15","0.21289062","-0.9794922","-0.12011719","0.15625","-2.09375","-2.34375"
"1573642635377","16","0.20507812","-0.98046875","-0.12695312","1.15625","0.90625","-1.53125"
"1573642635378","17","0.20996094","-0.9736328","-0.1171875","1.8125","2.65625","-1.0"
"1573642635378","18","0.21582031","-0.97265625","-0.11230469","1.375","2.90625","-1.25"
"1573642635378","19","0.22558594","-0.9707031","-0.125","0.96875","3.34375","-1.40625"
"1573642635772","20","0.21191406","-0.9658203","-0.12890625","-0.1875","-1.78125","-1.3125"
"1573642635773","21","0.21679688","-0.9902344","-0.10253906","1.8125","2.5625","-0.125"
"1573642635773","22","0.20898438","-0.96191406","-0.107421875","1.09375","-0.9375","-1.96875"
"1573642635773","23","0.20507812","-0.96777344","-0.09082031","3.09375","0.03125","0.21875"
"1573642635774","24","0.17285156","-0.9658203","-0.12890625","2.71875","1.6875","1.5"
"1573642635775","25","0.23535156","-0.99121094","-0.13574219","4.6875","2.5","0.65625"
"1573642635775","26","0.21777344","-0.9873047","-0.125","4.6875","-0.1875","2.5"
"1573642635775","27","0.20605469","-0.9716797","-0.10546875","4.5","-3.0","2.0"
"1573642635776","28","0.21386719","-1.0058594","-0.119140625","5.0","-5.6875","0.40625"
"1573642635776","29","0.21875","-0.9941406","-0.09472656","3.71875","-11.0","2.5"
"1573642636367","30","0.24023438","-0.96777344","-0.099609375","3.84375","-17.90625","3.65625"
"1573642636367","31","0.25390625","-0.98046875","-0.099609375","5.34375","-16.5","1.03125"
"1573642636367","32","0.19921875","-0.98046875","-0.14160156","6.75","-22.15625","0.84375"
"1573642636368","33","0.20019531","-0.9814453","-0.0859375","4.0625","-19.71875","-1.90625"
"1573642636368","34","0.14453125","-0.9765625","-0.11816406","6.625","-17.46875","-6.59375"
"1573642636368","35","0.18164062","-0.984375","-0.07324219","8.40625","-11.25","-6.4375"
"1573642636369","36","0.1875","-0.96191406","-0.06933594","9.3125","-7.15625","-5.25"
"1573642636369","37","0.19335938","-0.93652344","-0.07519531","14.4375","-0.4375","-5.5"
"1573642636370","38","0.27734375","-0.9082031","-0.057617188","19.15625","-5.375","-4.96875"
"1573642636370","39","0.3359375","-0.90234375","0.00390625","22.875","-11.0","-5.625"
"1573642636568","40","0.2685547","-0.9970703","-0.029296875","26.09375","-14.59375","-7.34375"
"1573642636569","41","0.27539062","-1.0410156","0.021484375","23.125","-15.21875","-2.8125"
"1573642636569","42","0.20996094","-0.9873047","0.0146484375","21.34375","-12.40625","6.15625"
"1573642636569","43","0.23925781","-0.9423828","0.029296875","23.65625","-7.34375","-1.1875"
"1573642636570","44","0.24023438","-0.9746094","9.765625E-4","27.625","2.96875","-2.15625"
"1573642636570","45","0.25585938","-1.0195312","0.09667969","19.34375","0.84375","3.34375"
"1573642636570","46","0.22558594","-0.96484375","0.026367188","15.3125","9.5","2.90625"
"1573642636570","47","0.2841797","-0.9375","0.060546875","16.40625","8.90625","5.34375"
"1573642636571","48","0.18359375","-0.9501953","0.04296875","16.78125","4.5625","6.21875"
"1573642636572","49","0.23828125","-0.97753906","0.1640625","15.96875","5.78125","8.71875"
"1573642636966","50","0.15722656","-1.0146484","0.125","8.96875","-0.75","3.21875"
"1573642636966","51","0.17480469","-0.98535156","0.13085938","9.375","5.34375","12.0625"
"1573642636966","52","0.20019531","-0.9267578","0.13085938","9.125","12.75","10.71875"
"1573642636967","53","0.20507812","-0.9238281","0.13964844","9.375","6.875","7.90625"
"1573642636967","54","0.19628906","-0.9638672","0.16308594","7.375","6.8125","6.875"
"1573642636967","55","0.140625","-0.9716797","0.11425781","5.78125","0.0","9.5625"
"1573642636967","56","0.12792969","-0.96972656","0.15234375","4.75","10.25","10.59375"
"1573642636967","57","0.17675781","-0.96191406","0.15917969","7.25","12.75","10.59375"
"1573642636968","58","0.20410156","-0.91015625","0.11425781","9.8125","15.3125","12.875"
"1573642636968","59","0.16113281","-0.9423828","0.16503906","13.15625","3.21875","15.5"
"1573642637363","60","0.14550781","-0.9248047","0.16503906","17.4375","6.5625","17.875"
"1573642637364","61","0.14355469","-0.9658203","0.23828125","20.375","-1.53125","19.8125"
"1573642637365","62","0.037109375","-0.93652344","0.20410156","23.90625","0.78125","21.59375"
"1573642637365","63","0.016601562","-1.0205078","0.18652344","28.3125","17.1875","23.3125"
"1573642637365","64","0.14160156","-0.9609375","0.24511719","23.90625","22.03125","22.125"
"1573642637366","65","0.11816406","-0.9326172","0.26171875","17.875","7.25","16.90625"
"1573642637366","66","-0.025390625","-0.98535156","0.2578125","11.59375","5.78125","10.71875"
"1573642637366","67","0.00390625","-0.98828125","0.29492188","11.28125","16.84375","14.625"
"1573642637366","68","-0.028320312","-0.95214844","0.31054688","8.15625","17.1875","16.65625"
"1573642637366","69","0.037109375","-0.921875","0.3095703","13.84375","21.65625","10.59375"
"1573642637958","70","-0.025390625","-1.0566406","0.33789062","6.15625","6.28125","5.90625"
"1573642637959","71","-0.09375","-1.0576172","0.4482422","0.65625","14.3125","1.75"
"1573642637959","72","-0.0546875","-1.1103516","0.46875","2.5","22.5","3.90625"
"1573642637960","73","0.083984375","-0.91015625","0.4296875","9.03125","10.71875","5.21875"
"1573642637961","74","-0.068359375","-0.89746094","0.39746094","4.875","-9.59375","-8.0"
"1573642637961","75","-0.15234375","-0.99316406","0.38671875","-1.0","-2.75","-8.375"
"1573642637961","76","-0.08496094","-0.93359375","0.45214844","-7.53125","10.96875","2.0625"
"1573642637961","77","0.036132812","-0.875","0.4814453","-5.09375","2.59375","2.71875"
"1573642637962","78","-0.10644531","-0.9423828","0.3828125","-5.8125","-4.09375","-13.25"
"1573642637962","79","0.00390625","-1.0244141","0.5019531","-10.625","8.96875","-17.96875"
"1573642638157","80","0.0126953125","-1.0009766","0.5078125","-15.875","0.0","-10.21875"
"1573642638158","81","-0.021484375","-0.98046875","0.41796875","-12.84375","-6.4375","-15.53125"
"1573642638158","82","-0.030273438","-0.96777344","0.35839844","-10.9375","-2.46875","-19.25"
"1573642638158","83","-0.0029296875","-0.9501953","0.32128906","-16.125","-7.59375","-23.5625"
"1573642638158","84","-0.001953125","-0.88183594","0.29785156","-12.78125","-5.5","-13.5625"
"1573642638160","85","-0.07519531","-0.8574219","0.20605469","-13.375","-6.59375","-14.125"
"1573642638160","86","-0.001953125","-0.90722656","0.2421875","-13.9375","10.3125","-24.5625"
"1573642638160","87","0.0078125","-0.7519531","0.22460938","-13.75","1.375","-13.5625"
"1573642638161","88","-0.0107421875","-0.7949219","0.23632812","-7.78125","20.625","-3.5"
"1573642638161","89","0.032226562","-0.85839844","0.18652344","-7.40625","20.5","-9.46875"
"1573642638756","90","0.09765625","-0.8798828","0.23535156","-12.15625","17.6875","-8.1875"
"1573642638757","91","0.076171875","-0.875","0.22070312","-11.5625","2.96875","-4.84375"
"1573642638757","92","0.028320312","-0.89453125","0.19238281","-11.625","-3.90625","-4.09375"
"1573642638757","93","0.083984375","-0.8808594","0.19433594","-14.78125","-10.875","-6.0"
"1573642638757","94","0.15820312","-0.9873047","0.20703125","-13.1875","-17.15625","-11.0"
"1573642638758","95","0.07519531","-1.0712891","0.2607422","-16.6875","-9.96875","-14.84375"
"1573642638758","96","0.12402344","-1.0615234","0.23144531","-17.53125","-11.90625","-10.75"
"1573642638759","97","0.13964844","-0.90625","0.26953125","-20.03125","-20.84375","-12.78125"
"1573642638760","98","0.099609375","-0.8544922","0.19140625","-13.03125","-20.34375","-13.5625"
"1573642638760","99","0.12109375","-0.9658203","0.16894531","-1.53125","-14.96875","-10.40625"
"1573642638952","100","0.091796875","-1.0068359","0.171875","-4.03125","-9.15625","-2.28125"
"1573642638952","101","0.18261719","-0.9560547","0.15917969","-1.59375","-6.65625","-6.125"
"1573642638953","102","0.21582031","-0.9111328","0.14257812","-2.21875","-22.125","-7.40625"
"1573642638953","103","0.109375","-0.9238281","0.16894531","4.875","-20.15625","5.53125"
"1573642638953","104","0.12207031","-0.9375","0.14941406","7.84375","-6.78125","8.90625"
"1573642638953","105","0.08203125","-0.9199219","0.15039062","11.65625","-1.46875","6.5625"
"1573642638954","106","0.15917969","-0.94140625","0.1875","13.03125","4.6875","12.0625"
"1573642638954","107","0.18652344","-0.9248047","0.24804688","17.5","2.65625","18.71875"
"1573642638954","108","0.087890625","-0.8779297","0.23730469","13.53125","1.3125","21.21875"
"1573642638955","109","0.049804688","-0.9277344","0.23632812","15.3125","17.6875","10.46875"
"1573642639352","110","0.17480469","-0.9824219","0.23925781","18.90625","20.5625","-6.96875"
"1573642639353","111","0.16699219","-1.0185547","0.25097656","14.3125","-0.125","-5.03125"
"1573642639353","112","0.09375","-1.0341797","0.2548828","14.9375","4.6875","5.125"
"1573642639353","113","0.14257812","-0.93652344","0.28125","16.53125","2.25","12.0625"
"1573642639353","114","0.15039062","-0.9707031","0.34179688","12.375","5.34375","-5.3125"
"1573642639354","115","0.08203125","-0.9794922","0.2783203","4.4375","3.90625","-5.875"
"1573642639354","116","0.16699219","-0.87402344","0.32714844","3.59375","2.78125","8.15625"
"1573642639354","117","0.13476562","-0.83691406","0.33984375","2.0625","-7.03125","1.625"
"1573642639354","118","0.095703125","-0.8564453","0.34765625","-5.21875","-8.9375","0.0"
"1573642639354","119","0.16894531","-0.8339844","0.36132812","-7.59375","-13.25","1.625"
"1573642639750","120","0.09082031","-0.82128906","0.38671875","-11.6875","-15.34375","6.46875"
"1573642639752","121","-0.038085938","-0.8701172","0.3388672","-8.5","-8.0","6.28125"
"1573642639752","122","0.024414062","-0.79785156","0.31933594","-11.4375","1.625","15.625"
"1573642639752","123","0.015625","-0.6972656","0.24511719","-21.6875","-9.34375","14.625"
"1573642639753","124","-0.029296875","-0.6308594","0.33007812","-21.125","-3.5625","16.84375"
"1573642639753","125","-0.043945312","-0.71972656","0.27539062","-27.84375","10.3125","9.25"
"1573642639753","126","0.048828125","-0.8222656","0.30664062","-22.0625","6.75","6.875"
"1573642639754","127","0.0048828125","-1.1923828","0.30859375","-24.3125","1.5625","-8.5625"
"1573642639754","128","-0.10449219","-1.78125","0.26953125","-22.84375","18.0","-29.0625"
"1573642639754","129","0.25976562","-1.3945312","0.111328125","-9.15625","7.1875","11.8125"
"1573642640145","130","0.28125","-0.9716797","0.07519531","-1.90625","4.75","18.0625"
"1573642640145","131","-0.0078125","-1.2304688","-0.021484375","13.21875","-4.15625","-3.75"
"1573642640146","132","-0.061523438","-1.1865234","0.14355469","1.5","34.15625","-7.46875"
"1573642640147","133","0.18945312","-0.7939453","0.00390625","13.53125","21.65625","22.5625"
"1573642640148","134","0.07128906","-0.71484375","0.16210938","23.375","29.15625","11.03125"
"1573642640148","135","0.10253906","-0.96875","0.10253906","9.375","6.34375","-26.0625"
"1573642640148","136","0.15625","-1.1767578","0.14257812","-0.375","-4.03125","-27.46875"
"1573642640148","137","0.11621094","-1.0048828","0.15625","6.09375","-6.3125","13.28125"
"1573642640149","138","0.033203125","-0.88378906","0.17285156","2.65625","-1.0625","16.21875"
"1573642640149","139","0.052734375","-0.9609375","0.19726562","6.28125","7.6875","7.125"
"1573642640742","140","0.026367188","-1.0136719","0.18652344","-2.625","18.0","-1.90625"
"1573642640743","141","0.10058594","-1.0195312","0.23535156","-3.96875","16.34375","3.21875"
"1573642640743","142","0.080078125","-0.96484375","0.16992188","-7.46875","9.4375","7.8125"
"1573642640743","143","-0.0126953125","-1.0478516","0.20019531","-20.28125","-0.9375","10.59375"
"1573642640744","144","-0.115234375","-0.9091797","0.2421875","-30.46875","-2.875","1.8125"
"1573642640745","145","0.018554688","-1.1523438","0.34179688","-19.65625","-7.28125","-36.75"
"1573642640745","146","-0.00390625","-0.8808594","0.19726562","-29.625","20.5625","-7.71875"
"1573642640746","147","0.052734375","-0.8935547","0.07324219","-15.625","5.84375","14.5"
"1573642640746","148","0.21191406","-0.6894531","0.20800781","-10.03125","-4.84375","-42.75"
"1573642640746","149","0.09765625","-1.328125","0.1171875","-19.71875","-18.3125","-47.875"
"1573642640940","150","0.061523438","-1.0498047","0.13476562","-23.9375","-14.0","-13.4375"
"1573642640940","151","0.18261719","-0.81152344","0.09472656","-8.375","-10.6875","1.875"
"1573642640941","152","0.2109375","-0.86035156","0.12597656","-5.03125","-20.34375","-22.40625"
"1573642640941","153","0.109375","-1.0351562","0.044921875","-10.03125","-27.125","-22.15625"
"1573642640941","154","0.0546875","-1.0439453","0.080078125","-9.59375","-11.5625","-7.875"
"1573642640941","155","0.16894531","-0.93066406","0.08886719","-5.3125","2.59375","3.40625"
"1573642640942","156","0.13183594","-0.9628906","0.09765625","-3.875","3.28125","2.0"
"1573642640943","157","0.10839844","-0.9951172","0.01171875","-1.34375","15.0","-1.125"
"1573642640944","158","0.20507812","-0.9863281","0.06542969","-1.96875","9.875","0.15625"
"1573642640944","159","0.22167969","-0.9580078","0.064453125","3.03125","8.59375","9.5625"
"1573642641533","160","0.13085938","-0.98535156","0.040039062","3.09375","0.0","7.90625"
"1573642641533","161","0.14453125","-0.9785156","0.06640625","2.71875","2.84375","6.21875"
"1573642641533","162","0.14453125","-0.9707031","0.09375","5.34375","2.4375","10.375"
"1573642641534","163","0.11816406","-0.95996094","0.09082031","7.125","1.375","7.6875"
"1573642641534","164","0.15234375","-0.93847656","0.07421875","12.5","4.4375","7.8125"
"1573642641534","165","0.15527344","-0.97558594","0.11621094","11.9375","0.71875","9.9375"
"1573642641534","166","0.064453125","-1.0341797","0.1171875","10.84375","-0.875","9.25"
"1573642641535","167","0.08203125","-1.0097656","0.11230469","10.25","8.84375","10.71875"
"1573642641535","168","0.1171875","-0.94433594","0.115234375","12.375","10.46875","11.03125"
"1573642641536","169","0.12988281","-0.96484375","0.17675781","11.28125","10.46875","10.0625"
"1573642641735","170","0.08300781","-0.97558594","0.14550781","12.1875","11.59375","4.5625"
"1573642641735","171","0.123046875","-1.0009766","0.17480469","9.6875","6.15625","5.53125"
"1573642641735","172","0.072265625","-1.0029297","0.22167969","8.59375","2.375","6.28125"
"1573642641735","173","-0.013671875","-0.9892578","0.23828125","7.125","3.78125","7.375"
"1573642641736","174","0.032226562","-0.95410156","0.25","8.03125","2.0625","6.46875"
"1573642641736","175","-0.0068359375","-0.98535156","0.25976562","6.875","3.90625","3.09375"
"1573642641736","176","0.06738281","-0.99121094","0.2939453","7.125","0.34375","6.03125"
"1573642641736","177","-0.03515625","-1.0400391","0.30371094","2.3125","-7.53125","-1.46875"
"1573642641737","178","-9.765625E-4","-1.0732422","0.36132812","1.09375","-7.15625","-1.96875"
"1573642641737","179","-0.026367188","-0.98535156","0.29785156","4.1875","-8.625","5.21875"
"1573642642134","180","-0.029296875","-0.92089844","0.26464844","7.1875","-7.09375","0.90625"
"1573642642136","181","0.025390625","-0.9667969","0.2998047","7.0625","-5.875","-0.8125"
"1573642642136","182","-0.13964844","-1.0605469","0.3017578","-0.25","4.3125","-0.375"
"1573642642137","183","0.15136719","-0.87109375","0.32617188","6.28125","19.5625","18.40625"
"1573642642137","184","0.14453125","-0.80078125","0.27148438","9.09375","-8.0625","18.53125"
"1573642642137","185","-0.059570312","-0.92089844","0.30566406","5.34375","-1.53125","-2.59375"
"1573642642137","186","-0.06347656","-0.9248047","0.33007812","4.875","-1.84375","7.25"
"1573642642138","187","-0.08691406","-0.9716797","0.2685547","-4.09375","-7.46875","9.375"
"1573642642138","188","0.045898438","-0.91796875","0.19238281","-2.53125","1.75","10.1875"
"1573642642138","189","0.09667969","-0.9169922","0.20898438","-7.65625","-15.34375","3.40625"
"1573642642529","190","-0.048828125","-0.88378906","0.28808594","-5.03125","-5.375","6.03125"
"1573642642530","191","-0.046875","-0.81640625","0.3203125","15.25","-3.75","24.40625"
"1573642642530","192","0.018554688","-1.0185547","0.2861328","15.0625","2.5","13.15625"
"1573642642531","193","-0.06347656","-1.2089844","0.19335938","2.78125","5.0","-5.09375"
"1573642642531","194","0.09863281","-1.0019531","0.31152344","4.0","-11.4375","-6.96875"
"1573642642532","195","0.013671875","-0.92089844","0.32714844","17.25","-14.46875","-3.90625"
"1573642642532","196","-0.14746094","-1.1425781","0.22265625","13.15625","3.03125","-21.875"
"1573642642532","197","0.00390625","-1.2431641","0.49902344","0.28125","22.625","-30.90625"
"1573642642533","198","0.12792969","-1.0175781","0.4033203","-5.15625","8.84375","-21.125"
"1573642642533","199","-0.041015625","-0.8613281","0.40234375","-4.59375","9.09375","-22.21875"
"1573642643323","200","-0.0390625","-0.8408203","0.3251953","-6.53125","6.8125","-34.5"
"1573642643324","201","0.057617188","-0.8496094","0.2783203","-3.0","3.03125","-35.21875"
"1573642643324","202","0.036132812","-0.8984375","0.29296875","-3.0625","0.90625","-33.53125"
"1573642643324","203","0.01953125","-0.8779297","0.28027344","-4.71875","14.3125","-27.53125"
"1573642643325","204","0.12109375","-0.84765625","0.25878906","-0.625","18.65625","-25.78125"
"1573642643326","205","0.07324219","-0.8671875","0.24414062","-1.90625","19.28125","-24.90625"
"1573642643326","206","0.10644531","-0.8798828","0.29003906","-1.3125","15.125","-12.03125"
"1573642643326","207","0.18457031","-0.83984375","0.2939453","-2.6875","15.90625","-11.1875"
"1573642643327","208","0.17382812","-0.84765625","0.27246094","-3.6875","-0.8125","-12.90625"
"1573642643327","209","0.09765625","-0.92285156","0.3076172","-7.21875","-0.8125","-9.59375"
"1573642643520","210","0.12402344","-0.96191406","0.2919922","-12.21875","1.28125","-8.875"
"1573642643520","211","0.18164062","-0.9501953","0.21875","-19.90625","-2.6875","-15.09375"
"1573642643520","212","0.23046875","-0.95410156","0.13964844","-18.5","-5.5","-15.875"
"1573642643521","213","0.27734375","-0.99902344","0.234375","-23.34375","-8.875","-16.1875"
"1573642643521","214","0.16699219","-0.9375","0.29882812","-23.34375","-21.875","-5.21875"
"1573642643521","215","0.12695312","-0.9296875","0.2548828","-26.625","-14.96875","-2.75"
"1573642643521","216","0.12207031","-0.8847656","0.31640625","-19.25","-7.71875","-11.0"
"1573642643522","217","0.19042969","-0.88964844","0.23046875","-20.21875","-12.46875","-0.5625"
"1573642643523","218","0.14550781","-0.9277344","0.25390625","-18.375","-8.4375","3.59375"
"1573642643523","219","0.15722656","-0.984375","0.21289062","-14.71875","7.4375","-1.1875"
"1573642643723","220","0.19335938","-0.9423828","0.19140625","-6.5","9.625","3.90625"
"1573642643723","221","0.17480469","-0.8769531","0.23144531","-2.75","9.1875","8.71875"
"1573642643724","222","0.16113281","-0.921875","0.21484375","1.625","9.5","5.59375"
"1573642643724","223","0.19433594","-0.95214844","0.21972656","4.1875","5.65625","4.125"
"1573642643724","224","0.22265625","-0.90527344","0.20898438","4.125","-5.375","7.5"
"1573642643724","225","0.19726562","-0.87402344","0.15234375","13.65625","-1.25","15.5625"
"1573642643725","226","0.19628906","-0.94433594","0.18164062","15.84375","1.21875","14.5"
"1573642643725","227","0.22363281","-0.9394531","0.24902344","13.71875","1.75","9.6875"
"1573642643725","228","0.111328125","-0.9970703","0.22265625","6.46875","2.125","8.46875"
"1573642643726","229","0.17382812","-0.9970703","0.26660156","5.21875","6.6875","6.8125"
"1573642644515","230","0.22558594","-0.9628906","0.23535156","4.875","7.375","2.375"
"1573642644519","231","0.15234375","-0.9902344","0.18945312","4.0","-2.15625","2.5625"
"1573642644519","232","0.16601562","-1.0097656","0.22851562","3.03125","-0.6875","1.5"
"1573642644520","233","0.15429688","-0.9511719","0.21386719","1.28125","-5.25","0.15625"
"1573642644520","234","0.12695312","-0.9111328","0.21386719","1.28125","-2.75","1.8125"
"1573642644520","235","0.125","-0.8847656","0.24707031","1.15625","1.03125","-1.84375"
"1573642644521","236","0.13183594","-0.9248047","0.25","0.59375","-2.28125","0.21875"
"1573642644521","237","0.12011719","-0.9560547","0.32128906","0.71875","1.3125","1.15625"
"1573642644521","238","0.10839844","-0.9169922","0.2861328","1.28125","-0.125","3.65625"
"1573642644521","239","0.15039062","-0.90234375","0.30664062","4.25","0.65625","6.21875"
"1573642644522","240","0.09472656","-0.92578125","0.31054688","3.53125","-0.25","5.46875"
"1573642644523","241","0.11425781","-0.8203125","0.32617188","5.53125","-3.3125","9.125"
"1573642644523","242","0.030273438","-0.74316406","0.3251953","9.5","8.03125","22.4375"
"1573642644523","243","0.0048828125","-0.7050781","0.32617188","15.96875","20.4375","29.15625"
"1573642644524","244","-0.021484375","-0.83496094","0.27246094","12.0625","29.78125","16.15625"
"1573642644524","245","0.11621094","-0.8564453","0.33203125","1.5","28.4375","5.65625"
"1573642644524","246","0.13964844","-0.78027344","0.32226562","-16.8125","-11.25","6.5625"
"1573642644524","247","0.12207031","-0.7167969","0.3388672","-20.21875","-26.1875","24.34375"
"1573642644525","248","-0.11035156","-0.80371094","0.29003906","-19.3125","-33.875","19.15625"
"1573642644525","249","-0.16113281","-0.9814453","0.3466797","-25.46875","-19.53125","4.0"
"1573642644915","250","-0.1875","-1.3798828","0.27929688","-20.875","3.84375","-11.0625"
"1573642644915","251","0.15429688","-1.5722656","0.2919922","-11.0","24.34375","-9.53125"
"1573642644916","252","0.32714844","-1.1542969","0.25097656","-5.09375","7.3125","-6.0625"
"1573642644916","253","0.015625","-1.1064453","0.17675781","3.15625","-13.25","18.84375"
"1573642644916","254","-0.21386719","-1.2363281","0.20214844","5.90625","11.71875","-25.34375"
"1573642644917","255","0.28125","-0.8222656","-0.005859375","-4.03125","12.1875","3.21875"
"1573642644917","256","0.09863281","-0.7910156","0.009765625","-10.75","11.53125","-0.75"
"1573642644917","257","0.1484375","-0.9863281","0.16015625","-11.84375","-4.40625","-32.71875"
"1573642644918","258","0.25","-1.0517578","0.08984375","-16.0","-27.25","-16.5"
"1573642644918","259","0.07910156","-0.97753906","0.08984375","13.09375","-25.40625","4.375"
"1573642645313","260","0.032226562","-0.9970703","0.16503906","-11.4375","-0.5","0.53125"
"1573642645314","261","0.099609375","-0.8779297","0.13574219","3.71875","-4.21875","-10.03125"
"1573642645314","262","0.043945312","-1.0107422","0.021484375","-13.8125","13.65625","-0.375"
"1573642645314","263","0.10546875","-1.0351562","0.35546875","6.8125","24.15625","2.0"
"1573642645315","264","0.10449219","-0.91015625","0.10449219","-4.40625","19.9375","6.9375"
"1573642645317","265","0.041015625","-1.0019531","0.15039062","-9.71875","31.78125","-4.09375"
"1573642645317","266","0.23242188","-1.0332031","0.42871094","-10.34375","20.625","-17.40625"
"1573642645317","267","0.18164062","-0.98828125","0.2548828","-12.78125","5.28125","-24.78125"
"1573642645318","268","-0.05078125","-0.9189453","0.109375","-32.0625","-1.46875","16.65625"
"1573642645318","269","0.107421875","-0.8408203","0.1328125","-10.75","5.71875","-9.46875"
"1573642645711","270","0.17089844","-0.98339844","0.22363281","-8.0","-1.46875","-35.0"
"1573642645711","271","0.09863281","-1.1435547","0.25585938","-13.375","-5.375","-21.9375"
"1573642645712","272","0.14648438","-0.9394531","0.17675781","-11.0625","0.71875","-0.6875"
"1573642645712","273","0.22167969","-0.87890625","0.09472656","-4.84375","-1.125","4.6875"
"1573642645712","274","0.12792969","-0.9326172","0.14550781","-4.15625","-22.46875","-7.78125"
"1573642645712","275","0.19140625","-1.0273438","0.08691406","-10.4375","-20.03125","-16.375"
"1573642645713","276","0.16796875","-1.0458984","0.16796875","-4.78125","-4.59375","-1.84375"
"1573642645714","277","0.018554688","-0.91015625","0.14941406","-9.28125","-21.375","7.625"
"1573642645714","278","0.119140625","-0.86816406","0.115234375","-7.28125","5.96875","5.46875"
"1573642645715","279","0.24707031","-0.9453125","0.18066406","15.0625","1.21875","-8.1875"
"1573642646109","280","0.12402344","-1.0410156","0.109375","17.875","5.40625","12.75"
"1573642646110","281","0.20605469","-1.0126953","0.10839844","12.25","21.03125","5.0"
"1573642646110","282","0.16113281","-1.0048828","-0.049804688","-15.03125","11.34375","12.75"
"1573642646110","283","0.18652344","-0.8847656","0.064453125","-33.875","-14.96875","27.21875"
"1573642646110","284","0.21972656","-0.9628906","0.15429688","-6.3125","-20.09375","17.75"
"1573642646111","285","0.0087890625","-1.0039062","0.12792969","-0.375","-3.6875","2.375"
"1573642646111","286","-0.048828125","-1.0185547","0.3017578","6.5","-2.625","-17.34375"
"1573642646111","287","0.080078125","-1.0175781","0.09863281","27.375","49.25","-4.40625"
"1573642646111","288","0.171875","-0.8359375","0.29296875","-4.96875","11.65625","7.5"
"1573642646113","289","0.052734375","-0.98046875","0.06738281","4.375","-0.25","-9.0625"
"1573642646506","290","0.15136719","-1.1171875","0.16699219","-7.03125","6.21875","-12.09375"
"1573642646506","291","0.0546875","-0.9658203","0.14257812","-5.75","16.46875","-10.28125"
"1573642646506","292","0.16894531","-0.91015625","0.18261719","-1.40625","3.34375","5.53125"
"1573642646506","293","0.14550781","-1.0205078","0.041015625","6.9375","12.625","-4.96875"
"1573642646507","294","0.123046875","-0.9863281","0.22363281","3.40625","-7.34375","-6.0625"
"1573642646507","295","0.047851562","-0.9238281","0.08691406","-1.0625","-5.5625","4.0625"
"1573642646507","296","0.13378906","-0.95703125","0.107421875","3.84375","-2.9375","-3.5625"
"1573642646507","297","0.15820312","-0.96191406","0.12890625","2.125","-22.78125","1.625"
"1573642646508","298","0.1328125","-1.015625","0.12011719","3.40625","-7.46875","0.71875"
"1573642646508","299","0.0390625","-0.95996094","0.1640625","-0.75","-8.375","11.9375"
"1573642646903","300","0.017578125","-0.98046875","0.12207031","11.21875","-3.3125","15.5"
"1573642646905","301","0.1875","-0.95410156","0.15039062","10.0625","4.6875","5.90625"
"1573642646905","302","0.17675781","-0.9589844","0.15136719","8.78125","-2.34375","2.0625"
"1573642646906","303","0.12890625","-0.96875","0.14941406","15.125","-2.21875","3.40625"
"1573642646906","304","0.15136719","-0.96191406","0.15722656","16.46875","-1.1875","4.5625"
"1573642646906","305","0.10839844","-0.9794922","0.19433594","12.4375","-2.15625","2.4375"
"1573642646906","306","0.08691406","-0.97753906","0.20507812","7.625","-3.6875","0.15625"
"1573642646907","307","0.080078125","-0.9472656","0.1484375","13.0","-3.0625","5.46875"
"1573642646907","308","0.12109375","-0.98339844","0.21679688","5.0","3.21875","5.65625"
"1573642646907","309","0.020507812","-0.9628906","0.22558594","1.5","-3.625","8.71875"
"1573642647299","310","0.0703125","-0.9814453","0.26464844","-0.875","2.375","3.09375"
"1573642647300","311","0.0703125","-1.0039062","0.23632812","2.125","-6.1875","4.125"
"1573642647300","312","0.07519531","-0.9765625","0.2763672","1.5625","1.625","8.03125"
"1573642647301","313","0.044921875","-0.87402344","0.3076172","12.875","-0.9375","7.25"
"1573642647301","314","0.009765625","-0.9248047","0.29589844","11.15625","4.5625","7.25"
"1573642647302","315","0.057617188","-0.98535156","0.29101562","12.5","4.5625","5.65625"
"1573642647302","316","0.08691406","-0.97265625","0.30566406","8.96875","-2.59375","8.21875"
"1573642647302","317","0.045898438","-0.94921875","0.30078125","9.25","3.90625","2.375"
"1573642647303","318","0.064453125","-0.9794922","0.27929688","9.09375","-7.28125","9.6875"
"1573642647303","319","0.013671875","-0.9423828","0.39648438","2.65625","2.5","1.875"
"1573642647698","320","0.044921875","-0.99902344","0.31445312","2.90625","-4.65625","-1.71875"
"1573642647699","321","0.13476562","-0.8955078","0.33007812","8.40625","-6.65625","6.5625"
"1573642647699","322","0.018554688","-0.85253906","0.33203125","10.53125","-24.5","4.3125"
"1573642647700","323","-0.140625","-1.0078125","0.32714844","4.0625","-12.40625","-4.21875"
"1573642647700","324","-0.0146484375","-0.97753906","0.34765625","6.28125","13.40625","9.03125"
"1573642647701","325","0.03515625","-0.9746094","0.31347656","6.46875","19.5625","2.96875"
"1573642647702","326","0.13964844","-0.8857422","0.33203125","10.46875","9.125","-3.625"
"1573642647702","327","0.0","-0.9746094","0.359375","4.5","-1.59375","-5.9375"
"1573642647702","328","-0.036132812","-1.0615234","0.4140625","5.0625","11.15625","-3.875"
"1573642647702","329","0.03125","-1.0644531","0.45117188","-1.46875","9.875","-2.21875"
"1573642648094","330","0.032226562","-1.0605469","0.3798828","-2.53125","0.03125","-1.90625"
"1573642648095","331","-0.0126953125","-0.9941406","0.38085938","-6.59375","-6.71875","-13.4375"
"1573642648095","332","-0.028320312","-0.89453125","0.38085938","-3.5625","-2.8125","-9.15625"
"1573642648095","333","-0.07910156","-0.95410156","0.3876953","-1.65625","8.09375","-8.3125"
"1573642648095","334","-0.0107421875","-0.98046875","0.40234375","-2.875","17.125","-5.15625"
"1573642648096","335","0.07519531","-0.9345703","0.38085938","-7.875","13.59375","-6.0625"
"1573642648096","336","0.06933594","-0.88378906","0.33691406","-13.5","-3.0","-17.96875"
"1573642648097","337","0.051757812","-0.7861328","0.3203125","-14.78125","-3.8125","-15.8125"
"1573642648097","338","-0.060546875","-0.7910156","0.22753906","-9.40625","-1.96875","-15.8125"
"1573642648098","339","-0.041015625","-0.79003906","0.25390625","-7.15625","12.0","-22.15625"
"1573642648492","340","0.0625","-0.8496094","0.3388672","-6.53125","22.375","-15.40625"
"1573642648493","341","0.09375","-0.8691406","0.2783203","-1.3125","21.15625","-13.9375"
"1573642648493","342","0.13671875","-0.9316406","0.30859375","-4.34375","10.65625","-17.21875"
"1573642648493","343","0.12988281","-0.91308594","0.31640625","-6.59375","5.40625","-10.8125"
"1573642648493","344","0.103515625","-0.8808594","0.25878906","-12.78125","-1.96875","-19.4375"
"1573642648493","345","0.22460938","-0.85546875","0.21191406","-18.15625","-12.03125","-24.375"
"1573642648493","346","0.24902344","-0.9199219","0.38183594","-22.21875","-16.6875","-15.03125"
"1573642648494","347","0.15039062","-0.96972656","0.27734375","-17.78125","-18.5","-18.8125"
"1573642648494","348","0.13183594","-0.9550781","0.24023438","-19.125","-17.28125","-5.5625"
"1573642648495","349","0.14550781","-0.9042969","0.3203125","-12.15625","-1.1875","-17.71875"
"1573642648889","350","0.17285156","-0.7998047","0.2783203","-11.3125","-1.65625","-9.40625"
"1573642648890","351","0.15039062","-0.93652344","0.234375","-0.9375","8.53125","0.65625"
"1573642648890","352","0.16796875","-1.015625","0.23828125","-1.46875","7.1875","-0.3125"
"1573642648890","353","0.19433594","-0.9472656","0.24511719","-5.3125","3.15625","1.03125"
"1573642648890","354","0.15136719","-0.92089844","0.22558594","-4.09375","4.5","2.65625"
"1573642648890","355","0.19921875","-0.9121094","0.26171875","2.0625","8.71875","-4.59375"
"1573642648891","356","0.19824219","-0.9472656","0.24804688","-0.625","2.90625","-0.625"
"1573642648891","357","0.17480469","-0.9296875","0.234375","1.5625","0.40625","2.125"
"1573642648891","358","0.1953125","-0.9033203","0.2529297","3.34375","-0.3125","3.71875"
"1573642648891","359","0.22070312","-0.890625","0.23730469","8.09375","-2.59375","2.78125"
"1573642649287","360","0.21289062","-0.9013672","0.29492188","11.65625","-7.53125","5.21875"
"1573642649288","361","0.14160156","-0.90527344","0.23925781","8.84375","-4.84375","9.8125"
"1573642649289","362","0.2421875","-0.92871094","0.3359375","6.9375","4.4375","4.6875"
"1573642649289","363","0.20703125","-0.9609375","0.2841797","3.46875","-10.40625","-3.625"
"1573642649289","364","0.1953125","-0.96972656","0.31640625","3.15625","-3.625","-1.65625"
"1573642649290","365","0.1171875","-0.8935547","0.24609375","0.65625","3.40625","11.03125"
"1573642649290","366","0.072265625","-0.88378906","0.29589844","-0.3125","2.96875","2.25"
"1573642649290","367","0.15136719","-0.921875","0.328125","-3.0","7.5625","-4.84375"
"1573642649293","368","0.15332031","-0.875","0.32714844","-0.8125","5.59375","0.71875"
"1573642649293","369","0.13769531","-0.8251953","0.3251953","-4.71875","-1.125","3.59375"
"1573642649686","370","0.16992188","-0.765625","0.3154297","-6.96875","-8.1875","0.46875"
"1573642649687","371","0.13183594","-0.6591797","0.2607422","-14.3125","-17.15625","13.96875"
"1573642649687","372","0.09667969","-0.63964844","0.3203125","-11.625","-15.21875","11.9375"
"1573642649688","373","0.064453125","-0.6533203","0.3828125","-13.4375","-27.78125","6.21875"
"1573642649689","374","-0.083984375","-0.73339844","0.26464844","-10.8125","-23.5","13.15625"
"1573642649689","375","-0.028320312","-0.7470703","0.3564453","-13.25","-4.84375","15.625"
"1573642649689","376","0.055664062","-0.8466797","0.33203125","-12.71875","7.3125","9.125"
"1573642649689","377","0.06933594","-1.3515625","0.24023438","-11.6875","16.28125","-3.75"
"1573642649690","378","0.31445312","-2.0","0.359375","-0.6875","42.53125","-3.5"
"1573642649690","379","0.34179688","-1.3505859","0.27734375","-25.96875","2.25","9.6875"
"1573642650279","380","0.05078125","-1.4023438","0.038085938","18.71875","4.1875","14.21875"
"1573642650280","381","0.06640625","-1.1152344","0.14941406","-16.5","53.09375","0.96875"
"1573642650280","382","0.18359375","-0.6689453","0.13769531","-17.34375","27.875","29.15625"
"1573642650280","383","0.07714844","-0.4951172","0.028320312","-10.28125","35.4375","-3.0"
"1573642650281","384","0.17089844","-0.8466797","0.14746094","-5.09375","22.625","-39.75"
"1573642650281","385","0.35742188","-1.2714844","0.1015625","6.40625","-4.28125","-39.5625"
"1573642650281","386","0.15136719","-1.1416016","0.20996094","5.1875","-1.96875","18.40625"
"1573642650281","387","0.049804688","-0.921875","0.080078125","2.84375","4.25","22.875"
"1573642650282","388","0.09765625","-0.85546875","0.09472656","-5.5625","10.3125","-2.40625"
"1573642650282","389","0.08496094","-0.9814453","0.14355469","-1.71875","8.65625","-19.5"
"1573642650479","390","0.045898438","-0.9716797","0.1328125","-6.25","17.8125","-11.6875"
"1573642650480","391","0.13085938","-0.9589844","0.15527344","-0.3125","14.5625","2.0"
"1573642650480","392","0.026367188","-0.9355469","0.12695312","-4.71875","10.65625","5.34375"
"1573642650480","393","0.23144531","-1.1298828","0.40625","2.84375","14.9375","-37.5"
"1573642650481","394","0.171875","-0.9941406","0.23828125","-8.125","0.96875","-26.9375"
"1573642650481","395","-0.01953125","-0.9511719","0.11816406","-11.96875","5.40625","36.375"
"1573642650481","396","0.24023438","-0.7001953","0.14941406","-5.9375","21.40625","-20.28125"
"1573642650482","397","0.41992188","-1.0488281","0.18164062","-17.34375","-16.625","-48.28125"
"1573642650482","398","0.203125","-1.2099609","0.17382812","-21.25","-30.78125","-24.625"
"1573642650483","399","0.13378906","-0.9082031","0.10839844","-13.03125","-13.5625","10.0625"
"1573642650878","400","0.20800781","-0.85253906","0.12890625","-4.46875","-2.40625","2.5"
"1573642650879","401","0.21191406","-0.94628906","0.14648438","-6.71875","-5.9375","-14.96875"
"1573642650879","402","0.19628906","-0.9863281","0.10644531","-8.75","-7.53125","-11.84375"
"1573642650880","403","0.24511719","-0.96777344","0.12402344","-8.0625","-4.65625","-6.90625"
"1573642650880","404","0.23144531","-0.96191406","0.123046875","-5.375","-4.71875","-0.625"
"1573642650880","405","0.17675781","-0.9736328","0.12207031","-4.28125","-3.5","0.0"
"1573642650880","406","0.20117188","-0.9746094","0.13769531","-4.28125","1.8125","-5.6875"
"1573642650880","407","0.21679688","-0.94140625","0.107421875","1.03125","0.90625","-3.375"
"1573642650881","408","0.23242188","-0.9140625","0.15917969","4.4375","2.71875","1.3125"
"1573642650882","409","0.21289062","-0.94433594","0.13671875","9.25","2.90625","5.125"
"1573642651474","410","0.22265625","-1.0009766","0.16601562","6.40625","-4.96875","5.46875"
"1573642651474","411","0.18261719","-0.9658203","0.18652344","-5.15625","-16.3125","8.15625"
"1573642651475","412","0.14257812","-0.9394531","0.17285156","-6.0","-9.96875","7.5625"
"1573642651475","413","0.22070312","-0.9199219","0.16308594","-1.46875","-6.25","4.6875"
"1573642651475","414","0.18164062","-0.984375","0.15332031","-1.53125","-10.21875","-2.21875"
"1573642651476","415","0.103515625","-1.0292969","0.14160156","-2.9375","-8.75","2.5625"
"1573642651476","416","0.13476562","-1.0126953","0.11230469","1.3125","8.46875","8.71875"
"1573642651476","417","0.20019531","-0.9267578","0.10253906","10.1875","11.15625","11.28125"
"1573642651477","418","0.21875","-0.91308594","0.0625","14.5","12.875","11.40625"
"1573642651477","419","0.234375","-1.0039062","0.14550781","12.875","6.8125","6.21875"
"1573642651674","420","0.1484375","-1.0117188","0.13085938","6.75","-4.03125","6.03125"
"1573642651675","421","0.12695312","-0.96875","0.14941406","4.9375","2.78125","10.71875"
"1573642651676","422","0.14941406","-0.9628906","0.18261719","5.34375","9.125","4.6875"
"1573642651676","423","0.17285156","-1.0039062","0.16796875","5.53125","12.1875","1.6875"
"1573642651676","424","0.14746094","-0.9326172","0.15722656","-0.1875","7.4375","2.65625"
"1573642651677","425","0.16796875","-0.91015625","0.16796875","1.6875","3.09375","5.65625"
"1573642651677","426","0.15136719","-0.91796875","0.15527344","2.5","7.25","0.78125"
"1573642651677","427","0.115234375","-0.9824219","0.17675781","5.59375","2.78125","2.25"
"1573642651677","428","0.12597656","-1.0097656","0.12890625","3.71875","20.0","7.125"
"1573642651678","429","0.20214844","-1.0380859","0.16113281","-1.34375","13.09375","10.71875"
"1573642652070","430","0.14257812","-0.9111328","0.16113281","-6.0625","7.4375","14.875"
"1573642652070","431","0.15234375","-0.9003906","0.14160156","1.03125","2.96875","13.84375"
"1573642652070","432","0.08203125","-0.9589844","0.13671875","6.15625","10.71875","8.84375"
"1573642652072","433","0.09277344","-1.0634766","0.20703125","6.8125","17.4375","14.375"
"1573642652072","434","0.13964844","-0.9013672","0.15625","10.84375","15.71875","23.3125"
"1573642652072","435","0.09765625","-0.88183594","0.1953125","19.53125","0.90625","24.46875"
"1573642652072","436","-0.0048828125","-0.9482422","0.19726562","25.875","4.375","25.25"
"1573642652073","437","0.001953125","-1.0605469","0.23632812","27.28125","12.375","25.0"
"1573642652073","438","0.06542969","-1.0214844","0.29003906","18.0625","5.46875","25.25"
"1573642652073","439","0.043945312","-0.97265625","0.35546875","15.25","-11.90625","23.78125"
"1573642652666","440","-0.125","-1.2041016","0.49316406","16.40625","2.65625","12.625"
"1573642652666","441","-0.20507812","-1.4912109","0.58203125","6.15625","19.53125","-3.25"
"1573642652666","442","0.00390625","-1.1630859","0.4453125","8.59375","9.5625","13.84375"
"1573642652667","443","0.16503906","-0.85839844","0.51953125","14.5625","-18.25","3.21875"
"1573642652667","444","-0.234375","-0.8847656","0.4638672","4.625","-14.3125","-16.875"
"1573642652668","445","-0.13085938","-0.94433594","0.42871094","5.0625","0.53125","-21.5625"
"1573642652669","446","-0.015625","-0.8496094","0.33789062","-0.0625","-7.53125","-27.59375"
"1573642652669","447","-0.1171875","-0.7324219","0.25976562","4.5","-1.65625","-25.90625"
"1573642652669","448","0.021484375","-0.68652344","0.30859375","3.71875","-4.84375","-23.28125"
"1573642652670","449","-0.0146484375","-0.6621094","0.26757812","2.59375","-11.0","-37.25"
"1573642652864","450","-0.18847656","-0.7988281","0.2548828","-5.375","14.5625","-27.125"
"1573642652865","451","-0.09375","-0.8964844","0.2890625","-0.75","42.09375","-11.375"
"1573642652865","452","0.123046875","-0.7597656","0.33691406","-0.1875","26.65625","-7.34375"
"1573642652866","453","0.171875","-0.84765625","0.31835938","-6.25","-1.90625","-9.96875"
"1573642652866","454","0.13671875","-1.0117188","0.359375","-16.0","-28.8125","-14.65625"
"1573642652866","455","0.08691406","-0.90527344","0.30859375","-23.4375","-29.5","-10.40625"
"1573642652866","456","0.10449219","-0.8544922","0.43359375","-13.1875","-21.8125","-10.28125"
"1573642652868","457","0.051757812","-0.9160156","0.34960938","-7.21875","-16.25","-20.28125"
"1573642652868","458","0.07421875","-0.9667969","0.31054688","-4.34375","-11.0","-6.4375"
"1573642652869","459","0.06640625","-0.8046875","0.34765625","2.0","-0.5","-11.78125"
"1573642653462","460","0.0625","-0.8613281","0.37695312","-3.0625","12.0","-1.125"
"1573642653463","461","0.10449219","-0.9716797","0.33203125","4.375","15.96875","-2.40625"
"1573642653463","462","0.14746094","-0.9160156","0.3564453","-1.1875","5.28125","3.09375"
"1573642653463","463","0.10644531","-0.86621094","0.3251953","0.71875","2.1875","2.375"
"1573642653463","464","0.10253906","-0.92578125","0.32226562","-3.125","-4.15625","0.71875"
"1573642653463","465","0.10546875","-0.9267578","0.29882812","-4.15625","-5.21875","-0.25"
"1573642653464","466","0.11816406","-0.9375","0.28125","-6.3125","0.28125","0.15625"
"1573642653464","467","0.125","-0.921875","0.2783203","-6.96875","8.15625","2.78125"
"1573642653464","468","0.15625","-0.9501953","0.3935547","-5.21875","3.46875","1.21875"
"1573642653465","469","0.043945312","-0.9355469","0.35058594","-2.875","3.28125","3.71875"
"1573642653660","470","0.029296875","-0.9296875","0.27441406","1.15625","6.875","2.5625"
"1573642653661","471","0.15527344","-0.91015625","0.34570312","-1.3125","8.65625","2.0625"
"1573642653661","472","0.15429688","-0.89941406","0.3388672","-2.875","-1.53125","3.59375"
"1573642653661","473","0.09472656","-0.8808594","0.32226562","-5.3125","-6.84375","4.0"
"1573642653661","474","0.061523438","-0.8378906","0.36914062","-7.71875","1.625","-1.71875"
"1573642653662","475","0.13964844","-0.7910156","0.27929688","-11.125","-4.46875","-3.4375"
"1573642653662","476","0.18945312","-0.77734375","0.30664062","-10.03125","-4.84375","8.21875"
"1573642653662","477","0.1015625","-0.828125","0.30078125","-17.21875","-14.40625","2.3125"
"1573642653662","478","0.13574219","-0.9785156","0.3642578","-19.0","-14.59375","-1.53125"
"1573642653663","479","0.041992188","-0.9248047","0.33398438","-17.46875","-17.15625","11.40625"
"1573642654651","480","-0.041992188","-0.7294922","0.25390625","-10.03125","-3.8125","39.0"
"1573642654653","481","0.041992188","-0.70410156","0.3173828","-9.84375","-3.8125","20.4375"
"1573642654653","482","0.026367188","-0.6982422","0.3154297","-14.59375","-3.90625","9.125"
"1573642654654","483","0.06542969","-0.79785156","0.3046875","-12.90625","-14.78125","14.375"
"1573642654654","484","-0.09863281","-0.6953125","0.22851562","-22.21875","-21.0","17.875"
"1573642654654","485","-0.048828125","-1.0751953","0.29296875","-2.53125","-1.46875","-4.09375"
"1573642654655","486","0.107421875","-1.7265625","0.3388672","-15.34375","-12.96875","-59.71875"
"1573642654655","487","0.17089844","-1.7158203","0.15234375","-1.0625","5.34375","0.21875"
"1573642654655","488","0.23242188","-1.0751953","0.17871094","11.40625","17.1875","44.125"
"1573642654655","489","0.10839844","-1.0146484","0.125","13.59375","-4.34375","10.0625"
"1573642655049","490","-0.083984375","-1.0439453","0.1484375","-6.78125","13.21875","-11.0"
"1573642655050","491","0.07128906","-0.8876953","0.111328125","-3.4375","12.5625","7.0"
"1573642655050","492","0.111328125","-0.7919922","0.11425781","2.125","14.625","-3.5625"
"1573642655051","493","0.13378906","-0.9355469","0.1640625","-6.0","3.28125","-19.90625"
"1573642655052","494","0.13671875","-1.0400391","0.12890625","3.65625","-7.9375","-12.84375"
"1573642655052","495","0.005859375","-1.0332031","0.1640625","3.59375","-6.0625","4.0625"
"1573642655052","496","-0.022460938","-0.9423828","0.19628906","-4.65625","12.6875","8.90625"
"1573642655052","497","0.07324219","-0.9140625","0.16113281","-1.78125","18.34375","-2.09375"
"1573642655053","498","0.103515625","-0.9794922","0.14648438","-1.90625","19.40625","-7.28125"
"1573642655053","499","0.09082031","-1.0302734","0.19433594","-4.59375","20.25","-0.125"
"1573642655250","500","0.06640625","-0.9892578","0.19921875","-6.78125","17.125","1.8125"
"1573642655251","501","-0.017578125","-0.9472656","0.1875","-12.84375","14.03125","-5.9375"
"1573642655251","502","-0.034179688","-0.9189453","0.17675781","-14.125","16.71875","-12.96875"
"1573642655251","503","0.12890625","-1.0439453","0.29785156","-12.03125","21.34375","-33.34375"
"1573642655251","504","0.103515625","-0.9746094","0.21289062","-14.40625","7.5","-29.75"
"1573642655256","505","0.018554688","-0.9345703","0.16113281","-11.1875","13.21875","-0.75"
"1573642655256","506","0.18652344","-0.8300781","0.13378906","-5.21875","11.21875","-25.09375"
"1573642655257","507","0.28027344","-1.0253906","0.22460938","-6.71875","-6.4375","-35.0"
"1573642655257","508","0.15332031","-1.0595703","0.19042969","-14.1875","-21.25","-13.875"
"1573642655258","509","0.20019531","-0.8466797","0.15136719","-7.9375","-12.84375","15.84375"
"1573642655446","510","0.21289062","-0.7832031","0.14550781","-5.25","-19.25","4.6875"
"1573642655446","511","0.05859375","-1.0917969","0.109375","-4.40625","-15.59375","-28.46875"
"1573642655446","512","0.23046875","-1.1845703","0.13085938","-5.8125","4.5","-1.65625"
"1573642655447","513","0.27734375","-0.98339844","0.13476562","2.0625","-4.53125","21.34375"
"1573642655447","514","0.1875","-0.8769531","0.15917969","3.28125","-12.90625","6.46875"
"1573642655447","515","0.12792969","-0.95996094","0.140625","5.84375","-12.90625","0.53125"
"1573642655447","516","0.13867188","-0.9873047","0.119140625","3.28125","-4.65625","-1.25"
"1573642655448","517","0.21679688","-0.9404297","0.119140625","-0.875","-3.6875","1.3125"
"1573642655449","518","0.22363281","-0.94433594","0.15820312","-2.03125","-2.40625","-1.84375"
"1573642655449","519","0.2109375","-0.96972656","0.10253906","-8.6875","-4.78125","-9.0625"
"1573642655647","520","0.20507812","-1.0","0.08105469","-9.15625","-4.15625","-7.65625"
"1573642655647","521","0.16601562","-0.97558594","0.072265625","-8.1875","0.96875","-1.46875"
"1573642655648","522","0.20214844","-0.9248047","0.06542969","1.21875","4.3125","5.0625"
"1573642655648","523","0.1953125","-0.9511719","0.07910156","6.15625","4.9375","7.90625"
"1573642655648","524","0.22753906","-0.97265625","0.07910156","7.125","6.28125","7.375"
"1573642655648","525","0.23828125","-0.96191406","0.09375","9.03125","6.6875","11.59375"
"1573642655649","526","0.2109375","-0.95996094","0.080078125","10.1875","-0.4375","19.21875"
"1573642655649","527","0.15625","-0.9746094","0.0859375","8.21875","0.46875","16.21875"
"1573642655649","528","0.18261719","-0.9628906","0.08984375","8.09375","-3.8125","17.0625"
"1573642655649","529","0.12402344","-0.9560547","0.057617188","6.40625","-1.71875","15.0625"
"1573642656044","530","0.1796875","-0.99121094","0.13867188","10.375","4.6875","15.1875"
"1573642656045","531","0.13085938","-0.9580078","0.11035156","9.03125","1.375","15.0625"
"1573642656045","532","0.095703125","-0.99121094","0.13867188","7.3125","-11.375","10.375"
"1573642656045","533","-9.765625E-4","-1.0400391","0.14453125","2.71875","-6.1875","2.4375"
"1573642656045","534","0.009765625","-1.0097656","0.234375","12.0625","7.5","8.15625"
"1573642656046","535","0.0126953125","-1.0107422","0.30566406","22.75","16.53125","18.0"
"1573642656046","536","0.005859375","-1.1738281","0.32617188","22.875","11.71875","15.71875"
"1573642656046","537","0.038085938","-1.2109375","0.48632812","10.25","2.0","-2.875"
"1573642656046","538","-0.14355469","-1.1865234","0.4423828","4.125","5.34375","-8.6875"
"1573642656047","539","-0.12890625","-0.98828125","0.47265625","4.6875","19.03125","-15.625"
"1573642656640","540","-0.109375","-0.9042969","0.43847656","1.09375","23.3125","-28.09375"
"1573642656641","541","0.0029296875","-0.88671875","0.4326172","4.6875","14.3125","-43.34375"
"1573642656642","542","0.06640625","-0.9785156","0.43066406","-2.34375","6.625","-47.0"
"1573642656642","543","0.18945312","-0.94628906","0.34570312","-7.65625","-7.28125","-34.625"
"1573642656643","544","0.099609375","-0.8017578","0.22851562","-8.625","-16.9375","-26.25"
"1573642656643","545","0.091796875","-0.7919922","0.21777344","-3.75","-7.53125","-32.65625"
"1573642656643","546","0.038085938","-0.75390625","0.16503906","-4.40625","12.5625","-19.84375"
"1573642656643","547","0.17480469","-0.78125","0.22460938","-2.21875","19.9375","-17.34375"
"1573642656644","548","0.1484375","-0.74609375","0.25","-4.65625","9.875","-18.03125"
"1573642656644","549","0.18359375","-0.83691406","0.2685547","-0.9375","0.46875","-1.25"
"1573642656839","550","0.15136719","-0.8964844","0.23339844","-2.8125","-6.90625","2.96875"
"1573642656840","551","0.26367188","-0.9296875","0.2607422","-10.8125","-15.875","-4.65625"
"1573642656840","552","0.2998047","-0.8857422","0.3310547","-11.1875","-23.40625","-7.09375"
"1573642656841","553","0.234375","-0.94433594","0.22949219","-5.6875","-32.71875","-5.4375"
"1573642656842","554","0.12890625","-1.0234375","0.24609375","-6.53125","-11.625","15.0625"
"1573642656842","555","0.25976562","-0.8359375","0.20996094","5.84375","-10.03125","3.21875"
"1573642656842","556","0.17382812","-0.82128906","0.2578125","-3.6875","1.15625","1.3125"
"1573642656842","557","0.0625","-0.98046875","0.22558594","-3.5625","8.53125","-3.3125"
"1573642656842","558","0.23730469","-0.9921875","0.2919922","-0.875","14.5625","0.65625"
"1573642656843","559","0.30664062","-0.94140625","0.24609375","-0.1875","12.1875","9.5625"
"1573642657434","560","0.21289062","-0.921875","0.24316406","1.3125","4.4375","9.125"
"1573642657434","561","0.17773438","-0.89160156","0.2607422","-0.25","3.46875","0.28125"
"1573642657435","562","0.22070312","-0.91015625","0.25878906","-2.46875","6.40625","0.0"
"1573642657435","563","0.25097656","-0.9375","0.26660156","0.90625","3.34375","1.4375"
"1573642657435","564","0.20605469","-0.9277344","0.25976562","0.65625","0.53125","3.34375"
"1573642657436","565","0.17578125","-0.94628906","0.25976562","2.3125","2.1875","1.09375"
"1573642657436","566","0.17480469","-0.9794922","0.25390625","-0.125","4.0625","-0.75"
"1573642657437","567","0.22167969","-0.93652344","0.25683594","-2.9375","2.1875","-2.8125"
"1573642657437","568","0.24316406","-0.8925781","0.2626953","-2.34375","-5.25","-1.59375"
"1573642657437","569","0.171875","-0.921875","0.26171875","-1.53125","-9.46875","-0.75"
"1573642657636","570","0.16992188","-0.92089844","0.27148438","-0.4375","-3.875","-0.5625"
"1573642657636","571","0.22070312","-0.90527344","0.2705078","4.5","-5.25","1.75"
"1573642657636","572","0.18066406","-0.9042969","0.29882812","7.96875","-4.78125","8.15625"
"1573642657637","573","0.18457031","-0.8876953","0.2998047","8.28125","-3.875","9.125"
"1573642657637","574","0.1640625","-0.88183594","0.36816406","6.6875","0.0","5.21875"
"1573642657637","575","0.14453125","-0.8496094","0.3095703","0.03125","-5.15625","4.25"
"1573642657637","576","0.16699219","-0.7792969","0.30273438","-2.40625","-8.875","10.71875"
"1573642657639","577","0.16601562","-0.71484375","0.2998047","-8.0","-12.78125","11.9375"
"1573642657639","578","0.15917969","-0.7294922","0.2998047","-10.6875","-16.75","9.25"
"1573642657639","579","0.13085938","-0.7861328","0.28320312","-19.25","-21.625","11.28125"
"1573642658233","580","0.1796875","-0.7363281","0.34570312","-20.21875","-15.15625","23.375"
"1573642658234","581","0.038085938","-0.7158203","0.31933594","-25.65625","-12.40625","33.96875"
"1573642658234","582","0.0078125","-0.6533203","0.31933594","-28.40625","-7.65625","35.8125"
"1573642658234","583","0.053710938","-0.8964844","0.24804688","-14.78125","-7.8125","15.625"
"1573642658234","584","0.17382812","-1.7060547","0.16015625","-7.65625","-9.84375","-38.40625"
"1573642658235","585","0.26171875","-1.7089844","0.16113281","-10.03125","1.5625","-3.125"
"1573642658235","586","0.265625","-1.0664062","0.16894531","6.28125","-12.78125","27.75"
"1573642658235","587","-0.12207031","-1.1494141","0.026367188","19.09375","-14.40625","23.0625"
"1573642658235","588","-0.22167969","-1.2851562","0.055664062","10.0625","44.125","-21.625"
"1573642658237","589","0.24414062","-0.8779297","0.12695312","-2.40625","36.90625","2.0"
"1573642658430","590","0.15136719","-0.66015625","0.030273438","7.5625","18.65625","5.125"
"1573642658430","591","0.13671875","-0.8515625","0.07519531","8.84375","15.65625","-25.96875"
"1573642658430","592","0.19824219","-1.0917969","0.14648438","11.03125","8.28125","-26.9375"
"1573642658431","593","0.10839844","-1.0800781","0.26171875","13.0","15.3125","-2.875"
"1573642658431","594","0.107421875","-0.9511719","0.20605469","6.03125","29.46875","3.65625"
"1573642658431","595","0.23242188","-0.8857422","0.20410156","14.8125","30.25","-5.6875"
"1573642658431","596","0.1328125","-0.9042969","0.21484375","9.8125","17.3125","-8.625"
"1573642658431","597","0.055664062","-0.9814453","0.2734375","12.75","24.875","-9.59375"
"1573642658432","598","0.09667969","-0.9375","0.30859375","9.03125","23.71875","-7.71875"
"1573642658432","599","0.11035156","-0.8886719","0.25878906","3.78125","18.40625","-1.34375"
"1573642659026","600","0.18945312","-0.9140625","0.34765625","4.6875","12.5","-13.1875"
"1573642659026","601","0.22167969","-1.0615234","0.33984375","4.1875","-6.59375","-41.03125"
"1573642659026","602","-0.021484375","-0.98339844","0.31347656","-10.21875","1.8125","9.25"
"1573642659027","603","0.11621094","-0.78222656","0.26953125","6.46875","18.0","5.0625"
"1573642659027","604","0.29589844","-0.72558594","0.30371094","3.53125","-6.125","-30.90625"
"1573642659027","605","0.2939453","-1.1416016","0.31835938","0.21875","-26.03125","-31.8125"
"1573642659027","606","0.12402344","-1.1660156","0.2841797","-5.9375","-9.65625","13.65625"
"1573642659028","607","0.1796875","-0.85546875","0.20117188","-15.40625","0.28125","17.0625"
"1573642659028","608","0.2685547","-0.8457031","0.22265625","-22.78125","-2.40625","-2.15625"
"1573642659028","609","0.18359375","-1.0371094","0.25585938","-24.0","-5.6875","-15.59375"
"1573642659225","610","0.13085938","-1.0878906","0.28125","-27.78125","4.5","-1.96875"
"1573642659225","611","0.22460938","-0.9169922","0.23925781","-31.4375","12.9375","10.375"
"1573642659226","612","0.31152344","-0.8515625","0.20019531","-28.15625","5.84375","5.59375"
"1573642659227","613","0.22851562","-0.9199219","0.19433594","-33.21875","-4.21875","-7.78125"
"1573642659227","614","0.21484375","-0.984375","0.20800781","-36.40625","-1.71875","-10.75"
"1573642659227","615","0.24121094","-0.91015625","0.18359375","-35.46875","-0.0625","-3.5"
"1573642659228","616","0.18457031","-0.90722656","0.19628906","-28.46875","0.40625","1.5"
"1573642659228","617","0.1484375","-0.9482422","0.17089844","-22.96875","6.8125","-2.09375"
"1573642659228","618","0.18261719","-0.9970703","0.16894531","-21.5","12.125","-1.78125"
"1573642659228","619","0.19824219","-0.9609375","0.14160156","-16.25","9.875","8.15625"
"1573642659822","620","0.16601562","-0.9628906","0.06542969","-10.5625","3.46875","16.40625"
"1573642659822","621","0.045898438","-1.0537109","0.06933594","-5.09375","5.59375","9.9375"
"1573642659823","622","0.0087890625","-1.0185547","-0.037109375","-7.78125","10.0","8.34375"
"1573642659823","623","-0.09472656","-1.0039062","-0.0703125","-9.0","10.40625","9.25"
"1573642659823","624","0.032226562","-1.0273438","-0.046875","1.75","30.4375","4.375"
"1573642659825","625","0.21777344","-1.0380859","-0.028320312","-9.21875","22.25","9.8125"
"1573642659825","626","0.125","-0.94140625","-0.07714844","-15.46875","3.03125","5.53125"
"1573642659825","627","0.032226562","-0.90722656","-0.10058594","-10.625","-2.53125","3.90625"
"1573642659825","628","-0.047851562","-0.96191406","-0.10644531","-6.0625","1.8125","6.46875"
"1573642659826","629","0.0546875","-0.9375","-0.0078125","-4.03125","5.1875","0.53125"
"1573642660021","630","0.1875","-1.0439453","0.09375","0.40625","-2.46875","-22.96875"
"1573642660022","631","0.19628906","-0.9638672","0.12402344","-3.5625","-23.28125","-14.34375"
"1573642660022","632","0.08105469","-0.9716797","0.07128906","5.0","-22.28125","2.3125"
"1573642660022","633","-0.009765625","-1.0654297","0.036132812","18.21875","1.4375","1.3125"
"1573642660022","634","0.18652344","-1.1132812","0.10449219","7.75","-1.0625","22.3125"
"1573642660023","635","0.13476562","-0.8886719","0.07714844","4.625","-2.21875","-3.6875"
"1573642660023","636","0.12890625","-1.0585938","0.10546875","-1.34375","11.09375","-20.65625"
"1573642660024","637","0.19140625","-1.0556641","0.119140625","-14.40625","8.65625","-15.15625"
"1573642660024","638","0.15429688","-0.94628906","0.080078125","-17.71875","7.3125","-14.90625"
"1573642660025","639","0.203125","-0.9580078","0.044921875","-17.28125","10.78125","-19.375"
"1573642660418","640","0.23730469","-0.98828125","0.0126953125","-24.3125","12.3125","-19.78125"
"1573642660419","641","0.2626953","-0.9785156","0.049804688","-24.96875","11.34375","-20.53125"
"1573642660419","642","0.15332031","-0.9716797","0.040039062","-21.8125","20.75","-11.1875"
"1573642660420","643","0.17089844","-1.0019531","0.033203125","-16.8125","37.71875","-5.15625"
"1573642660420","644","0.29296875","-1.0019531","0.055664062","-18.5625","39.90625","-4.53125"
"1573642660420","645","0.16210938","-0.9716797","0.07714844","-26.6875","34.78125","-2.53125"
"1573642660421","646","0.16601562","-0.9716797","0.046875","-30.03125","45.53125","-7.15625"
"1573642660421","647","0.24707031","-0.9658203","0.013671875","-32.375","44.53125","-6.53125"
"1573642660421","648","0.296875","-0.9794922","-0.0068359375","-37.375","46.5","-7.53125"
"1573642660422","649","0.27148438","-0.95703125","0.0126953125","-35.53125","38.625","-15.15625"
"1573642660816","650","0.20019531","-0.9355469","-0.03125","-27.34375","49.65625","-14.59375"
"1573642660816","651","0.22753906","-0.9248047","-0.015625","-16.3125","64.8125","-7.9375"
"1573642660817","652","0.22949219","-0.92285156","-0.0146484375","-7.09375","75.375","-3.96875"
"1573642660817","653","0.203125","-1.0039062","-0.005859375","-3.8125","80.0","-1.71875"
"1573642660817","654","0.12792969","-1.0351562","-0.05859375","-5.6875","80.78125","3.71875"
"1573642660817","655","0.16894531","-0.94921875","-0.0107421875","-9.125","82.5","9.9375"
"1573642660818","656","0.11230469","-0.9785156","-0.043945312","-7.15625","83.90625","14.375"
"1573642660818","657","0.13964844","-1.0205078","-0.051757812","-11.6875","93.3125","18.125"
"1573642660818","658","0.24804688","-1.0087891","-0.083984375","-11.84375","93.3125","18.40625"
"1573642660818","659","0.23144531","-1.015625","-0.10839844","-17.59375","72.0","12.0625"
"1573642661807","660","0.22070312","-0.96875","-0.12988281","-14.3125","69.5625","10.71875"
"1573642661809","661","0.23339844","-0.96191406","-0.11621094","-6.78125","61.5625","-0.25"
"1573642661810","662","0.22167969","-0.9375","-0.14941406","-7.03125","49.0","-9.21875"
"1573642661810","663","0.29785156","-0.88964844","-0.091796875","-3.5625","35.9375","-9.53125"
"1573642661810","664","0.24316406","-0.890625","-0.064453125","-0.4375","24.9375","-13.4375"
"1573642661811","665","0.24902344","-1.0966797","-0.0390625","0.71875","22.875","-13.5"
"1573642661811","666","0.21777344","-1.03125","-0.0068359375","1.625","16.78125","-8.5625"
"1573642661811","667","0.17382812","-0.9248047","0.001953125","-1.0625","15.5625","1.625"
"1573642661812","668","0.24609375","-0.9658203","0.0048828125","-3.0","17.6875","-3.4375"
"1573642661812","669","0.234375","-1.0634766","0.0068359375","-8.9375","9.5","-5.03125"
"1573642662005","670","0.20214844","-1.0224609","-0.06542969","-11.125","9.3125","-4.84375"
"1573642662005","671","0.23730469","-0.9589844","-0.005859375","-12.90625","3.59375","-2.46875"
"1573642662006","672","0.23144531","-0.9472656","-0.041015625","-7.40625","8.78125","0.96875"
"1573642662007","673","0.24414062","-0.98535156","-0.028320312","-7.46875","6.8125","0.65625"
"1573642662008","674","0.234375","-0.953125","-0.03515625","-6.59375","3.34375","0.21875"
"1573642662008","675","0.20996094","-0.96484375","-0.018554688","-3.5625","3.9375","2.375"
"1573642662008","676","0.20703125","-0.97753906","-0.03515625","-2.75","4.9375","3.21875"
"1573642662009","677","0.23730469","-0.984375","-0.022460938","-0.125","4.25","1.5625"
"1573642662009","678","0.20605469","-0.9814453","-0.030273438","-1.65625","-1.34375","2.0"
"1573642662009","679","0.21777344","-0.98046875","-0.016601562","-1.0625","-4.34375","0.71875"
"1573642662202","680","0.19433594","-0.97265625","-0.022460938","-0.5","-5.8125","1.375"
"1573642662203","681","0.19628906","-0.97753906","-0.017578125","-1.25","-7.53125","0.53125"
"1573642662203","682","0.2109375","-0.98046875","-0.0234375","-0.0625","-2.46875","0.84375"
"1573642662203","683","0.18457031","-0.9814453","-0.02734375","-1.53125","-8.6875","0.40625"
"1573642662204","684","0.19726562","-0.9785156","-0.04296875","1.15625","-4.59375","1.6875"
"1573642662205","685","0.18164062","-0.9951172","-0.0234375","-0.0625","-5.3125","2.65625"
"1573642662205","686","0.17382812","-0.97558594","-0.017578125","-0.0625","-2.40625","1.875"
"1573642662206","687","0.16699219","-0.98535156","-0.015625","-0.625","-1.34375","0.71875"
"1573642662206","688","0.15820312","-0.9921875","-0.0107421875","-1.125","1.625","0.0"
"1573642662206","689","0.16308594","-0.9980469","-0.0078125","-1.125","3.71875","0.78125"
"1573642662604","690","0.16699219","-0.9824219","-0.0126953125","-2.15625","6.03125","-0.1875"
"1573642662605","691","0.16503906","-0.98535156","-0.0146484375","-2.75","7.96875","-0.75"
"1573642662605","692","0.17480469","-0.98828125","-0.020507812","-2.53125","10.53125","-1.46875"
"1573642662606","693","0.17285156","-0.98046875","-0.038085938","-3.3125","8.09375","-1.34375"
"1573642662606","694","0.19921875","-0.9873047","0.0087890625","-3.5","10.96875","-1.0"
"1573642662606","695","0.16699219","-0.9765625","-0.021484375","-2.53125","8.53125","-1.71875"
"1573642662606","696","0.19433594","-0.9902344","-0.018554688","0.34375","11.15625","0.15625"
"1573642662607","697","0.18652344","-0.96972656","-0.021484375","0.03125","9.5","0.21875"
"1573642662608","698","0.17773438","-0.99316406","-0.020507812","0.0","8.59375","0.84375"
"1573642662608","699","0.19628906","-0.9921875","-0.030273438","-0.4375","7.5625","0.0"
"1573642663001","700","0.18164062","-0.9785156","-0.01953125","-0.1875","6.875","0.03125"
"1573642663001","701","0.18457031","-0.9824219","-0.021484375","0.40625","5.90625","0.21875"
"1573642663001","702","0.19140625","-0.98046875","-0.01953125","-0.0625","4.25","0.03125"
"1573642663001","703","0.19628906","-0.984375","-0.009765625","-0.3125","2.65625","-0.8125"
"1573642663002","704","0.20800781","-0.99316406","0.0087890625","0.53125","2.375","-0.75"
"1573642663002","705","0.19921875","-0.9785156","-0.033203125","1.625","0.65625","-0.4375"
"1573642663002","706","0.21386719","-0.9863281","0.001953125","0.78125","-1.34375","-0.6875"
"1573642663002","707","0.21582031","-0.984375","-0.0146484375","2.1875","-0.1875","-1.53125"
"1573642663003","708","0.22949219","-1.0","-0.0068359375","0.21875","-3.0","-1.96875"
"1573642663008","709","0.23632812","-0.99316406","-0.01171875","-0.625","-4.96875","-2.21875"
"1573642663599","710","0.21191406","-0.9941406","-0.0126953125","-1.78125","-8.1875","-0.3125"
"1573642663599","711","0.19726562","-0.984375","-0.037109375","-0.1875","-13.25","6.9375"
"1573642663600","712","0.18554688","-0.92285156","-0.109375","2.59375","-20.65625","12.625"
"1573642663600","713","0.29589844","-0.9433594","-0.08886719","7.1875","-28.46875","4.125"
"1573642663600","714","0.39160156","-1.0439453","-0.049804688","9.75","-47.8125","-10.21875"
"1573642663600","715","0.28710938","-0.9902344","-0.04296875","10.3125","-78.4375","3.21875"
"1573642663601","716","0.171875","-0.875","-0.05078125","20.0625","-83.5625","6.9375"
"1573642663601","717","0.16210938","-0.9580078","-0.072265625","23.78125","-85.09375","9.8125"
"1573642663601","718","0.171875","-1.0292969","-0.059570312","22.1875","-84.90625","8.59375"
"1573642663602","719","0.14746094","-0.9785156","-0.07714844","21.59375","-88.15625","3.71875"
"1573642663797","720","0.12988281","-0.98535156","-0.06738281","16.9375","-88.5625","4.6875"
"1573642663799","721","0.10253906","-0.9785156","-0.08203125","13.65625","-85.65625","-2.53125"
"1573642663800","722","0.07519531","-1.0214844","-0.09277344","7.5625","-80.9375","-6.125"
"1573642663800","723","0.11035156","-1.046875","-0.016601562","3.28125","-67.71875","-11.0625"
"1573642663800","724","0.23632812","-1.1455078","0.034179688","3.28125","-66.3125","-27.40625"
"1573642663801","725","0.23046875","-1.0048828","0.10058594","3.34375","-81.875","-4.09375"
"1573642663801","726","0.18457031","-0.8496094","0.11425781","13.21875","-74.34375","4.875"
"1573642663801","727","0.15625","-0.8613281","0.046875","17.625","-64.21875","-4.65625"
"1573642663801","728","0.21191406","-1.0039062","0.123046875","21.84375","-57.375","-4.34375"
"1573642663802","729","0.27734375","-0.9824219","0.109375","23.90625","-46.65625","-2.6875"
"1573642664194","730","0.24121094","-1.0087891","0.07128906","18.78125","-42.0","-1.78125"
"1573642664194","731","0.22363281","-0.96191406","0.06542969","16.34375","-26.625","-1.71875"
"1573642664194","732","0.2705078","-0.9453125","0.045898438","11.875","-19.1875","1.5"
"1573642664196","733","0.3154297","-0.92285156","0.07128906","10.96875","-13.75","-0.5"
"1573642664197","734","0.26757812","-0.95214844","0.049804688","8.65625","-12.46875","-1.0625"
"1573642664197","735","0.3125","-0.96191406","0.052734375","8.78125","-14.40625","1.21875"
"1573642664197","736","0.2548828","-0.93359375","0.08496094","6.9375","-14.34375","1.875"
"1573642664197","737","0.19238281","-0.96484375","0.07714844","7.4375","-8.8125","-1.3125"
"1573642664198","738","0.25195312","-0.9609375","0.103515625","9.5","-4.53125","-1.59375"
"1573642664198","739","0.27148438","-0.9423828","0.01953125","12.5625","-6.3125","-0.75"
"1573642664592","740","0.2783203","-1.0009766","-0.009765625","15.78125","-8.5625","4.0"
"1573642664592","741","0.25683594","-0.9970703","0.14453125","10.59375","3.21875","11.40625"
"1573642664593","742","0.22167969","-0.90527344","0.03515625","12.75","6.09375","15.0"
"1573642664593","743","0.2841797","-0.9140625","0.08691406","14.28125","9.5","4.875"
"1573642664593","744","0.31445312","-0.9511719","0.072265625","17.9375","-0.75","4.125"
"1573642664594","745","0.26660156","-1.0048828","0.08886719","18.71875","-6.0625","8.03125"
"1573642664595","746","0.23925781","-0.97753906","0.12402344","18.28125","-8.625","12.0625"
"1573642664595","747","0.21875","-0.96875","0.12011719","19.5625","0.03125","20.5625"
"1573642664595","748","0.19921875","-0.9667969","0.12011719","19.21875","7.90625","18.78125"
"1573642664596","749","0.22949219","-0.93359375","0.16699219","18.53125","7.8125","22.1875"
"1573642665186","750","0.16308594","-0.9707031","0.18457031","13.03125","4.1875","24.9375"
"1573642665186","751","0.15039062","-0.9628906","0.21777344","13.28125","6.46875","21.84375"
"1573642665186","752","0.16699219","-0.9453125","0.14355469","10.84375","4.5625","17.875"
"1573642665186","753","0.19824219","-0.97753906","0.2421875","8.96875","-3.8125","17.1875"
"1573642665187","754","0.09765625","-0.90234375","0.17480469","13.0","-8.0","23.65625"
"1573642665187","755","0.08886719","-0.98046875","0.19628906","13.09375","-12.96875","18.125"
"1573642665187","756","-0.009765625","-1.0253906","0.21289062","4.5625","2.4375","4.4375"
"1573642665188","757","0.047851562","-0.95214844","0.21484375","10.46875","12.375","10.0625"
"1573642665189","758","0.10449219","-1.0195312","0.24023438","7.125","14.8125","22.75"
"1573642665189","759","0.07421875","-0.984375","0.26757812","8.15625","6.5625","16.40625"
"1573642665387","760","0.044921875","-1.0029297","0.30078125","5.59375","-3.0625","6.21875"
"1573642665387","761","-0.10644531","-1.0830078","0.38085938","3.28125","-2.15625","1.4375"
"1573642665388","762","-0.029296875","-1.1914062","0.3564453","4.0","6.5625","6.875"
"1573642665388","763","0.028320312","-1.0009766","0.3125","0.0","-8.0","8.15625"
"1573642665388","764","-0.009765625","-0.82421875","0.37109375","4.5","-8.0","4.3125"
"1573642665388","765","-0.045898438","-0.8515625","0.29882812","3.71875","-16.375","-0.8125"
"1573642665389","766","-0.041992188","-0.94628906","0.36132812","3.9375","-8.625","-3.5625"
"1573642665389","767","0.0107421875","-0.9433594","0.33203125","6.5","-4.40625","1.875"
"1573642665389","768","0.0107421875","-0.91308594","0.3076172","1.6875","-16.0625","-2.09375"
"1573642665390","769","-0.028320312","-0.9902344","0.37695312","0.03125","-12.34375","-9.84375"
"1573642665785","770","0.024414062","-0.9277344","0.31933594","-2.34375","-10.9375","0.65625"
"1573642665785","771","0.095703125","-0.89160156","0.24804688","1.09375","-17.53125","7.5"
"1573642665785","772","0.034179688","-0.8984375","0.3330078","0.40625","-23.9375","-13.4375"
"1573642665786","773","-0.005859375","-0.94921875","0.2685547","2.84375","-10.6875","-8.875"
"1573642665786","774","0.045898438","-0.9111328","0.28710938","3.65625","-5.625","-3.375"
"1573642665786","775","-0.022460938","-0.9189453","0.35253906","1.03125","4.8125","-15.59375"
"1573642665786","776","-0.057617188","-0.9902344","0.3232422","0.65625","12.75","-24.3125"
"1573642665787","777","0.140625","-0.86621094","0.3251953","5.59375","26.78125","-6.0"
"1573642665787","778","0.080078125","-0.88183594","0.29492188","3.34375","9.125","-12.40625"
"1573642665787","779","-0.060546875","-0.9326172","0.28222656","0.03125","21.40625","-21.75"
"1573642666181","780","0.14453125","-0.95214844","0.35253906","-3.6875","19.15625","-10.6875"
"1573642666182","781","0.1328125","-0.88183594","0.35253906","-2.75","10.0","-11.4375"
"1573642666182","782","0.1328125","-0.8730469","0.19238281","-1.40625","1.3125","-7.09375"
"1573642666183","783","0.15429688","-0.9267578","0.2890625","-0.5625","3.15625","-12.90625"
"1573642666183","784","0.06347656","-0.80078125","0.1328125","-10.40625","-8.25","-4.65625"
"1573642666183","785","0.18261719","-0.86328125","0.37597656","-1.0625","-9.34375","-2.28125"
"1573642666183","786","0.056640625","-0.9160156","0.36914062","-2.21875","1.375","-12.34375"
"1573642666184","787","0.08300781","-1.0273438","0.31445312","-9.0","3.53125","6.28125"
"1573642666184","788","0.1171875","-0.8535156","0.36523438","-7.09375","6.21875","4.0625"
"1573642666184","789","0.103515625","-0.8798828","0.34472656","-2.28125","10.3125","4.0625"
"1573642666775","790","0.022460938","-0.9794922","0.2685547","-1.0","13.65625","0.03125"
"1573642666776","791","0.15722656","-0.90722656","0.35351562","1.6875","17.875","1.3125"
"1573642666776","792","0.22851562","-0.9169922","0.3076172","-3.125","3.40625","0.53125"
"1573642666778","793","0.140625","-0.96875","0.32226562","-6.96875","-5.4375","-3.125"
"1573642666778","794","0.1015625","-0.92285156","0.28320312","-6.25","-5.5625","-2.03125"
"1573642666778","795","0.13574219","-0.90234375","0.3154297","-5.6875","-2.59375","-0.5"
"1573642666779","796","0.125","-0.9169922","0.28515625","-6.71875","-8.125","0.90625"
"1573642666779","797","0.09277344","-0.9091797","0.31835938","-11.1875","-7.875","-4.71875"
"1573642666779","798","0.10839844","-0.8808594","0.26464844","-12.59375","-5.375","-4.09375"
"1573642666779","799","0.18066406","-0.9433594","0.29785156","-6.71875","-4.65625","4.6875"
"1573642666978","800","0.13574219","-0.9765625","0.31445312","-6.0625","-9.125","-6.125"
"1573642666979","801","0.107421875","-0.99902344","0.25390625","-7.21875","-15.03125","-3.3125"
"1573642666979","802","0.1328125","-0.9248047","0.2626953","-6.4375","-15.09375","-1.59375"
"1573642666979","803","0.15136719","-0.8574219","0.28125","0.65625","-16.25","6.5625"
"1573642666980","804","0.1015625","-0.9248047","0.33007812","2.0","-16.9375","0.0"
"1573642666981","805","0.061523438","-0.9160156","0.30664062","0.03125","-6.5","2.90625"
"1573642666981","806","0.12890625","-0.87890625","0.38867188","-2.53125","0.03125","2.5"
"1573642666982","807","0.14355469","-0.8105469","0.2890625","-2.09375","-7.53125","6.28125"
"1573642666982","808","0.1328125","-0.875","0.3984375","-0.5","-6.71875","4.125"
"1573642666982","809","0.01953125","-0.8574219","0.25976562","-0.875","-6.25","10.1875"
"1573642667373","810","0.10253906","-0.83984375","0.37402344","-5.5625","-1.0","15.71875"
"1573642667373","811","0.041992188","-0.7011719","0.23046875","-12.34375","-10.34375","17.6875"
"1573642667374","812","-0.024414062","-0.6435547","0.3203125","-17.96875","7.75","11.9375"
"1573642667374","813","0.09472656","-0.49121094","0.21582031","-21.25","9.09375","0.34375"
"1573642667374","814","-0.07519531","-0.5732422","0.24121094","-24.3125","9.4375","-6.125"
"1573642667374","815","-0.15625","-0.9160156","0.31347656","-29.875","38.75","-29.5"
"1573642667375","816","0.2685547","-1.8857422","0.22363281","-25.21875","60.28125","-49.8125"
"1573642667376","817","0.20800781","-2.0","0.2939453","-7.9375","67.25","27.5625"
"1573642667376","818","0.17285156","-1.3662109","0.1171875","-14.59375","40.4375","7.90625"
"1573642667376","819","0.61816406","-0.99121094","0.0703125","-12.34375","-8.6875","26.59375"
"1573642667772","820","0.028320312","-0.52734375","-0.103515625","-6.0","-15.625","14.875"
"1573642667773","821","-0.25683594","-0.73828125","-0.09375","-17.96875","9.4375","1.875"
"1573642667773","822","0.041015625","-0.9404297","0.021484375","-25.90625","22.375","-24.75"
"1573642667773","823","0.39160156","-0.93847656","0.0703125","-17.78125","-8.6875","-45.0"
"1573642667773","824","0.12402344","-0.9902344","0.107421875","-21.3125","-26.375","-14.1875"
"1573642667774","825","-0.041992188","-1.0009766","-0.0546875","-15.46875","-2.75","6.5625"
"1573642667774","826","0.15429688","-0.9394531","0.030273438","-15.21875","-1.34375","2.25"
"1573642667774","827","-0.056640625","-0.98535156","-0.005859375","-21.6875","7.5625","-8.1875"
"1573642667774","828","0.2919922","-1.2167969","0.23925781","8.34375","19.40625","-74.0"
"1573642667776","829","0.04296875","-0.9248047","0.17675781","-21.625","0.40625","19.875"
"1573642668366","830","-0.059570312","-0.8125","-0.08300781","15.71875","35.375","41.1875"
"1573642668366","831","0.2939453","-0.70703125","0.09863281","10.1875","37.09375","-21.3125"
"1573642668366","832","0.5078125","-1.328125","0.13378906","-14.71875","-4.15625","-66.59375"
"1573642668366","833","0.10546875","-1.1005859","0.12597656","-19.96875","-21.8125","-6.78125"
"1573642668367","834","0.18261719","-0.7763672","0.024414062","7.96875","-3.6875","16.53125"
"1573642668367","835","0.28808594","-0.8046875","0.07519531","3.53125","-1.65625","-15.6875"
"1573642668367","836","0.15917969","-1.0927734","-0.00390625","-5.5625","-18.21875","-26.875"
"1573642668367","837","0.15527344","-1.1289062","0.07910156","-4.96875","-5.875","1.6875"
"1573642668368","838","0.21582031","-0.93847656","0.0703125","-6.59375","3.15625","7.90625"
"1573642668368","839","0.21484375","-0.8857422","0.048828125","2.125","7.8125","4.0"
"1573642668566","840","0.17382812","-0.9589844","0.036132812","3.53125","10.59375","-0.4375"
"1573642668568","841","0.2734375","-0.9824219","0.064453125","6.09375","6.46875","0.90625"
"1573642668568","842","0.3095703","-0.9560547","0.06347656","8.96875","-10.5625","8.84375"
"1573642668568","843","0.22460938","-0.89160156","0.064453125","11.34375","-27.3125","13.59375"
"1573642668569","844","0.19824219","-0.9501953","0.08886719","9.5","-27.46875","11.15625"
"1573642668569","845","0.18554688","-1.0556641","0.04296875","12.4375","-28.28125","5.46875"
"1573642668569","846","0.18945312","-1.0507812","0.06640625","6.625","-22.125","17.1875"
"1573642668570","847","0.19726562","-0.98535156","0.044921875","10.96875","-31.09375","20.90625"
"1573642668570","848","0.14550781","-0.9472656","0.10253906","12.1875","-19.0","18.21875"
"1573642668570","849","0.14160156","-0.95996094","0.08886719","19.625","-19.65625","17.0625"
"1573642669163","850","0.13964844","-0.9941406","0.06640625","20.84375","-7.40625","18.40625"
"1573642669164","851","0.1484375","-0.9550781","0.103515625","16.34375","-7.53125","17.0625"
"1573642669164","852","0.12890625","-0.9638672","0.11328125","13.0","-2.8125","13.28125"
"1573642669165","853","0.16699219","-0.93847656","0.107421875","13.09375","-2.625","4.9375"
"1573642669165","854","0.14746094","-0.9951172","0.15039062","17.5625","-3.75","3.71875"
"1573642669166","855","-0.013671875","-1.0009766","0.18066406","14.875","1.09375","10.0625"
"1573642669166","856","-0.00390625","-0.93847656","0.19628906","22.5625","15.0625","15.84375"
"1573642669166","857","0.07128906","-0.93359375","0.24707031","23.96875","19.5625","17.875"
"1573642669166","858","0.051757812","-1.015625","0.1875","15.1875","14.875","7.125"
"1573642669167","859","0.12402344","-0.91503906","0.27539062","13.40625","3.90625","1.15625"
"1573642669361","860","-0.028320312","-0.98339844","0.28515625","6.875","-2.6875","-3.5"
"1573642669362","861","-0.0107421875","-1.0048828","0.3466797","4.1875","3.09375","-5.875"
"1573642669362","862","0.055664062","-1.0078125","0.37402344","9.8125","11.40625","15.0625"
"1573642669362","863","-0.009765625","-0.94140625","0.3984375","9.5","12.5","8.15625"
"1573642669362","864","0.119140625","-0.95703125","0.3779297","8.84375","2.96875","5.34375"
"1573642669364","865","-0.022460938","-0.9609375","0.3486328","2.71875","-2.03125","-0.6875"
"1573642669364","866","0.07519531","-0.8779297","0.30273438","1.3125","0.65625","0.96875"
"1573642669364","867","-0.018554688","-0.9638672","0.38867188","-6.3125","8.78125","1.75"
"1573642669364","868","0.06933594","-0.84472656","0.28222656","4.1875","0.71875","4.125"
"1573642669365","869","-0.017578125","-0.9785156","0.28808594","0.28125","-2.6875","-10.625"
"1573642670153","870","-0.045898438","-1.1591797","0.34179688","-10.5","16.46875","-3.5625"
"1573642670153","871","0.171875","-0.86328125","0.2763672","-1.0","9.09375","4.125"
"1573642670153","872","-0.053710938","-1.0253906","0.28515625","-8.625","-1.0625","-5.4375"
"1573642670154","873","0.083984375","-0.90527344","0.30273438","-3.0","13.0","-4.21875"
"1573642670154","874","-0.033203125","-0.9658203","0.24609375","-6.78125","-2.75","-3.5625"
"1573642670154","875","0.059570312","-0.95214844","0.3720703","-3.25","13.65625","-1.0"
"1573642670154","876","0.08886719","-0.9316406","0.25195312","-0.3125","13.21875","1.875"
"1573642670156","877","0.056640625","-1.0605469","0.2998047","-7.8125","6.21875","-10.75"
"1573642670156","878","0.109375","-0.9921875","0.43359375","-3.0625","1.9375","-9.0625"
"1573642670157","879","-0.033203125","-1.0302734","0.20410156","-7.59375","-3.25","-12.78125"
"1573642670352","880","0.025390625","-0.96191406","0.23535156","-4.15625","15.4375","-15.34375"
"1573642670353","881","0.05078125","-0.9082031","0.36914062","-10.6875","17.125","-10.15625"
"1573642670353","882","-0.017578125","-0.921875","0.23828125","-7.03125","13.65625","-19.25"
"1573642670353","883","-0.07128906","-0.91015625","0.32128906","-10.40625","24.65625","-24.4375"
"1573642670353","884","0.13085938","-0.8515625","0.33203125","-3.75","27.75","-14.1875"
"1573642670354","885","0.23828125","-0.8935547","0.36132812","1.375","8.90625","1.5625"
"1573642670354","886","-0.10253906","-0.9824219","0.22558594","2.65625","-2.53125","-11.4375"
"1573642670354","887","0.046875","-0.984375","0.36132812","-6.0","18.21875","-18.4375"
"1573642670354","888","0.17675781","-0.8496094","0.171875","7.375","16.40625","-12.46875"
"1573642670355","889","0.0859375","-0.96777344","0.2998047","6.5625","1.6875","-17.46875"
"1573642670554","890","0.040039062","-1.03125","0.29003906","-1.71875","12.5625","-33.09375"
"1573642670554","891","0.1953125","-0.94140625","0.21875","-6.59375","7.1875","-15.8125"
"1573642670555","892","0.12792969","-0.79296875","0.2685547","-8.6875","3.84375","-6.1875"
"1573642670555","893","0.026367188","-0.83691406","0.20800781","-12.71875","1.4375","-15.40625"
"1573642670555","894","0.076171875","-0.9404297","0.22167969","-11.0625","3.28125","-15.34375"
"1573642670555","895","0.045898438","-0.921875","0.21875","-12.28125","10.3125","-5.875"
"1573642670556","896","0.2685547","-0.7753906","0.23144531","-6.90625","1.9375","10.71875"
"1573642670556","897","0.22949219","-0.93652344","0.28222656","-4.78125","-22.34375","-3.75"
"1573642670556","898","0.17773438","-1.0400391","0.2705078","-7.65625","-8.4375","-12.65625"
"1573642670556","899","0.1875","-1.078125","0.27929688","-9.28125","-14.34375","2.0625"
"1573642670952","900","0.09472656","-0.8417969","0.17675781","2.0","-7.53125","8.34375"
"1573642670954","901","0.123046875","-0.8574219","0.19140625","1.09375","0.0","9.25"
"1573642670954","902","0.06640625","-0.9628906","0.24902344","-3.375","10.40625","-6.59375"
"1573642670955","903","0.28710938","-0.93359375","0.3203125","-4.53125","11.34375","-2.34375"
"1573642670955","904","0.18652344","-0.9707031","0.26171875","-6.84375","-1.90625","-3.5625"
"1573642670955","905","0.15039062","-0.9189453","0.24511719","-5.15625","-2.09375","0.96875"
"1573642670956","906","0.1640625","-0.9238281","0.21679688","-5.4375","2.59375","-0.125"
"1573642670956","907","0.18652344","-0.9580078","0.21289062","-5.03125","-3.0625","-5.875"
"1573642670956","908","0.23046875","-0.9638672","0.25390625","-3.96875","-10.15625","-1.71875"
"1573642670957","909","0.17480469","-0.9472656","0.234375","-4.03125","-14.125","-0.3125"
"1573642671744","910","0.11035156","-0.91015625","0.20996094","-1.40625","-14.25","-2.40625"
"1573642671745","911","0.13183594","-0.8642578","0.24902344","3.15625","-3.96875","5.34375"
"1573642671745","912","0.11230469","-0.7910156","0.2421875","9.09375","-3.125","8.59375"
"1573642671747","913","0.07519531","-0.859375","0.3388672","4.0","8.46875","8.28125"
"1573642671747","914","0.19238281","-0.7939453","0.35253906","-5.6875","-0.75","7.125"
"1573642671747","915","0.15234375","-0.6611328","0.18652344","-7.40625","-15.75","11.8125"
"1573642671748","916","0.0390625","-0.5859375","0.3125","-9.0","-17.46875","9.03125"
"1573642671748","917","0.01171875","-0.6279297","0.22167969","-6.59375","-15.09375","1.875"
"1573642671748","918","-0.10449219","-0.73535156","0.24804688","-13.4375","-26.3125","-5.625"
"1573642671749","919","-0.016601562","-0.8300781","0.2705078","-17.15625","-7.40625","2.125"
"1573642671941","920","0.18164062","-0.9316406","0.41015625","0.34375","16.53125","16.40625"
"1573642671942","921","0.16308594","-1.6474609","0.31835938","13.03125","24.09375","-9.84375"
"1573642671942","922","0.21972656","-2.0","0.19238281","-0.25","13.90625","5.40625"
"1573642671942","923","0.30078125","-1.7207031","0.2109375","11.15625","10.0625","18.40625"
"1573642671942","924","0.21191406","-1.0791016","0.17089844","-2.75","16.78125","20.5625"
"1573642671943","925","0.10253906","-0.6201172","0.07324219","-11.78125","-8.625","45.53125"
"1573642671944","926","-0.083984375","-0.6123047","0.033203125","-5.8125","29.34375","18.21875"
"1573642671944","927","0.14453125","-0.9423828","0.076171875","-11.0625","15.25","-29.96875"
"1573642671944","928","0.3720703","-1.1816406","0.095703125","-18.3125","-14.65625","-24.84375"
"1573642671945","929","0.13574219","-1.0058594","0.057617188","-6.1875","-28.15625","20.4375"
"1573642672342","930","-0.029296875","-0.90527344","0.08984375","-9.40625","-9.0625","16.15625"
"1573642672342","931","0.013671875","-0.98046875","0.025390625","-6.84375","2.90625","-10.34375"
"1573642672342","932","0.07128906","-1.0751953","0.09765625","-12.34375","17.0","-19.0625"
"1573642672342","933","0.10058594","-0.96875","0.040039062","-13.4375","6.8125","-8.6875"
"1573642672343","934","0.038085938","-0.8535156","0.07910156","-17.15625","1.5625","0.65625"
"1573642672343","935","0.22949219","-1.0517578","0.24804688","-5.6875","8.09375","-37.3125"
"1573642672343","936","-0.022460938","-0.92285156","0.15332031","-17.78125","11.21875","-22.46875"
"1573642672344","937","0.043945312","-1.0175781","0.13964844","3.59375","25.8125","15.3125"
"1573642672344","938","0.24414062","-0.875","0.18457031","7.375","31.0","-34.0"
"1573642672344","939","0.3466797","-1.2011719","0.15039062","-2.40625","7.75","-33.40625"
"1573642672937","940","0.20605469","-1.0166016","0.099609375","-2.59375","-14.1875","9.6875"
"1573642672938","941","0.19824219","-0.7441406","0.08984375","3.15625","-11.84375","5.0625"
"1573642672938","942","0.18847656","-0.88964844","0.11035156","2.125","-17.46875","-10.40625"
"1573642672938","943","0.1640625","-1.1152344","0.13964844","7.3125","-14.78125","-5.9375"
"1573642672938","944","0.22363281","-0.9550781","0.15625","4.0625","-12.28125","13.40625"
"1573642672939","945","0.26464844","-0.84472656","0.16601562","-0.8125","-20.59375","5.59375"
"1573642672939","946","0.1796875","-0.99121094","0.09277344","-1.125","-21.5","-9.34375"
"1573642672940","947","0.15527344","-1.1123047","0.12109375","-0.0625","-9.0625","-6.65625"
"1573642672940","948","0.18652344","-1.0439453","0.111328125","0.84375","-3.0625","9.8125"
"1573642672940","949","0.171875","-0.9394531","0.09863281","6.03125","7.0","7.8125"
"1573642672941","950","0.22949219","-0.9160156","0.08691406","7.125","6.5625","7.25"
"1573642672941","951","0.21777344","-0.9716797","0.15039062","4.6875","5.21875","2.65625"
"1573642672941","952","0.21484375","-0.9091797","0.109375","8.53125","-8.8125","2.84375"
"1573642672942","953","0.19726562","-0.9580078","0.111328125","7.75","-5.375","6.34375"
"1573642672942","954","0.19921875","-0.98046875","0.18945312","4.25","-21.5","6.8125"
"1573642672943","955","0.07910156","-0.95410156","0.14453125","1.6875","-20.9375","7.25"
"1573642672943","956","0.068359375","-1.0048828","0.16503906","4.75","-14.46875","9.6875"
"1573642672943","957","0.11816406","-0.9472656","0.19726562","7.125","2.90625","12.25"
"1573642672944","958","0.16796875","-0.9394531","0.20410156","13.84375","4.125","17.375"
"1573642672944","959","0.12988281","-0.9404297","0.20898438","10.125","-1.1875","8.03125"
"1573642673338","960","0.076171875","-0.9589844","0.18847656","9.875","-3.625","5.78125"
"1573642673340","961","0.10546875","-0.9453125","0.24511719","12.375","3.03125","8.84375"
"1573642673340","962","0.078125","-0.9560547","0.2265625","10.59375","0.78125","7.625"
"1573642673340","963","0.08105469","-0.9716797","0.25097656","9.5","5.21875","4.6875"
"1573642673341","964","0.076171875","-0.9589844","0.24902344","6.09375","-2.9375","3.09375"
"1573642673341","965","0.022460938","-0.9873047","0.22851562","6.46875","1.6875","5.90625"
"1573642673341","966","0.024414062","-0.9736328","0.23828125","3.90625","7.0","4.125"
"1573642673342","967","0.07421875","-0.953125","0.22851562","4.0625","5.21875","4.5625"
"1573642673342","968","0.080078125","-0.9716797","0.22753906","4.4375","6.15625","5.125"
"1573642673342","969","0.07324219","-0.984375","0.25195312","-1.0625","3.28125","4.375"
"1573642673734","970","0.07421875","-1.0019531","0.33789062","2.0","1.75","1.3125"
"1573642673735","971","0.030273438","-1.0244141","0.2763672","4.125","4.875","-3.8125"
"1573642673735","972","0.040039062","-1.1210938","0.37695312","2.0","15.96875","-2.46875"
"1573642673736","973","0.11816406","-0.9638672","0.3076172","10.84375","13.0","-1.34375"
"1573642673737","974","0.08984375","-1.0751953","0.35253906","6.8125","8.34375","-7.53125"
"1573642673737","975","0.103515625","-0.9140625","0.38964844","11.28125","13.71875","-0.875"
"1573642673737","976","-0.038085938","-0.86621094","0.33691406","2.96875","-2.59375","-0.4375"
"1573642673737","977","-0.049804688","-1.0019531","0.25683594","12.1875","18.90625","-9.96875"
"1573642673738","978","0.10644531","-0.99121094","0.3095703","3.65625","31.25","-1.125"
"1573642673738","979","0.20800781","-0.9628906","0.3623047","1.5","15.84375","-4.09375"
"1573642674132","980","0.0234375","-1.0166016","0.37402344","-8.3125","13.0","-18.4375"
"1573642674132","981","0.061523438","-0.93066406","0.3154297","-6.90625","22.75","-20.09375"
"1573642674132","982","0.030273438","-0.9394531","0.3154297","-8.3125","14.3125","-18.375"
"1573642674133","983","0.05078125","-0.8300781","0.29101562","-9.71875","21.71875","-12.90625"
"1573642674133","984","0.18359375","-0.8496094","0.35058594","-5.8125","-1.3125","-13.03125"
"1573642674133","985","0.001953125","-0.9199219","0.3779297","-5.8125","-10.625","-14.59375"
"1573642674134","986","0.018554688","-0.9873047","0.25","-8.1875","11.53125","-11.71875"
"1573642674134","987","0.15820312","-0.8339844","0.34277344","-6.5","1.625","-5.5"
"1573642674134","988","-0.051757812","-0.86035156","0.31347656","-4.90625","14.5625","-20.09375"
"1573642674135","989","0.109375","-0.9316406","0.21875","-5.9375","25.0","-6.1875"
"1573642674530","990","0.203125","-0.7998047","0.375","-9.0625","18.125","-2.8125"
"1573642674530","991","0.0625","-0.73339844","0.24316406","-3.875","9.875","-9.28125"
"1573642674531","992","-0.026367188","-0.89453125","0.25585938","6.6875","24.03125","0.65625"
"1573642674531","993","0.203125","-0.9404297","0.35839844","1.03125","17.5","11.03125"
"1573642674531","994","0.103515625","-0.9296875","0.22851562","3.15625","-2.53125","9.03125"
"1573642674532","995","0.059570312","-0.96191406","0.23632812","-2.28125","-4.78125","-3.5"
"1573642674532","996","0.11035156","-0.86816406","0.35058594","-5.15625","-1.34375","-8.9375"
"1573642674532","997","0.2841797","-0.90234375","0.31835938","0.65625","-9.28125","3.90625"
"1573642674532","998","0.0234375","-0.94433594","0.23535156","-5.15625","-30.90625","4.6875"
"1573642674534","999","0.1171875","-0.88671875","0.38867188","-4.28125","-10.03125","-9.46875"
"1573642674927","1000","0.06347656","-0.9394531","0.2421875","0.0","-9.71875","3.34375"
"1573642674928","1001","0.1171875","-0.9501953","0.31640625","-0.4375","-2.34375","3.59375"
"1573642674928","1002","0.09277344","-0.92871094","0.3173828","-1.96875","7.0625","-7.21875"
"1573642674928","1003","0.2529297","-0.9248047","0.26953125","0.96875","-2.46875","-1.71875"
"1573642674928","1004","0.12207031","-0.9111328","0.28222656","0.84375","-18.625","-7.34375"
"1573642674929","1005","0.11035156","-0.90625","0.29296875","0.46875","-18.625","-1.59375"
"1573642674929","1006","0.087890625","-0.92285156","0.30566406","-0.6875","-8.4375","-0.5625"
"1573642674929","1007","0.19042969","-0.9736328","0.390625","-10.28125","-7.78125","-10.40625"
"1573642674930","1008","0.15234375","-0.9501953","0.328125","-16.1875","-22.59375","-9.34375"
"1573642674930","1009","0.055664062","-0.9609375","0.25683594","-14.90625","-11.0625","-7.15625"
"1573642675324","1010","0.20214844","-0.9589844","0.30273438","-14.71875","-6.78125","-7.53125"
"1573642675324","1011","0.12597656","-0.9160156","0.26464844","-12.34375","-14.1875","-4.21875"
"1573642675325","1012","0.11425781","-0.8935547","0.25097656","-12.15625","-1.1875","-7.46875"
"1573642675325","1013","0.23632812","-0.78222656","0.3125","-9.28125","-2.53125","4.8125"
"1573642675325","1014","0.15625","-0.70410156","0.2685547","-10.5","-14.25","6.5625"
"1573642675325","1015","0.052734375","-0.5996094","0.21679688","-14.1875","-5.5","11.9375"
"1573642675326","1016","0.08300781","-0.50097656","0.22265625","-10.09375","11.46875","19.6875"
"1573642675326","1017","0.10546875","-0.53808594","0.27929688","-9.71875","0.09375","-7.53125"
"1573642675326","1018","0.0234375","-0.6875","0.23144531","-16.25","-19.84375","-9.59375"
"1573642675326","1019","-0.041015625","-0.8125","0.27539062","-12.84375","-6.3125","15.0"
"1573642675918","1020","0.16796875","-1.0224609","0.3125","-5.4375","0.03125","18.34375"
"1573642675919","1021","0.07714844","-2.0","0.2626953","4.375","22.09375","-24.78125"
"1573642675920","1022","0.4794922","-1.8515625","0.27929688","-12.71875","0.71875","6.03125"
"1573642675921","1023","0.4248047","-1.1015625","0.091796875","-4.15625","-11.5625","33.6875"
"1573642675921","1024","-0.001953125","-1.0869141","-0.013671875","2.84375","16.53125","19.53125"
"1573642675921","1025","0.15429688","-0.99609375","0.0390625","-14.0625","24.53125","10.375"
"1573642675922","1026","0.24511719","-0.7246094","0.036132812","-19.1875","16.28125","2.1875"
"1573642675922","1027","0.22167969","-0.6308594","0.038085938","-17.21875","-9.78125","-4.28125"
"1573642675923","1028","0.1796875","-0.8623047","0.036132812","-9.53125","-25.15625","-11.5"
"1573642675923","1029","0.08203125","-1.1572266","0.06738281","-1.3125","-22.0625","-12.96875"
"1573642676118","1030","-0.0107421875","-1.1210938","0.029296875","-5.21875","2.3125","3.46875"
"1573642676119","1031","0.171875","-0.97753906","0.07421875","-6.71875","15.0","8.15625"
"1573642676119","1032","0.171875","-0.8574219","0.049804688","-6.71875","9.625","-5.15625"
"1573642676120","1033","0.04296875","-0.9814453","0.024414062","-6.5","10.78125","-1.84375"
"1573642676121","1034","0.026367188","-0.953125","0.020507812","-2.40625","16.84375","-2.6875"
"1573642676121","1035","0.038085938","-1.0126953","0.19628906","-13.5","46.0","-3.5"
"1573642676121","1036","0.24804688","-1.046875","0.12011719","-2.34375","5.46875","-58.375"
"1573642676121","1037","-0.018554688","-0.9550781","0.060546875","-19.1875","19.875","40.9375"
"1573642676122","1038","0.13867188","-0.6953125","0.09765625","10.84375","44.84375","2.65625"
"1573642676122","1039","0.3671875","-0.79785156","0.12695312","-11.125","10.78125","-35.15625"
"1573642676517","1040","0.2626953","-1.4619141","0.18164062","-13.5625","-10.5625","-35.0625"
"1573642676518","1041","0.078125","-1.0","0.15625","-9.125","-18.5625","23.125"
"1573642676518","1042","0.18554688","-0.734375","0.11816406","2.5","-3.375","15.71875"
"1573642676518","1043","0.19628906","-0.8769531","0.016601562","-3.90625","-13.125","-19.53125"
"1573642676518","1044","0.18261719","-1.1464844","0.12792969","-5.21875","-19.78125","-21.25"
"1573642676520","1045","0.14160156","-1.0419922","0.09863281","-4.28125","-16.625","2.1875"
"1573642676520","1046","0.21484375","-0.87402344","0.12597656","-1.125","-16.4375","15.0"
"1573642676521","1047","0.12792969","-0.81640625","0.11230469","3.46875","-16.375","-2.28125"
"1573642676521","1048","0.19042969","-1.03125","0.14355469","3.9375","-5.03125","-6.78125"
"1573642676521","1049","0.18066406","-1.1289062","0.115234375","0.90625","-5.875","-2.34375"
"1573642677111","1050","0.18945312","-0.953125","0.09375","2.0625","-9.0625","9.6875"
"1573642677111","1051","0.18554688","-0.94140625","0.107421875","8.40625","-9.59375","9.375"
"1573642677111","1052","0.17285156","-0.99902344","0.11328125","8.09375","-3.5625","6.46875"
"1573642677111","1053","0.19433594","-1.0117188","0.12109375","8.15625","-3.4375","3.46875"
"1573642677112","1054","0.15527344","-0.9707031","0.0625","9.09375","-1.34375","5.53125"
"1573642677112","1055","0.17382812","-0.95214844","0.16210938","3.34375","3.03125","2.65625"
"1573642677112","1056","0.15917969","-0.9423828","0.095703125","5.90625","3.34375","1.3125"
"1573642677114","1057","0.17773438","-0.9550781","0.109375","7.125","4.125","3.21875"
"1573642677114","1058","0.16992188","-0.96191406","0.12597656","6.5625","0.40625","3.53125"
"1573642677114","1059","0.14746094","-0.9482422","0.14355469","8.84375","4.375","5.34375"
"1573642677506","1060","0.15429688","-0.9746094","0.12988281","10.84375","4.0","3.59375"
"1573642677507","1061","0.14453125","-0.9609375","0.1328125","9.5625","2.1875","5.78125"
"1573642677507","1062","0.14550781","-0.9785156","0.15625","7.8125","7.125","9.125"
"1573642677507","1063","0.15039062","-0.9902344","0.14941406","4.6875","3.34375","6.21875"
"1573642677507","1064","0.13476562","-0.9472656","0.17089844","8.03125","5.59375","9.9375"
"1573642677508","1065","0.095703125","-0.9316406","0.12402344","13.71875","1.625","15.0625"
"1573642677508","1066","0.09082031","-0.97753906","0.15527344","9.375","5.90625","17.75"
"1573642677508","1067","0.18945312","-1.0185547","0.19140625","10.0","-1.3125","8.71875"
"1573642677508","1068","0.09472656","-0.99121094","0.14257812","10.40625","-8.125","9.375"
"1573642677509","1069","0.032226562","-1.0605469","0.19238281","8.96875","-8.125","17.4375"
"1573642677709","1070","0.061523438","-0.9785156","0.20996094","8.46875","6.03125","13.28125"
"1573642677710","1071","-0.04296875","-1.0039062","0.234375","8.46875","7.125","6.6875"
"1573642677710","1072","0.10449219","-0.9160156","0.2919922","11.9375","10.25","8.71875"
"1573642677710","1073","0.016601562","-1.0244141","0.2998047","8.84375","5.65625","7.25"
"1573642677710","1074","0.111328125","-0.9472656","0.3359375","16.09375","-4.34375","11.03125"
"1573642677711","1075","-0.064453125","-1.0","0.26660156","10.84375","-8.25","3.53125"
"1573642677711","1076","0.034179688","-0.9902344","0.34375","7.90625","6.5625","12.375"
"1573642677711","1077","0.022460938","-0.92871094","0.3623047","12.3125","-1.0625","11.8125"
"1573642677711","1078","-0.025390625","-0.90625","0.3095703","15.1875","0.90625","3.21875"
"1573642677712","1079","0.0048828125","-1.0615234","0.2998047","8.84375","9.5","-3.90625"
"1573642678502","1080","0.06347656","-0.95996094","0.43652344","4.6875","-3.5","1.15625"
"1573642678503","1081","-0.07714844","-0.95996094","0.36132812","5.0625","-3.1875","-10.34375"
"1573642678503","1082","0.017578125","-0.9814453","0.40039062","1.21875","2.0","-2.03125"
"1573642678504","1083","-0.041992188","-0.8886719","0.3720703","1.15625","-4.21875","-13.3125"
"1573642678504","1084","-0.041992188","-0.97753906","0.3857422","-6.84375","0.34375","-22.40625"
"1573642678504","1085","0.10058594","-0.8652344","0.36132812","-3.1875","-18.625","-7.78125"
"1573642678505","1086","-0.15332031","-0.91308594","0.28710938","-9.84375","-9.65625","-18.09375"
"1573642678505","1087","0.0625","-0.9345703","0.36132812","-8.125","3.03125","-1.71875"
"1573642678505","1088","0.018554688","-0.93652344","0.33789062","-9.78125","18.0625","-12.03125"
"1573642678506","1089","0.09375","-0.96972656","0.34960938","-5.375","19.9375","-6.78125"
"1573642678900","1090","0.041992188","-0.96777344","0.34277344","-1.125","26.34375","-19.90625"
"1573642678900","1091","0.111328125","-0.87597656","0.34570312","-1.90625","25.0","-15.34375"
"1573642678901","1092","0.05859375","-0.83984375","0.23535156","-1.34375","16.90625","-15.53125"
"1573642678901","1093","0.11230469","-0.76953125","0.2685547","-0.4375","9.1875","-11.96875"
"1573642678902","1094","0.14550781","-0.7236328","0.21679688","-1.1875","-9.71875","-7.40625"
"1573642678902","1095","-0.0859375","-0.7783203","0.26464844","-7.09375","-15.8125","-3.5"
"1573642678902","1096","0.123046875","-0.9091797","0.234375","0.84375","-9.28125","-8.6875"
"1573642678903","1097","0.2529297","-0.95996094","0.36621094","-4.03125","-16.0","-1.65625"
"1573642678903","1098","0.048828125","-0.98535156","0.359375","-5.8125","-20.53125","-3.1875"
"1573642678903","1099","0.080078125","-0.90722656","0.32714844","-1.53125","-1.125","2.90625"
"1573642678905","1100","0.06640625","-0.97558594","0.2734375","-1.3125","0.90625","5.65625"
"1573642678906","1101","0.09082031","-0.9189453","0.28125","-4.46875","1.28125","4.3125"
"1573642678906","1102","0.099609375","-0.89746094","0.3076172","-7.78125","3.9375","4.1875"
"1573642678906","1103","0.15917969","-0.93066406","0.3408203","-8.375","8.78125","-1.65625"
"1573642678907","1104","0.18554688","-0.94628906","0.35351562","-13.8125","-1.3125","-5.9375"
"1573642678907","1105","0.0625","-0.9609375","0.31835938","-15.9375","-5.21875","-9.59375"
"1573642678907","1106","0.07421875","-0.9375","0.25976562","-13.3125","4.3125","-5.5"
"1573642678908","1107","0.13476562","-0.96191406","0.2998047","-11.71875","8.53125","-1.46875"
"1573642678908","1108","0.15332031","-0.9277344","0.27734375","-10.40625","0.78125","-5.8125"
"1573642678908","1109","0.14746094","-0.9082031","0.23632812","-9.34375","-8.875","-4.34375"
"1573642679300","1110","0.1484375","-0.89941406","0.31640625","-9.125","-8.9375","-8.8125"
"1573642679300","1111","0.111328125","-0.8857422","0.24316406","-7.875","-10.8125","-4.34375"
"1573642679301","1112","0.14648438","-0.8203125","0.26660156","-6.84375","-11.25","0.53125"
"1573642679301","1113","0.10449219","-0.8017578","0.26757812","-8.25","-11.90625","2.375"
"1573642679301","1114","0.12207031","-0.7763672","0.27148438","-4.46875","-7.875","4.5625"
"1573642679301","1115","0.037109375","-0.7402344","0.29785156","-6.4375","-4.09375","5.78125"
"1573642679302","1116","0.018554688","-0.63183594","0.2265625","-6.0625","12.5625","11.8125"
"1573642679304","1117","-0.033203125","-0.6386719","0.22949219","-5.75","8.40625","15.3125"
"1573642679304","1118","-0.049804688","-0.6044922","0.2626953","-16.25","16.03125","2.3125"
"1573642679305","1119","0.107421875","-0.6064453","0.3251953","-15.625","12.0","9.125"
"1573642680092","1120","-0.0390625","-0.94921875","0.26464844","-3.1875","22.5","8.21875"
"1573642680092","1121","0.234375","-2.0","0.328125","34.09375","54.96875","-33.65625"
"1573642680092","1122","0.3232422","-2.0","0.27539062","3.9375","-6.71875","12.375"
"1573642680093","1123","0.1640625","-1.140625","0.18261719","-17.09375","12.0","18.53125"
"1573642680093","1124","0.36328125","-0.6894531","0.022460938","-5.6875","-30.46875","23.65625"
"1573642680093","1125","-0.20605469","-0.515625","-0.059570312","-12.40625","9.1875","19.15625"
"1573642680094","1126","-0.07324219","-0.8330078","-0.020507812","-13.75","22.625","-1.59375"
"1573642680094","1127","0.43066406","-1.0917969","0.17089844","-17.96875","7.5625","-37.0625"
"1573642680094","1128","0.16796875","-0.9560547","0.13378906","-15.6875","-28.15625","-8.125"
"1573642680095","1129","-0.045898438","-1.0742188","0.060546875","-8.6875","-0.5625","22.625"
"1573642680290","1130","0.11328125","-0.91796875","0.11035156","-15.03125","11.09375","-5.15625"
"1573642680291","1131","0.16503906","-0.8779297","0.018554688","-6.5","5.1875","-19.53125"
"1573642680291","1132","0.053710938","-1.0107422","0.049804688","-6.78125","0.34375","-8.0"
"1573642680292","1133","-0.026367188","-0.98339844","0.1796875","-7.34375","21.78125","-0.875"
"1573642680292","1134","0.10449219","-1.0703125","0.24414062","-0.625","19.09375","-40.125"
"1573642680292","1135","-0.06933594","-0.94628906","0.08300781","-13.1875","23.4375","7.25"
"1573642680292","1136","0.15136719","-0.8378906","0.09277344","6.875","37.59375","4.875"
"1573642680292","1137","0.2578125","-0.90234375","0.13769531","-10.625","19.875","-36.6875"
"1573642680293","1138","0.19921875","-1.2724609","0.13085938","-22.0","2.96875","-43.09375"
"1573642680293","1139","0.12109375","-1.0419922","0.119140625","-17.21875","-2.8125","-3.8125"
"1573642680492","1140","0.16894531","-0.8378906","0.13085938","-9.125","4.9375","2.5"
"1573642680493","1141","0.19042969","-0.8828125","0.0703125","-13.75","-4.03125","-21.5625"
"1573642680494","1142","0.15722656","-1.0400391","0.09667969","-14.0","-7.03125","-27.46875"
"1573642680494","1143","0.15722656","-1.0224609","0.11425781","-12.78125","-5.03125","-14.125"
"1573642680495","1144","0.22558594","-0.8720703","0.12695312","-3.5625","-2.40625","5.0625"
"1573642680495","1145","0.22265625","-0.84277344","0.099609375","1.03125","-10.21875","-3.125"
"1573642680495","1146","0.17382812","-1.0712891","0.10449219","2.375","-2.8125","-13.375"
"1573642680495","1147","0.16699219","-1.0966797","0.07519531","-3.1875","-0.0625","2.65625"
"1573642680496","1148","0.19140625","-0.9472656","0.072265625","6.03125","4.0","15.84375"
"1573642680496","1149","0.2529297","-0.91015625","0.10546875","9.125","9.25","7.125"
"1573642680890","1150","0.21386719","-0.9765625","0.07714844","9.03125","1.5","3.53125"
"1573642680890","1151","0.25976562","-0.9814453","0.14648438","7.125","1.15625","2.3125"
"1573642680891","1152","0.23046875","-0.9345703","0.06640625","5.96875","-11.0625","0.53125"
"1573642680892","1153","0.20019531","-0.98046875","0.08105469","5.40625","-12.40625","0.65625"
"1573642680892","1154","0.21777344","-0.98046875","0.09277344","6.625","-11.375","4.125"
"1573642680893","1155","0.17382812","-0.9111328","0.111328125","5.53125","-9.34375","6.03125"
"1573642680893","1156","0.15039062","-0.9658203","0.09375","4.125","-6.0","2.1875"
"1573642680893","1157","0.19628906","-0.9873047","0.09472656","7.375","2.96875","2.5"
"1573642680893","1158","0.23925781","-0.9658203","0.10546875","3.53125","3.46875","7.0"
"1573642680894","1159","0.19433594","-0.96191406","0.095703125","0.96875","-3.6875","3.59375"
"1573642681286","1160","0.19726562","-0.9511719","0.09863281","-0.9375","-6.3125","4.875"
"1573642681287","1161","0.12988281","-0.9785156","0.07519531","-0.4375","-3.0","4.5625"
"1573642681287","1162","0.12695312","-1.0517578","0.14257812","2.90625","0.65625","5.90625"
"1573642681287","1163","0.1015625","-0.9824219","0.09667969","1.6875","11.53125","13.15625"
"1573642681287","1164","0.19433594","-0.88183594","0.123046875","6.28125","11.15625","20.5"
"1573642681289","1165","0.18652344","-0.89453125","0.13378906","10.1875","8.46875","10.46875"
"1573642681290","1166","0.12597656","-1.0175781","0.1328125","11.65625","-6.59375","9.03125"
"1573642681290","1167","0.046875","-0.9863281","0.17871094","17.6875","1.03125","20.6875"
"1573642681290","1168","0.03125","-0.9609375","0.12695312","16.9375","9.375","24.65625"
"1573642681291","1169","0.0859375","-0.9902344","0.2529297","21.28125","15.84375","23.65625"
"1573642681685","1170","0.041015625","-0.9794922","0.21484375","23.84375","6.15625","17.75"
"1573642681685","1171","-0.045898438","-1.0126953","0.3203125","21.59375","9.25","11.9375"
"1573642681685","1172","0.01953125","-0.86328125","0.25585938","24.34375","15.65625","13.71875"
"1573642681686","1173","0.018554688","-0.9453125","0.43652344","19.40625","8.71875","9.03125"
"1573642681686","1174","0.005859375","-0.9658203","0.31933594","16.53125","3.78125","5.40625"
"1573642681686","1175","0.0","-1.0644531","0.3154297","14.625","3.09375","7.125"
"1573642681686","1176","0.00390625","-1.0019531","0.3779297","12.1875","9.8125","13.28125"
"1573642681687","1177","-0.076171875","-1.1884766","0.3798828","13.53125","16.28125","9.375"
"1573642681687","1178","-0.013671875","-1.1357422","0.41992188","12.375","16.09375","-4.84375"
"1573642681688","1179","0.00390625","-0.9316406","0.31933594","9.25","8.03125","-3.4375"
"1573642682081","1180","-0.0107421875","-0.81347656","0.4013672","8.15625","3.59375","-2.34375"
"1573642682082","1181","-0.025390625","-0.80371094","0.40429688","7.84375","-2.59375","-2.8125"
"1573642682082","1182","-0.08984375","-0.88183594","0.39941406","6.8125","2.0","-16.9375"
"1573642682082","1183","-0.08300781","-0.94433594","0.47753906","0.0","6.03125","-12.40625"
"1573642682083","1184","0.009765625","-0.8671875","0.36328125","-2.75","6.75","-2.75"
"1573642682083","1185","-0.009765625","-0.92089844","0.34570312","-1.1875","5.28125","-0.3125"
"1573642682083","1186","0.047851562","-0.8564453","0.35351562","-9.34375","-6.65625","-2.875"
"1573642682083","1187","-0.041015625","-0.93652344","0.32910156","-3.0625","-4.09375","-10.8125"
"1573642682084","1188","0.018554688","-0.9472656","0.41015625","-3.375","9.875","-4.84375"
"1573642682084","1189","0.017578125","-0.92871094","0.35058594","-0.9375","-3.5625","-12.96875"
"1573642682480","1190","-0.18652344","-1.0761719","0.359375","-8.5","19.34375","-31.6875"
"1573642682480","1191","0.20996094","-0.8623047","0.3623047","-5.9375","28.625","-12.53125"
"1573642682480","1192","0.022460938","-0.7265625","0.32714844","-7.53125","9.625","-12.53125"
"1573642682481","1193","-0.0859375","-0.8623047","0.29003906","-1.96875","22.8125","-25.59375"
"1573642682481","1194","0.22363281","-0.7841797","0.26757812","-5.03125","4.8125","-3.0625"
"1573642682481","1195","0.12109375","-0.69140625","0.24121094","-3.1875","-21.25","4.8125"
"1573642682481","1196","0.061523438","-0.7158203","0.25976562","-0.8125","-32.25","-0.125"
"1573642682482","1197","0.15820312","-1.0634766","0.43652344","1.3125","-35.84375","-7.53125"
"1573642682482","1198","0.14453125","-1.0458984","0.42382812","-3.75","-27.78125","-10.15625"
"1573642682482","1199","0.17675781","-0.953125","0.41503906","-10.875","-52.375","10.71875"
"1573642682877","1200","-0.08203125","-0.87597656","0.29492188","-3.1875","-34.5","-7.71875"
"1573642682878","1201","0.030273438","-0.9472656","0.23828125","-0.0625","-8.25","3.21875"
"1573642682879","1202","0.076171875","-0.9433594","0.3486328","-2.15625","-6.125","8.03125"
"1573642682879","1203","-0.01171875","-0.8779297","0.34472656","-2.875","8.53125","0.15625"
"1573642682880","1204","0.18359375","-0.9550781","0.34472656","-2.03125","9.875","-6.0"
"1573642682880","1205","0.17871094","-0.96191406","0.31835938","-10.9375","-2.875","-3.96875"
"1573642682880","1206","0.11425781","-0.9326172","0.3095703","-13.03125","-2.21875","-3.0625"
"1573642682880","1207","0.109375","-0.90722656","0.28222656","-8.6875","-5.4375","-2.15625"
"1573642682881","1208","0.076171875","-0.9560547","0.29296875","-9.0625","-1.78125","-0.3125"
"1573642682881","1209","0.083984375","-0.89453125","0.27929688","-8.75","0.0","1.375"
"1573642683274","1210","0.12988281","-0.8935547","0.33203125","-3.8125","5.28125","4.5625"
"1573642683275","1211","0.09765625","-0.9199219","0.29785156","-4.28125","6.15625","0.0"
"1573642683275","1212","0.11230469","-0.94628906","0.3203125","-4.09375","5.1875","1.03125"
"1573642683277","1213","0.14648438","-0.9003906","0.31152344","-2.34375","1.5625","5.53125"
"1573642683277","1214","0.11816406","-0.8671875","0.33691406","-3.875","-5.75","2.78125"
"1573642683277","1215","0.10546875","-0.7578125","0.265625","-2.8125","-12.34375","4.5625"
"1573642683278","1216","0.10546875","-0.7910156","0.36914062","-2.03125","-5.375","-4.65625"
"1573642683278","1217","0.03125","-0.8183594","0.4482422","-8.3125","-8.625","-25.28125"
"1573642683278","1218","-0.07128906","-0.8486328","0.33203125","-7.71875","8.09375","-12.96875"
"1573642683279","1219","-0.032226562","-0.75","0.35058594","-3.0","27.9375","9.25"
"1573642683869","1220","-0.09082031","-0.609375","0.20605469","-0.1875","39.0625","28.3125"
"1573642683870","1221","0.017578125","-0.5957031","0.3154297","-9.21875","46.125","21.15625"
"1573642683870","1222","0.11621094","-0.58984375","0.3330078","-22.21875","28.1875","10.1875"
"1573642683870","1223","-0.0859375","-0.6855469","0.38476562","-21.1875","18.46875","15.5"
"1573642683870","1224","-0.13769531","-1.3769531","0.2265625","10.46875","62.78125","9.125"
"1573642683872","1225","0.41601562","-2.0","0.72265625","6.03125","47.46875","-25.34375"
"1573642683872","1226","-0.17285156","-1.5458984","0.27929688","-44.9375","0.59375","-2.875"
"1573642683872","1227","0.4501953","-1.0566406","0.20019531","-14.1875","-35.34375","32.21875"
"1573642683873","1228","-0.09082031","-0.39746094","0.028320312","-23.6875","-14.71875","34.90625"
"1573642683873","1229","-0.24511719","-0.24804688","0.047851562","-27.34375","17.8125","10.46875"
"1573642684267","1230","0.05859375","-0.6982422","0.13671875","-25.59375","20.25","-33.65625"
"1573642684268","1231","0.17871094","-1.5517578","0.15722656","-7.9375","-26.4375","-90.53125"
"1573642684268","1232","-0.24414062","-1.3867188","0.20214844","-56.96875","18.71875","17.3125"
"1573642684268","1233","0.1328125","-0.9013672","0.053710938","-31.25","17.4375","46.0"
"1573642684268","1234","0.061523438","-0.64746094","0.046875","-26.6875","20.625","-7.71875"
"1573642684269","1235","-0.11035156","-0.9482422","0.01953125","-17.40625","19.03125","-36.03125"
"1573642684269","1236","-0.23535156","-1.1103516","-0.022460938","-27.53125","41.90625","-4.46875"
"1573642684270","1237","-0.08203125","-0.98828125","0.07714844","-26.4375","61.03125","-9.0625"
"1573642684271","1238","-0.0390625","-1.09375","0.055664062","-33.28125","69.0625","-38.96875"
"1573642684271","1239","0.049804688","-0.9814453","0.045898438","-32.78125","72.3125","-22.28125"
"1573642684466","1240","0.13574219","-0.9267578","0.028320312","-20.59375","73.34375","-16.875"
"1573642684467","1241","0.2890625","-0.9814453","-0.0068359375","-23.875","74.21875","-42.625"
"1573642684467","1242","0.20117188","-1.09375","-0.0048828125","-31.4375","58.46875","-17.65625"
"1573642684467","1243","0.13867188","-0.9580078","0.03515625","-30.78125","62.1875","-9.71875"
"1573642684467","1244","0.20019531","-0.8535156","-0.0048828125","-25.65625","58.8125","-16.5625"
"1573642684468","1245","0.18359375","-0.85058594","0.0","-21.875","59.1875","-8.0"
"1573642684468","1246","0.15527344","-0.9248047","0.05078125","-23.9375","66.21875","-9.53125"
"1573642684468","1247","0.12402344","-1.140625","0.0126953125","-23.28125","95.5625","-23.875"
"1573642684468","1248","0.2421875","-1.0927734","-0.0146484375","-33.875","104.28125","-14.46875"
"1573642684469","1249","0.3251953","-0.9003906","0.038085938","-32.5","96.46875","-10.5625"
