"# PR data"
"# Start time: 20191113T104303"
"# Subject: sharan"
"# Activity type: Sit to stand"
"# Correctness: Incorrect"
"# Notes: "
""
"timestamp","seq","accel_x","accel_y","accel_z","gyro_x","gyro_y","gyro_z"
"1573641783731","0","0.029296875","-0.99316406","0.11035156","-7.9375","-6.53125","-3.3125"
"1573641783732","1","0.024414062","-0.98535156","0.09863281","-4.40625","-1.1875","-3.0625"
"1573641783732","2","0.021484375","-0.9716797","0.099609375","-1.71875","2.25","-2.625"
"1573641783732","3","0.034179688","-0.9814453","0.09082031","0.71875","3.40625","-1.34375"
"1573641783732","4","0.04296875","-1.0097656","0.111328125","1.8125","4.875","-0.75"
"1573641783732","5","0.032226562","-0.99902344","0.08300781","1.375","1.5","-1.40625"
"1573641783733","6","0.033203125","-1.0009766","0.13183594","0.03125","2.78125","-0.1875"
"1573641783733","7","0.022460938","-0.98046875","0.10253906","0.71875","0.65625","0.0"
"1573641783733","8","0.0234375","-0.9824219","0.109375","1.8125","1.5","0.84375"
"1573641783733","9","0.026367188","-1.0","0.11816406","1.375","0.71875","0.46875"
"1573641784129","10","0.0234375","-0.9902344","0.11230469","0.28125","1.15625","0.09375"
"1573641784130","11","0.028320312","-0.984375","0.12402344","-0.1875","2.25","-1.65625"
"1573641784130","12","0.033203125","-0.9873047","0.123046875","-0.5","2.3125","-1.65625"
"1573641784130","13","0.03515625","-0.9951172","0.11621094","0.03125","3.40625","-0.5"
"1573641784131","14","0.033203125","-0.9970703","0.123046875","-0.5","2.96875","-0.5"
"1573641784131","15","0.02734375","-0.99121094","0.119140625","-0.5","2.125","-0.375"
"1573641784131","16","0.030273438","-0.9902344","0.115234375","0.40625","3.40625","-0.6875"
"1573641784131","17","0.029296875","-0.9873047","0.115234375","-1.46875","0.65625","-1.46875"
"1573641784132","18","0.01953125","-0.9902344","0.12792969","-1.34375","3.84375","-1.0"
"1573641784132","19","0.02734375","-0.9863281","0.11816406","-1.71875","0.59375","-0.625"
"1573641784726","20","0.03515625","-0.9951172","0.111328125","-0.5625","1.8125","-1.0"
"1573641784726","21","0.040039062","-0.9980469","0.123046875","-1.25","0.59375","-0.875"
"1573641784727","22","0.036132812","-0.98535156","0.09863281","-2.28125","0.90625","-0.6875"
"1573641784727","23","0.043945312","-0.98828125","0.12011719","-3.0625","-3.0625","-1.84375"
"1573641784727","24","0.034179688","-0.98535156","0.11035156","-3.25","-4.59375","-3.8125"
"1573641784728","25","0.036132812","-0.98046875","0.109375","-1.96875","-3.8125","-1.1875"
"1573641784729","26","0.036132812","-0.9814453","0.123046875","-0.4375","-1.25","1.8125"
"1573641784729","27","0.020507812","-0.9785156","0.115234375","0.34375","0.90625","2.71875"
"1573641784730","28","0.01953125","-0.9951172","0.119140625","-2.59375","1.9375","2.96875"
"1573641784730","29","0.046875","-1.0458984","0.12890625","-3.6875","2.125","0.96875"
"1573641784924","30","0.048828125","-1.0214844","0.08984375","-4.09375","-2.40625","0.46875"
"1573641784924","31","0.047851562","-0.9580078","0.12890625","-3.625","-3.8125","1.3125"
"1573641784924","32","-0.00390625","-0.9472656","0.10644531","-2.28125","-1.71875","1.375"
"1573641784925","33","0.03515625","-1.0126953","0.111328125","-1.25","-0.0625","1.5"
"1573641784926","34","0.034179688","-1.0107422","0.11328125","-2.59375","-1.40625","1.3125"
"1573641784927","35","0.017578125","-0.99316406","0.107421875","-2.28125","-1.34375","2.0"
"1573641784927","36","0.013671875","-0.98828125","0.11621094","-3.75","-0.6875","1.375"
"1573641784928","37","0.021484375","-0.9824219","0.11425781","-2.59375","0.40625","0.09375"
"1573641784929","38","0.021484375","-0.98828125","0.115234375","-2.09375","0.21875","0.15625"
"1573641784929","39","0.017578125","-0.9892578","0.11425781","-1.90625","0.15625","0.21875"
"1573641785321","40","0.0126953125","-0.9902344","0.11328125","-1.65625","0.59375","0.0"
"1573641785322","41","0.01171875","-0.9824219","0.107421875","-1.34375","1.375","0.0"
"1573641785322","42","0.016601562","-0.98828125","0.109375","-2.40625","-2.6875","0.0"
"1573641785323","43","0.032226562","-0.9970703","0.08886719","-0.6875","3.15625","0.21875"
"1573641785323","44","0.0126953125","-0.9951172","0.107421875","-0.125","-3.8125","0.46875"
"1573641785323","45","0.0390625","-1.0029297","0.072265625","2.59375","-0.5625","2.0"
"1573641785323","46","0.0546875","-1.0205078","0.095703125","2.0","-5.15625","1.625"
"1573641785324","47","0.015625","-0.94433594","0.055664062","6.28125","-3.5","3.21875"
"1573641785324","48","0.06640625","-0.9658203","0.0703125","10.125","-3.0","3.65625"
"1573641785324","49","0.060546875","-0.96777344","0.095703125","15.5","-7.03125","5.90625"
"1573641786313","50","-0.005859375","-0.96777344","0.08984375","22.4375","-3.90625","15.3125"
"1573641786314","51","-0.00390625","-0.9326172","0.15917969","25.75","3.34375","19.875"
"1573641786314","52","-0.045898438","-0.9375","0.16503906","27.625","11.28125","18.1875"
"1573641786315","53","-0.03125","-0.9316406","0.20996094","33.375","13.03125","15.71875"
"1573641786315","54","-0.03515625","-0.92285156","0.22070312","37.8125","13.96875","15.3125"
"1573641786315","55","-0.06738281","-0.94433594","0.24804688","38.5","2.3125","23.0625"
"1573641786315","56","-0.12695312","-0.94433594","0.29882812","36.0","14.375","18.90625"
"1573641786316","57","-0.12402344","-0.9033203","0.31054688","34.78125","9.8125","17.875"
"1573641786316","58","-0.11035156","-0.87890625","0.30273438","37.09375","20.0625","21.34375"
"1573641786316","59","-0.06347656","-0.9189453","0.3701172","35.6875","13.03125","13.65625"
"1573641786513","60","-0.16503906","-0.90234375","0.38085938","33.375","14.5","15.5625"
"1573641786514","61","-0.19824219","-0.85839844","0.41015625","32.6875","27.8125","19.875"
"1573641786515","62","-0.19042969","-0.86328125","0.4169922","41.125","26.71875","26.78125"
"1573641786515","63","-0.18359375","-0.92578125","0.46679688","39.59375","36.65625","30.25"
"1573641786515","64","-0.24023438","-0.89453125","0.49121094","37.75","21.84375","28.0"
"1573641786516","65","-0.25195312","-0.84277344","0.48242188","34.40625","18.125","26.71875"
"1573641786516","66","-0.29101562","-0.90722656","0.50878906","24.8125","13.03125","25.6875"
"1573641786516","67","-0.32128906","-0.76660156","0.51660156","25.6875","12.75","32.34375"
"1573641786516","68","-0.33398438","-0.7519531","0.46191406","28.25","19.21875","26.28125"
"1573641786517","69","-0.28710938","-0.69433594","0.5292969","28.0625","17.375","31.0"
"1573641786711","70","-0.30371094","-0.6855469","0.52246094","29.09375","9.5","30.8125"
"1573641786711","71","-0.3486328","-0.7060547","0.5498047","29.59375","4.75","25.1875"
"1573641786712","72","-0.4423828","-0.70996094","0.5996094","26.28125","5.0625","26.0"
"1573641786713","73","-0.45703125","-0.7470703","0.57421875","23.3125","8.46875","24.03125"
"1573641786713","74","-0.421875","-0.70703125","0.64160156","22.1875","12.375","24.46875"
"1573641786714","75","-0.4951172","-0.7285156","0.6748047","16.78125","4.0625","17.625"
"1573641786714","76","-0.5029297","-0.6669922","0.7128906","11.40625","1.375","18.96875"
"1573641786714","77","-0.5175781","-0.6513672","0.71191406","9.5","3.21875","14.8125"
"1573641786714","78","-0.49316406","-0.6044922","0.67285156","6.9375","0.28125","12.0625"
"1573641786715","79","-0.50878906","-0.6191406","0.671875","2.71875","-5.6875","7.90625"
"1573641786911","80","-0.5048828","-0.62597656","0.6953125","-0.4375","-4.21875","5.90625"
"1573641786911","81","-0.54003906","-0.6123047","0.67285156","-2.53125","-4.28125","4.0"
"1573641786911","82","-0.4716797","-0.5966797","0.69921875","-4.34375","-7.03125","1.21875"
"1573641786912","83","-0.56640625","-0.6357422","0.69433594","-4.03125","-5.875","2.78125"
"1573641786912","84","-0.5234375","-0.640625","0.703125","-6.0625","-8.5","4.0"
"1573641786913","85","-0.4921875","-0.68847656","0.72265625","-7.21875","-8.5625","3.09375"
"1573641786914","86","-0.46972656","-0.6191406","0.68359375","-9.71875","-13.1875","2.84375"
"1573641786914","87","-0.4296875","-0.6689453","0.68847656","-8.6875","-14.1875","2.125"
"1573641786914","88","-0.5253906","-0.60253906","0.6689453","-7.875","-16.6875","0.90625"
"1573641786914","89","-0.41503906","-0.66308594","0.69921875","-4.21875","-1.53125","-0.3125"
"1573641787310","90","-0.5019531","-0.6328125","0.6982422","-4.40625","-12.34375","-2.6875"
"1573641787310","91","-0.44140625","-0.66796875","0.71972656","-2.03125","-8.0","-5.9375"
"1573641787311","92","-0.5048828","-0.69628906","0.65625","-5.09375","-11.78125","-8.0625"
"1573641787311","93","-0.36132812","-0.68359375","0.6533203","-10.34375","-5.3125","-17.46875"
"1573641787311","94","-0.36621094","-0.65722656","0.67285156","-10.5","-9.34375","-24.625"
"1573641787311","95","-0.39941406","-0.6640625","0.60058594","-19.96875","-11.90625","-25.15625"
"1573641787311","96","-0.30664062","-0.69921875","0.6591797","-25.84375","-3.875","-31.21875"
"1573641787312","97","-0.30859375","-0.6113281","0.5830078","-31.3125","-10.28125","-34.4375"
"1573641787312","98","-0.3251953","-0.6386719","0.54003906","-36.9375","-7.71875","-36.46875"
"1573641787312","99","-0.28710938","-0.7675781","0.5996094","-39.5625","-2.625","-36.46875"
"1573641787904","100","-0.26660156","-0.7626953","0.5810547","-43.28125","-16.75","-39.1875"
"1573641787905","101","-0.25976562","-0.83691406","0.56640625","-41.46875","-16.25","-40.71875"
"1573641787905","102","-0.24804688","-0.7910156","0.5908203","-53.78125","-18.5625","-40.84375"
"1573641787905","103","-0.23925781","-0.7910156","0.46972656","-52.875","-15.46875","-39.9375"
"1573641787906","104","-0.11230469","-0.8544922","0.50097656","-64.65625","-20.09375","-58.375"
"1573641787906","105","-0.048828125","-0.7480469","0.4736328","-68.6875","-18.25","-34.375"
"1573641787906","106","-0.115234375","-0.75390625","0.3359375","-70.5625","-32.4375","-43.65625"
"1573641787907","107","-0.072265625","-0.71972656","0.35742188","-74.28125","-28.40625","-46.03125"
"1573641787907","108","-0.047851562","-0.7167969","0.3203125","-67.65625","-28.15625","-38.09375"
"1573641787908","109","-0.06542969","-0.7939453","0.18847656","-66.40625","-20.65625","-32.4375"
"1573641788104","110","-0.015625","-0.71777344","0.26757812","-61.96875","-13.5","-30.34375"
"1573641788105","111","-0.0234375","-0.7949219","0.20800781","-48.65625","-11.25","-29.0625"
"1573641788105","112","0.056640625","-0.9404297","0.18457031","-42.375","0.40625","-24.625"
"1573641788105","113","0.07324219","-0.9345703","0.12402344","-37.4375","-1.71875","-17.28125"
"1573641788105","114","0.115234375","-0.9814453","0.08984375","-30.40625","4.3125","-15.53125"
"1573641788106","115","0.12597656","-0.96875","0.08105469","-27.90625","0.96875","-11.1875"
"1573641788106","116","0.13964844","-0.9267578","0.041992188","-26.875","0.40625","-9.71875"
"1573641788106","117","0.109375","-0.8964844","0.055664062","-20.71875","-3.3125","-9.15625"
"1573641788106","118","0.123046875","-0.93652344","0.015625","-11.71875","0.34375","-3.6875"
"1573641788107","119","0.15429688","-0.9863281","0.046875","-8.375","7.0625","-1.96875"
"1573641788502","120","0.16113281","-0.96972656","0.028320312","-5.625","1.9375","-3.90625"
"1573641788503","121","0.140625","-0.98046875","0.0146484375","-0.75","2.0625","-0.9375"
"1573641788503","122","0.14257812","-0.98339844","0.025390625","0.84375","5.34375","-0.625"
"1573641788503","123","0.15917969","-0.984375","0.028320312","1.8125","5.34375","-1.3125"
"1573641788503","124","0.16015625","-1.0019531","0.041015625","2.78125","7.5","-0.5625"
"1573641788504","125","0.13574219","-0.9785156","0.030273438","1.4375","5.21875","-0.5625"
"1573641788504","126","0.13867188","-0.99316406","0.044921875","0.65625","5.46875","-0.375"
"1573641788504","127","0.13085938","-0.9902344","0.043945312","0.71875","6.09375","-1.25"
"1573641788504","128","0.15625","-0.9951172","0.029296875","-0.1875","6.03125","-0.75"
"1573641788504","129","0.12890625","-1.0058594","0.029296875","-2.09375","3.40625","-1.40625"
"1573641789295","130","0.13085938","-0.98828125","0.044921875","-2.34375","3.71875","-1.71875"
"1573641789296","131","0.103515625","-0.97265625","0.041992188","-1.96875","4.375","-0.25"
"1573641789296","132","0.125","-0.9814453","0.038085938","-0.125","6.75","0.71875"
"1573641789298","133","0.13476562","-0.97265625","0.046875","1.625","6.8125","2.0"
"1573641789299","134","0.140625","-0.96191406","0.059570312","4.0","4.125","3.90625"
"1573641789300","135","0.103515625","-0.953125","0.037109375","10.46875","2.5625","6.46875"
"1573641789300","136","0.115234375","-0.9394531","0.12792969","13.59375","8.59375","12.375"
"1573641789300","137","0.09863281","-0.92285156","0.091796875","22.1875","4.75","17.625"
"1573641789300","138","0.05859375","-0.92089844","0.10449219","31.125","10.46875","21.65625"
"1573641789301","139","0.0146484375","-0.9033203","0.12988281","38.8125","15.71875","25.125"
"1573641789492","140","0.033203125","-0.9189453","0.13378906","44.84375","17.5625","28.96875"
"1573641789493","141","0.021484375","-0.8720703","0.203125","45.46875","18.21875","32.40625"
"1573641789493","142","-9.765625E-4","-0.8173828","0.21386719","54.125","14.8125","32.875"
"1573641789493","143","-0.0390625","-0.8300781","0.27929688","62.71875","9.125","36.125"
"1573641789493","144","-0.06640625","-0.8378906","0.27148438","69.4375","13.71875","32.5625"
"1573641789494","145","-0.10253906","-0.85839844","0.3251953","67.78125","10.84375","38.375"
"1573641789495","146","-0.119140625","-0.7705078","0.3623047","66.28125","23.84375","39.78125"
"1573641789495","147","-0.12109375","-0.75878906","0.4794922","67.96875","18.84375","37.21875"
"1573641789495","148","-0.2734375","-0.81640625","0.46972656","64.0625","25.5625","37.71875"
"1573641789495","149","-0.2578125","-0.84375","0.52734375","58.75","34.59375","46.375"
"1573641789891","150","-0.20019531","-0.7294922","0.5654297","49.96875","36.1875","41.625"
"1573641789892","151","-0.234375","-0.76464844","0.5527344","45.28125","16.65625","33.4375"
"1573641789892","152","-0.28125","-0.80078125","0.625","35.1875","6.09375","25.875"
"1573641789892","153","-0.2626953","-0.66308594","0.625","31.1875","8.34375","26.71875"
"1573641789892","154","-0.359375","-0.6845703","0.57714844","31.71875","12.9375","34.09375"
"1573641789893","155","-0.31640625","-0.5722656","0.66796875","23.59375","15.84375","22.9375"
"1573641789893","156","-0.35839844","-0.57714844","0.6748047","30.6875","13.15625","19.53125"
"1573641789894","157","-0.421875","-0.64746094","0.6533203","23.25","16.9375","19.8125"
"1573641789894","158","-0.3310547","-0.59472656","0.6142578","15.3125","20.6875","15.625"
"1573641789895","159","-0.23339844","-0.5488281","0.65527344","8.03125","3.53125","13.84375"
"1573641790092","160","-0.421875","-0.47460938","0.58496094","6.9375","2.3125","7.25"
"1573641790092","161","-0.43847656","-0.5527344","0.6279297","3.53125","11.59375","9.5625"
"1573641790092","162","-0.38476562","-0.6152344","0.6767578","0.15625","18.65625","1.5"
"1573641790092","163","-0.4638672","-0.6464844","0.6855469","-0.8125","12.6875","1.8125"
"1573641790093","164","-0.50390625","-0.72753906","0.64746094","-13.875","17.125","2.65625"
"1573641790093","165","-0.4189453","-0.68847656","0.78515625","-21.375","3.59375","-9.0"
"1573641790093","166","-0.5761719","-0.6699219","0.6484375","-22.53125","-3.6875","-15.53125"
"1573641790093","167","-0.484375","-0.77441406","0.6640625","-33.21875","13.09375","-15.8125"
"1573641790094","168","-0.34179688","-0.72558594","0.7841797","-37.84375","-5.5625","-29.8125"
"1573641790096","169","-0.5751953","-0.75878906","0.6582031","-43.59375","-21.0","-32.5625"
"1573641790488","170","-0.51953125","-0.81152344","0.6699219","-49.15625","-1.59375","-30.59375"
"1573641790489","171","-0.36328125","-0.71191406","0.609375","-51.84375","-4.65625","-40.59375"
"1573641790489","172","-0.328125","-0.7089844","0.6074219","-61.34375","-9.15625","-45.65625"
"1573641790489","173","-0.3486328","-0.78222656","0.72265625","-59.03125","-13.75","-58.5625"
"1573641790490","174","-0.515625","-1.0566406","0.6074219","-49.46875","-8.75","-64.59375"
"1573641790490","175","-0.37109375","-1.5449219","0.49609375","-44.4375","18.0","-46.40625"
"1573641790490","176","-0.00390625","-1.1035156","0.38085938","-58.90625","6.03125","-22.90625"
"1573641790491","177","-0.09277344","-0.7128906","0.26757812","-68.125","-27.0625","-32.0625"
"1573641790491","178","-0.1640625","-0.6816406","0.27441406","-63.90625","-22.15625","-29.25"
"1573641790491","179","-0.12402344","-0.7207031","0.20898438","-59.40625","-21.375","-49.46875"
"1573641790886","180","-0.07421875","-0.9003906","0.22265625","-46.03125","-7.40625","-52.5"
"1573641790887","181","-0.0703125","-1.0634766","0.19628906","-41.6875","-4.21875","-39.625"
"1573641790888","182","-0.03515625","-1.0712891","0.15429688","-38.53125","-4.28125","-17.96875"
"1573641790888","183","0.0234375","-0.9658203","0.11230469","-34.375","-3.75","-14.90625"
"1573641790888","184","0.0029296875","-0.8876953","0.09375","-33.59375","-9.125","-20.71875"
"1573641790889","185","0.033203125","-0.91308594","0.083984375","-25.15625","-4.21875","-22.21875"
"1573641790889","186","0.036132812","-0.9658203","0.08691406","-21.0","-0.9375","-20.03125"
"1573641790890","187","0.025390625","-1.0136719","0.059570312","-20.34375","0.59375","-16.625"
"1573641790890","188","0.061523438","-1.0126953","0.053710938","-18.5","3.34375","-12.46875"
"1573641790890","189","0.07910156","-0.9824219","0.0703125","-17.34375","-0.3125","-13.0625"
"1573641791483","190","0.049804688","-0.9667969","0.017578125","-12.84375","-1.84375","-10.4375"
"1573641791483","191","0.047851562","-0.9814453","0.053710938","-10.9375","3.15625","-7.21875"
"1573641791484","192","0.068359375","-0.97753906","0.03125","-7.40625","3.84375","-3.96875"
"1573641791485","193","0.08691406","-1.0117188","0.036132812","-4.65625","2.25","-2.625"
"1573641791486","194","0.08496094","-1.0351562","0.018554688","-4.90625","-2.9375","-1.3125"
"1573641791486","195","0.07128906","-0.9824219","0.022460938","-5.375","0.28125","1.5625"
"1573641791486","196","0.060546875","-0.94628906","0.045898438","-3.0625","1.6875","0.0"
"1573641791486","197","0.053710938","-0.96972656","0.036132812","1.3125","3.78125","-0.4375"
"1573641791487","198","0.087890625","-0.9951172","0.040039062","4.6875","4.5625","3.59375"
"1573641791487","199","0.037109375","-1.0019531","0.052734375","7.90625","5.21875","5.46875"
"1573641791878","200","0.024414062","-1.0","0.06347656","8.90625","6.8125","7.375"
"1573641791879","201","0.046875","-0.9951172","0.051757812","7.8125","11.59375","4.6875"
"1573641791879","202","0.030273438","-0.9824219","0.07421875","4.6875","9.8125","5.40625"
"1573641791879","203","0.037109375","-0.98046875","0.072265625","5.21875","12.25","5.46875"
"1573641791880","204","0.034179688","-0.9892578","0.076171875","7.125","5.78125","4.375"
"1573641791881","205","0.029296875","-1.0136719","0.059570312","9.125","3.90625","6.5625"
"1573641791881","206","0.060546875","-0.98046875","0.09667969","11.71875","4.3125","10.46875"
"1573641791881","207","0.0078125","-0.95214844","0.1015625","13.84375","5.90625","12.875"
"1573641791882","208","-0.009765625","-0.9707031","0.107421875","18.1875","9.25","11.71875"
"1573641791882","209","0.0","-0.9609375","0.13671875","18.28125","6.6875","10.46875"
"1573641792279","210","-0.030273438","-0.9824219","0.13867188","17.625","5.90625","11.40625"
"1573641792280","211","-0.055664062","-0.9814453","0.15917969","19.6875","10.71875","14.5"
"1573641792280","212","-0.053710938","-0.97753906","0.19140625","22.125","10.1875","17.875"
"1573641792280","213","-0.043945312","-0.9404297","0.20800781","25.25","8.46875","21.03125"
"1573641792280","214","-0.028320312","-0.9375","0.21386719","25.875","0.0","18.78125"
"1573641792281","215","-0.07324219","-0.9609375","0.20214844","27.21875","-8.0625","21.34375"
"1573641792281","216","-0.115234375","-0.96972656","0.25878906","24.21875","-6.125","22.4375"
"1573641792282","217","-0.15136719","-0.93359375","0.2841797","24.28125","0.28125","22.9375"
"1573641792283","218","-0.10839844","-0.91796875","0.29003906","28.4375","6.8125","25.0625"
"1573641792283","219","-0.14160156","-0.9375","0.3203125","27.4375","6.8125","22.9375"
"1573641792476","220","-0.14453125","-0.9501953","0.35253906","18.34375","-3.625","22.4375"
"1573641792476","221","-0.15527344","-0.87890625","0.30273438","28.125","-1.3125","26.59375"
"1573641792476","222","-0.15722656","-0.8886719","0.35351562","28.84375","-1.65625","22.6875"
"1573641792477","223","-0.21679688","-0.8730469","0.36035156","29.59375","-0.9375","22.75"
"1573641792477","224","-0.265625","-0.8642578","0.38378906","31.59375","5.53125","29.65625"
"1573641792477","225","-0.22070312","-0.8544922","0.37304688","31.40625","7.375","25.75"
"1573641792477","226","-0.23242188","-0.8701172","0.39453125","28.0","10.0625","22.03125"
"1573641792478","227","-0.22070312","-0.8457031","0.41796875","29.78125","6.6875","24.40625"
"1573641792478","228","-0.28320312","-0.80859375","0.45898438","31.53125","10.59375","25.3125"
"1573641792479","229","-0.33984375","-0.7919922","0.44921875","32.28125","12.25","28.65625"
"1573641792874","230","-0.31640625","-0.8017578","0.49609375","36.0625","17.375","28.375"
"1573641792874","231","-0.33398438","-0.7871094","0.5390625","30.5625","12.75","27.875"
"1573641792875","232","-0.4169922","-0.77246094","0.58203125","30.5","9.6875","32.5625"
"1573641792875","233","-0.45898438","-0.765625","0.65234375","30.375","1.625","30.625"
"1573641792875","234","-0.5175781","-0.74902344","0.65527344","33.3125","6.6875","27.4375"
"1573641792876","235","-0.43554688","-0.765625","0.68359375","28.4375","6.5625","22.5625"
"1573641792876","236","-0.42382812","-0.7216797","0.67285156","22.6875","-2.40625","19.21875"
"1573641792876","237","-0.50390625","-0.63378906","0.66015625","18.65625","-2.625","18.34375"
"1573641792876","238","-0.4658203","-0.6357422","0.63183594","16.28125","4.5625","8.28125"
"1573641792877","239","-0.4501953","-0.6484375","0.6640625","8.15625","-1.78125","2.84375"
"1573641793272","240","-0.5332031","-0.6308594","0.68359375","4.875","-5.03125","2.78125"
"1573641793274","241","-0.46679688","-0.60839844","0.7285156","7.25","0.15625","0.78125"
"1573641793275","242","-0.5097656","-0.63183594","0.67578125","4.625","-3.375","2.84375"
"1573641793275","243","-0.4765625","-0.703125","0.6923828","2.59375","-4.71875","1.21875"
"1573641793275","244","-0.49316406","-0.609375","0.7216797","0.40625","-4.71875","3.65625"
"1573641793275","245","-0.5205078","-0.6113281","0.6503906","-0.5","-7.78125","1.625"
"1573641793276","246","-0.4296875","-0.61328125","0.6484375","0.0","5.34375","6.46875"
"1573641793276","247","-0.39257812","-0.60546875","0.6269531","-4.53125","-0.75","1.3125"
"1573641793276","248","-0.43359375","-0.56347656","0.625","-8.4375","-2.46875","-1.65625"
"1573641793277","249","-0.38183594","-0.59277344","0.66015625","-9.15625","-9.46875","-2.46875"
"1573641793867","250","-0.5078125","-0.5966797","0.6123047","-10.34375","-5.15625","-5.4375"
"1573641793868","251","-0.40722656","-0.5917969","0.6269531","-11.5","-6.5","-3.90625"
"1573641793868","252","-0.45703125","-0.53808594","0.6015625","-8.8125","-12.59375","-6.1875"
"1573641793869","253","-0.4267578","-0.5732422","0.6279297","-9.96875","-2.28125","-4.21875"
"1573641793869","254","-0.3623047","-0.5966797","0.61035156","-8.25","-4.46875","-7.09375"
"1573641793870","255","-0.3701172","-0.61816406","0.6386719","-14.125","-14.0","-10.28125"
"1573641793870","256","-0.453125","-0.6464844","0.66796875","-18.25","-11.5625","-15.75"
"1573641793870","257","-0.4453125","-0.73046875","0.6796875","-21.5625","-8.6875","-19.0625"
"1573641793870","258","-0.4033203","-0.7001953","0.68066406","-23.8125","-2.8125","-16.375"
"1573641793871","259","-0.3671875","-0.69433594","0.6269531","-23.8125","-7.28125","-17.34375"
"1573641794265","260","-0.37109375","-0.70410156","0.6796875","-24.1875","-3.5","-28.9375"
"1573641794266","261","-0.35253906","-0.7089844","0.6660156","-25.46875","-3.4375","-27.25"
"1573641794266","262","-0.4169922","-0.76660156","0.6298828","-28.9375","-0.0625","-33.53125"
"1573641794266","263","-0.27539062","-0.78222656","0.59765625","-30.53125","5.96875","-34.6875"
"1573641794267","264","-0.29785156","-0.78222656","0.5449219","-29.0","3.9375","-41.8125"
"1573641794268","265","-0.21679688","-0.8935547","0.63964844","-29.6875","5.1875","-44.03125"
"1573641794268","266","-0.29296875","-0.9169922","0.54003906","-40.3125","-3.96875","-42.0"
"1573641794269","267","-0.23535156","-0.88183594","0.5214844","-53.59375","-0.8125","-40.1875"
"1573641794270","268","-0.16894531","-0.8095703","0.43359375","-61.53125","-17.84375","-53.71875"
"1573641794270","269","-0.15332031","-0.8066406","0.39160156","-65.75","-16.25","-52.25"
"1573641794861","270","-0.10058594","-0.82421875","0.39648438","-72.71875","-21.375","-49.75"
"1573641794862","271","-0.087890625","-0.78515625","0.28320312","-73.9375","-17.34375","-49.5"
"1573641794862","272","-0.037109375","-0.7421875","0.22753906","-74.46875","-9.34375","-43.84375"
"1573641794862","273","-0.00390625","-0.7216797","0.24414062","-71.375","-13.125","-37.3125"
"1573641794862","274","0.0126953125","-0.77734375","0.1796875","-66.3125","-14.78125","-38.53125"
"1573641794863","275","-0.005859375","-0.7988281","0.14355469","-60.0","-12.21875","-36.40625"
"1573641794863","276","0.05078125","-0.81933594","0.18359375","-51.71875","0.15625","-32.5"
"1573641794864","277","0.07128906","-0.85546875","0.103515625","-41.03125","-4.78125","-30.46875"
"1573641794864","278","0.14941406","-0.9013672","0.04296875","-32.4375","-2.8125","-22.84375"
"1573641794865","279","0.1796875","-0.96484375","0.038085938","-26.8125","-5.6875","-15.625"
"1573641795059","280","0.13769531","-0.9902344","-0.021484375","-23.8125","-7.34375","-13.3125"
"1573641795060","281","0.17675781","-0.9472656","-0.00390625","-17.21875","-3.0625","-9.40625"
"1573641795060","282","0.18359375","-0.9394531","-0.0126953125","-10.8125","-2.59375","-6.5"
"1573641795060","283","0.14746094","-0.99121094","-0.0146484375","-6.59375","-7.78125","-3.4375"
"1573641795061","284","0.10839844","-0.96777344","0.0146484375","0.90625","-8.5625","4.5625"
"1573641795061","285","0.14648438","-0.97753906","9.765625E-4","1.5625","-1.1875","4.25"
"1573641795061","286","0.15820312","-0.99316406","-0.0087890625","2.5625","1.8125","1.375"
"1573641795062","287","0.14453125","-0.9736328","0.0","1.09375","-0.5625","0.34375"
"1573641795062","288","0.140625","-0.9873047","0.032226562","-0.375","7.1875","0.40625"
"1573641795063","289","0.13867188","-0.99316406","9.765625E-4","0.65625","10.90625","-2.15625"
"1573641795658","290","0.19921875","-0.97558594","0.013671875","1.625","15.96875","-1.59375"
"1573641795658","291","0.140625","-0.9902344","0.025390625","0.53125","3.59375","0.09375"
"1573641795658","292","0.15234375","-1.0634766","-0.03515625","-0.5","-8.5","2.96875"
"1573641795659","293","0.16113281","-1.0068359","0.00390625","-7.15625","-7.09375","4.9375"
"1573641795659","294","0.14160156","-0.9453125","0.0078125","-6.53125","-3.5625","-0.6875"
"1573641795659","295","0.14355469","-0.9824219","-0.0068359375","-0.875","4.625","-1.3125"
"1573641795659","296","0.13769531","-0.9970703","9.765625E-4","0.71875","6.46875","-1.125"
"1573641795660","297","0.13769531","-1.0048828","-0.0087890625","-1.0","2.84375","0.71875"
"1573641795660","298","0.16601562","-1.0009766","-0.041015625","0.03125","4.375","0.0"
"1573641795660","299","0.13769531","-0.9589844","-0.013671875","-0.1875","1.4375","1.15625"
"1573641795856","300","0.15234375","-1.0048828","-9.765625E-4","-0.8125","6.625","1.09375"
"1573641795856","301","0.14648438","-0.99902344","-0.024414062","-0.5","2.65625","-0.75"
"1573641795857","302","0.16601562","-0.9902344","-0.0126953125","1.4375","1.6875","1.3125"
"1573641795857","303","0.13378906","-0.96972656","-0.001953125","0.78125","-0.5","2.375"
"1573641795857","304","0.14355469","-0.98535156","0.0068359375","2.125","0.46875","2.65625"
"1573641795857","305","0.14550781","-0.9951172","0.0107421875","4.25","0.03125","3.90625"
"1573641795858","306","0.13769531","-0.95214844","0.0234375","7.90625","0.0","6.6875"
"1573641795858","307","0.10839844","-0.94140625","0.03125","15.375","-0.125","11.15625"
"1573641795858","308","0.06933594","-0.9355469","0.060546875","22.375","3.78125","16.65625"
"1573641795858","309","0.0859375","-0.93359375","0.087890625","29.21875","5.21875","20.6875"
"1573641796451","310","0.055664062","-0.88378906","0.099609375","36.59375","6.09375","25.6875"
"1573641796452","311","0.03125","-0.8310547","0.17382812","46.0","1.4375","31.71875"
"1573641796452","312","-0.038085938","-0.8847656","0.16210938","54.1875","11.71875","34.28125"
"1573641796455","313","0.0107421875","-0.87109375","0.22753906","57.65625","10.84375","32.875"
"1573641796455","314","-0.03125","-0.7861328","0.25097656","63.9375","13.0","37.59375"
"1573641796456","315","-0.091796875","-0.8261719","0.27734375","68.78125","11.15625","40.75"
"1573641796456","316","-0.11816406","-0.7441406","0.3330078","70.125","15.65625","47.34375"
"1573641796457","317","-0.123046875","-0.73046875","0.32128906","74.875","15.96875","45.8125"
"1573641796457","318","-0.17285156","-0.74316406","0.42285156","71.09375","17.1875","44.40625"
"1573641796457","319","-0.10546875","-0.76953125","0.41015625","72.375","16.78125","42.46875"
"1573641796651","320","-0.24609375","-0.7675781","0.5498047","67.1875","13.0","42.65625"
"1573641796651","321","-0.31933594","-0.7705078","0.5078125","61.375","20.125","50.78125"
"1573641796652","322","-0.2607422","-0.70410156","0.49902344","48.875","28.625","53.4375"
"1573641796652","323","-0.21679688","-0.6328125","0.6464844","54.1875","23.125","39.65625"
"1573641796652","324","-0.40527344","-0.63964844","0.6142578","37.34375","12.75","28.78125"
"1573641796653","325","-0.56933594","-0.73535156","0.5332031","33.0625","45.875","31.96875"
"1573641796654","326","-0.25097656","-0.6689453","0.64160156","20.0","42.40625","18.90625"
"1573641796654","327","-0.27148438","-0.6425781","0.71777344","13.0","11.15625","2.5625"
"1573641796654","328","-0.51171875","-0.71972656","0.61035156","5.125","14.21875","0.65625"
"1573641796655","329","-0.37402344","-0.7753906","0.71484375","-1.0625","14.4375","3.71875"
"1573641797048","330","-0.4560547","-0.66796875","0.6191406","-7.21875","13.46875","-2.40625"
"1573641797049","331","-0.45898438","-0.7109375","0.6542969","-12.46875","17.125","-5.875"
"1573641797049","332","-0.3935547","-0.6933594","0.69140625","-19.125","1.03125","-17.96875"
"1573641797049","333","-0.4921875","-0.7236328","0.6201172","-21.125","-1.96875","-22.0"
"1573641797049","334","-0.43066406","-0.7861328","0.7001953","-30.40625","-9.28125","-12.65625"
"1573641797050","335","-0.4921875","-0.70703125","0.6142578","-34.6875","-2.875","-27.96875"
"1573641797050","336","-0.3984375","-0.7792969","0.6347656","-40.0","-6.65625","-28.21875"
"1573641797050","337","-0.43164062","-0.7714844","0.6220703","-49.03125","-14.25","-43.15625"
"1573641797051","338","-0.40429688","-0.77734375","0.6220703","-50.90625","-3.90625","-44.09375"
"1573641797052","339","-0.34960938","-0.83496094","0.7167969","-52.09375","-4.15625","-50.5625"
"1573641797445","340","-0.38964844","-1.0615234","0.75390625","-40.0625","-12.34375","-64.15625"
"1573641797446","341","-0.4345703","-1.4375","0.4482422","-41.75","-6.0","-54.53125"
"1573641797446","342","-0.0146484375","-1.1679688","0.4892578","-54.34375","-9.96875","-23.03125"
"1573641797446","343","-0.13867188","-0.7578125","0.296875","-57.6875","-28.09375","-25.21875"
"1573641797447","344","-0.18554688","-0.77734375","0.21582031","-59.71875","-12.15625","-32.125"
"1573641797447","345","-0.041015625","-0.75683594","0.28027344","-56.96875","-7.78125","-51.53125"
"1573641797447","346","-0.076171875","-0.8310547","0.24023438","-50.4375","-16.625","-47.6875"
"1573641797447","347","-0.06542969","-1.0","0.23242188","-43.71875","-13.0625","-37.5625"
"1573641797448","348","-0.05859375","-1.0380859","0.22363281","-38.09375","-10.5625","-21.75"
"1573641797448","349","-0.017578125","-0.9453125","0.22949219","-33.09375","-7.8125","-10.875"
"1573641797843","350","-0.03125","-0.91796875","0.14453125","-32.65625","-9.0625","-16.0625"
"1573641797843","351","-0.0048828125","-0.94433594","0.0625","-31.8125","-15.625","-20.78125"
"1573641797844","352","0.0859375","-1.0009766","0.080078125","-28.59375","0.03125","-19.4375"
"1573641797844","353","0.045898438","-0.97265625","0.060546875","-27.53125","-1.84375","-14.0625"
"1573641797844","354","0.034179688","-0.9453125","0.046875","-16.5625","-7.40625","-5.5"
"1573641797844","355","0.1640625","-0.98046875","-0.05078125","-10.9375","-5.8125","-5.09375"
"1573641797845","356","0.115234375","-1.0791016","-0.0546875","-12.65625","-2.46875","-8.25"
"1573641797846","357","0.06347656","-0.9794922","0.057617188","-7.65625","-13.8125","-4.46875"
"1573641797846","358","0.041015625","-0.90234375","0.18457031","0.28125","-9.0","14.5"
"1573641797846","359","-0.013671875","-0.94140625","-0.052734375","9.875","-16.5625","15.5625"
"1573641798636","360","0.12890625","-1.0732422","0.072265625","8.78125","-7.59375","-1.53125"
"1573641798637","361","0.06347656","-0.9921875","0.140625","-10.4375","-2.40625","-1.0625"
"1573641798638","362","-0.001953125","-1.0605469","0.02734375","0.65625","0.40625","4.75"
"1573641798638","363","-0.049804688","-0.9501953","0.099609375","3.71875","-1.90625","4.125"
"1573641798639","364","0.046875","-1.0244141","0.0087890625","-1.125","10.0","-6.5"
"1573641798639","365","0.16992188","-1.1513672","0.032226562","-12.84375","17.5625","-19.0"
"1573641798639","366","0.0068359375","-0.96777344","0.119140625","-29.96875","-12.65625","-5.375"
"1573641798640","367","0.013671875","-0.8876953","0.024414062","-30.71875","-15.15625","4.1875"
"1573641798640","368","0.051757812","-0.859375","0.06347656","-13.75","-12.59375","0.71875"
"1573641798640","369","0.08886719","-1.0517578","-0.022460938","12.5","2.25","5.0"
"1573641798640","370","0.08691406","-1.1318359","0.001953125","22.09375","8.46875","12.75"
"1573641798641","371","0.0126953125","-0.9638672","0.026367188","19.625","2.0","24.53125"
"1573641798641","372","0.022460938","-0.8857422","0.048828125","24.40625","5.34375","22.9375"
"1573641798641","373","0.0146484375","-0.8925781","0.049804688","40.4375","14.375","20.4375"
"1573641798642","374","-0.021484375","-0.9033203","0.08203125","43.8125","14.15625","24.9375"
"1573641798642","375","-0.024414062","-0.99609375","0.09277344","47.03125","15.0625","30.1875"
"1573641798642","376","0.037109375","-1.0507812","0.19042969","45.46875","4.5625","25.9375"
"1573641798643","377","-0.17773438","-0.83203125","0.12109375","63.03125","13.15625","43.0"
"1573641798643","378","0.0087890625","-0.93652344","0.17578125","67.84375","20.96875","41.65625"
"1573641798643","379","-0.07714844","-1.0019531","0.25585938","74.75","17.0","42.28125"
"1573641799035","380","-0.17285156","-0.92578125","0.31054688","70.3125","13.53125","50.09375"
"1573641799035","381","-0.18847656","-0.87109375","0.47753906","65.71875","7.375","43.375"
"1573641799035","382","-0.45117188","-0.9033203","0.5253906","58.59375","5.90625","33.0625"
"1573641799036","383","-0.30273438","-0.87402344","0.63183594","51.625","20.75","30.75"
"1573641799036","384","-0.43847656","-0.74121094","0.7548828","45.6875","4.0","34.21875"
"1573641799037","385","-0.40234375","-0.86328125","0.7109375","39.28125","12.625","26.34375"
"1573641799038","386","-0.46777344","-0.83496094","0.66796875","31.0625","9.5","18.65625"
"1573641799038","387","-0.3203125","-0.75878906","0.6621094","17.6875","0.65625","13.03125"
"1573641799038","388","-0.40234375","-0.7998047","0.6357422","6.03125","2.96875","5.78125"
"1573641799038","389","-0.4326172","-0.61328125","0.6923828","4.5","-7.34375","9.5"
"1573641799433","390","-0.37890625","-0.7558594","0.56933594","4.3125","2.90625","7.8125"
"1573641799433","391","-0.35546875","-0.6298828","0.65722656","4.25","-2.15625","12.875"
"1573641799433","392","-0.4423828","-0.75878906","0.57910156","8.78125","-6.5","6.21875"
"1573641799434","393","-0.37890625","-0.6972656","0.6513672","4.5","-5.75","10.46875"
"1573641799434","394","-0.4091797","-0.7080078","0.64746094","8.09375","-7.875","7.6875"
"1573641799434","395","-0.38476562","-0.7548828","0.61035156","-1.96875","-2.625","-0.25"
"1573641799434","396","-0.34375","-0.578125","0.6191406","-0.625","-27.34375","7.375"
"1573641799436","397","-0.484375","-0.7919922","0.6435547","1.03125","4.0625","-3.125"
"1573641799436","398","-0.3310547","-0.5966797","0.55566406","-2.59375","-9.84375","9.375"
"1573641799436","399","-0.18261719","-0.76953125","0.76660156","-2.28125","0.65625","-11.96875"
"1573641799830","400","-0.6455078","-0.6171875","0.546875","0.78125","-37.5625","3.21875"
"1573641799831","401","-0.32714844","-0.9111328","0.6503906","-11.6875","27.875","-14.84375"
"1573641799831","402","-0.296875","-0.66503906","0.68847656","-14.125","-4.78125","-12.46875"
"1573641799831","403","-0.3857422","-0.69433594","0.5800781","-17.46875","-0.875","-16.5625"
"1573641799831","404","-0.2685547","-0.71777344","0.64453125","-20.09375","7.96875","-23.5625"
"1573641799832","405","-0.39257812","-0.6015625","0.46191406","-21.6875","-4.21875","-21.0625"
"1573641799832","406","-0.19433594","-0.7001953","0.59375","-22.0625","0.0","-26.03125"
"1573641799832","407","-0.3408203","-0.62402344","0.4892578","-24.3125","6.5","-24.75"
"1573641799832","408","-0.2939453","-0.7138672","0.46484375","-27.40625","-7.875","-31.75"
"1573641799834","409","-0.234375","-0.796875","0.56152344","-27.96875","12.3125","-34.25"
"1573641800228","410","-0.3095703","-0.73828125","0.5126953","-31.4375","-8.5","-31.25"
"1573641800228","411","-0.20800781","-0.87597656","0.5419922","-32.0625","5.0625","-39.125"
"1573641800229","412","-0.119140625","-0.8925781","0.48242188","-38.53125","-5.8125","-34.25"
"1573641800229","413","-0.171875","-0.7529297","0.49023438","-44.375","-13.6875","-27.125"
"1573641800229","414","-0.19726562","-0.8017578","0.44433594","-45.375","-13.3125","-36.6875"
"1573641800230","415","-0.18457031","-0.7636719","0.42089844","-49.09375","-12.21875","-35.0625"
"1573641800230","416","-0.037109375","-0.8330078","0.33984375","-44.9375","-10.15625","-40.3125"
"1573641800230","417","-0.099609375","-0.7792969","0.36523438","-45.90625","-11.0","-25.21875"
"1573641800231","418","-0.107421875","-0.8027344","0.36816406","-47.6875","-12.34375","-31.3125"
"1573641800231","419","-0.07128906","-0.8378906","0.2998047","-45.65625","-8.8125","-35.28125"
"1573641801019","420","0.041015625","-1.0302734","0.23828125","-43.53125","-13.5","-28.21875"
"1573641801020","421","-0.01171875","-0.89160156","0.31835938","-49.34375","-7.40625","-22.34375"
"1573641801020","422","-0.043945312","-0.92578125","0.23828125","-46.03125","-18.09375","-28.09375"
"1573641801021","423","0.051757812","-0.9404297","0.171875","-48.1875","-5.09375","-22.46875"
"1573641801022","424","0.15722656","-0.9863281","0.17285156","-47.8125","-9.34375","-22.53125"
"1573641801022","425","0.06640625","-0.90722656","0.11230469","-45.3125","-14.84375","-24.0625"
"1573641801022","426","0.016601562","-0.83691406","0.11425781","-40.90625","-6.71875","-17.40625"
"1573641801022","427","0.12207031","-0.9394531","0.078125","-33.46875","-4.65625","-11.0"
"1573641801023","428","0.19140625","-0.9082031","0.033203125","-25.34375","2.78125","-11.125"
"1573641801023","429","0.1640625","-0.94433594","0.061523438","-12.34375","-2.625","-3.1875"
"1573641801217","430","0.055664062","-0.9794922","0.038085938","-11.90625","-3.75","3.53125"
"1573641801218","431","0.06933594","-1.0273438","0.026367188","-11.71875","4.75","2.0625"
"1573641801218","432","0.09375","-0.9814453","-0.0107421875","-10.4375","11.34375","-0.125"
"1573641801219","433","0.11621094","-0.9580078","0.036132812","-11.78125","13.65625","-0.4375"
"1573641801220","434","0.12597656","-0.9707031","-0.0029296875","-8.625","10.78125","-1.53125"
"1573641801220","435","0.17480469","-1.03125","-0.032226562","-4.28125","9.09375","-3.8125"
"1573641801220","436","0.14648438","-1.0107422","-0.01171875","-6.375","6.5","-5.03125"
"1573641801220","437","0.12792969","-0.9794922","-0.026367188","-8.125","6.8125","-6.25"
"1573641801221","438","0.12402344","-0.9667969","-0.0146484375","-6.53125","7.1875","-5.375"
"1573641801221","439","0.12109375","-0.9716797","-0.015625","-5.4375","9.625","-5.03125"
"1573641801419","440","0.15527344","-0.99121094","-0.040039062","-3.125","10.65625","-5.21875"
"1573641801420","441","0.16308594","-1.0126953","-0.0390625","-3.90625","10.78125","-4.34375"
"1573641801420","442","0.12792969","-0.9785156","-0.018554688","-4.84375","9.1875","-2.8125"
"1573641801420","443","0.18847656","-0.9707031","-0.0126953125","12.25","25.4375","-3.3125"
"1573641801421","444","0.06347656","-0.9140625","0.02734375","-1.3125","15.0","7.125"
"1573641801422","445","0.16308594","-0.9589844","0.0126953125","0.28125","11.9375","-2.40625"
"1573641801422","446","0.14648438","-1.0117188","-0.0087890625","-0.6875","10.3125","-5.21875"
"1573641801423","447","0.10253906","-0.9921875","-0.0234375","-0.25","0.90625","-0.875"
"1573641801423","448","0.12988281","-1.0058594","-0.0126953125","8.96875","-2.59375","1.625"
"1573641801423","449","0.20117188","-1.0078125","-0.022460938","6.8125","-10.5","2.25"
"1573641801817","450","0.10058594","-0.9746094","0.009765625","13.96875","1.3125","11.28125"
"1573641801818","451","0.123046875","-0.94140625","0.022460938","19.03125","3.59375","8.71875"
"1573641801818","452","0.083984375","-0.91015625","0.07128906","31.59375","6.8125","18.0625"
"1573641801819","453","0.051757812","-0.9003906","0.10058594","43.1875","8.46875","29.03125"
"1573641801819","454","0.109375","-0.8535156","0.115234375","55.46875","7.8125","42.90625"
"1573641801819","455","0.07714844","-0.9140625","0.15917969","64.25","2.65625","45.875"
"1573641801820","456","-0.00390625","-0.8935547","0.17675781","66.9375","10.1875","51.9375"
"1573641801821","457","-0.021484375","-0.9169922","0.22460938","72.96875","14.9375","47.78125"
"1573641801821","458","-0.048828125","-0.9091797","0.33789062","65.65625","15.3125","44.34375"
"1573641801822","459","-0.087890625","-0.8535156","0.36035156","67.84375","13.96875","42.71875"
"1573641802217","460","-0.15039062","-0.8183594","0.41503906","64.625","5.34375","46.625"
"1573641802218","461","-0.19335938","-0.8671875","0.37890625","64.1875","16.78125","48.4375"
"1573641802218","462","-0.14257812","-0.7988281","0.49023438","62.375","15.96875","45.625"
"1573641802218","463","-0.27148438","-0.81933594","0.4033203","64.9375","21.09375","42.78125"
"1573641802218","464","-0.17480469","-0.7685547","0.5605469","54.0","17.0625","33.8125"
"1573641802219","465","-0.22851562","-0.69628906","0.6279297","54.0625","10.1875","36.90625"
"1573641802219","466","-0.39648438","-0.7402344","0.5957031","44.90625","13.96875","26.53125"
"1573641802219","467","-0.3251953","-0.7734375","0.5683594","42.28125","17.0625","22.09375"
"1573641802220","468","-0.24023438","-0.6845703","0.63183594","36.375","14.375","23.125"
"1573641802221","469","-0.33398438","-0.59472656","0.6279297","34.65625","1.8125","20.90625"
"1573641802812","470","-0.45703125","-0.6328125","0.65234375","31.28125","3.53125","18.21875"
"1573641802812","471","-0.38964844","-0.6582031","0.7441406","25.25","9.8125","19.6875"
"1573641802813","472","-0.45703125","-0.6484375","0.8066406","20.5","6.8125","15.3125"
"1573641802813","473","-0.43164062","-0.5996094","0.65527344","11.15625","6.6875","13.59375"
"1573641802813","474","-0.3486328","-0.52441406","0.6855469","14.625","7.125","16.53125"
"1573641802814","475","-0.36523438","-0.546875","0.7080078","16.15625","2.0","11.28125"
"1573641802814","476","-0.48632812","-0.53515625","0.6904297","16.15625","1.5","17.0625"
"1573641802814","477","-0.49121094","-0.5185547","0.7089844","16.40625","9.5625","10.59375"
"1573641802814","478","-0.4033203","-0.5","0.6533203","18.0625","10.375","18.96875"
"1573641802815","479","-0.41992188","-0.41601562","0.6269531","19.53125","6.28125","12.625"
"1573641803009","480","-0.44726562","-0.47070312","0.671875","15.71875","14.09375","10.71875"
"1573641803011","481","-0.44335938","-0.39941406","0.6513672","10.1875","2.0","9.6875"
"1573641803011","482","-0.44335938","-0.47851562","0.6875","3.03125","3.21875","4.3125"
"1573641803011","483","-0.51464844","-0.46777344","0.7714844","-7.78125","2.59375","0.21875"
"1573641803012","484","-0.4765625","-0.4404297","0.71484375","-13.1875","1.09375","-4.40625"
"1573641803012","485","-0.47460938","-0.43554688","0.74609375","-16.1875","2.71875","-3.5625"
"1573641803012","486","-0.46191406","-0.45507812","0.6582031","-23.09375","-2.53125","-8.5"
"1573641803013","487","-0.4326172","-0.44921875","0.7128906","-29.0625","-2.34375","-19.3125"
"1573641803013","488","-0.45898438","-0.4765625","0.5859375","-38.71875","-8.5625","-22.71875"
"1573641803013","489","-0.44921875","-0.47851562","0.6376953","-49.625","5.40625","-27.1875"
"1573641803407","490","-0.28320312","-0.3984375","0.52246094","-56.65625","-4.59375","-33.28125"
"1573641803408","491","-0.37695312","-0.38964844","0.47851562","-66.59375","2.96875","-42.875"
"1573641803408","492","-0.27441406","-0.4326172","0.31152344","-83.15625","-5.375","-47.4375"
"1573641803409","493","-0.171875","-0.45214844","0.4013672","-101.03125","1.3125","-68.125"
"1573641803410","494","-0.17578125","-0.47460938","1.5517578","-108.53125","9.3125","-91.5625"
"1573641803410","495","-1.6142578","-2.0","1.4628906","-15.21875","-153.46875","-252.8125"
"1573641803410","496","0.27734375","-1.5966797","-0.15332031","-46.21875","-43.03125","154.34375"
"1573641803410","497","1.4970703","0.34960938","0.12011719","-34.0","-9.0625","-49.28125"
"1573641803411","498","-0.92285156","0.015625","0.15136719","-85.34375","-152.65625","-62.5625"
"1573641803411","499","-0.65527344","-0.22851562","0.040039062","-59.90625","-13.9375","-36.875"
"1573641804001","500","0.265625","-0.640625","0.5126953","-48.28125","35.25","-41.9375"
"1573641804001","501","0.046875","-1.4716797","0.5419922","-30.53125","-33.40625","-92.0625"
"1573641804001","502","-0.6376953","-1.6152344","0.29492188","-35.71875","-1.90625","-33.34375"
"1573641804002","503","0.13574219","-1.3027344","0.20214844","-62.5","25.0","30.875"
"1573641804002","504","0.30078125","-0.53515625","0.2529297","-63.125","-3.5","-22.84375"
"1573641804002","505","-0.03125","-0.5830078","0.15722656","-53.96875","-21.375","-60.75"
"1573641804003","506","-0.1171875","-1.0849609","0.15429688","-42.125","-7.34375","-45.96875"
"1573641804003","507","-0.064453125","-1.0712891","0.15136719","-40.84375","9.1875","-32.59375"
"1573641804003","508","0.07324219","-0.9785156","0.10839844","-41.46875","-0.3125","-14.71875"
"1573641804004","509","0.119140625","-0.9082031","0.068359375","-37.90625","-1.25","-19.5"
"1573641804203","510","0.07519531","-0.9404297","0.060546875","-31.75","-1.65625","-17.71875"
"1573641804204","511","0.068359375","-0.9921875","0.018554688","-27.3125","4.125","-14.78125"
"1573641804204","512","0.016601562","-0.9277344","0.043945312","-27.0","-1.25","-14.3125"
"1573641804205","513","0.078125","-0.9433594","-0.0068359375","-16.3125","-2.9375","-6.65625"
"1573641804205","514","0.10058594","-1.0087891","-0.013671875","-7.71875","10.53125","-1.0"
"1573641804205","515","0.12597656","-0.99121094","-0.029296875","-7.59375","3.46875","4.75"
"1573641804205","516","0.083984375","-0.98535156","-0.030273438","-7.59375","-2.59375","4.5625"
"1573641804206","517","0.095703125","-1.0214844","-0.041992188","-11.25","-2.21875","-2.8125"
"1573641804206","518","0.06640625","-0.98828125","-0.01171875","-7.34375","2.71875","0.09375"
"1573641804206","519","0.09765625","-0.9785156","-0.040039062","-3.6875","7.5","0.03125"
"1573641804997","520","0.10058594","-0.9501953","-0.041992188","-0.125","5.71875","3.59375"
"1573641804998","521","0.10449219","-0.99121094","-0.041992188","5.53125","4.75","4.125"
"1573641804998","522","0.06640625","-1.0224609","-0.015625","5.90625","0.84375","7.90625"
"1573641804998","523","0.06933594","-1.0039062","0.01171875","4.6875","0.53125","11.8125"
"1573641804999","524","0.080078125","-0.9921875","0.025390625","5.78125","1.75","12.0625"
"1573641804999","525","0.043945312","-0.96777344","-0.0390625","9.4375","-0.1875","13.03125"
"1573641804999","526","0.029296875","-0.9765625","0.0107421875","9.5625","1.21875","11.15625"
"1573641804999","527","0.041992188","-1.0019531","-0.0068359375","14.15625","3.34375","8.34375"
"1573641805000","528","0.044921875","-0.9550781","0.0","16.21875","0.65625","13.28125"
"1573641805000","529","0.064453125","-1.0","0.018554688","21.65625","4.125","17.625"
"1573641805192","530","-0.016601562","-0.96777344","0.046875","23.25","8.84375","20.1875"
"1573641805193","531","-0.0029296875","-0.9511719","0.056640625","26.96875","10.25","21.21875"
"1573641805193","532","-0.01953125","-1.0009766","0.09765625","29.9375","11.03125","18.65625"
"1573641805193","533","-0.057617188","-1.0068359","0.12890625","30.9375","12.75","17.375"
"1573641805194","534","-0.057617188","-0.9550781","0.15332031","30.375","14.9375","28.125"
"1573641805194","535","-0.034179688","-0.93066406","0.1796875","37.8125","10.71875","32.75"
"1573641805195","536","-0.10058594","-0.94921875","0.18945312","36.84375","-1.0625","29.78125"
"1573641805195","537","-0.14355469","-0.96484375","0.23144531","35.875","-0.5625","32.28125"
"1573641805195","538","-0.24414062","-0.94628906","0.22851562","31.78125","-0.75","31.53125"
"1573641805195","539","-0.13671875","-0.9638672","0.3173828","35.03125","7.0","29.59375"
"1573641805396","540","-0.24707031","-0.93066406","0.28320312","33.25","5.21875","26.0"
"1573641805397","541","-0.18359375","-0.8808594","0.3076172","31.71875","7.5","28.65625"
"1573641805397","542","-0.21679688","-0.8613281","0.34277344","29.59375","3.53125","27.15625"
"1573641805397","543","-0.20703125","-0.8925781","0.3408203","30.25","0.0","24.40625"
"1573641805398","544","-0.33789062","-0.88183594","0.3779297","27.6875","2.71875","27.5625"
"1573641805398","545","-0.2783203","-0.8642578","0.41601562","28.3125","7.0","26.65625"
"1573641805398","546","-0.3388672","-0.84472656","0.41503906","25.9375","11.28125","26.65625"
"1573641805398","547","-0.28125","-0.83203125","0.4189453","24.28125","6.09375","24.53125"
"1573641805399","548","-0.27441406","-0.8095703","0.41210938","31.90625","8.46875","23.53125"
"1573641805399","549","-0.38867188","-0.7675781","0.45410156","29.15625","1.75","27.28125"
"1573641806387","550","-0.40527344","-0.7529297","0.49023438","29.34375","11.15625","26.90625"
"1573641806387","551","-0.4091797","-0.7451172","0.47851562","27.34375","14.875","23.59375"
"1573641806388","552","-0.36523438","-0.7714844","0.47851562","27.9375","11.40625","24.65625"
"1573641806388","553","-0.42578125","-0.7392578","0.51464844","28.125","10.84375","29.40625"
"1573641806388","554","-0.43945312","-0.7392578","0.5097656","27.15625","10.25","26.90625"
"1573641806389","555","-0.45507812","-0.7392578","0.58984375","25.375","10.46875","23.78125"
"1573641806389","556","-0.51953125","-0.7050781","0.59765625","24.21875","3.34375","21.03125"
"1573641806390","557","-0.48828125","-0.67285156","0.58984375","26.78125","8.34375","22.9375"
"1573641806390","558","-0.5683594","-0.6455078","0.64746094","21.96875","9.8125","20.3125"
"1573641806390","559","-0.53027344","-0.6142578","0.6328125","24.53125","2.96875","20.1875"
"1573641806390","560","-0.53125","-0.61328125","0.67578125","24.8125","5.0625","17.75"
"1573641806391","561","-0.6015625","-0.6533203","0.6074219","17.5","-7.09375","10.59375"
"1573641806391","562","-0.44140625","-0.6123047","0.6689453","16.46875","-3.25","9.5625"
"1573641806391","563","-0.6064453","-0.5839844","0.6269531","13.09375","-5.625","3.40625"
"1573641806392","564","-0.47753906","-0.5830078","0.6621094","8.40625","-4.21875","1.4375"
"1573641806392","565","-0.57128906","-0.54296875","0.6347656","6.75","-2.28125","-0.1875"
"1573641806392","566","-0.54003906","-0.5546875","0.67871094","1.75","-4.84375","-1.46875"
"1573641806392","567","-0.48242188","-0.5761719","0.69628906","3.28125","-7.59375","-3.0"
"1573641806393","568","-0.5888672","-0.5566406","0.6826172","1.5","-9.53125","-6.59375"
"1573641806393","569","-0.4658203","-0.61621094","0.71972656","3.71875","-4.46875","-2.28125"
"1573641806588","570","-0.61621094","-0.55566406","0.6582031","1.8125","-8.25","-4.03125"
"1573641806589","571","-0.45996094","-0.5761719","0.75","3.53125","-1.34375","-2.46875"
"1573641806589","572","-0.5341797","-0.5546875","0.703125","0.96875","-8.4375","-2.34375"
"1573641806589","573","-0.5058594","-0.6044922","0.6347656","4.125","-3.125","-6.65625"
"1573641806590","574","-0.46289062","-0.5673828","0.74316406","-3.96875","-3.1875","-6.25"
"1573641806590","575","-0.55371094","-0.62597656","0.6767578","-2.34375","-1.25","-6.4375"
"1573641806590","576","-0.4814453","-0.55566406","0.7841797","-5.25","-5.75","-6.0"
"1573641806591","577","-0.52441406","-0.6767578","0.67871094","-7.65625","6.03125","-4.71875"
"1573641806591","578","-0.4609375","-0.5595703","0.77246094","-16.5","-3.1875","-9.15625"
"1573641806592","579","-0.42285156","-0.6123047","0.7060547","-16.75","-11.0625","-11.3125"
"1573641806986","580","-0.54589844","-0.55859375","0.6455078","-19.59375","-7.21875","-15.40625"
"1573641806986","581","-0.27148438","-0.671875","0.6503906","-24.90625","-5.8125","-17.21875"
"1573641806986","582","-0.51171875","-0.5214844","0.6220703","-20.21875","-30.71875","-20.875"
"1573641806986","583","-0.43164062","-0.609375","0.5488281","-29.8125","-3.6875","-19.125"
"1573641806987","584","-0.2783203","-0.52441406","0.63378906","-25.53125","-6.71875","-22.0625"
"1573641806987","585","-0.4296875","-0.52246094","0.51464844","-23.8125","-6.0","-23.15625"
"1573641806987","586","-0.2265625","-0.63378906","0.67285156","-22.40625","-6.59375","-19.53125"
"1573641806987","587","-0.40820312","-0.6113281","0.53125","-8.8125","-18.4375","-16.5625"
"1573641806988","588","-0.30371094","-0.7207031","0.64453125","-21.1875","-1.90625","-14.34375"
"1573641806989","589","-0.3076172","-0.64746094","0.5839844","-12.71875","-3.3125","-8.8125"
"1573641807383","590","-0.22949219","-0.6933594","0.51464844","-17.59375","-6.25","-20.84375"
"1573641807383","591","-0.3173828","-0.6513672","0.57910156","-18.15625","-9.0625","-24.96875"
"1573641807384","592","-0.36328125","-0.8154297","0.56933594","-24.0","-1.0","-25.78125"
"1573641807384","593","-0.18164062","-0.84277344","0.58691406","-29.3125","-6.375","-24.78125"
"1573641807384","594","-0.36132812","-0.8886719","0.5361328","-34.75","-12.65625","-23.9375"
"1573641807384","595","-0.23730469","-0.87402344","0.6386719","-41.21875","-17.03125","-36.40625"
"1573641807385","596","-0.26953125","-0.8691406","0.5410156","-49.8125","-14.40625","-34.0625"
"1573641807385","597","-0.21386719","-0.8828125","0.5048828","-55.375","-21.3125","-40.84375"
"1573641807385","598","-0.11328125","-0.84472656","0.48632812","-63.90625","-17.15625","-39.375"
"1573641807385","599","-0.18261719","-0.7919922","0.43164062","-70.8125","-22.53125","-45.25"
"1573641807780","600","-0.14941406","-0.7988281","0.41503906","-79.375","-25.34375","-51.65625"
"1573641807782","601","-0.091796875","-0.8330078","0.35058594","-84.1875","-20.53125","-54.40625"
"1573641807782","602","0.00390625","-0.7949219","0.2685547","-83.09375","-11.6875","-46.65625"
"1573641807783","603","-0.06542969","-0.70703125","0.24414062","-80.53125","-9.125","-46.03125"
"1573641807783","604","-0.040039062","-0.67578125","0.21582031","-72.59375","1.6875","-43.71875"
"1573641807783","605","0.020507812","-0.70410156","0.09082031","-55.3125","12.3125","-38.09375"
"1573641807783","606","0.12988281","-0.85546875","0.059570312","-42.5","15.25","-33.65625"
"1573641807784","607","0.19628906","-1.1230469","0.00390625","-34.5","24.75","-32.0625"
"1573641807784","608","0.18359375","-0.9951172","0.026367188","-30.53125","16.59375","-22.46875"
"1573641807784","609","0.19335938","-0.9160156","0.047851562","-19.0625","9.625","-11.90625"
"1573641808179","610","0.15625","-0.953125","0.017578125","-10.875","7.0625","-6.0625"
"1573641808180","611","0.171875","-0.9863281","0.0087890625","-6.84375","14.75","-6.0625"
"1573641808180","612","0.20507812","-0.96191406","0.0390625","-5.09375","8.96875","-1.59375"
"1573641808182","613","0.17871094","-0.97265625","0.037109375","-3.0","4.6875","-1.46875"
"1573641808182","614","0.17480469","-0.9814453","0.015625","2.90625","5.90625","2.25"
"1573641808183","615","0.17773438","-0.953125","0.051757812","6.03125","4.4375","7.125"
"1573641808183","616","0.171875","-1.0078125","0.0234375","5.59375","-0.125","4.8125"
"1573641808183","617","0.17285156","-0.99609375","0.026367188","3.28125","-1.1875","1.3125"
"1573641808183","618","0.13964844","-1.0087891","0.043945312","2.25","-4.65625","1.4375"
"1573641808184","619","0.1484375","-0.9472656","0.064453125","-0.3125","-0.6875","2.3125"
"1573641808574","620","0.125","-0.96875","0.06640625","4.25","6.6875","2.65625"
"1573641808575","621","0.13574219","-0.9550781","0.041992188","6.28125","6.03125","1.03125"
"1573641808575","622","0.16210938","-0.9951172","0.036132812","10.59375","9.5625","4.3125"
"1573641808575","623","0.15234375","-0.96875","0.060546875","8.59375","7.5625","5.40625"
"1573641808576","624","0.15527344","-0.9628906","0.060546875","12.5","7.90625","4.8125"
"1573641808577","625","0.13476562","-0.97558594","0.076171875","14.375","6.6875","6.9375"
"1573641808577","626","0.11621094","-0.9375","0.09863281","18.65625","8.71875","10.375"
"1573641808578","627","0.12988281","-0.92871094","0.1171875","24.21875","13.84375","11.71875"
"1573641808578","628","0.09765625","-0.921875","0.13769531","28.65625","11.03125","14.625"
"1573641808578","629","0.059570312","-0.90722656","0.15429688","35.1875","7.375","19.875"
"1573641809174","630","0.029296875","-0.91308594","0.18164062","35.6875","7.125","24.53125"
"1573641809174","631","0.041015625","-0.8652344","0.22167969","42.59375","10.90625","28.84375"
"1573641809174","632","0.015625","-0.8544922","0.1953125","51.3125","8.84375","33.8125"
"1573641809174","633","0.0029296875","-0.8496094","0.29003906","51.0","12.0625","36.0625"
"1573641809175","634","-0.032226562","-0.7939453","0.29785156","57.40625","8.59375","40.625"
"1573641809175","635","-0.111328125","-0.79003906","0.3095703","62.3125","12.625","43.375"
"1573641809175","636","-0.12695312","-0.7373047","0.42285156","63.46875","16.90625","46.3125"
"1573641809177","637","-0.20019531","-0.7011719","0.3876953","71.03125","20.1875","48.6875"
"1573641809177","638","-0.1796875","-0.69140625","0.43359375","74.875","29.03125","51.4375"
"1573641809177","639","-0.1328125","-0.625","0.46777344","78.65625","17.0625","50.875"
"1573641809370","640","-0.22558594","-0.6220703","0.5527344","71.59375","16.53125","47.96875"
"1573641809370","641","-0.390625","-0.6904297","0.5185547","64.0","14.3125","48.5625"
"1573641809370","642","-0.31054688","-0.6640625","0.59472656","50.53125","39.0","45.875"
"1573641809370","643","-0.23242188","-0.6425781","0.62402344","38.375","18.53125","35.15625"
"1573641809371","644","-0.3623047","-0.5957031","0.56347656","29.03125","27.09375","36.65625"
"1573641809371","645","-0.33496094","-0.6015625","0.78027344","20.90625","21.71875","31.0625"
"1573641809371","646","-0.43945312","-0.6591797","0.61621094","9.03125","13.59375","12.75"
"1573641809371","647","-0.38183594","-0.7792969","0.7636719","-2.46875","10.125","6.15625"
"1573641809372","648","-0.34472656","-0.6308594","0.6796875","-17.78125","-4.65625","-6.4375"
"1573641809373","649","-0.41015625","-0.67578125","0.6816406","-31.6875","-9.125","-2.9375"
"1573641809769","650","-0.3828125","-0.5996094","0.6308594","-45.125","-10.5625","-26.625"
"1573641809769","651","-0.4453125","-0.6279297","0.6484375","-58.125","-7.28125","-34.125"
"1573641809769","652","-0.32910156","-0.6699219","0.58203125","-74.125","-7.21875","-39.75"
"1573641809770","653","-0.28027344","-0.6347656","0.46191406","-98.28125","-9.65625","-59.03125"
"1573641809770","654","-0.23046875","-0.6269531","0.9951172","-119.09375","15.65625","-75.28125"
"1573641809770","655","9.765625E-4","-2.0","1.6962891","-90.84375","-112.4375","-214.8125"
"1573641809770","656","-0.22070312","-1.8574219","-0.4609375","-44.9375","-116.40625","88.0"
"1573641809771","657","1.5888672","-0.059570312","0.69140625","-28.8125","-11.96875","5.0"
"1573641809771","658","-0.23730469","0.24414062","0.028320312","-83.03125","-108.28125","-52.75"
"1573641809771","659","-0.67089844","-0.46875","-0.06933594","-75.03125","-17.59375","-66.375"
"1573641810166","660","0.12011719","-0.56152344","0.18847656","-45.3125","24.40625","-67.75"
"1573641810167","661","0.3798828","-1.1660156","0.3125","-53.90625","-30.84375","-94.5625"
"1573641810167","662","-0.1796875","-1.7060547","0.1171875","-56.03125","-21.6875","-65.5"
"1573641810167","663","0.046875","-1.2578125","0.0234375","-40.3125","-6.25","22.1875"
"1573641810167","664","0.3095703","-0.68359375","0.0390625","-39.375","7.1875","-11.5"
"1573641810168","665","0.060546875","-0.5839844","-0.038085938","-40.40625","-4.84375","-36.46875"
"1573641810168","666","0.17675781","-0.89160156","0.016601562","-20.9375","-7.46875","-30.40625"
"1573641810168","667","0.15820312","-1.0517578","-0.013671875","-20.15625","-2.75","-35.21875"
"1573641810168","668","0.21289062","-1.1044922","-0.036132812","-17.40625","-1.40625","-7.53125"
"1573641810169","669","0.24804688","-0.99121094","-0.034179688","-8.6875","-2.09375","8.71875"
"1573641810563","670","0.24609375","-0.9423828","-0.040039062","-3.875","-4.96875","2.5625"
"1573641810563","671","0.17773438","-0.94628906","-0.026367188","-2.15625","-7.03125","2.0625"
"1573641810563","672","0.12792969","-0.94433594","-0.0146484375","-0.9375","-5.09375","4.8125"
"1573641810564","673","0.15039062","-0.9765625","-0.015625","0.78125","0.71875","8.90625"
"1573641810565","674","0.13476562","-1.0048828","0.0","-2.53125","0.59375","10.46875"
"1573641810565","675","0.15917969","-1.0224609","-0.0107421875","0.15625","2.4375","13.71875"
"1573641810565","676","0.11816406","-0.98339844","-0.0029296875","3.78125","4.0","16.84375"
"1573641810566","677","0.10644531","-0.9511719","-0.0087890625","9.9375","6.03125","15.84375"
"1573641810566","678","0.115234375","-0.95214844","-0.005859375","14.3125","7.0","17.4375"
"1573641810566","679","0.12207031","-0.99316406","0.025390625","17.75","10.46875","19.34375"
"1573641810961","680","0.05859375","-0.9716797","-0.0107421875","18.0","9.03125","24.59375"
"1573641810961","681","0.057617188","-0.9658203","0.060546875","19.9375","9.5","30.1875"
"1573641810961","682","0.0546875","-0.9550781","0.111328125","28.90625","20.8125","31.0625"
"1573641810962","683","0.0078125","-0.9892578","0.087890625","27.03125","16.53125","27.625"
"1573641810962","684","0.024414062","-1.0507812","0.08886719","26.0","17.3125","25.625"
"1573641810963","685","-0.01171875","-1.0","0.09765625","25.375","14.375","29.09375"
"1573641810963","686","-0.061523438","-0.96875","0.18359375","29.65625","13.28125","32.09375"
"1573641810964","687","-0.099609375","-0.8847656","0.15429688","36.25","9.9375","32.75"
"1573641810964","688","-0.16308594","-0.94433594","0.15820312","33.75","11.9375","34.96875"
"1573641810964","689","-0.08886719","-0.94433594","0.17480469","40.625","17.3125","36.25"
"1573641811358","690","-0.123046875","-0.9609375","0.20214844","40.375","14.15625","34.40625"
"1573641811359","691","-0.099609375","-0.9394531","0.26367188","44.65625","11.71875","41.4375"
"1573641811359","692","-0.21972656","-0.8964844","0.29882812","41.1875","6.6875","38.6875"
"1573641811360","693","-0.2841797","-0.8251953","0.3515625","44.71875","3.65625","42.71875"
"1573641811360","694","-0.23828125","-0.79003906","0.3564453","49.125","12.25","41.5625"
"1573641811360","695","-0.2861328","-0.9160156","0.3857422","46.375","8.71875","36.4375"
"1573641811360","696","-0.36132812","-0.91503906","0.38476562","53.03125","5.125","36.125"
"1573641811362","697","-0.3466797","-0.8261719","0.4814453","47.53125","6.5625","46.4375"
"1573641811363","698","-0.296875","-0.8105469","0.57714844","53.8125","3.34375","41.78125"
"1573641811363","699","-0.53808594","-0.8251953","0.5722656","36.375","-11.90625","25.4375"
"1573641811756","700","-0.49023438","-0.6796875","0.5996094","43.625","7.5625","31.96875"
"1573641811756","701","-0.47753906","-0.6611328","0.6542969","35.03125","6.03125","24.9375"
"1573641811757","702","-0.4375","-0.70214844","0.65527344","28.90625","-1.1875","14.875"
"1573641811757","703","-0.5546875","-0.65625","0.625","20.96875","-1.84375","16.9375"
"1573641811757","704","-0.49023438","-0.65527344","0.6464844","18.90625","7.625","14.375"
"1573641811757","705","-0.45898438","-0.6201172","0.68847656","10.0","-8.4375","2.0"
"1573641811758","706","-0.46679688","-0.62597656","0.6171875","12.1875","-9.90625","9.375"
"1573641811758","707","-0.44433594","-0.6425781","0.6376953","9.1875","-7.15625","7.0"
"1573641811758","708","-0.51171875","-0.6142578","0.65234375","8.78125","-4.03125","4.5625"
"1573641811759","709","-0.48242188","-0.6533203","0.6699219","11.15625","2.65625","1.5625"
"1573641812353","710","-0.46484375","-0.65625","0.73339844","9.9375","3.21875","4.0625"
"1573641812353","711","-0.53027344","-0.62890625","0.72265625","10.3125","-3.5625","1.03125"
"1573641812354","712","-0.5332031","-0.6533203","0.7363281","6.9375","-0.4375","0.34375"
"1573641812354","713","-0.4951172","-0.6464844","0.7578125","3.78125","2.96875","-1.53125"
"1573641812354","714","-0.48828125","-0.61328125","0.7138672","1.375","-4.84375","-2.875"
"1573641812355","715","-0.43554688","-0.5996094","0.6660156","-0.9375","-3.1875","-0.3125"
"1573641812355","716","-0.45214844","-0.59277344","0.6875","0.90625","-1.25","-2.6875"
"1573641812355","717","-0.40722656","-0.578125","0.6542969","1.8125","3.34375","0.0"
"1573641812355","718","-0.4296875","-0.58691406","0.6689453","2.0","-6.53125","-8.8125"
"1573641812356","719","-0.5078125","-0.6328125","0.6796875","-2.15625","-1.25","-9.65625"
"1573641812550","720","-0.4169922","-0.56933594","0.63183594","-9.65625","2.0","-8.875"
"1573641812551","721","-0.34960938","-0.515625","0.6386719","-5.15625","0.40625","-13.0625"
"1573641812551","722","-0.40625","-0.5722656","0.6044922","-5.6875","-2.03125","-12.53125"
"1573641812551","723","-0.35742188","-0.5917969","0.64160156","-5.09375","-5.25","-14.65625"
"1573641812551","724","-0.38671875","-0.52734375","0.6298828","-4.09375","-9.34375","-13.75"
"1573641812552","725","-0.34375","-0.56640625","0.6220703","-0.3125","-4.53125","-10.5"
"1573641812552","726","-0.33203125","-0.5566406","0.671875","-1.34375","-12.90625","-12.65625"
"1573641812552","727","-0.37304688","-0.5800781","0.6142578","-2.6875","-12.65625","-9.71875"
"1573641812552","728","-0.3642578","-0.57128906","0.6435547","-5.25","-4.15625","-13.5625"
"1573641812553","729","-0.32617188","-0.66015625","0.7109375","-9.65625","-2.21875","-15.75"
"1573641812948","730","-0.3623047","-0.62597656","0.67089844","-15.625","-7.46875","-18.03125"
"1573641812948","731","-0.35351562","-0.6767578","0.6796875","-19.53125","3.03125","-21.8125"
"1573641812948","732","-0.31054688","-0.6826172","0.68066406","-24.5","-0.25","-22.46875"
"1573641812949","733","-0.27539062","-0.6904297","0.6669922","-28.21875","-3.4375","-28.40625"
"1573641812950","734","-0.33496094","-0.73046875","0.6875","-31.3125","-4.84375","-32.5"
"1573641812950","735","-0.2939453","-0.74902344","0.59472656","-32.375","-1.96875","-31.8125"
"1573641812950","736","-0.24414062","-0.7207031","0.6455078","-35.53125","-5.5625","-28.53125"
"1573641812950","737","-0.24804688","-0.7158203","0.5986328","-37.625","-4.03125","-32.5625"
"1573641812951","738","-0.22558594","-0.72753906","0.58984375","-39.625","-10.875","-35.90625"
"1573641812951","739","-0.19335938","-0.7988281","0.48828125","-40.25","-12.09375","-39.375"
"1573641813347","740","-0.1328125","-0.7734375","0.546875","-44.09375","-15.875","-31.5625"
"1573641813348","741","-0.14453125","-0.8076172","0.4716797","-44.5","-13.25","-34.125"
"1573641813348","742","-0.107421875","-0.8017578","0.48535156","-45.90625","-16.875","-36.15625"
"1573641813348","743","-0.14257812","-0.79785156","0.43847656","-48.84375","-14.34375","-34.125"
"1573641813348","744","-0.076171875","-0.81152344","0.39746094","-50.625","-10.5","-36.03125"
"1573641813350","745","0.0048828125","-0.88378906","0.3623047","-50.375","-13.125","-39.25"
"1573641813350","746","0.0146484375","-0.9609375","0.3623047","-53.84375","-19.84375","-35.40625"
"1573641813351","747","0.033203125","-0.9609375","0.30664062","-57.15625","-24.6875","-34.3125"
"1573641813351","748","0.0078125","-0.91796875","0.30371094","-62.46875","-29.3125","-32.5625"
"1573641813351","749","-0.0078125","-0.8076172","0.24804688","-63.75","-24.90625","-26.8125"
"1573641813744","750","0.017578125","-0.75097656","0.22949219","-57.21875","-19.3125","-21.25"
"1573641813744","751","0.0146484375","-0.8144531","0.18066406","-45.59375","-16.8125","-16.0"
"1573641813744","752","0.06933594","-0.83203125","0.18847656","-44.15625","1.9375","-11.375"
"1573641813745","753","0.072265625","-0.90722656","0.14257812","-34.125","-1.3125","-4.90625"
"1573641813745","754","0.111328125","-1.0185547","0.09863281","-22.71875","4.875","-7.875"
"1573641813745","755","0.123046875","-1.0410156","0.038085938","-18.5625","7.4375","-5.875"
"1573641813745","756","0.13671875","-0.95703125","0.0087890625","-17.84375","10.65625","-6.5"
"1573641813747","757","0.123046875","-0.96484375","0.01171875","-14.0625","7.84375","-6.4375"
"1573641813747","758","0.115234375","-0.9345703","0.022460938","-8.75","12.0","-11.0"
"1573641813748","759","0.14746094","-0.9550781","0.049804688","3.09375","14.28125","-5.15625"
"1573641814140","760","0.15820312","-1.0009766","0.0546875","6.875","13.71875","1.09375"
"1573641814141","761","0.20410156","-0.9941406","0.034179688","5.78125","13.0","1.5625"
"1573641814141","762","0.19921875","-0.9707031","0.06347656","4.1875","7.375","0.84375"
"1573641814141","763","0.123046875","-0.9902344","0.06347656","2.78125","1.5","0.15625"
"1573641814142","764","0.14550781","-1.0458984","0.032226562","2.0625","7.5","3.09375"
"1573641814142","765","0.13574219","-0.9785156","0.087890625","-0.375","3.9375","4.125"
"1573641814142","766","0.14550781","-0.9628906","0.0625","1.21875","3.03125","1.75"
"1573641814142","767","0.140625","-1.015625","0.08300781","-0.5","2.59375","-0.6875"
"1573641814143","768","0.10449219","-0.96972656","0.08203125","-2.75","2.59375","0.46875"
"1573641814144","769","0.1171875","-0.9824219","0.095703125","0.84375","5.53125","-1.40625"
"1573641814933","770","0.11035156","-0.9892578","0.09082031","4.5625","5.78125","2.375"
"1573641814934","771","0.109375","-0.9609375","0.11230469","8.84375","6.09375","4.6875"
"1573641814934","772","0.091796875","-0.9560547","0.14550781","12.625","7.8125","5.78125"
"1573641814934","773","0.08691406","-0.9248047","0.13964844","19.625","6.21875","10.46875"
"1573641814935","774","0.1171875","-0.9267578","0.15722656","30.9375","6.9375","19.5625"
"1573641814935","775","0.059570312","-0.9111328","0.14941406","38.125","6.8125","25.3125"
"1573641814935","776","0.021484375","-0.8466797","0.20117188","47.09375","2.65625","34.90625"
"1573641814936","777","-0.020507812","-0.8408203","0.27246094","52.90625","10.0625","38.1875"
"1573641814936","778","-0.036132812","-0.7626953","0.29589844","62.65625","10.0625","43.0"
"1573641814936","779","-0.051757812","-0.7480469","0.2841797","71.9375","13.59375","56.9375"
"1573641815131","780","-0.12695312","-0.6660156","0.33203125","75.375","22.6875","61.875"
"1573641815133","781","-0.07910156","-0.6503906","0.3095703","82.75","16.78125","66.21875"
"1573641815133","782","-0.11621094","-0.5800781","0.36914062","86.15625","19.75","68.59375"
"1573641815134","783","-0.25097656","-0.5878906","0.32128906","86.84375","13.96875","69.0"
"1573641815134","784","-0.234375","-0.6044922","0.42285156","76.71875","27.5625","70.0"
"1573641815135","785","-0.19628906","-0.55371094","0.4580078","62.3125","9.5625","51.875"
"1573641815136","786","-0.16796875","-0.5839844","0.7001953","50.78125","8.90625","44.59375"
"1573641815136","787","-0.5185547","-0.5371094","0.5917969","35.3125","-5.625","36.59375"
"1573641815136","788","-0.51171875","-0.78027344","0.51660156","22.875","8.03125","50.65625"
"1573641815137","789","-0.24316406","-0.6357422","0.7734375","-3.25","7.84375","6.03125"
"1573641815333","790","-0.5332031","-0.53125","0.66503906","-10.5625","-10.9375","-1.3125"
"1573641815334","791","-0.41210938","-0.8330078","0.7705078","-29.8125","14.28125","2.78125"
"1573641815334","792","-0.31640625","-0.76660156","0.85253906","-49.5625","-14.34375","-48.0625"
"1573641815336","793","-0.5214844","-0.75097656","0.7705078","-55.75","-11.71875","-37.625"
"1573641815336","794","-0.48046875","-0.78027344","0.65722656","-71.90625","-8.125","-34.4375"
"1573641815336","795","-0.32421875","-0.7265625","0.4716797","-83.625","10.96875","-44.875"
"1573641815337","796","-0.15234375","-0.7158203","1.1132812","-101.46875","18.71875","-57.3125"
"1573641815337","797","-0.9863281","-2.0","1.0185547","-86.125","91.15625","-138.4375"
"1573641815337","798","-0.48632812","-1.8457031","-0.2734375","-12.34375","-71.625","52.46875"
"1573641815338","799","1.0419922","-0.6982422","0.58691406","-47.4375","27.09375","9.6875"
"1573641815929","800","0.07519531","0.061523438","0.11035156","-66.40625","-74.40625","-36.21875"
"1573641815930","801","-0.48046875","-0.26464844","0.068359375","-71.1875","-34.5625","-40.53125"
"1573641815930","802","-0.21972656","-0.5234375","0.19335938","-40.59375","-2.8125","-50.125"
"1573641815931","803","0.0029296875","-1.1503906","0.37109375","-18.8125","0.28125","-48.53125"
"1573641815931","804","-0.3544922","-1.765625","0.21875","-30.21875","7.96875","-4.15625"
"1573641815933","805","-0.07519531","-1.2001953","0.09277344","-31.4375","-1.3125","14.5"
"1573641815933","806","0.052734375","-0.71972656","0.14648438","-36.5","-4.84375","-10.28125"
"1573641815934","807","-0.123046875","-0.72265625","0.13671875","-30.28125","-9.125","-30.34375"
"1573641815934","808","-0.08105469","-0.8691406","0.109375","-20.53125","10.0","-19.25"
"1573641815934","809","-0.025390625","-1.0253906","0.11035156","-20.84375","7.75","-15.6875"
"1573641816127","810","-0.015625","-1.0908203","0.11425781","-17.90625","6.28125","-12.59375"
"1573641816127","811","0.0068359375","-1.0117188","0.09765625","-12.78125","-2.28125","-8.0"
"1573641816128","812","-0.022460938","-0.9863281","0.08203125","-10.4375","-7.8125","-0.1875"
"1573641816128","813","-0.07519531","-0.93066406","0.09277344","-9.21875","-2.28125","-0.25"
"1573641816128","814","-0.09082031","-0.88183594","0.095703125","-5.15625","-2.59375","0.46875"
"1573641816128","815","-0.07421875","-0.9785156","0.099609375","-1.125","2.59375","2.1875"
"1573641816128","816","-0.06347656","-1.0439453","0.09765625","-0.875","3.84375","1.21875"
"1573641816129","817","-0.06640625","-1.0302734","0.08886719","-2.46875","4.25","0.65625"
"1573641816129","818","-0.068359375","-1.0","0.10058594","-3.75","6.625","-1.25"
"1573641816130","819","-0.060546875","-0.9638672","0.08203125","-4.15625","6.75","-2.34375"
"1573641816530","820","-0.057617188","-0.96972656","0.09765625","0.34375","5.34375","-0.5625"
"1573641816531","821","-0.064453125","-0.99121094","0.107421875","2.25","3.34375","1.6875"
"1573641816531","822","-0.056640625","-1.0292969","0.10058594","2.125","2.71875","2.125"
"1573641816531","823","-0.064453125","-1.0117188","0.107421875","-1.3125","1.375","1.8125"
"1573641816532","824","-0.053710938","-0.98046875","0.13183594","-1.0625","-2.8125","1.875"
"1573641816532","825","-0.08105469","-0.984375","0.111328125","-1.1875","-2.28125","0.40625"
"1573641816532","826","-0.07421875","-0.9794922","0.11621094","0.21875","-8.0","0.71875"
"1573641816532","827","-0.041015625","-1.0058594","0.08300781","2.5","-5.09375","4.0"
"1573641816533","828","-0.06640625","-0.9785156","0.1171875","0.59375","-0.875","0.78125"
"1573641816533","829","-0.055664062","-0.94921875","0.107421875","5.34375","5.34375","3.34375"
"1573641816922","830","-0.05859375","-0.98046875","0.14648438","8.03125","5.53125","4.6875"
"1573641816923","831","-0.07910156","-0.97265625","0.078125","13.28125","2.96875","5.0"
"1573641816923","832","-0.087890625","-1.0097656","0.11328125","10.46875","2.375","7.5"
"1573641816924","833","-0.12597656","-0.9707031","0.15429688","7.625","2.4375","6.8125"
"1573641816924","834","-0.111328125","-0.9511719","0.11328125","10.71875","6.46875","8.15625"
"1573641816924","835","-0.07910156","-0.9482422","0.10253906","17.0","8.03125","10.71875"
"1573641816924","836","-0.11035156","-0.93847656","0.11035156","23.53125","7.0","15.71875"
"1573641816925","837","-0.099609375","-0.98828125","0.107421875","28.1875","15.65625","18.125"
"1573641816925","838","-0.09375","-0.9316406","0.18554688","29.34375","4.6875","26.40625"
"1573641816925","839","-0.060546875","-0.859375","0.16308594","42.84375","8.71875","37.28125"
"1573641817321","840","-0.13574219","-0.8769531","0.17285156","47.96875","3.71875","34.78125"
"1573641817323","841","-0.0859375","-0.88183594","0.21582031","57.53125","-4.59375","33.5625"
"1573641817323","842","-0.16503906","-0.859375","0.24414062","66.09375","-2.15625","37.8125"
"1573641817324","843","-0.26660156","-0.9296875","0.3232422","60.59375","-9.0","41.375"
"1573641817324","844","-0.38476562","-0.92285156","0.38183594","56.0625","-6.1875","32.09375"
"1573641817324","845","-0.45898438","-0.8496094","0.46191406","54.625","15.3125","19.15625"
"1573641817325","846","-0.34277344","-0.8105469","0.48242188","59.90625","34.21875","27.6875"
"1573641817325","847","-0.24609375","-0.84277344","0.5673828","59.90625","29.53125","39.78125"
"1573641817325","848","-0.39941406","-0.7080078","0.6982422","54.125","15.1875","32.34375"
"1573641817326","849","-0.5205078","-0.703125","0.81933594","49.53125","7.625","32.9375"
"1573641817914","850","-0.67285156","-0.7734375","0.7236328","47.03125","14.75","26.46875"
"1573641817915","851","-0.46484375","-0.83984375","0.82128906","32.09375","21.71875","22.03125"
"1573641817915","852","-0.49121094","-0.6923828","0.84277344","22.625","9.03125","15.96875"
"1573641817917","853","-0.5292969","-0.6904297","0.7636719","22.75","7.90625","17.375"
"1573641817917","854","-0.51464844","-0.7470703","0.78515625","10.3125","-3.875","12.0625"
"1573641817917","855","-0.6621094","-0.66503906","0.75683594","5.28125","-11.625","5.0625"
"1573641817917","856","-0.61035156","-0.57714844","0.75390625","5.21875","2.84375","18.78125"
"1573641817918","857","-0.5595703","-0.52441406","0.7441406","8.90625","6.9375","16.09375"
"1573641817918","858","-0.5488281","-0.50683594","0.64453125","7.0","2.71875","15.5"
"1573641817918","859","-0.48046875","-0.5136719","0.62402344","10.46875","5.46875","18.40625"
"1573641818114","860","-0.52441406","-0.51660156","0.5761719","6.9375","-1.1875","15.4375"
"1573641818115","861","-0.4609375","-0.50390625","0.63378906","3.03125","4.5625","13.65625"
"1573641818115","862","-0.5048828","-0.4951172","0.5751953","-1.65625","4.5","6.21875"
"1573641818115","863","-0.4091797","-0.47558594","0.5957031","-9.53125","5.71875","-1.25"
"1573641818115","864","-0.4873047","-0.50878906","0.57128906","-11.78125","0.21875","-5.4375"
"1573641818117","865","-0.45117188","-0.47753906","0.6035156","-16.8125","3.15625","-8.5"
"1573641818117","866","-0.48046875","-0.46777344","0.64160156","-18.09375","5.40625","-14.1875"
"1573641818117","867","-0.49023438","-0.5019531","0.59375","-14.65625","4.9375","-18.21875"
"1573641818118","868","-0.45703125","-0.5234375","0.58496094","-12.90625","7.84375","-22.34375"
"1573641818118","869","-0.42382812","-0.53027344","0.6269531","-11.125","6.5","-23.5"
"1573641818512","870","-0.43945312","-0.53515625","0.60546875","-9.21875","-2.40625","-22.96875"
"1573641818512","871","-0.41992188","-0.50878906","0.56347656","-7.875","-8.1875","-22.21875"
"1573641818513","872","-0.4951172","-0.50390625","0.51171875","-4.09375","-7.46875","-21.75"
"1573641818513","873","-0.36914062","-0.5410156","0.6113281","-1.0625","0.15625","-22.125"
"1573641818513","874","-0.41210938","-0.55859375","0.5751953","3.9375","-12.03125","-32.25"
"1573641818513","875","-0.4375","-0.6220703","0.6044922","0.90625","-6.5","-32.125"
"1573641818514","876","-0.45703125","-0.6230469","0.61816406","0.15625","-3.3125","-28.9375"
"1573641818515","877","-0.38378906","-0.64746094","0.6455078","-1.0","2.1875","-26.5"
"1573641818515","878","-0.33203125","-0.7109375","0.71875","1.9375","-8.625","-38.28125"
"1573641818516","879","-0.3251953","-0.7558594","0.72753906","-5.15625","-12.46875","-43.03125"
"1573641818910","880","-0.21484375","-0.76464844","0.6845703","-11.25","-25.59375","-32.96875"
"1573641818911","881","-0.19628906","-0.71191406","0.67089844","-14.65625","-39.9375","-35.96875"
"1573641818911","882","-0.2265625","-0.7871094","0.6904297","-26.6875","-60.3125","-44.4375"
"1573641818911","883","-0.453125","-0.7841797","0.5283203","-36.5625","-48.53125","-51.59375"
"1573641818912","884","-0.2578125","-0.73828125","0.5703125","-46.46875","-14.0","-38.34375"
"1573641818912","885","-0.09277344","-0.6875","0.5107422","-53.78125","-5.3125","-40.25"
"1573641818912","886","-0.11035156","-0.765625","0.5488281","-59.84375","-16.96875","-68.5"
"1573641818912","887","-0.045898438","-0.8261719","0.4873047","-62.8125","-14.40625","-69.09375"
"1573641818913","888","-0.0234375","-0.90625","0.53125","-66.375","-18.6875","-54.46875"
"1573641818914","889","-0.068359375","-0.81347656","0.45703125","-73.0625","-18.375","-41.46875"
"1573641819308","890","0.040039062","-0.71875","0.43945312","-69.03125","-11.5","-38.78125"
"1573641819308","891","0.06738281","-0.69921875","0.3251953","-57.3125","-11.78125","-39.03125"
"1573641819309","892","0.12695312","-0.89746094","0.2841797","-48.53125","-7.34375","-33.46875"
"1573641819309","893","0.18066406","-0.9140625","0.296875","-43.90625","-6.4375","-28.15625"
"1573641819310","894","0.17285156","-0.8876953","0.2939453","-35.65625","-9.90625","-20.84375"
"1573641819310","895","0.14355469","-0.8935547","0.24804688","-29.25","-13.25","-15.875"
"1573641819310","896","0.1640625","-0.8828125","0.24804688","-24.5625","-7.21875","-13.875"
"1573641819310","897","0.17480469","-0.86621094","0.1796875","-16.96875","-10.15625","-11.0"
"1573641819311","898","0.20605469","-0.92285156","0.2529297","-11.625","-1.25","-12.03125"
"1573641819311","899","0.203125","-0.9482422","0.18164062","-8.5","-14.3125","-8.625"
"1573641819905","900","0.18554688","-0.94140625","0.18261719","-5.6875","-10.15625","-3.8125"
"1573641819907","901","0.20996094","-0.9160156","0.18945312","-3.25","-6.375","0.65625"
"1573641819907","902","0.21484375","-0.95703125","0.18457031","-0.75","-5.4375","0.0"
"1573641819908","903","0.20800781","-0.94433594","0.19726562","-2.34375","-2.28125","2.4375"
"1573641819908","904","0.21875","-0.9238281","0.21484375","0.84375","5.78125","2.65625"
"1573641819908","905","0.19042969","-0.94433594","0.22460938","-3.3125","-0.5","6.21875"
"1573641819909","906","0.20214844","-0.9423828","0.22753906","-2.46875","-1.34375","7.125"
"1573641819909","907","0.17382812","-0.9111328","0.19921875","1.28125","-3.625","7.625"
"1573641819909","908","0.1875","-0.9375","0.20410156","4.0","1.8125","13.15625"
"1573641819910","909","0.1640625","-0.89941406","0.25585938","9.25","0.21875","17.375"
"1573641820103","910","0.123046875","-0.90722656","0.22949219","19.21875","11.03125","22.375"
"1573641820103","911","0.08105469","-0.90625","0.26953125","23.53125","8.59375","27.9375"
"1573641820104","912","0.060546875","-0.8984375","0.27929688","29.40625","22.1875","35.5625"
"1573641820105","913","0.11328125","-0.9042969","0.30273438","28.71875","28.625","33.4375"
"1573641820105","914","0.11816406","-0.8339844","0.3232422","27.34375","23.59375","31.90625"
"1573641820105","915","0.0859375","-0.875","0.26464844","33.4375","16.40625","33.25"
"1573641820105","916","0.034179688","-0.83691406","0.29492188","41.625","15.1875","36.25"
"1573641820106","917","-0.032226562","-0.84277344","0.33789062","47.71875","5.46875","31.125"
"1573641820106","918","-0.059570312","-0.92871094","0.38183594","48.625","18.78125","37.875"
"1573641820106","919","-0.09277344","-0.91015625","0.42089844","43.6875","24.53125","53.625"
"1573641820500","920","-0.07324219","-0.74902344","0.45996094","48.15625","19.5625","38.1875"
"1573641820500","921","-0.20800781","-0.76464844","0.4716797","46.125","23.71875","35.3125"
"1573641820500","922","-0.23144531","-0.7402344","0.47265625","52.84375","43.6875","44.90625"
"1573641820500","923","-0.1640625","-0.6894531","0.578125","39.40625","30.75","54.1875"
"1573641820501","924","-0.17871094","-0.6855469","0.43066406","45.625","27.15625","45.40625"
"1573641820501","925","-0.19042969","-0.5488281","0.4970703","38.0","7.90625","50.59375"
"1573641820502","926","-0.21386719","-0.4482422","0.41503906","37.46875","-13.5625","42.59375"
"1573641820502","927","-0.3701172","-0.49804688","0.5625","32.8125","-6.59375","29.71875"
"1573641820502","928","-0.41503906","-0.5253906","0.5332031","36.46875","-9.125","22.5"
"1573641820502","929","-0.36035156","-0.5488281","0.5654297","34.78125","20.75","33.5625"
"1573641820900","930","-0.19824219","-0.46777344","0.6484375","27.5625","8.71875","47.21875"
"1573641820901","931","-0.359375","-0.52246094","0.6269531","20.25","-4.78125","26.28125"
"1573641820901","932","-0.5253906","-0.61621094","0.6972656","11.03125","9.6875","3.65625"
"1573641820901","933","-0.41210938","-0.77246094","0.7607422","-9.59375","4.375","-5.875"
"1573641820901","934","-0.44628906","-0.7548828","0.6904297","-28.9375","4.5","-15.21875"
"1573641820902","935","-0.38378906","-0.6875","0.82128906","-44.6875","2.125","-26.25"
"1573641820902","936","-0.46289062","-0.70703125","0.75","-54.53125","-20.46875","-40.84375"
"1573641820903","937","-0.42285156","-0.6923828","0.71972656","-58.78125","-7.65625","-38.71875"
"1573641820904","938","-0.27734375","-0.7060547","0.7167969","-70.875","-15.21875","-36.46875"
"1573641820904","939","-0.3486328","-0.6982422","0.58203125","-91.25","-7.03125","-53.40625"
"1573641821296","940","-0.35351562","-0.9794922","1.0644531","-91.09375","1.3125","-71.84375"
"1573641821297","941","-1.0761719","-2.0","1.1025391","-64.59375","-4.21875","-132.8125"
"1573641821297","942","0.087890625","-1.3916016","0.19628906","-66.78125","9.09375","24.21875"
"1573641821297","943","0.6328125","-0.08300781","0.26171875","-50.1875","-38.03125","-15.15625"
"1573641821297","944","-0.34179688","-0.18554688","0.08691406","-88.34375","-53.40625","-30.46875"
"1573641821298","945","-0.30078125","-0.56152344","0.103515625","-73.0","7.5625","-41.21875"
"1573641821298","946","-0.09472656","-0.83691406","0.25097656","-61.21875","9.875","-62.5625"
"1573641821298","947","-0.038085938","-1.5058594","0.23828125","-67.46875","-20.21875","-72.90625"
"1573641821298","948","-0.10449219","-1.4423828","0.09765625","-60.1875","-11.0625","-15.09375"
"1573641821299","949","0.068359375","-0.88964844","0.1015625","-63.0","-9.78125","17.625"
"1573641821890","950","-0.03125","-0.6064453","-0.02734375","-39.4375","-17.59375","-5.21875"
"1573641821890","951","0.026367188","-0.7939453","-0.09082031","-45.59375","10.125","-44.21875"
"1573641821891","952","0.12109375","-0.953125","0.025390625","-27.1875","7.0625","-39.125"
"1573641821891","953","-0.053710938","-1.0859375","9.765625E-4","-25.28125","4.375","-16.9375"
"1573641821891","954","0.16113281","-1.0537109","-0.020507812","-14.0625","-5.15625","7.5"
"1573641821891","955","0.08984375","-1.0800781","-0.18457031","-12.46875","7.0625","14.625"
"1573641821891","956","0.09375","-1.0058594","-0.032226562","-4.65625","-12.40625","-10.625"
"1573641821892","957","0.076171875","-1.0039062","-0.051757812","-14.1875","6.21875","-15.34375"
"1573641821892","958","0.030273438","-0.88964844","-0.013671875","0.71875","-16.5","-10.28125"
"1573641821892","959","0.05078125","-0.9472656","-0.068359375","0.96875","18.40625","-3.75"
"1573641822287","960","0.109375","-1.0419922","-0.036132812","7.0","7.5","-19.53125"
"1573641822289","961","0.20605469","-1.0791016","-0.08300781","-0.3125","3.65625","-4.53125"
"1573641822289","962","-9.765625E-4","-1.0107422","0.01171875","7.5","-5.5","-3.25"
"1573641822290","963","0.06738281","-0.9658203","0.08886719","13.34375","-15.625","15.0625"
"1573641822290","964","0.07421875","-1.0234375","-0.11621094","13.96875","11.9375","3.90625"
"1573641822290","965","0.078125","-1.0478516","-0.01953125","-3.875","2.78125","-14.96875"
"1573641822291","966","0.15136719","-1.1845703","-0.08203125","-31.8125","-9.21875","-5.875"
"1573641822291","967","0.08105469","-0.9550781","0.052734375","-55.125","-33.03125","2.84375"
"1573641822291","968","0.059570312","-0.8466797","-0.091796875","-26.875","-20.65625","9.9375"
"1573641822292","969","0.034179688","-0.96777344","-0.030273438","-17.21875","-4.40625","-17.71875"
"1573641822688","970","0.040039062","-1.0136719","-0.005859375","5.125","18.21875","-19.53125"
"1573641822688","971","0.037109375","-0.9638672","0.037109375","23.3125","21.96875","1.3125"
"1573641822688","972","-0.001953125","-1.0244141","0.1015625","44.96875","72.3125","17.6875"
"1573641822690","973","0.08691406","-0.85546875","-0.0029296875","30.4375","15.96875","15.4375"
"1573641822691","974","0.053710938","-0.99609375","-0.044921875","21.34375","15.5","7.375"
"1573641822691","975","0.19921875","-1.0664062","0.022460938","28.3125","17.625","2.0"
"1573641822691","976","0.10644531","-1.0498047","-0.02734375","21.96875","3.71875","14.375"
"1573641822691","977","0.06347656","-0.9873047","0.055664062","25.125","5.78125","26.65625"
"1573641822692","978","0.017578125","-0.9892578","0.03125","31.1875","0.65625","23.46875"
"1573641822692","979","0.044921875","-1.0029297","0.061523438","28.78125","2.375","17.0625"
"1573641822884","980","0.078125","-0.97753906","0.076171875","30.0625","2.65625","15.5625"
"1573641822885","981","-0.051757812","-0.94921875","0.099609375","31.84375","-10.09375","24.21875"
"1573641822885","982","-0.06933594","-1.0146484","0.09277344","37.71875","-0.75","24.34375"
"1573641822885","983","0.0146484375","-0.9560547","0.1953125","38.0","15.84375","21.46875"
"1573641822886","984","-0.045898438","-0.8701172","0.17578125","48.875","9.5","34.09375"
"1573641822887","985","-0.10839844","-0.94433594","0.17773438","57.1875","-6.0","42.21875"
"1573641822887","986","-0.13085938","-1.0371094","0.18945312","51.1875","18.0","32.15625"
"1573641822887","987","-0.047851562","-0.91503906","0.29296875","42.40625","12.375","32.9375"
"1573641822888","988","-0.10546875","-0.8339844","0.2578125","54.25","8.34375","46.0"
"1573641822888","989","-0.171875","-0.8691406","0.29003906","52.46875","9.5625","36.65625"
"1573641823283","990","-0.18945312","-0.9375","0.32128906","42.40625","19.46875","32.21875"
"1573641823285","991","-0.17089844","-0.95214844","0.4248047","38.4375","11.15625","32.34375"
"1573641823285","992","-0.2890625","-0.86621094","0.44433594","31.25","0.0","38.5"
"1573641823285","993","-0.3359375","-0.8613281","0.5683594","41.5625","12.375","48.375"
"1573641823286","994","-0.5019531","-0.7890625","0.65527344","42.90625","7.375","42.21875"
"1573641823286","995","-0.45996094","-0.81640625","0.72265625","44.34375","1.3125","26.90625"
"1573641823286","996","-0.6064453","-0.7109375","0.77734375","40.75","10.1875","33.125"
"1573641823287","997","-0.4814453","-0.67089844","0.7402344","47.90625","15.96875","27.8125"
"1573641823288","998","-0.33007812","-0.74121094","0.70996094","36.84375","9.6875","6.21875"
"1573641823288","999","-0.453125","-0.6738281","0.7001953","25.375","-3.875","10.84375"
"1573641823681","1000","-0.5439453","-0.6171875","0.7470703","21.71875","-7.78125","20.6875"
"1573641823681","1001","-0.5673828","-0.6269531","0.6640625","18.0","7.0","12.625"
"1573641823681","1002","-0.39746094","-0.6035156","0.68359375","17.4375","18.21875","11.8125"
"1573641823682","1003","-0.39160156","-0.5361328","0.7128906","12.1875","-6.4375","8.84375"
"1573641823682","1004","-0.51953125","-0.5341797","0.7011719","9.875","-9.78125","12.25"
"1573641823682","1005","-0.5214844","-0.6035156","0.71777344","8.84375","2.65625","6.9375"
"1573641823683","1006","-0.51171875","-0.6201172","0.70996094","1.21875","6.34375","1.21875"
"1573641823683","1007","-0.4404297","-0.578125","0.7285156","-2.34375","5.1875","-1.34375"
"1573641823683","1008","-0.48339844","-0.5439453","0.71191406","-7.40625","-5.625","-7.78125"
"1573641823685","1009","-0.4873047","-0.60058594","0.68066406","-12.40625","-2.09375","-10.625"
"1573641824077","1010","-0.45996094","-0.5957031","0.7285156","-14.65625","0.90625","-14.90625"
"1573641824078","1011","-0.40527344","-0.5498047","0.68359375","-18.6875","-7.875","-14.71875"
"1573641824078","1012","-0.4482422","-0.57910156","0.6347656","-21.9375","-8.1875","-18.875"
"1573641824078","1013","-0.40820312","-0.57421875","0.66015625","-23.09375","-5.4375","-21.875"
"1573641824078","1014","-0.42871094","-0.55859375","0.56933594","-23.03125","-6.1875","-24.1875"
"1573641824079","1015","-0.3359375","-0.6191406","0.6035156","-28.40625","-3.5","-30.90625"
"1573641824079","1016","-0.32421875","-0.63183594","0.57421875","-33.21875","-9.40625","-29.3125"
"1573641824079","1017","-0.32128906","-0.6220703","0.5595703","-42.375","-11.0","-27.71875"
"1573641824079","1018","-0.3515625","-0.66503906","0.4921875","-37.75","-7.28125","-36.6875"
"1573641824080","1019","-0.30371094","-0.7167969","0.5595703","-39.4375","-10.21875","-46.21875"
"1573641824475","1020","-0.31445312","-0.82910156","0.5996094","-33.65625","-2.8125","-45.0625"
"1573641824476","1021","-0.24121094","-0.81152344","0.5410156","-43.09375","-3.1875","-43.59375"
"1573641824477","1022","-0.16601562","-0.95703125","0.48242188","-55.5","-11.78125","-49.5"
"1573641824477","1023","-0.15917969","-0.87402344","0.43554688","-58.4375","-12.78125","-46.46875"
"1573641824477","1024","-0.15136719","-0.8232422","0.4736328","-77.96875","-3.1875","-44.8125"
"1573641824477","1025","-0.119140625","-0.8046875","0.43847656","-81.875","-25.21875","-64.59375"
"1573641824478","1026","-0.09472656","-0.88378906","0.34765625","-79.1875","-20.03125","-68.1875"
"1573641824478","1027","-0.013671875","-0.79003906","0.28808594","-66.0","-24.25","-45.0625"
"1573641824478","1028","-0.0087890625","-0.68652344","0.21289062","-70.375","-28.53125","-43.21875"
"1573641824479","1029","-0.0107421875","-0.6542969","0.18066406","-63.625","-22.34375","-39.625"
"1573641825071","1030","0.14257812","-0.74902344","0.20214844","-51.71875","-20.15625","-35.96875"
"1573641825072","1031","-0.029296875","-0.7285156","0.22070312","-29.0","-19.71875","-29.625"
"1573641825072","1032","-0.02734375","-1.0117188","0.14160156","-10.40625","-0.9375","-20.03125"
"1573641825073","1033","0.2109375","-1.2353516","0.06933594","-9.46875","15.0","-22.71875"
"1573641825073","1034","0.26953125","-1.0039062","0.09863281","-11.375","6.40625","1.3125"
"1573641825074","1035","0.12792969","-0.82421875","0.1171875","-14.0","-7.9375","-5.9375"
"1573641825074","1036","0.064453125","-0.984375","0.049804688","-14.90625","-2.59375","-18.6875"
"1573641825074","1037","0.08496094","-1.0820312","0.056640625","-18.3125","6.5","-3.1875"
"1573641825075","1038","0.15039062","-0.9589844","0.099609375","-20.03125","11.75","-1.34375"
"1573641825075","1039","0.22167969","-0.9482422","0.046875","-16.75","9.4375","-14.25"
"1573641825270","1040","0.15722656","-1.0009766","0.044921875","-15.03125","-3.0625","-1.59375"
"1573641825271","1041","0.14746094","-0.9873047","0.020507812","-18.8125","1.625","-1.25"
"1573641825271","1042","0.18847656","-0.9863281","0.0048828125","-17.59375","6.5","-6.3125"
"1573641825271","1043","0.20019531","-0.96484375","0.032226562","-10.4375","0.59375","-6.125"
"1573641825272","1044","0.15917969","-0.96972656","0.029296875","-7.40625","-2.53125","0.0"
"1573641825273","1045","0.15722656","-0.99609375","-0.0048828125","-7.03125","-5.75","0.0"
"1573641825273","1046","0.18457031","-0.99609375","-0.0087890625","-3.875","-8.4375","2.3125"
"1573641825274","1047","0.20214844","-0.9482422","0.001953125","-2.625","-7.40625","3.03125"
"1573641825274","1048","0.17773438","-0.96875","0.0087890625","-0.9375","-6.53125","0.46875"
"1573641825274","1049","0.14746094","-0.9824219","0.01171875","3.59375","5.53125","-3.375"
"1573641825668","1050","0.11816406","-0.96875","0.03515625","6.09375","5.34375","0.28125"
"1573641825669","1051","0.16699219","-0.97265625","0.029296875","10.71875","8.46875","4.0625"
"1573641825669","1052","0.18066406","-0.9765625","0.052734375","7.125","7.125","3.03125"
"1573641825669","1053","0.13085938","-0.9765625","0.056640625","8.03125","6.875","2.0"
"1573641825670","1054","0.13378906","-0.9736328","0.061523438","8.46875","4.5625","1.4375"
"1573641825670","1055","0.17382812","-0.98046875","0.07324219","10.1875","3.90625","3.40625"
"1573641825670","1056","0.15039062","-0.9638672","0.083984375","14.5","1.5625","6.34375"
"1573641825672","1057","0.15917969","-0.9355469","0.12109375","17.875","1.6875","7.375"
"1573641825672","1058","0.10839844","-0.9472656","0.13671875","18.34375","0.0","7.5625"
"1573641825672","1059","0.09863281","-0.97265625","0.15527344","23.90625","5.90625","7.90625"
"1573641826066","1060","0.08203125","-0.9277344","0.107421875","26.84375","3.40625","12.0625"
"1573641826067","1061","0.11328125","-0.92089844","0.23144531","22.5625","3.03125","14.28125"
"1573641826067","1062","0.049804688","-0.86035156","0.16992188","36.25","6.09375","19.03125"
"1573641826067","1063","0.025390625","-0.82714844","0.23242188","39.28125","6.34375","25.6875"
"1573641826068","1064","0.020507812","-0.7285156","0.19140625","52.0625","13.28125","32.625"
"1573641826068","1065","0.0068359375","-0.6660156","0.2421875","61.875","13.71875","44.90625"
"1573641826068","1066","-0.091796875","-0.6464844","0.14160156","69.75","30.875","50.34375"
"1573641826068","1067","-0.044921875","-0.5361328","0.36523438","59.5625","32.8125","57.71875"
"1573641826069","1068","-0.15039062","-0.53125","0.15722656","59.1875","13.28125","55.59375"
"1573641826070","1069","-0.12988281","-0.41210938","0.25195312","50.875","31.53125","45.625"
"1573641826462","1070","-0.045898438","-0.4453125","0.27246094","44.40625","4.0","42.96875"
"1573641826463","1071","-0.13183594","-0.53222656","0.30664062","29.46875","5.65625","31.90625"
"1573641826463","1072","-0.21484375","-0.6611328","0.5078125","19.34375","11.71875","14.5"
"1573641826464","1073","-0.4765625","-0.8300781","0.44140625","13.96875","37.21875","12.9375"
"1573641826464","1074","-0.21972656","-1.0664062","0.80566406","3.34375","43.1875","17.6875"
"1573641826464","1075","-0.29492188","-0.9873047","0.6123047","-22.15625","14.03125","-1.46875"
"1573641826465","1076","-0.34472656","-1.0302734","0.6152344","-38.84375","37.875","-17.59375"
"1573641826465","1077","-0.06640625","-0.8984375","0.7636719","-73.0625","0.28125","-38.71875"
"1573641826466","1078","-0.2548828","-2.0","1.5380859","-60.1875","-16.0625","-136.0625"
"1573641826466","1079","-0.81152344","-2.0","-0.1015625","-18.4375","66.09375","82.4375"
"1573641827454","1080","1.1923828","-1.1738281","0.7128906","-30.65625","-19.0625","44.90625"
"1573641827456","1081","0.484375","0.47851562","0.044921875","-66.96875","-78.4375","34.40625"
"1573641827456","1082","-1.0732422","-0.123046875","-0.0625","-99.75","-75.28125","-1.84375"
"1573641827456","1083","-0.42089844","-0.35839844","0.056640625","-39.9375","41.71875","-70.625"
"1573641827457","1084","0.28027344","-0.78222656","0.51171875","-17.96875","43.125","-71.5"
"1573641827457","1085","0.032226562","-1.921875","0.24609375","-41.59375","-9.34375","-92.53125"
"1573641827457","1086","-0.20117188","-1.5908203","0.033203125","-21.5","6.03125","65.21875"
"1573641827458","1087","0.33007812","-0.8144531","0.14355469","-26.1875","-9.34375","19.625"
"1573641827458","1088","0.057617188","-0.45214844","0.064453125","-34.6875","-31.09375","-26.25"
"1573641827458","1089","-0.203125","-0.76464844","0.043945312","-32.90625","-21.0","-24.1875"
"1573641827652","1090","-0.02734375","-1.171875","0.09667969","-20.15625","5.53125","-37.84375"
"1573641827652","1091","0.080078125","-1.1474609","0.057617188","-23.40625","-5.8125","-20.9375"
"1573641827653","1092","0.06542969","-1.0361328","0.08886719","-17.40625","-18.15625","-5.03125"
"1573641827654","1093","-0.0048828125","-0.9716797","0.043945312","-13.9375","-20.21875","-2.8125"
"1573641827654","1094","0.029296875","-1.0097656","-0.001953125","-20.40625","-29.75","-1.125"
"1573641827655","1095","0.057617188","-0.9560547","0.0078125","-14.0","-25.96875","-7.71875"
"1573641827655","1096","-0.048828125","-0.9316406","0.06933594","-1.3125","-3.375","-6.53125"
"1573641827655","1097","-0.036132812","-0.95996094","0.00390625","7.8125","15.0625","0.28125"
"1573641827656","1098","0.0625","-0.9628906","0.0625","13.71875","27.15625","3.59375"
"1573641827656","1099","0.06933594","-0.9716797","0.115234375","10.1875","12.0625","4.1875"
"1573641827850","1100","0.030273438","-0.9707031","0.060546875","18.53125","6.46875","5.21875"
"1573641827850","1101","0.033203125","-0.9472656","0.1015625","17.75","0.65625","6.875"
"1573641827851","1102","-0.0078125","-1.0146484","0.109375","21.84375","1.4375","8.15625"
"1573641827851","1103","-0.04296875","-0.9873047","0.053710938","26.71875","5.0625","10.71875"
"1573641827851","1104","0.018554688","-0.9736328","0.14160156","26.96875","17.0","11.71875"
"1573641827853","1105","0.033203125","-0.9140625","0.109375","35.15625","16.40625","19.15625"
"1573641827853","1106","0.02734375","-1.0029297","0.171875","33.25","9.5625","20.5"
"1573641827853","1107","-0.052734375","-0.9667969","0.23339844","29.34375","-3.625","22.03125"
"1573641827853","1108","-0.09375","-0.9140625","0.19824219","38.75","10.59375","23.78125"
"1573641827854","1109","-0.13183594","-0.8222656","0.2265625","49.53125","13.0","33.0"
"1573641828052","1110","-0.095703125","-0.9042969","0.26464844","51.5625","20.4375","47.90625"
"1573641828053","1111","-0.1015625","-0.8779297","0.31445312","50.34375","7.90625","30.4375"
"1573641828053","1112","-0.18066406","-0.81933594","0.3017578","58.59375","11.40625","40.34375"
"1573641828053","1113","-0.20214844","-0.8613281","0.36914062","60.09375","18.65625","37.59375"
"1573641828054","1114","-0.2578125","-0.8339844","0.39453125","58.625","25.125","38.4375"
"1573641828054","1115","-0.24707031","-0.8066406","0.45507812","60.09375","30.375","38.5625"
"1573641828054","1116","-0.23339844","-0.8105469","0.4814453","62.96875","24.59375","37.46875"
"1573641828056","1117","-0.33789062","-0.7675781","0.5263672","56.4375","19.5625","39.90625"
"1573641828057","1118","-0.3408203","-0.7578125","0.62402344","53.375","15.4375","40.6875"
"1573641828057","1119","-0.44628906","-0.7294922","0.64160156","52.40625","10.25","39.09375"
"1573641828450","1120","-0.5439453","-0.6201172","0.70214844","51.5","15.71875","39.34375"
"1573641828450","1121","-0.6113281","-0.59472656","0.7480469","54.90625","24.8125","44.125"
"1573641828451","1122","-0.47851562","-0.58496094","0.7988281","47.40625","16.53125","33.75"
"1573641828451","1123","-0.59765625","-0.58496094","0.81347656","42.21875","15.84375","31.59375"
"1573641828451","1124","-0.6044922","-0.5644531","0.7558594","35.9375","6.03125","23.0625"
"1573641828452","1125","-0.5654297","-0.546875","0.78027344","27.09375","13.40625","14.625"
"1573641828452","1126","-0.55078125","-0.5283203","0.74121094","23.25","3.09375","12.9375"
"1573641828452","1127","-0.56933594","-0.4716797","0.73046875","18.0","0.0","8.71875"
"1573641828452","1128","-0.59765625","-0.4560547","0.7939453","18.40625","3.65625","6.09375"
"1573641828454","1129","-0.6357422","-0.4482422","0.7607422","16.40625","2.78125","6.03125"
"1573641828848","1130","-0.53808594","-0.45410156","0.7753906","13.84375","3.09375","8.15625"
"1573641828849","1131","-0.5986328","-0.3955078","0.80566406","14.09375","4.375","6.03125"
"1573641828849","1132","-0.6152344","-0.42382812","0.71191406","13.15625","0.65625","3.21875"
"1573641828850","1133","-0.52734375","-0.41796875","0.83691406","8.71875","4.4375","0.0"
"1573641828850","1134","-0.5830078","-0.37304688","0.7158203","1.9375","-0.1875","-2.15625"
"1573641828850","1135","-0.5205078","-0.40820312","0.7480469","-2.15625","1.625","-8.4375"
"1573641828850","1136","-0.54785156","-0.33984375","0.72265625","-7.34375","-3.75","-8.8125"
"1573641828851","1137","-0.51953125","-0.3720703","0.7216797","-10.6875","-4.84375","-10.03125"
"1573641828851","1138","-0.52441406","-0.32714844","0.7734375","-11.0625","-2.21875","-12.53125"
"1573641828851","1139","-0.46289062","-0.4296875","0.71875","-15.09375","-15.59375","-11.96875"
"1573641829840","1140","-0.53125","-0.390625","0.703125","-18.9375","-10.6875","-15.53125"
"1573641829842","1141","-0.43945312","-0.40039062","0.7294922","-22.40625","-13.375","-17.59375"
"1573641829842","1142","-0.53222656","-0.3203125","0.74121094","-20.65625","-13.8125","-17.53125"
"1573641829843","1143","-0.4423828","-0.45117188","0.76464844","-18.6875","-4.09375","-20.875"
"1573641829843","1144","-0.41308594","-0.47265625","0.7294922","-20.59375","-13.5625","-20.9375"
"1573641829843","1145","-0.4580078","-0.53808594","0.77441406","-26.4375","-12.15625","-25.46875"
"1573641829844","1146","-0.46679688","-0.53125","0.74902344","-29.0","-16.1875","-30.21875"
"1573641829844","1147","-0.41601562","-0.5878906","0.7128906","-39.03125","-11.78125","-32.71875"
"1573641829844","1148","-0.4169922","-0.59375","0.82714844","-43.59375","-17.34375","-40.40625"
"1573641829844","1149","-0.39941406","-0.6591797","0.6464844","-45.71875","-21.5625","-44.03125"
"1573641830037","1150","-0.2861328","-0.8222656","0.79003906","-48.59375","-21.8125","-49.6875"
"1573641830037","1151","-0.39746094","-0.77734375","0.6875","-59.46875","-30.65625","-43.03125"
"1573641830037","1152","-0.31835938","-0.77441406","0.6660156","-65.3125","-18.8125","-48.96875"
"1573641830039","1153","-0.16601562","-0.81640625","0.5625","-73.6875","-18.5","-62.09375"
"1573641830039","1154","-0.09082031","-0.8925781","0.62402344","-89.3125","-25.03125","-64.03125"
"1573641830040","1155","-0.21191406","-0.7939453","0.43359375","-100.0","-35.84375","-61.46875"
"1573641830040","1156","-0.140625","-0.7636719","0.421875","-108.78125","-27.53125","-63.25"
"1573641830041","1157","-0.10546875","-0.6611328","0.24804688","-108.59375","-26.1875","-60.75"
"1573641830041","1158","-0.041992188","-0.5419922","0.3154297","-109.28125","-11.4375","-56.40625"
"1573641830041","1159","-0.0234375","-0.4404297","0.23535156","-94.625","-13.75","-49.8125"
"1573641830633","1160","0.044921875","-0.609375","0.2109375","-71.125","-11.5625","-50.5625"
"1573641830633","1161","0.07324219","-0.796875","0.103515625","-50.375","-7.9375","-43.84375"
"1573641830633","1162","0.1171875","-0.96875","0.045898438","-39.6875","5.0625","-28.03125"
"1573641830634","1163","0.17773438","-1.0380859","0.0068359375","-36.28125","5.46875","-16.5625"
"1573641830634","1164","0.24804688","-1.0439453","-0.029296875","-29.4375","10.53125","-15.03125"
"1573641830636","1165","0.20117188","-0.93359375","0.018554688","-21.6875","8.09375","-10.625"
"1573641830636","1166","0.15429688","-0.8935547","0.055664062","-15.03125","4.125","-5.3125"
"1573641830636","1167","0.17089844","-0.9316406","0.051757812","-7.40625","2.96875","-0.625"
"1573641830637","1168","0.19433594","-0.9785156","0.041015625","-3.5","0.65625","2.1875"
"1573641830637","1169","0.22265625","-0.9980469","0.022460938","1.3125","0.78125","4.125"
"1573641830831","1170","0.16992188","-0.9892578","-0.0234375","4.0625","-3.6875","6.28125"
"1573641830831","1171","0.171875","-0.99121094","0.03515625","-0.6875","-2.6875","5.21875"
"1573641830831","1172","0.16699219","-0.953125","0.020507812","0.0","0.40625","2.96875"
"1573641830832","1173","0.15722656","-1.0","0.034179688","1.5","3.21875","2.0"
"1573641830832","1174","0.11816406","-1.0224609","0.033203125","-1.78125","4.0625","2.4375"
"1573641830832","1175","0.15722656","-0.9951172","0.04296875","-4.03125","8.09375","2.0"
"1573641830833","1176","0.14746094","-0.9707031","0.038085938","-3.75","7.4375","-0.5"
"1573641830835","1177","0.15136719","-1.0019531","0.03125","-3.375","7.1875","-0.625"
"1573641830835","1178","0.16699219","-0.98339844","0.033203125","-3.0","6.5","0.34375"
"1573641830835","1179","0.16992188","-0.98046875","0.041992188","-0.875","5.34375","0.90625"
"1573641830836","1180","0.16503906","-0.984375","0.041015625","-0.25","3.84375","0.84375"
"1573641830836","1181","0.16210938","-0.9863281","0.0390625","-0.625","1.03125","0.15625"
"1573641830836","1182","0.17285156","-0.9941406","0.0625","-0.6875","-1.40625","0.90625"
"1573641830837","1183","0.14941406","-0.98535156","0.0126953125","1.3125","-3.0625","-0.6875"
"1573641830837","1184","0.14355469","-0.98339844","0.06542969","-2.09375","-5.5","-1.46875"
"1573641830837","1185","0.15039062","-0.97558594","0.0390625","1.8125","-2.46875","-1.0"
"1573641830838","1186","0.13183594","-0.9794922","0.06640625","1.625","-2.625","1.375"
"1573641830838","1187","0.115234375","-0.96972656","0.06542969","0.71875","-1.71875","2.25"
"1573641830838","1188","0.12695312","-0.9609375","0.09277344","6.9375","-1.53125","4.8125"
"1573641830839","1189","0.10839844","-0.921875","0.095703125","20.90625","2.5625","13.03125"
"1573641831432","1190","0.059570312","-0.8808594","0.115234375","33.3125","8.84375","21.71875"
"1573641831433","1191","0.032226562","-0.83984375","0.15625","41.96875","12.25","30.5625"
"1573641831433","1192","0.07128906","-0.7734375","0.16308594","52.71875","15.71875","35.03125"
"1573641831433","1193","0.040039062","-0.71484375","0.20117188","60.96875","11.9375","43.125"
"1573641831433","1194","-0.038085938","-0.60253906","0.22265625","79.15625","16.09375","48.5"
"1573641831434","1195","-0.20898438","-0.4140625","0.16503906","88.4375","25.625","67.6875"
"1573641831434","1196","-0.034179688","-0.43945312","0.15136719","97.21875","33.5625","81.84375"
"1573641831434","1197","9.765625E-4","-0.41503906","0.3017578","98.5625","18.40625","57.71875"
"1573641831434","1198","-0.21582031","-0.4873047","0.35839844","92.28125","5.78125","64.75"
"1573641831435","1199","-0.31152344","-0.68652344","0.4873047","80.0625","18.34375","56.125"
"1573641831831","1200","-0.26367188","-0.7890625","0.57910156","63.21875","17.5","31.71875"
"1573641831832","1201","-0.32128906","-0.9638672","0.6279297","43.875","29.40625","54.375"
"1573641831833","1202","-0.35546875","-0.8486328","0.7109375","9.5","10.375","23.3125"
"1573641831833","1203","-0.33984375","-0.9394531","0.8027344","2.84375","17.3125","12.625"
"1573641831833","1204","-0.39941406","-0.9121094","0.74902344","-26.375","1.03125","-3.4375"
"1573641831834","1205","-0.42871094","-0.8779297","0.7216797","-41.28125","8.78125","-13.4375"
"1573641831834","1206","-0.42285156","-0.7910156","0.5390625","-52.8125","-2.59375","-10.6875"
"1573641831834","1207","-0.4091797","-0.7392578","0.41503906","-87.0625","12.1875","-36.625"
"1573641831834","1208","-0.10644531","-0.7910156","1.171875","-97.65625","34.03125","-77.71875"
"1573641831835","1209","-1.2548828","-2.0","1.4306641","-118.4375","-14.78125","-235.125"
"1573641832227","1210","-0.21777344","-1.5966797","-0.5878906","3.65625","-113.28125","83.125"
"1573641832227","1211","1.3398438","-0.0068359375","0.5576172","-28.34375","-9.28125","-25.90625"
"1573641832228","1212","-0.2783203","-0.083984375","0.036132812","-85.59375","-74.71875","-39.5625"
"1573641832229","1213","-0.6455078","-0.30664062","0.017578125","-65.03125","-22.0","-39.5"
"1573641832230","1214","-0.024414062","-0.57128906","0.20800781","-37.3125","27.28125","-49.75"
"1573641832230","1215","0.18164062","-1.2246094","0.33203125","-39.875","5.71875","-82.71875"
"1573641832230","1216","-0.28320312","-2.0","0.14648438","-47.75","11.75","-20.15625"
"1573641832231","1217","0.12011719","-1.1728516","0.10839844","-26.5","-12.53125","21.71875"
"1573641832231","1218","0.16503906","-0.4921875","0.08984375","-24.90625","-15.8125","-20.34375"
"1573641832231","1219","-0.15917969","-0.6699219","0.059570312","-28.875","-13.5625","-23.03125"
"1573641832821","1220","-0.051757812","-0.8779297","0.02734375","-14.46875","11.65625","-22.40625"
"1573641832822","1221","0.11035156","-1.0371094","0.08886719","-16.9375","14.875","-22.21875"
"1573641832822","1222","0.043945312","-1.1435547","0.053710938","-12.78125","-2.53125","-13.9375"
"1573641832822","1223","0.0703125","-1.0654297","0.049804688","-5.875","-0.75","-2.21875"
"1573641832823","1224","0.10644531","-0.9746094","0.0703125","-1.65625","-2.34375","-0.125"
"1573641832824","1225","0.044921875","-0.95703125","0.046875","-0.6875","-1.1875","-0.875"
"1573641832825","1226","0.028320312","-0.9394531","0.046875","-0.125","-1.84375","-3.25"
"1573641832825","1227","0.043945312","-0.9589844","0.07714844","2.5625","0.78125","1.15625"
"1573641832825","1228","0.0234375","-0.99609375","0.07324219","7.5","2.71875","-0.25"
"1573641832825","1229","0.0146484375","-1.0205078","0.08203125","9.5","3.78125","5.65625"
"1573641833616","1230","0.041015625","-1.0048828","0.083984375","11.8125","2.84375","11.8125"
"1573641833617","1231","0.0390625","-0.96191406","0.08300781","14.5625","-1.59375","10.84375"
"1573641833617","1232","0.043945312","-0.9628906","0.05859375","17.8125","-4.96875","14.375"
"1573641833617","1233","0.0048828125","-0.96484375","0.11230469","23.0625","-6.53125","14.5"
"1573641833618","1234","-0.038085938","-1.0087891","0.14648438","22.625","2.125","17.1875"
"1573641833618","1235","-0.099609375","-0.99316406","0.115234375","28.5","7.6875","11.03125"
"1573641833618","1236","-0.08105469","-0.9863281","0.17773438","26.71875","24.875","18.21875"
"1573641833619","1237","0.034179688","-0.88378906","0.24902344","19.875","9.5","22.5"
"1573641833619","1238","-0.036132812","-0.8046875","0.2529297","33.84375","4.375","32.28125"
"1573641833620","1239","-0.09375","-0.9091797","0.23632812","40.375","-1.78125","31.34375"
"1573641833815","1240","-0.11035156","-0.96875","0.21386719","43.1875","5.46875","31.40625"
"1573641833815","1241","-0.12402344","-0.97265625","0.26464844","44.0625","7.5","33.8125"
"1573641833815","1242","-0.19921875","-0.8886719","0.30566406","43.625","7.375","30.0625"
"1573641833816","1243","-0.17871094","-0.8623047","0.3486328","44.25","13.03125","33.625"
"1573641833816","1244","-0.22460938","-0.8232422","0.39160156","44.71875","4.875","34.28125"
"1573641833816","1245","-0.24804688","-0.80566406","0.4326172","46.96875","17.75","36.84375"
"1573641833817","1246","-0.2861328","-0.7861328","0.4169922","49.53125","12.25","38.25"
"1573641833817","1247","-0.2734375","-0.75097656","0.46972656","50.09375","17.875","36.59375"
"1573641833817","1248","-0.37304688","-0.7285156","0.48632812","56.6875","18.90625","39.59375"
"1573641833818","1249","-0.37597656","-0.77734375","0.5234375","53.34375","23.3125","44.90625"
"1573641834012","1250","-0.40527344","-0.7480469","0.6113281","47.28125","19.21875","34.71875"
"1573641834012","1251","-0.44433594","-0.7080078","0.65234375","46.875","14.5","37.15625"
"1573641834013","1252","-0.5205078","-0.69433594","0.6904297","43.8125","14.75","36.96875"
"1573641834013","1253","-0.4970703","-0.6972656","0.7314453","39.46875","9.125","33.8125"
"1573641834013","1254","-0.47558594","-0.65722656","0.75","34.65625","5.0625","26.84375"
"1573641834013","1255","-0.59375","-0.6298828","0.765625","25.9375","-1.34375","16.78125"
"1573641834014","1256","-0.5683594","-0.65234375","0.6855469","26.40625","10.0625","13.03125"
"1573641834014","1257","-0.53027344","-0.57910156","0.7890625","13.84375","7.6875","3.53125"
"1573641834014","1258","-0.5283203","-0.5546875","0.7373047","11.71875","5.65625","-2.15625"
"1573641834014","1259","-0.49902344","-0.55078125","0.73828125","9.25","0.53125","3.40625"
"1573641834411","1260","-0.5625","-0.5078125","0.74609375","10.3125","-5.8125","3.65625"
"1573641834412","1261","-0.5957031","-0.5517578","0.7441406","9.09375","-2.8125","0.90625"
"1573641834413","1262","-0.5390625","-0.57714844","0.8154297","6.40625","-4.34375","2.4375"
"1573641834413","1263","-0.5917969","-0.48632812","0.7675781","8.15625","-6.375","5.34375"
"1573641834413","1264","-0.57421875","-0.5341797","0.73046875","7.6875","1.8125","7.90625"
"1573641834413","1265","-0.5126953","-0.5","0.7705078","8.28125","1.6875","5.40625"
"1573641834414","1266","-0.51953125","-0.4296875","0.7128906","6.03125","-4.03125","5.78125"
"1573641834414","1267","-0.5263672","-0.46191406","0.6513672","2.3125","-5.75","0.15625"
"1573641834414","1268","-0.4638672","-0.45507812","0.6533203","-2.21875","1.15625","-3.90625"
"1573641834415","1269","-0.46191406","-0.45507812","0.68066406","-10.34375","-9.0625","-8.25"
"1573641834612","1270","-0.4921875","-0.38183594","0.6972656","-8.9375","-7.65625","-12.34375"
"1573641834613","1271","-0.5078125","-0.4970703","0.67285156","-6.65625","-2.21875","-12.65625"
"1573641834613","1272","-0.46289062","-0.5205078","0.71777344","-10.28125","1.9375","-14.78125"
"1573641834615","1273","-0.45507812","-0.5058594","0.7265625","-15.75","-2.9375","-15.59375"
"1573641834615","1274","-0.48242188","-0.5097656","0.703125","-11.90625","-0.3125","-21.9375"
"1573641834616","1275","-0.43945312","-0.54785156","0.68847656","-17.96875","-5.3125","-18.75"
"1573641834616","1276","-0.3935547","-0.5527344","0.7128906","-18.09375","-3.0625","-21.1875"
"1573641834616","1277","-0.4658203","-0.55859375","0.6425781","-21.3125","-7.53125","-23.03125"
"1573641834617","1278","-0.37695312","-0.56347656","0.66796875","-24.78125","-0.0625","-25.28125"
"1573641834617","1279","-0.38671875","-0.5361328","0.6269531","-25.59375","-6.53125","-29.0"
"1573641835209","1280","-0.3173828","-0.5576172","0.70214844","-29.6875","-3.96875","-32.90625"
"1573641835209","1281","-0.38085938","-0.6464844","0.70703125","-31.875","-14.53125","-43.65625"
"1573641835210","1282","-0.40722656","-0.7363281","0.68847656","-41.03125","-11.0","-46.78125"
"1573641835210","1283","-0.3642578","-0.79003906","0.6767578","-44.4375","-3.375","-46.84375"
"1573641835210","1284","-0.2890625","-0.73828125","0.68847656","-45.5625","-8.875","-46.65625"
"1573641835211","1285","-0.16699219","-0.87109375","0.6328125","-50.4375","-11.4375","-59.03125"
"1573641835211","1286","-0.24609375","-0.93066406","0.6298828","-61.40625","-34.25","-55.0"
"1573641835212","1287","-0.23925781","-0.9345703","0.5546875","-80.09375","-25.84375","-62.8125"
"1573641835212","1288","-0.16503906","-0.8701172","0.44726562","-87.34375","-35.90625","-69.46875"
"1573641835212","1289","-0.109375","-0.7519531","0.3720703","-93.875","-28.6875","-57.6875"
"1573641835406","1290","-0.08105469","-0.5078125","0.3466797","-98.28125","-29.5","-50.90625"
"1573641835406","1291","-0.047851562","-0.48632812","0.2861328","-93.59375","-17.71875","-53.0625"
"1573641835406","1292","0.028320312","-0.53808594","0.22167969","-82.28125","-24.75","-54.8125"
"1573641835407","1293","0.061523438","-0.64453125","0.16308594","-70.03125","-18.25","-47.0625"
"1573641835407","1294","0.055664062","-0.859375","0.19921875","-52.125","-15.59375","-36.03125"
"1573641835407","1295","0.038085938","-1.1347656","0.06933594","-39.9375","9.625","-31.375"
"1573641835407","1296","0.23730469","-1.1708984","-0.041992188","-37.4375","20.8125","-15.6875"
"1573641835408","1297","0.3046875","-0.87402344","0.06640625","-36.75","0.21875","-11.1875"
"1573641835409","1298","0.19238281","-0.8076172","0.060546875","-25.34375","-11.90625","-14.84375"
"1573641835409","1299","0.15820312","-0.9716797","0.029296875","-16.375","-3.25","-11.4375"
"1573641835806","1300","0.18066406","-0.92285156","0.07421875","-7.46875","-0.0625","-0.125"
"1573641835806","1301","0.1640625","-0.9902344","0.045898438","-0.75","-6.3125","4.125"
