"# PR data"
"# Start time: 20191113T104704"
"# Subject: sharan"
"# Activity type: Squats"
"# Correctness: Incorrect"
"# Notes: "
""
"timestamp","seq","accel_x","accel_y","accel_z","gyro_x","gyro_y","gyro_z"
"1573642025013","0","0.17773438","-1.0253906","0.041015625","2.96875","0.90625","0.03125"
"1573642025016","1","0.16210938","-1.0634766","0.029296875","3.40625","3.46875","-3.875"
"1573642025016","2","0.2109375","-1.1826172","0.09375","4.5625","4.25","-8.375"
"1573642025016","3","0.24414062","-1.3203125","0.05078125","2.65625","4.75","-9.90625"
"1573642025017","4","0.2626953","-1.3789062","0.059570312","2.90625","3.71875","-7.875"
"1573642025017","5","0.28710938","-1.3105469","0.040039062","2.0625","3.34375","-7.15625"
"1573642025017","6","0.265625","-1.2158203","0.055664062","2.4375","-1.46875","-7.53125"
"1573642025017","7","0.22949219","-1.1337891","0.08496094","1.5","-0.4375","-5.4375"
"1573642025018","8","0.11621094","-0.8828125","-0.041015625","4.875","-9.34375","9.6875"
"1573642025018","9","0.11621094","-0.5361328","-0.04296875","1.4375","-17.09375","26.34375"
"1573642025018","10","0.001953125","-0.14453125","0.059570312","-10.4375","-22.71875","36.3125"
"1573642025019","11","-0.11035156","-0.16015625","0.0625","-7.53125","-12.59375","16.53125"
"1573642025019","12","-0.0087890625","-0.5078125","0.026367188","-4.78125","1.5625","-15.34375"
"1573642025020","13","0.21191406","-1.2431641","-0.0107421875","-7.09375","42.84375","-45.65625"
"1573642025020","14","0.5019531","-1.5322266","-0.09765625","3.03125","38.875","30.4375"
"1573642025021","15","0.27929688","-1.1513672","0.064453125","7.5","-4.46875","15.0"
"1573642025021","16","0.13085938","-0.93066406","0.10546875","-3.25","-1.84375","2.25"
"1573642025021","17","-0.041015625","-0.83496094","0.072265625","-13.25","6.40625","0.0"
"1573642025022","18","0.103515625","-0.8886719","0.064453125","-13.5625","8.65625","-15.6875"
"1573642025022","19","0.21191406","-0.95996094","0.083984375","-8.75","4.0","-15.21875"
"1573642025410","20","0.19628906","-0.9511719","0.026367188","-1.1875","-14.96875","6.15625"
"1573642025411","21","0.19140625","-1.0039062","-0.032226562","4.625","-16.5625","12.0625"
"1573642025411","22","0.21679688","-1.0634766","0.0029296875","-4.09375","-10.15625","0.84375"
"1573642025414","23","0.13671875","-1.0175781","0.017578125","-4.84375","-5.625","0.65625"
"1573642025414","24","0.10644531","-1.0380859","9.765625E-4","-4.15625","-1.90625","3.59375"
"1573642025415","25","0.13476562","-0.95214844","0.025390625","-0.25","4.375","9.5625"
"1573642025415","26","0.12011719","-0.8964844","0.040039062","8.15625","12.375","1.21875"
"1573642025416","27","0.14355469","-0.95214844","0.1953125","36.0","34.65625","3.90625"
"1573642025416","28","-0.0087890625","-0.9716797","0.052734375","6.875","-0.3125","9.375"
"1573642025416","29","0.17773438","-1.0644531","0.018554688","2.0625","-5.4375","-6.0"
"1573642025610","30","0.18554688","-1.0390625","0.0078125","-4.15625","-16.8125","1.75"
"1573642025611","31","0.13378906","-1.0019531","-0.01953125","-12.40625","-23.09375","3.34375"
"1573642025611","32","0.23535156","-0.9873047","0.06738281","-7.09375","9.625","-10.9375"
"1573642025611","33","0.01953125","-0.94433594","0.11816406","8.71875","3.46875","7.375"
"1573642025612","34","0.040039062","-0.9746094","0.051757812","2.59375","-3.75","5.53125"
"1573642025612","35","0.16601562","-1.0136719","0.0390625","-1.78125","-4.09375","-1.53125"
"1573642025613","36","0.14746094","-1.0361328","-0.00390625","-8.875","-6.1875","-2.875"
"1573642025613","37","0.15136719","-0.9394531","0.07910156","-12.78125","7.75","-9.84375"
"1573642025614","38","0.14648438","-0.97753906","0.061523438","4.0","9.6875","0.71875"
"1573642025614","39","0.14648438","-0.9921875","0.026367188","3.84375","-1.1875","4.125"
"1573642026207","40","0.15820312","-1.0058594","0.018554688","2.3125","-7.21875","5.21875"
"1573642026208","41","0.14648438","-0.99902344","0.016601562","-2.21875","-2.21875","1.4375"
"1573642026208","42","0.11816406","-0.9628906","0.045898438","-4.21875","-1.1875","-3.375"
"1573642026208","43","0.13085938","-0.9892578","0.064453125","-5.15625","2.3125","-3.0625"
"1573642026209","44","0.125","-1.0","0.046875","-5.375","0.40625","-4.15625"
"1573642026209","45","0.13769531","-1.0302734","0.0546875","-6.3125","-1.53125","-4.28125"
"1573642026209","46","0.10449219","-1.0009766","0.055664062","-10.15625","3.15625","-6.65625"
"1573642026210","47","0.08105469","-0.99316406","0.046875","-11.5","6.28125","-6.5"
"1573642026210","48","0.14355469","-0.9736328","0.017578125","-9.71875","9.4375","-3.0"
"1573642026212","49","0.17871094","-0.99121094","-0.015625","-6.4375","7.84375","-0.875"
"1573642027200","50","0.18066406","-0.9951172","0.016601562","-2.40625","4.6875","-0.3125"
"1573642027201","51","0.13085938","-0.96484375","0.029296875","-4.09375","-0.0625","1.15625"
"1573642027201","52","0.15820312","-1.0","0.038085938","-1.53125","4.3125","0.0"
"1573642027201","53","0.13085938","-0.98535156","-0.0107421875","-1.125","0.15625","1.3125"
"1573642027202","54","0.14746094","-0.98828125","0.045898438","-6.0625","1.4375","0.34375"
"1573642027202","55","0.1484375","-0.98535156","0.005859375","-1.53125","4.125","-1.125"
"1573642027202","56","0.1484375","-0.9941406","0.0234375","0.40625","3.53125","-0.6875"
"1573642027203","57","0.119140625","-0.9814453","0.033203125","-0.5625","2.1875","-0.25"
"1573642027203","58","0.13867188","-1.0","0.032226562","-0.125","3.15625","0.0"
"1573642027203","59","0.13671875","-0.9902344","0.01953125","-0.9375","2.1875","-0.875"
"1573642027399","60","0.13085938","-0.9980469","0.032226562","-0.4375","2.59375","-1.0625"
"1573642027399","61","0.123046875","-1.0009766","0.024414062","-0.75","3.15625","0.90625"
"1573642027400","62","0.14355469","-0.9970703","0.02734375","-1.96875","2.4375","-0.25"
"1573642027400","63","0.13769531","-1.0009766","0.015625","-0.25","3.53125","0.65625"
"1573642027401","64","0.15429688","-0.9941406","-0.015625","0.46875","0.65625","1.09375"
"1573642027401","65","0.16015625","-0.9970703","0.045898438","-2.8125","-0.875","0.0"
"1573642027401","66","0.12792969","-0.97558594","0.0146484375","-1.3125","-1.0625","-2.34375"
"1573642027401","67","0.15136719","-1.0","0.005859375","0.96875","-1.0625","-1.46875"
"1573642027402","68","0.11816406","-0.96875","0.01953125","-1.96875","-0.1875","-1.125"
"1573642027402","69","0.12792969","-0.9628906","0.01953125","-1.125","2.25","-0.4375"
"1573642027599","70","0.14257812","-0.9550781","0.021484375","-2.03125","3.03125","0.21875"
"1573642027599","71","0.13183594","-0.9550781","0.0","-1.71875","0.78125","-0.875"
"1573642027600","72","0.13183594","-0.9785156","0.026367188","-1.34375","0.71875","-0.4375"
"1573642027601","73","0.107421875","-0.9667969","0.02734375","-2.21875","0.59375","1.15625"
"1573642027602","74","0.15234375","-1.0058594","0.043945312","0.34375","6.6875","-1.65625"
"1573642027602","75","0.14746094","-1.0136719","-0.0234375","0.90625","0.78125","-3.5625"
"1573642027602","76","0.17675781","-1.0068359","0.07714844","-2.875","1.5625","-4.03125"
"1573642027602","77","0.12695312","-0.9794922","-0.0029296875","-0.3125","1.3125","-3.125"
"1573642027603","78","0.12988281","-1.0019531","0.030273438","1.09375","2.5","-2.15625"
"1573642027603","79","0.12890625","-0.95410156","0.0087890625","-0.875","4.5","-1.1875"
"1573642027794","80","0.1484375","-0.96972656","0.041015625","-1.78125","4.25","-1.34375"
"1573642027795","81","0.15722656","-0.97265625","0.0390625","-0.125","3.46875","-0.3125"
"1573642027795","82","0.15234375","-0.9550781","0.036132812","2.25","1.5625","-0.375"
"1573642027795","83","0.10253906","-0.95703125","0.049804688","2.71875","2.65625","2.0625"
"1573642027795","84","0.1328125","-0.98339844","0.046875","0.0","0.78125","0.15625"
"1573642027796","85","0.16308594","-0.96777344","0.072265625","-1.1875","0.65625","-2.09375"
"1573642027797","86","0.12011719","-0.97558594","0.001953125","2.4375","2.4375","1.8125"
"1573642027797","87","0.14648438","-0.9560547","0.029296875","-1.59375","-5.15625","-1.40625"
"1573642027797","88","0.15332031","-0.9716797","0.03125","2.3125","0.78125","-2.46875"
"1573642027797","89","0.11230469","-0.9794922","0.028320312","0.09375","-1.65625","-0.3125"
"1573642027996","90","0.13867188","-0.94921875","0.07128906","-1.34375","0.46875","-0.375"
"1573642027996","91","0.1171875","-0.9580078","0.04296875","-4.03125","1.75","-4.28125"
"1573642027997","92","0.13378906","-0.9628906","0.01953125","-2.15625","2.5","-2.03125"
"1573642027997","93","0.14355469","-0.9423828","0.03125","-0.25","6.15625","2.65625"
"1573642027997","94","0.15527344","-0.9355469","0.0390625","0.40625","1.4375","2.375"
"1573642027997","95","0.10449219","-0.97265625","0.041015625","3.90625","1.21875","4.6875"
"1573642027997","96","0.12890625","-0.9658203","0.03125","1.3125","1.875","0.34375"
"1573642027999","97","0.13964844","-0.9785156","0.06738281","-1.53125","4.3125","-2.59375"
"1573642027999","98","0.099609375","-0.95703125","0.03125","-0.8125","-0.375","1.375"
"1573642027999","99","0.15039062","-0.94433594","0.033203125","1.03125","1.5625","-0.8125"
"1573642028393","100","0.14453125","-0.9501953","0.049804688","-0.875","3.53125","-3.0"
"1573642028394","101","0.12109375","-0.96484375","0.055664062","-1.40625","1.03125","2.0"
"1573642028394","102","0.12207031","-0.9550781","0.038085938","-2.46875","0.71875","1.8125"
"1573642028394","103","0.15820312","-1.0078125","0.076171875","0.71875","3.65625","-2.28125"
"1573642028394","104","0.12695312","-1.0615234","0.037109375","1.3125","0.46875","2.125"
"1573642028395","105","0.15625","-1.0566406","0.08105469","-0.75","0.34375","2.78125"
"1573642028395","106","0.103515625","-1.0654297","0.055664062","-1.3125","3.28125","2.0625"
"1573642028395","107","0.13574219","-1.0214844","-0.001953125","-2.28125","3.59375","3.21875"
"1573642028395","108","0.17871094","-0.95996094","0.080078125","-7.9375","-1.34375","1.75"
"1573642028396","109","0.1015625","-0.9707031","0.022460938","-8.125","-3.3125","-3.375"
"1573642028791","110","0.15039062","-1.0439453","0.048828125","-9.0","-1.34375","-5.625"
"1573642028791","111","0.13476562","-1.0410156","0.072265625","-9.59375","0.90625","-2.9375"
"1573642028792","112","0.13867188","-1.0732422","0.044921875","-12.28125","-0.5625","-3.75"
"1573642028792","113","0.15234375","-1.0439453","0.049804688","-9.90625","1.4375","-4.40625"
"1573642028792","114","0.17773438","-1.046875","0.01171875","-6.4375","2.90625","-7.09375"
"1573642028792","115","0.13769531","-1.0361328","0.020507812","-7.875","3.03125","1.21875"
"1573642028793","116","0.15917969","-1.0292969","0.015625","-4.03125","-0.375","-2.28125"
"1573642028793","117","0.14160156","-1.0673828","0.026367188","-3.75","0.09375","-1.84375"
"1573642028793","118","0.14160156","-1.0478516","-0.024414062","-2.34375","5.71875","-3.3125"
"1573642028793","119","0.14453125","-1.0048828","-0.0048828125","-3.4375","-5.4375","-1.125"
"1573642029189","120","0.12402344","-0.9638672","0.020507812","-0.625","0.90625","0.46875"
"1573642029190","121","0.09863281","-0.9404297","0.026367188","1.4375","3.90625","2.0"
"1573642029190","122","0.15527344","-0.9863281","0.01953125","14.5","13.65625","1.5625"
"1573642029191","123","0.091796875","-1.0244141","0.036132812","5.78125","11.53125","5.40625"
"1573642029191","124","0.11230469","-1.0097656","0.0146484375","-0.625","4.8125","-2.59375"
"1573642029191","125","0.17675781","-0.99121094","0.030273438","-1.59375","5.40625","-4.65625"
"1573642029191","126","0.13378906","-0.97558594","0.036132812","-3.5625","-1.59375","-3.3125"
"1573642029192","127","0.14257812","-1.0","0.0078125","2.0625","6.34375","-3.5625"
"1573642029192","128","0.14648438","-1.0009766","-9.765625E-4","-1.90625","2.3125","-1.3125"
"1573642029192","129","0.17675781","-0.9970703","0.09082031","1.5625","6.03125","-2.34375"
"1573642029782","130","0.10839844","-0.95410156","0.033203125","2.1875","3.53125","1.625"
"1573642029783","131","0.1484375","-1.0009766","0.0390625","0.34375","4.375","-2.34375"
"1573642029783","132","0.13867188","-0.9716797","0.041015625","-3.375","-0.75","-1.84375"
"1573642029784","133","0.16992188","-0.9941406","0.051757812","-3.90625","2.5","-2.6875"
"1573642029785","134","0.1484375","-1.0009766","0.024414062","-3.125","1.5625","-4.96875"
"1573642029785","135","0.16503906","-1.0126953","0.028320312","0.65625","4.125","-1.125"
"1573642029785","136","0.14746094","-0.9667969","0.046875","0.65625","2.5625","0.84375"
"1573642029785","137","0.13964844","-0.99609375","0.041015625","0.46875","2.65625","-2.53125"
"1573642029786","138","0.16015625","-1.0048828","0.06738281","-2.40625","-2.75","-0.6875"
"1573642029786","139","0.10839844","-0.95996094","0.0126953125","-1.90625","-0.5","-1.0"
"1573642029983","140","0.14257812","-0.9316406","0.0546875","-3.125","-0.9375","-1.40625"
"1573642029983","141","0.15234375","-0.9921875","0.017578125","-0.0625","3.28125","-2.625"
"1573642029983","142","0.15527344","-1.0078125","0.046875","0.0","2.25","-3.5625"
"1573642029983","143","0.15332031","-1.0322266","0.05078125","-1.1875","2.90625","0.96875"
"1573642029984","144","0.16015625","-1.0214844","0.057617188","-2.46875","-1.71875","-3.875"
"1573642029985","145","0.18066406","-1.1054688","0.036132812","-1.0625","3.84375","-5.375"
"1573642029985","146","0.18066406","-1.0703125","0.040039062","-2.59375","-2.53125","-2.6875"
"1573642029985","147","0.16503906","-1.0478516","0.02734375","-1.125","-1.125","-2.09375"
"1573642029986","148","0.15039062","-1.0097656","0.051757812","-2.03125","-0.0625","-1.71875"
"1573642029986","149","0.15039062","-0.9667969","0.059570312","1.3125","0.34375","-0.125"
"1573642030379","150","0.15820312","-0.97265625","0.037109375","2.0625","8.28125","-2.40625"
"1573642030380","151","0.14550781","-0.9921875","0.024414062","0.15625","5.0625","-2.8125"
"1573642030380","152","0.20214844","-0.9736328","0.051757812","2.125","5.90625","-2.625"
"1573642030380","153","0.14941406","-1.0253906","0.0703125","0.15625","-1.25","-4.84375"
"1573642030381","154","0.14941406","-1.0136719","0.0234375","3.21875","4.25","0.21875"
"1573642030381","155","0.19238281","-0.9785156","0.06640625","0.65625","3.21875","5.90625"
"1573642030381","156","0.17480469","-0.92089844","0.068359375","2.25","1.375","-4.84375"
"1573642030382","157","0.16992188","-0.9951172","0.083984375","0.03125","-0.5","-0.25"
"1573642030383","158","0.10546875","-1.0566406","0.0703125","0.09375","2.3125","-4.96875"
"1573642030383","159","0.16503906","-1.0253906","0.037109375","1.75","4.9375","3.65625"
"1573642030778","160","0.21191406","-0.98828125","0.103515625","-0.625","2.125","-2.15625"
"1573642030779","161","0.11621094","-0.96191406","0.033203125","-2.09375","-1.59375","-8.4375"
"1573642030779","162","0.22753906","-1.0283203","0.11230469","-2.40625","4.125","-4.40625"
"1573642030779","163","0.19042969","-0.96972656","0.056640625","-1.53125","-1.40625","-11.625"
"1573642030780","164","0.18457031","-0.9902344","0.04296875","2.0","-0.125","-2.53125"
"1573642030780","165","0.16699219","-0.9482422","0.07519531","1.09375","1.375","-1.90625"
"1573642030780","166","0.15136719","-0.94140625","0.068359375","2.0625","5.0625","-8.5"
"1573642030780","167","0.17773438","-0.9667969","0.08496094","0.28125","3.90625","-2.875"
"1573642030781","168","0.14941406","-0.9042969","0.048828125","-0.5","2.59375","-4.53125"
"1573642030782","169","0.26953125","-0.9550781","0.072265625","2.65625","3.90625","-5.875"
"1573642031177","170","0.20019531","-0.95996094","0.09472656","0.78125","-3.3125","-8.625"
"1573642031177","171","0.123046875","-0.99316406","0.076171875","0.28125","2.0","1.8125"
"1573642031177","172","0.19238281","-0.99609375","0.09765625","-0.25","7.1875","-0.6875"
"1573642031178","173","0.25976562","-1.0283203","0.091796875","-1.3125","2.0","-6.25"
"1573642031178","174","0.22851562","-1.0703125","0.08984375","-2.15625","1.625","-2.46875"
"1573642031178","175","0.22949219","-1.0859375","0.10449219","-0.625","1.03125","-4.03125"
"1573642031178","176","0.2265625","-1.1123047","0.09863281","-1.25","1.28125","-0.5625"
"1573642031178","177","0.21289062","-1.0791016","0.06347656","-2.40625","-3.125","1.8125"
"1573642031179","178","0.23046875","-1.0908203","0.12402344","-3.8125","-2.625","2.0625"
"1573642031179","179","0.21679688","-1.0292969","0.055664062","-3.625","-8.3125","1.15625"
"1573642031574","180","0.19433594","-0.9550781","0.064453125","-5.5625","-11.1875","8.15625"
"1573642031576","181","0.13964844","-0.78027344","0.0107421875","-6.5","-12.90625","12.25"
"1573642031576","182","0.09472656","-0.5859375","0.0234375","-11.625","-9.15625","18.71875"
"1573642031577","183","0.072265625","-0.59375","0.0107421875","-9.40625","1.03125","9.125"
"1573642031577","184","0.11425781","-0.8046875","0.03515625","-1.71875","9.75","-7.09375"
"1573642031577","185","0.15722656","-1.0693359","0.056640625","-3.25","15.0","-4.34375"
"1573642031577","186","0.13671875","-1.0234375","0.099609375","-0.625","12.3125","15.1875"
"1573642031578","187","0.17871094","-0.9863281","0.06347656","-0.9375","11.34375","5.0"
"1573642031578","188","0.3125","-1.1328125","0.041015625","0.34375","11.71875","-6.65625"
"1573642031578","189","0.22753906","-0.99121094","0.09765625","-4.28125","-5.8125","2.5"
"1573642031970","190","0.07324219","-0.9160156","0.044921875","-4.46875","-4.15625","-1.25"
"1573642031970","191","0.109375","-0.9033203","0.09375","-4.15625","2.84375","-2.6875"
"1573642031970","192","0.18261719","-0.98046875","0.043945312","2.84375","10.375","1.3125"
"1573642031971","193","0.17285156","-0.95996094","0.06542969","-0.5625","2.375","4.6875"
"1573642031972","194","0.19433594","-0.98828125","0.038085938","1.875","2.5625","1.3125"
"1573642031972","195","0.18847656","-1.0302734","0.059570312","-0.5625","-0.875","0.34375"
"1573642031972","196","0.14550781","-1.0","0.07519531","-2.75","-2.6875","0.34375"
"1573642031972","197","0.140625","-1.0175781","0.06347656","-4.71875","-6.375","1.03125"
"1573642031973","198","0.15039062","-0.9736328","0.046875","-4.03125","-1.3125","1.15625"
"1573642031973","199","0.123046875","-0.953125","0.029296875","-3.5625","0.65625","1.03125"
"1573642032368","200","0.14257812","-0.97558594","0.041015625","-2.28125","4.5","0.65625"
"1573642032369","201","0.13964844","-0.96875","0.060546875","4.4375","8.15625","1.15625"
"1573642032369","202","0.14550781","-1.0107422","0.041992188","5.0625","9.375","3.34375"
"1573642032369","203","0.171875","-0.9951172","0.07324219","0.65625","7.0","3.65625"
"1573642032370","204","0.12988281","-0.9980469","0.08203125","-1.0","1.625","4.6875"
"1573642032370","205","0.115234375","-0.984375","0.06347656","-3.125","1.4375","4.0"
"1573642032370","206","0.10253906","-0.9863281","0.07128906","-3.5","2.59375","2.25"
"1573642032370","207","0.13183594","-0.98339844","0.044921875","-4.03125","1.03125","-1.65625"
"1573642032371","208","0.15039062","-0.97265625","0.051757812","-1.71875","0.84375","-2.53125"
"1573642032371","209","0.13476562","-0.9814453","0.0546875","-0.625","0.0","-1.59375"
"1573642032766","210","0.14648438","-0.97753906","0.068359375","-0.6875","-1.40625","-2.625"
"1573642032766","211","0.123046875","-1.0009766","0.07128906","-0.9375","-0.75","-1.1875"
"1573642032766","212","0.13183594","-1.0058594","0.06640625","-1.1875","0.96875","-0.8125"
"1573642032767","213","0.13867188","-0.98828125","0.059570312","-2.6875","1.75","0.0"
"1573642032767","214","0.13671875","-0.9746094","0.0625","-2.75","2.1875","-2.03125"
"1573642032767","215","0.14648438","-0.98339844","0.0546875","-2.09375","0.21875","-1.125"
"1573642032767","216","0.1484375","-0.98828125","0.06347656","-1.34375","0.40625","0.15625"
"1573642032769","217","0.15039062","-0.99609375","0.07714844","-2.625","-0.6875","-0.75"
"1573642032769","218","0.12597656","-0.9941406","0.025390625","-2.625","-2.9375","-3.4375"
"1573642032769","219","0.14257812","-0.984375","0.080078125","-2.34375","-1.1875","-2.53125"
"1573642033163","220","0.140625","-0.9863281","0.051757812","-1.53125","0.59375","-1.125"
"1573642033164","221","0.15722656","-1.0087891","0.046875","-2.34375","0.09375","1.21875"
"1573642033164","222","0.13964844","-1.0068359","0.029296875","-6.1875","-0.75","1.3125"
"1573642033164","223","0.16796875","-1.015625","0.036132812","-7.875","-1.78125","-2.75"
"1573642033165","224","0.14355469","-0.98828125","0.038085938","-7.40625","-3.5625","-2.875"
"1573642033165","225","0.11816406","-0.9707031","0.040039062","-7.09375","-3.75","-1.84375"
"1573642033165","226","0.15820312","-0.98828125","0.044921875","-4.84375","2.0625","-4.78125"
"1573642033166","227","0.14160156","-0.9941406","0.048828125","-5.8125","0.59375","-5.03125"
"1573642033166","228","0.15429688","-0.98828125","0.041992188","-3.875","2.0","-2.59375"
"1573642033167","229","0.16015625","-0.9873047","0.036132812","-3.3125","-2.03125","-2.9375"
"1573642033560","230","0.14257812","-0.9824219","0.017578125","-4.03125","-0.25","-3.5"
"1573642033560","231","0.14355469","-0.984375","0.01953125","-4.90625","-1.40625","-1.96875"
"1573642033561","232","0.1328125","-0.9814453","0.01953125","-0.8125","4.5","-0.125"
"1573642033561","233","0.13476562","-0.9707031","0.03125","-1.53125","5.34375","2.96875"
"1573642033561","234","0.16699219","-0.9394531","0.028320312","3.90625","5.90625","0.65625"
"1573642033561","235","0.17480469","-0.9423828","0.061523438","4.6875","1.3125","-0.8125"
"1573642033562","236","0.15527344","-0.9453125","0.048828125","5.0625","0.34375","-0.25"
"1573642033562","237","0.109375","-0.9482422","0.07910156","1.375","6.8125","2.65625"
"1573642033562","238","0.06542969","-0.99316406","0.0107421875","0.84375","18.125","3.34375"
"1573642033563","239","0.18359375","-0.98535156","0.0126953125","-1.46875","18.21875","4.0"
"1573642033958","240","0.25195312","-0.9765625","0.08105469","-3.4375","2.71875","0.34375"
"1573642033959","241","0.140625","-0.94433594","0.0126953125","-1.46875","-5.03125","-3.8125"
"1573642033960","242","0.08886719","-0.9326172","0.068359375","0.40625","-0.75","7.8125"
"1573642033960","243","0.12109375","-0.8535156","0.034179688","-0.8125","-3.5625","4.875"
"1573642033960","244","0.07324219","-0.9091797","0.037109375","-4.40625","2.90625","-4.28125"
"1573642033960","245","0.14257812","-0.9082031","0.059570312","-2.625","0.59375","1.375"
"1573642033961","246","0.1171875","-0.8886719","0.041992188","-5.4375","-7.875","-2.9375"
"1573642033961","247","0.12597656","-0.8613281","0.022460938","-4.46875","-3.75","1.09375"
"1573642033961","248","0.15429688","-0.94628906","0.029296875","-7.21875","-6.5","-2.53125"
"1573642033962","249","0.08105469","-0.9189453","0.0068359375","-8.5","2.5","-5.3125"
"1573642034355","250","0.1640625","-0.9404297","-0.0029296875","-5.6875","2.3125","6.5625"
"1573642034356","251","0.19921875","-0.8779297","0.01171875","-3.8125","-2.53125","-0.125"
"1573642034356","252","0.12011719","-0.8798828","-0.0107421875","-5.3125","-13.625","2.0625"
"1573642034357","253","0.10839844","-0.9482422","0.057617188","-7.03125","-4.59375","-1.0"
"1573642034357","254","0.049804688","-0.89160156","0.040039062","-0.625","1.5625","2.84375"
"1573642034357","255","0.11035156","-1.0878906","0.07128906","-3.125","10.40625","-3.0625"
"1573642034357","256","0.13476562","-1.2480469","0.07421875","-1.71875","13.65625","-6.96875"
"1573642034358","257","0.16796875","-1.3710938","-0.0087890625","-1.78125","21.34375","-7.59375"
"1573642034358","258","0.28515625","-1.2841797","0.06640625","0.96875","18.28125","4.0625"
"1573642034358","259","0.24609375","-1.2646484","0.0234375","2.125","12.9375","1.5625"
"1573642034753","260","0.13378906","-1.1259766","0.043945312","3.71875","-5.25","-3.25"
"1573642034753","261","0.11621094","-1.0966797","0.017578125","-1.34375","-6.25","5.90625"
"1573642034754","262","0.16992188","-0.8886719","0.048828125","-0.125","-4.90625","-1.65625"
"1573642034754","263","0.08886719","-0.8486328","-0.00390625","-3.0625","-8.375","0.40625"
"1573642034754","264","0.09375","-0.93066406","0.07421875","-3.875","0.71875","-2.6875"
"1573642034756","265","0.14355469","-1.0380859","-0.022460938","2.125","13.84375","-1.46875"
"1573642034756","266","0.18261719","-1.0322266","0.03515625","-0.5","1.75","3.78125"
"1573642034756","267","0.15136719","-0.94433594","0.01953125","-0.6875","-11.625","-0.875"
"1573642034757","268","0.0859375","-1.0058594","0.043945312","0.0","3.21875","-6.71875"
"1573642034757","269","0.10546875","-1.0908203","0.051757812","-2.9375","4.25","-3.0625"
"1573642035349","270","0.15136719","-0.9970703","0.025390625","-4.09375","2.3125","-3.5625"
"1573642035349","271","0.1484375","-0.97558594","0.0234375","-2.53125","2.1875","-0.1875"
"1573642035350","272","0.14160156","-1.0029297","0.032226562","-2.625","0.65625","-4.78125"
"1573642035350","273","0.12792969","-1.0097656","0.0546875","-0.375","2.65625","-3.75"
"1573642035350","274","0.10644531","-0.9638672","0.0107421875","2.4375","5.78125","-1.59375"
"1573642035351","275","0.15625","-0.98535156","0.041992188","0.90625","1.6875","-1.34375"
"1573642035351","276","0.18066406","-1.0429688","0.036132812","1.6875","4.9375","-3.8125"
"1573642035352","277","0.15527344","-1.0615234","0.0146484375","-0.0625","-1.3125","-4.21875"
"1573642035353","278","0.17578125","-1.0742188","0.051757812","-1.84375","1.28125","-4.03125"
"1573642035353","279","0.20214844","-1.0966797","0.015625","-2.6875","-0.75","-9.46875"
"1573642035548","280","0.17089844","-0.9941406","0.07421875","-1.65625","0.09375","-1.59375"
"1573642035549","281","0.140625","-0.98046875","0.026367188","0.15625","-2.9375","-1.71875"
"1573642035549","282","0.16210938","-0.93652344","0.044921875","3.46875","3.90625","-0.6875"
"1573642035549","283","0.12597656","-0.9482422","0.020507812","4.0","0.21875","1.3125"
"1573642035550","284","0.083984375","-0.87597656","0.026367188","1.625","6.28125","-7.21875"
"1573642035550","285","0.14550781","-0.9873047","0.06640625","3.34375","11.59375","-6.53125"
"1573642035550","286","0.1796875","-1.0244141","0.037109375","2.125","8.59375","-13.25"
"1573642035550","287","0.22949219","-1.0390625","0.07324219","3.40625","3.59375","-10.5625"
"1573642035551","288","0.18554688","-1.0449219","0.046875","2.4375","3.34375","-11.5625"
"1573642035551","289","0.18457031","-1.0205078","0.076171875","2.1875","3.90625","-5.625"
"1573642035945","290","0.1875","-1.0341797","0.06640625","0.71875","4.0","-7.21875"
"1573642035946","291","0.20703125","-0.9746094","0.057617188","2.71875","6.03125","-6.0625"
"1573642035946","292","0.20703125","-0.984375","0.0703125","0.03125","1.3125","0.03125"
"1573642035946","293","0.18261719","-0.9609375","0.068359375","-0.6875","3.40625","-5.3125"
"1573642035947","294","0.19042969","-0.9501953","0.06640625","-2.75","3.84375","-0.5"
"1573642035947","295","0.20019531","-0.94140625","0.047851562","-6.375","0.78125","-2.34375"
"1573642035947","296","0.22460938","-0.9296875","0.11035156","-5.21875","2.59375","-3.4375"
"1573642035947","297","0.203125","-0.9326172","0.053710938","-5.9375","-3.1875","0.46875"
"1573642035948","298","0.2109375","-0.9472656","0.06347656","-3.90625","-0.25","-7.21875"
"1573642035948","299","0.20019531","-1.0263672","0.064453125","-3.75","1.3125","-0.8125"
"1573642036540","300","0.22753906","-0.99609375","0.053710938","-4.28125","1.625","-4.71875"
"1573642036542","301","0.2421875","-0.96875","0.0703125","-5.75","-1.25","-3.75"
"1573642036542","302","0.2265625","-0.96972656","0.055664062","-5.09375","-3.0625","-6.84375"
"1573642036542","303","0.21875","-0.97265625","0.0625","-3.0625","-2.34375","-0.75"
"1573642036543","304","0.22558594","-1.0166016","0.055664062","-3.375","-2.34375","-5.4375"
"1573642036543","305","0.22851562","-1.0205078","0.053710938","-2.59375","-2.34375","0.15625"
"1573642036543","306","0.234375","-0.9941406","0.046875","-2.15625","0.28125","-1.1875"
"1573642036543","307","0.203125","-1.0234375","0.01171875","-3.0","-4.21875","-2.21875"
"1573642036544","308","0.23925781","-1.0185547","0.072265625","-4.15625","-0.625","-1.46875"
"1573642036544","309","0.23925781","-0.9980469","0.028320312","0.09375","0.34375","-2.03125"
"1573642036939","310","0.22558594","-0.9980469","0.055664062","-3.0625","-1.0","-0.4375"
"1573642036940","311","0.21777344","-0.96972656","0.038085938","-3.875","-1.25","-1.40625"
"1573642036940","312","0.23535156","-0.96191406","0.053710938","-3.5625","-2.8125","-1.0"
"1573642036941","313","0.23144531","-0.9482422","0.032226562","-2.21875","-3.0625","-2.53125"
"1573642036942","314","0.21386719","-0.9658203","0.041992188","-0.9375","-2.625","-2.875"
"1573642036942","315","0.21191406","-0.96875","0.0234375","-2.28125","-3.375","-0.875"
"1573642036942","316","0.22753906","-0.95214844","0.033203125","-1.84375","-3.5625","-0.9375"
"1573642036942","317","0.2265625","-0.9433594","0.021484375","-0.6875","-3.8125","0.65625"
"1573642036943","318","0.23144531","-0.9609375","0.046875","-0.375","-4.96875","-0.5625"
"1573642036943","319","0.20605469","-0.96972656","0.013671875","-1.1875","-4.90625","0.46875"
"1573642037140","320","0.21484375","-0.9423828","0.04296875","-1.34375","-3.75","3.34375"
"1573642037140","321","0.20898438","-0.9375","0.016601562","-0.0625","-1.53125","2.0"
"1573642037140","322","0.18457031","-0.91015625","-0.056640625","-1.78125","-3.125","3.21875"
"1573642037141","323","0.18164062","-0.8105469","0.08496094","-7.09375","-1.0625","8.46875"
"1573642037141","324","0.18164062","-0.79003906","0.01171875","-4.03125","2.125","4.5625"
"1573642037142","325","0.17773438","-0.82714844","0.041992188","-2.6875","1.9375","4.6875"
"1573642037143","326","0.087890625","-0.9433594","0.08984375","1.4375","6.34375","14.8125"
"1573642037143","327","0.20996094","-1.2304688","-0.025390625","0.65625","36.4375","7.5"
"1573642037143","328","0.50097656","-1.1240234","0.06640625","9.03125","19.8125","7.5"
"1573642037144","329","0.24902344","-0.8457031","0.09277344","-1.84375","-20.03125","-3.125"
"1573642037534","330","0.09082031","-0.8857422","0.0146484375","-3.6875","-17.96875","-7.65625"
"1573642037535","331","0.04296875","-1.0146484","0.038085938","1.75","3.09375","7.25"
"1573642037535","332","0.115234375","-0.92285156","0.045898438","5.21875","11.71875","10.71875"
"1573642037535","333","0.24316406","-0.9628906","0.040039062","5.78125","11.71875","5.90625"
"1573642037535","334","0.24609375","-0.99609375","0.057617188","3.09375","0.65625","2.78125"
"1573642037536","335","0.18359375","-0.9892578","0.060546875","1.5","-5.3125","-3.625"
"1573642037536","336","0.14746094","-1.0078125","0.060546875","-0.25","-0.5625","-3.0625"
"1573642037537","337","0.13476562","-1.0263672","0.09765625","-2.15625","8.65625","-0.3125"
"1573642037537","338","0.12988281","-0.9580078","0.032226562","-2.6875","4.75","1.6875"
"1573642037538","339","0.17089844","-0.9814453","0.049804688","0.34375","11.15625","0.03125"
"1573642038923","340","0.15332031","-0.9609375","0.08984375","2.375","9.03125","3.21875"
"1573642038923","341","0.16894531","-0.9892578","0.06542969","2.65625","8.46875","2.1875"
"1573642038923","342","0.21679688","-0.9824219","0.08300781","0.65625","9.8125","2.0625"
"1573642038924","343","0.13769531","-0.9716797","0.103515625","0.40625","3.59375","1.375"
"1573642038924","344","0.14648438","-1.0263672","0.041992188","0.09375","-2.75","-1.25"
"1573642038925","345","0.19335938","-1.0039062","0.06347656","0.40625","-2.34375","4.6875"
"1573642038925","346","0.14257812","-0.97265625","0.044921875","-1.96875","-3.125","7.0"
"1573642038925","347","0.16601562","-0.9863281","0.028320312","-3.4375","4.3125","-4.78125"
"1573642038926","348","0.19433594","-0.9472656","0.09375","-2.59375","7.0625","-1.34375"
"1573642038928","349","0.16503906","-0.98828125","0.09375","1.8125","-1.25","4.0625"
"1573642038928","350","0.13183594","-0.9902344","0.064453125","-0.4375","-7.53125","-2.625"
"1573642038928","351","0.16699219","-1.0175781","0.057617188","-2.40625","-4.46875","-1.34375"
"1573642038929","352","0.16503906","-1.0214844","0.03125","-7.40625","-4.78125","1.5"
"1573642038930","353","0.22167969","-0.984375","0.043945312","-11.3125","6.75","-4.59375"
"1573642038930","354","0.1640625","-0.9482422","0.06933594","-13.75","-3.8125","-5.8125"
"1573642038930","355","0.103515625","-0.95410156","0.068359375","-13.03125","-7.875","2.90625"
"1573642038931","356","0.13769531","-0.9941406","0.037109375","-8.9375","-3.0625","4.4375"
"1573642038931","357","0.2109375","-1.0234375","0.018554688","-4.34375","4.1875","-1.65625"
"1573642038931","358","0.16699219","-0.98535156","0.045898438","-3.25","-1.0625","3.90625"
"1573642038931","359","0.1171875","-0.95410156","0.043945312","-3.0625","1.4375","7.5625"
"1573642039125","360","0.140625","-0.98828125","0.04296875","-1.1875","3.46875","5.0"
"1573642039126","361","0.16113281","-1.0048828","0.05078125","0.21875","7.25","5.34375"
"1573642039127","362","0.13183594","-0.9707031","0.005859375","0.0","2.90625","5.90625"
"1573642039127","363","0.15136719","-0.99121094","0.07421875","-1.84375","5.46875","6.46875"
"1573642039127","364","0.140625","-0.98535156","0.01171875","3.03125","7.90625","6.46875"
"1573642039127","365","0.19238281","-1.0244141","0.055664062","4.9375","8.59375","8.03125"
"1573642039128","366","0.125","-0.9501953","0.061523438","5.46875","5.34375","9.5625"
"1573642039128","367","0.09863281","-0.9355469","0.10058594","12.625","3.71875","12.0625"
"1573642039128","368","0.059570312","-0.97265625","0.057617188","9.09375","-0.375","10.71875"
"1573642039128","369","0.05078125","-0.95996094","0.07128906","6.09375","0.84375","7.625"
"1573642039324","370","0.06640625","-0.9326172","0.0703125","6.28125","0.09375","9.6875"
"1573642039325","371","0.08300781","-0.91308594","0.078125","3.65625","-6.1875","3.78125"
"1573642039325","372","0.052734375","-0.9355469","0.07519531","0.03125","-6.96875","-3.3125"
"1573642039327","373","0.072265625","-0.9550781","0.078125","-1.59375","-5.3125","-4.09375"
"1573642039327","374","0.07714844","-0.95703125","0.036132812","-2.21875","-2.9375","-3.875"
"1573642039327","375","0.080078125","-0.89160156","0.046875","-4.78125","-7.28125","-3.96875"
"1573642039327","376","0.09863281","-0.83691406","0.04296875","-3.125","-2.53125","-9.59375"
"1573642039328","377","0.07910156","-0.75097656","0.08691406","-7.59375","-5.6875","-15.46875"
"1573642039328","378","0.05078125","-0.7373047","0.043945312","-11.78125","-5.6875","-16.75"
"1573642039328","379","0.07714844","-0.7001953","0.08886719","-7.09375","1.3125","-21.8125"
"1573642039522","380","0.12109375","-0.77734375","0.083984375","-6.3125","1.9375","-17.53125"
"1573642039522","381","0.15625","-0.9316406","0.0390625","-6.53125","0.90625","-22.96875"
"1573642039523","382","0.15039062","-1.0097656","0.08300781","-5.3125","17.125","-11.71875"
"1573642039523","383","0.16601562","-1.1152344","-0.022460938","-6.3125","19.5625","-12.84375"
"1573642039523","384","0.23925781","-1.0283203","0.14453125","-1.90625","21.40625","-6.96875"
"1573642039525","385","0.21582031","-1.2080078","-0.0078125","2.71875","24.15625","0.71875"
"1573642039525","386","0.3876953","-1.2734375","0.18945312","1.3125","3.71875","-2.46875"
"1573642039525","387","0.1796875","-1.4023438","0.038085938","-1.0625","0.46875","-2.21875"
"1573642039526","388","0.2578125","-1.1962891","0.07128906","1.15625","-2.625","-2.28125"
"1573642039526","389","0.20214844","-1.1113281","0.08300781","-5.5","-16.96875","4.75"
"1573642040119","390","0.09277344","-1.0957031","0.06640625","-3.96875","9.875","-6.25"
"1573642040120","391","0.2626953","-1.0292969","0.08105469","2.4375","1.03125","8.21875"
"1573642040120","392","0.1484375","-0.9902344","0.05078125","0.40625","-2.75","-1.0625"
"1573642040120","393","0.12011719","-0.95996094","0.06933594","3.78125","11.15625","1.625"
"1573642040120","394","0.17089844","-0.9970703","0.07421875","-0.125","0.40625","7.0"
"1573642040121","395","0.16894531","-0.9511719","0.07421875","0.28125","0.84375","2.65625"
"1573642040121","396","0.18066406","-0.96875","0.0390625","1.3125","-1.40625","1.875"
"1573642040122","397","0.13183594","-0.94628906","0.0859375","-3.1875","2.71875","3.34375"
"1573642040123","398","0.1328125","-0.9355469","0.087890625","-2.8125","10.65625","0.90625"
"1573642040123","399","0.17382812","-0.984375","0.059570312","-0.625","-0.0625","-3.125"
"1573642040318","400","0.17382812","-1.0068359","0.076171875","-2.40625","5.28125","2.84375"
"1573642040318","401","0.23339844","-1.0498047","0.0859375","-3.0","-0.8125","-2.15625"
"1573642040318","402","0.14355469","-1.0712891","0.064453125","-7.34375","-0.8125","-7.71875"
"1573642040318","403","0.22070312","-1.0966797","0.0546875","0.96875","-2.53125","-2.875"
"1573642040319","404","0.16699219","-0.9667969","0.080078125","-1.0","-6.96875","-2.40625"
"1573642040319","405","0.1328125","-0.9169922","0.057617188","-4.53125","-3.8125","-4.46875"
"1573642040319","406","0.16796875","-0.9033203","0.10253906","-0.6875","5.34375","-4.28125"
"1573642040320","407","0.14746094","-0.9716797","0.040039062","1.09375","2.96875","-5.8125"
"1573642040320","408","0.19628906","-1.0390625","0.111328125","-1.71875","7.5625","-6.375"
"1573642040321","409","0.18652344","-1.0458984","0.05859375","0.65625","6.21875","-4.21875"
"1573642041310","410","0.22949219","-1.0527344","0.07324219","0.40625","4.3125","-4.53125"
"1573642041310","411","0.19042969","-1.0332031","0.053710938","-2.40625","-1.40625","-3.25"
"1573642041310","412","0.19042969","-1.0058594","0.08886719","0.03125","1.8125","-0.25"
"1573642041311","413","0.1796875","-1.0195312","0.061523438","0.65625","1.5625","-4.90625"
"1573642041311","414","0.1484375","-0.9902344","0.080078125","-0.5","4.0","-2.03125"
"1573642041311","415","0.17675781","-0.99316406","0.083984375","-0.5","6.625","-0.4375"
"1573642041311","416","0.18457031","-0.97265625","0.064453125","0.15625","9.03125","-4.96875"
"1573642041312","417","0.19628906","-0.9550781","0.08300781","-1.40625","5.59375","2.71875"
"1573642041312","418","0.1796875","-0.8955078","0.059570312","-0.6875","2.4375","-5.21875"
"1573642041312","419","0.19726562","-0.94921875","0.11035156","-2.21875","2.71875","-3.25"
"1573642041314","420","0.17382812","-0.9941406","0.08691406","-2.875","-0.6875","-5.8125"
"1573642041315","421","0.17871094","-1.015625","0.059570312","-1.84375","5.1875","-4.40625"
"1573642041316","422","0.23535156","-1.0654297","0.08203125","-0.75","4.625","-5.5625"
"1573642041316","423","0.22460938","-1.0224609","0.08203125","1.625","2.1875","-4.09375"
"1573642041317","424","0.22851562","-1.0126953","0.09667969","0.84375","1.5625","-7.21875"
"1573642041317","425","0.22363281","-0.9921875","0.09472656","-0.3125","-1.78125","-7.78125"
"1573642041317","426","0.20605469","-0.97558594","0.08984375","1.3125","0.71875","-3.625"
"1573642041318","427","0.22949219","-0.9892578","0.09765625","0.09375","-1.0625","-5.875"
"1573642041318","428","0.23339844","-0.9707031","0.107421875","0.59375","-2.34375","-6.3125"
"1573642041318","429","0.25","-0.98535156","0.103515625","-1.78125","-0.4375","-4.59375"
"1573642041510","430","0.22363281","-0.9736328","0.053710938","-1.90625","-3.5625","-7.8125"
"1573642041510","431","0.25","-1.0039062","0.09277344","-4.15625","-0.0625","-1.46875"
"1573642041511","432","0.23925781","-0.9482422","0.080078125","-3.3125","-1.53125","-3.90625"
"1573642041513","433","0.2607422","-0.98339844","0.08984375","-4.53125","-3.96875","-4.28125"
"1573642041513","434","0.24511719","-0.97753906","0.07519531","-4.59375","-2.9375","-1.96875"
"1573642041513","435","0.24804688","-0.9658203","0.091796875","-5.15625","-4.71875","-1.84375"
"1573642041514","436","0.23242188","-0.9628906","0.068359375","-5.4375","-1.65625","0.15625"
"1573642041514","437","0.23632812","-0.9628906","0.06347656","-3.96875","-0.4375","0.84375"
"1573642041514","438","0.25097656","-0.9609375","0.06738281","-4.46875","-1.0625","0.65625"
"1573642041514","439","0.22851562","-0.93359375","0.06640625","-5.25","-2.28125","-0.25"
"1573642041911","440","0.22851562","-0.93066406","0.060546875","-5.03125","-2.875","1.6875"
"1573642041911","441","0.23730469","-0.9316406","0.057617188","-6.0625","-2.875","0.21875"
"1573642041912","442","0.23046875","-0.93652344","0.051757812","-7.03125","-3.25","0.84375"
"1573642041912","443","0.22558594","-0.9472656","0.030273438","-7.03125","-3.4375","1.5"
"1573642041912","444","0.23339844","-0.94628906","0.034179688","-10.03125","-5.5625","1.5625"
"1573642041913","445","0.20507812","-0.8535156","0.0146484375","-12.78125","-6.0625","5.34375"
"1573642041913","446","0.17089844","-0.8076172","0.032226562","-13.03125","-2.9375","4.6875"
"1573642041913","447","0.171875","-0.8222656","0.017578125","-8.25","2.96875","5.125"
"1573642041913","448","0.16113281","-0.8720703","-0.0048828125","-7.21875","6.875","7.25"
"1573642041914","449","0.20507812","-0.93652344","0.08105469","-7.59375","13.34375","5.59375"
"1573642042306","450","0.21679688","-0.9111328","0.03515625","-0.625","7.5625","9.5"
"1573642042306","451","0.19921875","-1.0302734","0.009765625","2.375","10.0625","11.71875"
"1573642042307","452","0.28515625","-1.1962891","-0.029296875","5.78125","21.09375","6.28125"
"1573642042307","453","0.28222656","-1.0195312","0.08496094","4.375","-0.6875","4.9375"
"1573642042308","454","0.15429688","-0.8183594","0.06933594","-7.03125","-10.9375","-8.8125"
"1573642042308","455","0.14941406","-0.95410156","0.033203125","-4.71875","-3.8125","-1.34375"
"1573642042308","456","0.17675781","-1.0029297","0.0029296875","3.90625","2.1875","3.90625"
"1573642042310","457","0.1875","-0.95214844","0.018554688","4.4375","1.3125","6.6875"
"1573642042311","458","0.18457031","-0.9794922","0.0234375","2.96875","0.78125","6.8125"
"1573642042311","459","0.19335938","-1.0039062","0.041992188","0.65625","1.3125","-0.875"
"1573642042901","460","0.18554688","-1.015625","0.033203125","1.375","-0.25","-1.59375"
"1573642042904","461","0.1796875","-0.9941406","0.041992188","2.3125","0.21875","2.0"
"1573642042904","462","0.16308594","-0.953125","0.043945312","1.28125","-0.875","2.0"
"1573642042905","463","0.13476562","-0.9580078","0.036132812","-0.625","-2.34375","2.0"
"1573642042905","464","0.15917969","-0.984375","0.05859375","0.40625","9.5625","2.375"
"1573642042905","465","0.16308594","-0.96875","0.04296875","0.84375","3.46875","-0.3125"
"1573642042906","466","0.21289062","-1.0078125","0.041015625","2.65625","2.5625","-0.25"
"1573642042906","467","0.17773438","-0.9863281","0.061523438","0.59375","-0.5625","-0.9375"
"1573642042906","468","0.16601562","-0.9785156","0.043945312","-0.125","1.4375","-0.5625"
"1573642042907","469","0.17578125","-0.9863281","0.060546875","-0.5625","2.96875","1.09375"
"1573642043100","470","0.17089844","-0.97558594","0.053710938","-0.5","3.84375","0.09375"
"1573642043101","471","0.17578125","-0.9765625","0.048828125","0.0","4.6875","-0.5"
"1573642043101","472","0.16699219","-0.97753906","0.06347656","-0.1875","2.5","0.03125"
"1573642043101","473","0.17773438","-0.9814453","0.059570312","0.28125","2.5","-0.125"
"1573642043101","474","0.18164062","-0.99316406","0.061523438","0.90625","1.75","1.15625"
"1573642043102","475","0.16601562","-0.9814453","0.064453125","0.34375","1.875","1.5625"
"1573642043102","476","0.1640625","-0.97753906","0.06640625","0.34375","1.5","2.65625"
"1573642043102","477","0.16601562","-0.9824219","0.076171875","0.40625","2.84375","2.65625"
"1573642043102","478","0.15625","-0.9785156","0.040039062","0.28125","-0.1875","1.8125"
"1573642043103","479","0.18164062","-0.9902344","0.08300781","-1.84375","0.0","2.375"
"1573642043497","480","0.16503906","-0.97753906","0.059570312","-0.75","0.46875","0.65625"
"1573642043498","481","0.16796875","-0.9892578","0.07324219","-0.375","-0.9375","1.625"
"1573642043498","482","0.15332031","-0.99121094","0.07128906","-1.1875","-0.875","2.4375"
"1573642043498","483","0.16796875","-0.9951172","0.05859375","-0.1875","1.09375","2.375"
"1573642043499","484","0.20019531","-0.9824219","0.06933594","-0.1875","-0.4375","-0.6875"
"1573642043499","485","0.20019531","-0.96484375","0.0546875","2.65625","-3.0625","-0.8125"
"1573642043500","486","0.20800781","-0.9814453","0.083984375","3.15625","-6.4375","-4.34375"
"1573642043500","487","0.13671875","-0.98046875","0.07714844","-0.5625","-9.15625","-3.625"
"1573642043500","488","0.12792969","-0.97753906","0.09765625","-1.0625","-1.59375","0.78125"
"1573642043501","489","0.1171875","-0.953125","0.076171875","-0.125","1.625","5.40625"
"1573642043894","490","0.16601562","-0.9580078","0.044921875","-1.1875","1.03125","5.21875"
"1573642043895","491","0.18554688","-0.9199219","0.0546875","-1.1875","-2.53125","6.28125"
"1573642043895","492","0.10058594","-0.86328125","0.060546875","-5.25","-8.3125","8.34375"
"1573642043896","493","0.020507812","-0.7939453","0.013671875","-5.03125","1.4375","13.84375"
"1573642043896","494","0.0703125","-0.7841797","0.025390625","-1.84375","7.3125","20.4375"
"1573642043897","495","0.11621094","-0.76171875","0.01953125","-3.5625","6.28125","7.0"
"1573642043897","496","0.030273438","-0.6464844","0.052734375","-5.4375","2.96875","17.75"
"1573642043897","497","0.026367188","-0.6621094","0.07714844","-2.03125","7.3125","13.96875"
"1573642043897","498","0.020507812","-0.71484375","0.078125","-5.3125","12.3125","-7.53125"
"1573642043897","499","0.033203125","-0.8701172","0.103515625","-6.71875","12.3125","-5.5"
"1573642044293","500","0.064453125","-1.0478516","0.10546875","-0.6875","12.8125","-1.84375"
"1573642044293","501","0.13378906","-1.15625","0.051757812","-6.375","19.40625","-6.78125"
"1573642044294","502","0.13671875","-1.2011719","0.08203125","-8.5","0.71875","-7.40625"
"1573642044294","503","0.13085938","-1.2626953","0.078125","-10.34375","10.53125","-11.25"
"1573642044294","504","0.12890625","-1.328125","0.049804688","-4.46875","16.78125","-16.125"
"1573642044296","505","0.18457031","-1.4072266","0.043945312","0.90625","34.96875","18.71875"
"1573642044296","506","0.33203125","-1.2138672","0.026367188","-1.34375","-19.1875","-4.71875"
"1573642044296","507","0.06542969","-1.2177734","0.07714844","-2.34375","-15.34375","-8.6875"
"1573642044297","508","0.0068359375","-1.2578125","0.044921875","-0.125","-12.78125","-9.15625"
"1573642044297","509","0.21777344","-1.0585938","-0.036132812","1.28125","-14.84375","-3.625"
"1573642045084","510","0.1171875","-0.9033203","0.09765625","-12.71875","-11.0625","-7.21875"
"1573642045084","511","0.03515625","-0.7783203","0.020507812","-2.8125","-4.96875","-13.9375"
"1573642045085","512","0.12597656","-0.9140625","0.07421875","-1.34375","4.8125","-2.46875"
"1573642045085","513","0.12402344","-0.99609375","0.0234375","-3.1875","5.34375","-0.3125"
"1573642045086","514","0.15527344","-0.9638672","0.038085938","-3.0","10.78125","-2.09375"
"1573642045086","515","0.15917969","-1.0556641","0.051757812","-0.125","8.53125","1.625"
"1573642045086","516","0.15722656","-1.0410156","0.041992188","-1.59375","3.34375","-0.4375"
"1573642045088","517","0.11328125","-0.98339844","0.041992188","-2.875","1.28125","1.03125"
"1573642045088","518","0.15039062","-1.0341797","0.029296875","-1.0625","0.84375","-0.25"
"1573642045088","519","0.171875","-1.0234375","0.041992188","0.53125","4.8125","-1.25"
"1573642045089","520","0.11035156","-0.9746094","0.038085938","-3.96875","-3.96875","-5.4375"
"1573642045089","521","0.13378906","-0.99316406","0.037109375","0.71875","1.6875","-3.125"
"1573642045089","522","0.13671875","-0.9765625","0.0546875","-1.46875","0.59375","0.71875"
"1573642045090","523","0.13964844","-0.9667969","0.033203125","0.03125","-1.71875","-3.1875"
"1573642045090","524","0.14648438","-1.0195312","0.053710938","-0.1875","1.28125","-3.4375"
"1573642045090","525","0.15625","-1.0390625","0.060546875","-0.1875","0.28125","-1.84375"
"1573642045091","526","0.17089844","-1.0292969","0.048828125","1.8125","0.90625","-4.53125"
"1573642045091","527","0.13867188","-1.0126953","0.08691406","0.09375","2.25","-3.6875"
"1573642045091","528","0.17578125","-1.1230469","0.03125","3.40625","5.46875","-7.46875"
"1573642045092","529","0.21777344","-1.0917969","0.06542969","3.03125","2.5","-3.75"
"1573642045881","530","0.17480469","-1.1044922","0.053710938","-2.40625","-14.25","-2.46875"
"1573642045881","531","0.15625","-1.0283203","0.06640625","1.09375","0.0","-6.90625"
"1573642045882","532","0.08691406","-0.9951172","0.060546875","-4.34375","-8.75","-3.25"
"1573642045882","533","0.17382812","-0.9736328","0.038085938","0.46875","8.59375","-11.125"
"1573642045882","534","0.15820312","-0.98046875","0.072265625","0.84375","2.125","-0.875"
"1573642045882","535","0.14160156","-0.9638672","0.021484375","-0.0625","1.15625","-7.09375"
"1573642045883","536","0.18457031","-0.9746094","0.07519531","-1.84375","5.59375","-4.03125"
"1573642045883","537","0.17480469","-0.9707031","0.05859375","-4.71875","-0.1875","-3.8125"
"1573642045883","538","0.17089844","-0.9550781","0.041992188","0.65625","6.21875","-4.15625"
"1573642045883","539","0.20117188","-0.9902344","0.07519531","-1.0625","5.71875","0.21875"
"1573642046080","540","0.17089844","-0.984375","0.048828125","-3.4375","3.84375","-3.5625"
"1573642046082","541","0.19726562","-0.9785156","0.06738281","-1.1875","6.8125","2.0625"
"1573642046082","542","0.15917969","-0.9785156","0.0068359375","-0.1875","1.9375","-0.6875"
"1573642046082","543","0.18554688","-0.9921875","0.11621094","-5.5625","5.28125","1.3125"
"1573642046083","544","0.16503906","-0.96875","0.030273438","-1.90625","0.0","2.3125"
"1573642046083","545","0.20800781","-1.0048828","0.06640625","-1.0","2.375","2.0"
"1573642046083","546","0.16796875","-0.9716797","0.049804688","-2.40625","0.96875","1.6875"
"1573642046083","547","0.16308594","-0.9970703","0.0390625","-2.6875","4.0625","1.21875"
"1573642046084","548","0.17578125","-0.9746094","0.0546875","-2.625","3.9375","1.5"
"1573642046084","549","0.16601562","-0.9550781","0.07128906","-3.96875","-3.90625","1.4375"
"1573642046279","550","0.1640625","-0.9765625","0.053710938","0.59375","-0.9375","1.625"
"1573642046280","551","0.16503906","-0.99121094","0.059570312","0.0","-2.875","1.5625"
"1573642046280","552","0.18066406","-1.0136719","0.052734375","0.40625","-3.6875","1.03125"
"1573642046281","553","0.18652344","-0.99609375","0.046875","0.21875","-3.3125","2.65625"
"1573642046282","554","0.12695312","-0.9873047","0.0087890625","-1.59375","-9.0","1.4375"
"1573642046282","555","0.1875","-0.95214844","0.091796875","-6.25","-8.75","1.8125"
"1573642046282","556","0.15039062","-0.8515625","0.01171875","-3.96875","-12.65625","-0.375"
"1573642046283","557","0.11816406","-0.78222656","0.0078125","-2.8125","-5.625","5.78125"
"1573642046283","558","0.095703125","-0.7705078","0.021484375","-6.4375","2.375","2.375"
"1573642046283","559","0.10644531","-0.8623047","0.05078125","-11.25","14.09375","-5.25"
"1573642047073","560","0.12597656","-0.85253906","0.06738281","-11.90625","21.09375","-7.9375"
"1573642047074","561","0.18457031","-1.0087891","0.111328125","-5.3125","10.78125","0.40625"
"1573642047074","562","0.25097656","-1.28125","-0.057617188","-0.5625","19.9375","-2.15625"
"1573642047074","563","0.2421875","-1.1083984","0.046875","4.6875","2.375","11.03125"
"1573642047075","564","0.14648438","-0.82910156","0.078125","-1.34375","-3.96875","1.8125"
"1573642047076","565","0.064453125","-0.8691406","0.057617188","-7.40625","0.84375","-3.625"
"1573642047076","566","0.18066406","-1.0175781","0.033203125","-3.90625","3.84375","-8.9375"
"1573642047077","567","0.18359375","-0.9863281","-0.001953125","-1.78125","-0.9375","-0.3125"
"1573642047077","568","0.12597656","-0.9794922","-0.03515625","3.40625","-6.4375","13.15625"
"1573642047077","569","0.1796875","-0.97265625","0.095703125","-0.3125","3.34375","4.125"
"1573642047270","570","0.10449219","-1.0097656","0.036132812","-1.96875","0.34375","-4.53125"
"1573642047271","571","0.16210938","-1.0556641","0.044921875","-1.0","3.84375","-0.625"
"1573642047271","572","0.15820312","-0.9765625","0.022460938","-1.65625","0.34375","4.0625"
"1573642047271","573","0.12695312","-0.96777344","0.02734375","-1.0625","0.28125","1.3125"
"1573642047271","574","0.08984375","-0.953125","0.041015625","5.21875","4.375","1.09375"
"1573642047272","575","0.13574219","-0.9902344","0.045898438","5.90625","11.9375","1.375"
"1573642047272","576","0.16308594","-0.9814453","0.045898438","3.90625","6.09375","1.3125"
"1573642047272","577","0.18847656","-1.0390625","0.036132812","3.53125","1.375","-1.0625"
"1573642047273","578","0.13574219","-0.9824219","0.061523438","0.15625","0.71875","2.0"
"1573642047273","579","0.13867188","-0.9814453","0.07421875","1.875","5.46875","1.3125"
"1573642047473","580","0.12109375","-0.9472656","0.076171875","2.65625","4.875","4.75"
"1573642047473","581","0.15625","-1.0253906","0.08105469","1.5","7.125","5.65625"
"1573642047473","582","0.13671875","-0.9970703","0.06347656","0.28125","3.21875","4.9375"
"1573642047474","583","0.12597656","-0.9794922","0.08203125","-0.625","-1.78125","1.3125"
"1573642047474","584","0.115234375","-0.984375","0.08984375","1.3125","-0.8125","-0.25"
"1573642047474","585","0.111328125","-1.0019531","0.072265625","0.03125","0.0","1.625"
"1573642047474","586","0.1328125","-0.9707031","0.061523438","0.84375","-0.5625","2.0"
"1573642047475","587","0.12792969","-0.9667969","0.048828125","0.59375","-1.0625","1.75"
"1573642047475","588","0.11816406","-0.95214844","0.06640625","1.03125","-0.5","-0.3125"
"1573642047476","589","0.109375","-0.89746094","0.068359375","-0.4375","-1.90625","-0.5"
"1573642048068","590","0.1171875","-0.8642578","0.07128906","-2.53125","-1.65625","0.28125"
"1573642048068","591","0.07714844","-0.86621094","0.060546875","-1.1875","-1.25","1.03125"
"1573642048069","592","0.080078125","-0.89160156","0.056640625","-1.0625","1.6875","0.65625"
"1573642048069","593","0.12792969","-0.93359375","0.072265625","-1.90625","-2.03125","-1.59375"
"1573642048069","594","0.060546875","-0.8388672","0.025390625","-1.40625","-1.78125","0.65625"
"1573642048070","595","0.13085938","-0.8564453","0.1171875","-1.84375","3.40625","5.34375"
"1573642048070","596","0.06640625","-0.8388672","0.017578125","-0.5","-0.9375","-4.21875"
"1573642048070","597","0.13867188","-0.9091797","0.08886719","-1.46875","5.84375","-2.625"
"1573642048070","598","0.11230469","-0.95410156","0.040039062","-1.34375","4.375","-4.84375"
"1573642048071","599","0.15429688","-0.94433594","0.095703125","-1.96875","14.09375","-2.15625"
"1573642048663","600","0.111328125","-0.96777344","0.064453125","2.0625","6.6875","-3.625"
"1573642048665","601","0.095703125","-0.88964844","0.05078125","2.125","15.0625","1.4375"
"1573642048666","602","0.1796875","-0.9863281","0.115234375","3.40625","9.125","-4.21875"
"1573642048666","603","0.059570312","-1.0361328","0.125","-1.90625","6.75","-14.125"
"1573642048666","604","0.19238281","-1.2578125","0.12011719","2.0","4.375","-16.0625"
"1573642048667","605","0.17480469","-1.2460938","0.12402344","-0.1875","9.625","-1.96875"
"1573642048667","606","0.125","-1.1357422","0.0546875","-3.1875","-5.09375","0.84375"
"1573642048667","607","0.13378906","-1.0","0.11328125","-3.5625","8.96875","-1.53125"
"1573642048667","608","0.20507812","-0.95703125","0.083984375","0.09375","2.0","0.53125"
"1573642048668","609","0.16210938","-1.0029297","0.10058594","-0.5","-10.34375","-4.65625"
"1573642048861","610","0.060546875","-1.0029297","0.13085938","-3.375","-2.875","-4.59375"
"1573642048862","611","0.020507812","-1.1660156","0.076171875","1.3125","11.71875","-0.3125"
"1573642048862","612","0.23144531","-1.1787109","0.09863281","-4.21875","20.375","9.9375"
"1573642048864","613","0.2939453","-1.0634766","0.1015625","-4.65625","7.4375","2.375"
"1573642048864","614","0.13964844","-1.0625","0.10644531","-2.75","-3.90625","2.5"
"1573642048864","615","0.16210938","-1.0175781","0.08496094","-1.46875","-14.0625","1.03125"
"1573642048865","616","0.026367188","-0.99902344","0.11035156","-4.34375","0.96875","-8.4375"
"1573642048865","617","0.123046875","-0.9873047","0.07421875","0.78125","-1.125","2.4375"
"1573642048865","618","0.13769531","-0.90527344","0.072265625","-1.96875","3.59375","-2.40625"
"1573642048865","619","0.119140625","-0.93847656","0.095703125","1.21875","3.65625","-2.53125"
"1573642049262","620","0.12402344","-0.9765625","0.08984375","1.5625","4.0","-2.8125"
"1573642049263","621","0.14941406","-1.0078125","0.08886719","-1.71875","7.3125","-2.40625"
"1573642049263","622","0.19042969","-0.94921875","0.09667969","-1.65625","-4.59375","-2.8125"
"1573642049263","623","0.013671875","-0.9609375","0.13476562","-4.28125","12.6875","-3.5625"
"1573642049263","624","0.17382812","-1.0498047","0.08886719","4.4375","2.5625","1.3125"
"1573642049265","625","0.18457031","-1.0634766","0.09667969","-3.5625","3.53125","-1.3125"
"1573642049265","626","0.1640625","-1.0234375","0.11425781","-4.96875","-2.40625","-2.59375"
"1573642049265","627","0.13867188","-0.9941406","0.053710938","-8.4375","-9.78125","-1.46875"
"1573642049266","628","0.19921875","-0.9902344","0.059570312","-9.59375","-2.34375","-8.375"
"1573642049266","629","0.087890625","-0.9033203","0.05859375","-11.96875","-5.9375","-8.4375"
"1573642049460","630","0.12011719","-0.94921875","0.091796875","-9.28125","4.25","-1.96875"
"1573642049460","631","0.19238281","-0.9980469","0.057617188","-4.53125","4.75","-7.65625"
"1573642049460","632","0.171875","-1.0263672","0.06640625","-8.1875","-0.1875","-7.59375"
"1573642049471","633","0.1484375","-0.96972656","0.07910156","-7.78125","-2.40625","-4.40625"
"1573642049471","634","0.18652344","-1.0048828","0.056640625","-5.3125","0.15625","-0.4375"
"1573642049472","635","0.19726562","-1.0429688","0.06347656","-6.375","1.75","-6.0"
"1573642049472","636","0.18066406","-1.0722656","0.0390625","-4.71875","-4.15625","-6.59375"
"1573642049473","637","0.17578125","-1.0566406","0.040039062","-2.09375","-3.6875","-5.875"
"1573642049474","638","0.19628906","-1.0322266","0.083984375","-2.46875","-3.90625","-6.0"
"1573642049474","639","0.21777344","-1.0498047","0.0390625","1.375","-3.3125","-8.9375"
"1573642049858","640","0.22363281","-1.0546875","0.061523438","0.46875","-8.375","-1.78125"
"1573642049859","641","0.18457031","-1.0498047","0.028320312","0.40625","-1.78125","-2.46875"
"1573642049859","642","0.16894531","-0.9765625","0.07324219","0.90625","-0.8125","-4.34375"
"1573642049860","643","0.18066406","-1.0449219","0.041992188","-1.125","-3.4375","-0.6875"
"1573642049860","644","0.20800781","-1.0253906","0.0625","-0.4375","4.125","-5.4375"
"1573642049860","645","0.19824219","-1.0263672","0.03125","-0.5","1.28125","0.53125"
"1573642049860","646","0.20605469","-1.0449219","0.08496094","-1.46875","0.03125","-1.0"
"1573642049861","647","0.19824219","-0.9785156","0.025390625","-0.8125","2.65625","-1.96875"
"1573642049861","648","0.21679688","-1.0019531","0.072265625","0.15625","4.9375","0.71875"
"1573642049862","649","0.17773438","-0.9111328","0.08691406","2.65625","6.03125","-3.0625"
"1573642050453","650","0.17285156","-0.9580078","0.043945312","4.8125","11.03125","1.4375"
"1573642050453","651","0.1953125","-0.9746094","0.087890625","0.40625","6.6875","1.03125"
"1573642050454","652","0.19433594","-0.9238281","0.030273438","0.46875","7.5","1.3125"
"1573642050454","653","0.18652344","-0.9511719","0.07910156","-3.375","-2.75","-2.40625"
"1573642050454","654","0.15917969","-0.9394531","0.059570312","-3.125","-2.6875","-1.1875"
"1573642050454","655","0.21582031","-1.0390625","0.0234375","-0.1875","5.34375","0.03125"
"1573642050455","656","0.22558594","-0.9814453","0.080078125","-0.8125","5.96875","1.6875"
"1573642050455","657","0.18457031","-1.0019531","0.064453125","-2.09375","0.78125","0.0"
"1573642050455","658","0.19042969","-0.99902344","0.08300781","-2.9375","1.375","-0.8125"
"1573642050455","659","0.17871094","-1.03125","0.041992188","-0.4375","-0.8125","3.40625"
"1573642050852","660","0.20996094","-1.0058594","0.09082031","0.0","0.0","3.21875"
"1573642050854","661","0.16894531","-0.96777344","0.038085938","-3.125","-6.25","2.78125"
"1573642050854","662","0.17285156","-0.8574219","0.076171875","-4.84375","-2.15625","5.40625"
"1573642050855","663","0.12597656","-0.765625","-0.015625","-4.46875","-8.75","4.125"
"1573642050855","664","0.13476562","-0.7011719","0.09667969","-9.0","-5.25","7.25"
"1573642050855","665","0.10449219","-0.7578125","0.017578125","-8.1875","-3.875","2.71875"
"1573642050855","666","0.16796875","-0.94433594","0.036132812","-7.21875","8.21875","-5.625"
"1573642050856","667","0.20117188","-0.9794922","0.10253906","-5.8125","7.625","7.5"
"1573642050856","668","0.18652344","-1.0205078","0.0234375","0.40625","5.90625","7.5"
"1573642050856","669","0.24121094","-1.1494141","0.028320312","0.84375","16.53125","4.0"
"1573642051053","670","0.19824219","-1.0410156","0.060546875","0.53125","1.4375","-1.0625"
"1573642051054","671","0.11230469","-0.90527344","0.076171875","-4.78125","-9.15625","-3.875"
"1573642051054","672","0.12109375","-0.9003906","0.049804688","-3.875","-1.1875","-1.65625"
"1573642051055","673","0.16894531","-0.9892578","0.025390625","-0.625","2.96875","-3.375"
"1573642051056","674","0.15429688","-0.9951172","0.028320312","-0.375","0.03125","2.25"
"1573642051056","675","0.15625","-0.97558594","0.022460938","1.8125","0.28125","4.6875"
"1573642051056","676","0.17480469","-0.99609375","0.07128906","-0.625","-1.0625","0.84375"
"1573642051056","677","0.15527344","-1.0068359","0.053710938","-1.0625","-1.59375","-2.15625"
"1573642051057","678","0.123046875","-0.9873047","0.032226562","0.71875","1.3125","0.84375"
"1573642051057","679","0.15039062","-1.0009766","0.068359375","-3.625","-1.78125","2.96875"
"1573642051448","680","0.12207031","-0.96875","0.025390625","-2.34375","0.28125","4.0"
"1573642051449","681","0.13085938","-0.9814453","0.03125","-2.03125","4.6875","6.6875"
"1573642051449","682","0.1875","-1.0009766","0.040039062","-1.25","7.84375","9.25"
"1573642051450","683","0.16210938","-1.0410156","0.072265625","-6.53125","8.40625","12.5"
"1573642051450","684","0.0234375","-0.9433594","0.115234375","-21.9375","0.96875","1.3125"
"1573642051451","685","0.13769531","-1.0556641","-0.001953125","-13.125","3.65625","1.3125"
"1573642051451","686","0.14160156","-1.0273438","-0.033203125","-3.125","-0.25","8.34375"
"1573642051452","687","0.27734375","-1.0244141","-0.07128906","11.8125","6.21875","26.84375"
"1573642051452","688","0.09863281","-0.8701172","0.0146484375","-0.875","-17.34375","20.90625"
"1573642051452","689","-0.03125","-0.7939453","0.040039062","-6.125","-7.65625","-18.8125"
"1573642051846","690","0.095703125","-1.0439453","0.051757812","5.0625","14.9375","-25.34375"
"1573642051846","691","0.19140625","-1.0986328","0.021484375","6.6875","9.5625","1.15625"
"1573642051847","692","0.15625","-0.98339844","0.12402344","0.21875","10.71875","15.96875"
"1573642051847","693","-0.038085938","-0.9296875","0.0029296875","5.40625","2.71875","-19.84375"
"1573642051847","694","0.18164062","-1.1044922","-0.03125","18.34375","5.90625","-9.0625"
"1573642051847","695","0.109375","-0.96484375","0.053710938","7.8125","2.65625","0.0"
"1573642051848","696","0.11328125","-0.92871094","0.078125","6.15625","2.90625","0.65625"
"1573642051849","697","0.17089844","-1.0292969","0.10058594","4.875","3.78125","1.4375"
"1573642051850","698","0.14257812","-1.0322266","0.09667969","2.65625","1.8125","6.6875"
"1573642051850","699","0.06640625","-0.9921875","0.0859375","-0.75","-1.125","8.03125"
"1573642052243","700","0.08203125","-0.95703125","0.08691406","1.21875","1.15625","10.0625"
"1573642052243","701","0.08886719","-0.9814453","0.1015625","0.0","0.84375","7.5625"
"1573642052243","702","0.07519531","-0.9980469","0.10839844","-2.21875","3.15625","0.96875"
"1573642052244","703","0.08984375","-0.94140625","0.11230469","-4.46875","-0.625","-4.03125"
"1573642052244","704","0.09082031","-0.8964844","0.09667969","-4.09375","-1.3125","-7.34375"
"1573642052244","705","0.0859375","-0.89160156","0.06542969","-4.78125","1.6875","-8.9375"
"1573642052244","706","0.068359375","-0.87109375","0.0234375","-2.53125","4.875","-4.15625"
"1573642052245","707","0.16601562","-0.8183594","0.015625","0.09375","2.90625","-3.0625"
"1573642052245","708","0.16308594","-0.8046875","0.060546875","-1.71875","-10.5625","-6.96875"
"1573642052248","709","0.04296875","-0.7871094","0.0546875","-1.65625","-5.09375","-1.34375"
"1573642052641","710","0.08691406","-0.89746094","0.076171875","-1.78125","-1.84375","-4.28125"
"1573642052641","711","0.07714844","-0.9160156","0.0234375","-3.3125","8.53125","-4.65625"
"1573642052641","712","0.20117188","-0.91308594","0.07128906","-4.15625","3.84375","0.28125"
"1573642052642","713","0.1484375","-1.0009766","0.04296875","-2.28125","4.9375","-12.96875"
"1573642052642","714","0.09863281","-1.0410156","0.09375","-6.375","2.1875","-11.71875"
"1573642052642","715","0.11230469","-1.046875","0.08105469","-2.28125","-3.75","-1.84375"
"1573642052643","716","0.09472656","-0.9863281","0.10253906","-7.8125","0.46875","-9.78125"
"1573642052643","717","0.08300781","-1.0849609","0.009765625","-6.4375","-2.59375","-2.875"
"1573642052643","718","0.19042969","-1.09375","0.07910156","-7.71875","3.46875","-6.5"
"1573642052643","719","0.21289062","-1.0927734","0.0625","-6.59375","-0.375","-10.03125"
"1573642053234","720","0.123046875","-1.1220703","0.041992188","-7.09375","2.65625","0.53125"
"1573642053236","721","0.20214844","-1.0302734","0.055664062","-2.40625","6.5","0.09375"
"1573642053236","722","0.1953125","-1.0234375","0.059570312","-5.09375","-7.21875","1.3125"
"1573642053237","723","0.15820312","-1.1044922","0.044921875","-3.0","0.46875","-1.53125"
"1573642053237","724","0.1875","-1.0595703","0.041992188","-1.46875","2.65625","0.65625"
"1573642053238","725","0.17089844","-1.0732422","0.0546875","-4.59375","-7.03125","-0.375"
"1573642053238","726","0.07519531","-1.0751953","0.03125","-0.75","4.75","2.3125"
"1573642053238","727","0.14160156","-1.0546875","0.076171875","1.4375","18.28125","9.6875"
"1573642053239","728","0.27441406","-0.9746094","0.052734375","4.125","-1.96875","-1.40625"
"1573642053239","729","0.024414062","-1.0888672","0.072265625","-2.8125","8.09375","-0.5"
"1573642053435","730","0.21386719","-1.0498047","0.06542969","1.875","0.46875","0.53125"
"1573642053436","731","0.15527344","-0.9980469","0.034179688","-2.8125","-3.625","-2.09375"
"1573642053436","732","0.12890625","-0.9746094","0.08300781","-3.5625","0.15625","-1.78125"
"1573642053436","733","0.14160156","-0.91796875","0.037109375","1.5625","4.1875","-3.0"
"1573642053437","734","0.125","-0.9951172","0.076171875","-0.875","2.65625","-0.125"
"1573642053437","735","0.140625","-0.9638672","0.0625","-1.90625","4.0","-3.90625"
"1573642053437","736","0.16796875","-0.984375","0.053710938","-0.875","1.28125","-0.75"
"1573642053438","737","0.13867188","-0.98828125","0.034179688","-1.125","1.4375","0.65625"
"1573642053438","738","0.15136719","-0.9902344","0.072265625","0.03125","4.5625","1.375"
"1573642053438","739","0.1328125","-1.0","0.064453125","-1.78125","1.03125","-1.65625"
"1573642054030","740","0.15917969","-0.9951172","0.047851562","1.3125","0.65625","0.40625"
"1573642054031","741","0.14257812","-0.9980469","0.045898438","-0.4375","0.40625","2.65625"
"1573642054031","742","0.15136719","-0.97265625","0.064453125","0.40625","0.96875","-1.40625"
"1573642054031","743","0.119140625","-0.97558594","0.0703125","-1.34375","-1.125","0.0"
"1573642054032","744","0.13964844","-0.9980469","0.07714844","0.0","1.21875","0.15625"
"1573642054033","745","0.14453125","-0.9873047","0.02734375","0.65625","2.65625","0.53125"
"1573642054034","746","0.13671875","-1.0029297","0.07128906","-2.8125","-1.46875","-0.5"
"1573642054034","747","0.12792969","-1.0087891","0.05859375","1.09375","4.25","-1.84375"
"1573642054035","748","0.17773438","-1.0634766","0.06640625","-1.1875","1.09375","-0.6875"
"1573642054035","749","0.16699219","-1.0517578","0.0625","-0.5625","-0.9375","-4.90625"
"1573642054229","750","0.140625","-1.0380859","0.06347656","-1.90625","-1.125","-1.25"
"1573642054230","751","0.15820312","-1.0429688","0.06640625","-2.21875","-0.875","-8.25"
"1573642054230","752","0.18261719","-1.0517578","0.07519531","-0.3125","-2.625","-5.875"
"1573642054230","753","0.17675781","-1.0878906","0.05078125","0.15625","-3.0","-4.15625"
"1573642054230","754","0.1640625","-1.0224609","0.051757812","0.59375","-4.78125","-1.96875"
"1573642054231","755","0.13085938","-0.9580078","0.0703125","0.40625","-3.1875","-1.34375"
"1573642054231","756","0.13183594","-0.9892578","0.08886719","-1.84375","0.59375","-4.78125"
"1573642054232","757","0.15234375","-1.0068359","0.049804688","0.46875","8.71875","-6.125"
"1573642054233","758","0.18261719","-1.0029297","0.06542969","-0.625","3.84375","0.65625"
"1573642054233","759","0.17382812","-0.9794922","0.061523438","0.21875","4.3125","-4.34375"
"1573642054628","760","0.16699219","-0.9794922","0.08203125","-0.375","2.65625","-2.59375"
"1573642054628","761","0.15234375","-0.9746094","0.05859375","-0.3125","2.96875","-1.0"
"1573642054629","762","0.17871094","-0.95410156","0.07128906","-1.1875","3.40625","-1.34375"
"1573642054629","763","0.17285156","-0.9589844","0.080078125","-2.09375","1.9375","-1.1875"
"1573642054629","764","0.15234375","-0.96484375","0.056640625","-0.75","3.28125","-3.75"
"1573642054630","765","0.1875","-1.0195312","0.06738281","-0.625","5.71875","-3.375"
"1573642054630","766","0.171875","-0.9970703","0.06347656","-2.09375","0.03125","-1.125"
"1573642054630","767","0.19140625","-0.9892578","0.0625","-3.25","1.375","-3.375"
"1573642054630","768","0.20019531","-1.0146484","0.056640625","-4.84375","0.15625","-6.125"
"1573642054631","769","0.18457031","-1.0283203","0.0859375","-3.375","0.96875","-1.1875"
"1573642055619","770","0.18066406","-1.015625","0.07714844","-3.5","0.0","-4.65625"
"1573642055619","771","0.15234375","-1.0322266","0.048828125","-1.78125","1.3125","-0.75"
"1573642055620","772","0.18945312","-1.0117188","0.064453125","-4.03125","4.3125","-0.125"
"1573642055620","773","0.19726562","-1.0039062","0.05859375","-4.53125","5.1875","-3.96875"
"1573642055620","774","0.1953125","-1.0039062","0.057617188","-4.65625","0.90625","-2.6875"
"1573642055620","775","0.19921875","-0.9746094","0.068359375","-4.09375","-0.3125","-2.15625"
"1573642055621","776","0.19238281","-0.97265625","0.059570312","-4.21875","-3.1875","-0.25"
"1573642055621","777","0.17675781","-0.97753906","0.06738281","-2.53125","-2.875","0.65625"
"1573642055621","778","0.15234375","-0.9580078","0.0146484375","-4.84375","-2.21875","2.0"
"1573642055621","779","0.18359375","-0.9169922","0.018554688","-5.8125","-1.3125","4.1875"
"1573642056015","780","0.15039062","-0.8066406","0.03515625","-5.9375","-4.53125","4.3125"
"1573642056017","781","0.09277344","-0.73535156","0.055664062","-6.59375","-4.59375","8.03125"
"1573642056017","782","0.072265625","-0.75878906","0.061523438","-6.59375","5.1875","6.46875"
"1573642056017","783","0.15234375","-0.875","0.05078125","-8.625","3.28125","-1.125"
"1573642056018","784","0.2109375","-0.9121094","0.10644531","-7.78125","8.78125","-2.8125"
"1573642056018","785","0.18554688","-1.0195312","0.041015625","-5.6875","-6.1875","0.71875"
"1573642056019","786","0.3076172","-1.2519531","-0.0703125","0.0","4.8125","2.4375"
"1573642056020","787","0.28515625","-1.0429688","0.045898438","-3.0","-13.375","1.15625"
"1573642056020","788","0.07714844","-0.8574219","0.040039062","-3.5","-10.5","0.15625"
"1573642056020","789","0.09277344","-0.86816406","0.06933594","-0.625","1.09375","-0.625"
"1573642056020","790","0.17578125","-1.0","0.05859375","1.03125","7.375","-2.34375"
"1573642056021","791","0.10058594","-0.98339844","0.0087890625","-0.75","3.28125","2.0"
"1573642056021","792","0.14257812","-0.97558594","-0.018554688","3.03125","2.4375","9.375"
"1573642056021","793","0.20117188","-0.9980469","0.026367188","3.78125","4.75","3.46875"
"1573642056022","794","0.16113281","-1.0195312","0.032226562","-0.125","3.40625","-2.34375"
"1573642056022","795","0.16015625","-1.0136719","0.0048828125","1.15625","0.28125","-0.125"
"1573642056022","796","0.18359375","-0.9951172","0.09863281","-1.84375","0.21875","0.90625"
"1573642056022","797","0.10449219","-0.9550781","0.026367188","-1.3125","-2.8125","1.03125"
"1573642056023","798","0.08886719","-0.97753906","0.02734375","0.03125","4.875","5.34375"
"1573642056023","799","0.107421875","-0.9765625","0.03515625","-0.375","10.125","5.125"
"1573642056611","800","0.17382812","-0.9980469","0.018554688","0.71875","11.40625","0.96875"
"1573642056612","801","0.19628906","-1.0136719","0.038085938","-0.3125","4.1875","0.28125"
"1573642056612","802","0.17285156","-0.9902344","0.033203125","-0.75","-0.0625","-1.90625"
"1573642056613","803","0.10253906","-0.94628906","0.12011719","-7.78125","2.0","-3.75"
"1573642056613","804","0.13378906","-1.0410156","-0.03515625","7.5","1.4375","-1.40625"
"1573642056615","805","0.043945312","-1.2070312","0.31347656","-15.53125","18.46875","37.71875"
"1573642056616","806","0.16894531","-1.4677734","-0.15039062","-14.84375","29.53125","88.0"
"1573642056616","807","0.4169922","-0.61621094","0.04296875","-2.75","-24.78125","53.15625"
"1573642056616","808","-0.16113281","-0.3720703","-0.0107421875","-11.1875","-32.4375","-11.90625"
"1573642056616","809","-0.19140625","-0.7324219","0.0","13.71875","6.46875","-50.6875"
"1573642056810","810","0.055664062","-1.1806641","-0.03125","25.875","31.25","-83.875"
"1573642056811","811","0.44335938","-1.4365234","0.23046875","1.03125","-3.5","-53.65625"
"1573642056811","812","-0.2265625","-0.88378906","0.11230469","-12.40625","10.84375","8.84375"
"1573642056811","813","0.04296875","-0.8466797","0.2578125","-17.03125","38.9375","7.375"
"1573642056811","814","0.67578125","-1.3261719","-0.17089844","16.21875","4.0625","13.71875"
"1573642056812","815","0.16894531","-1.0898438","0.047851562","6.21875","-9.59375","10.71875"
"1573642056812","816","0.026367188","-0.71484375","0.0859375","-6.84375","-28.46875","-12.59375"
"1573642056814","817","-0.053710938","-0.80078125","0.12207031","-1.25","3.15625","-7.46875"
"1573642056814","818","0.07714844","-1.1982422","0.11816406","6.21875","23.125","2.65625"
"1573642056814","819","0.26660156","-1.1181641","0.049804688","-1.25","10.53125","7.125"
"1573642057411","820","0.25683594","-0.9394531","0.046875","-1.59375","-8.75","12.0625"
"1573642057412","821","0.123046875","-0.91503906","0.09375","-3.25","-18.6875","0.65625"
"1573642057412","822","0.033203125","-0.98046875","0.09667969","-3.5","-9.40625","-9.84375"
"1573642057412","823","0.11816406","-0.9902344","0.07519531","2.71875","-3.5625","0.90625"
"1573642057413","824","0.10839844","-0.99121094","0.040039062","-0.875","-3.1875","5.65625"
"1573642057413","825","0.07714844","-0.9355469","0.0234375","-4.15625","-3.5625","1.6875"
"1573642057413","826","0.10253906","-0.8808594","0.021484375","-4.71875","-2.03125","-2.34375"
"1573642057413","827","0.13183594","-0.83691406","0.051757812","-4.53125","-1.40625","-2.40625"
"1573642057414","828","0.12695312","-0.7949219","0.052734375","-6.90625","-8.625","-4.34375"
"1573642057415","829","0.11425781","-0.81152344","0.055664062","-10.15625","-9.71875","-6.53125"
"1573642057608","830","0.036132812","-0.8144531","0.02734375","-3.96875","1.375","0.84375"
"1573642057609","831","0.051757812","-0.79589844","0.043945312","-4.28125","10.78125","8.15625"
"1573642057609","832","0.1796875","-0.90527344","0.005859375","-3.875","3.84375","-13.5"
"1573642057609","833","0.119140625","-0.8769531","0.028320312","-6.25","2.65625","-5.21875"
"1573642057609","834","0.19140625","-0.91503906","0.10058594","-0.75","1.5625","2.78125"
"1573642057610","835","0.03515625","-0.8046875","0.026367188","-4.59375","2.59375","-9.53125"
"1573642057610","836","0.17480469","-0.9785156","0.07421875","0.84375","6.03125","-7.53125"
"1573642057610","837","0.083984375","-1.109375","0.05078125","1.3125","7.5","-8.4375"
"1573642057611","838","0.15625","-1.1875","0.03515625","3.40625","8.15625","-5.09375"
"1573642057611","839","0.14941406","-1.1894531","0.072265625","4.9375","8.03125","-0.75"
"1573642058002","840","0.15625","-1.0957031","0.09863281","6.6875","12.0625","3.90625"
"1573642058004","841","0.23339844","-1.0966797","0.109375","3.21875","11.59375","-7.34375"
"1573642058004","842","0.15429688","-1.1074219","0.04296875","0.65625","1.3125","-2.59375"
"1573642058004","843","0.17773438","-1.1152344","0.11621094","2.96875","8.21875","-4.15625"
"1573642058005","844","0.08105469","-1.0341797","0.091796875","0.65625","6.28125","-12.65625"
"1573642058005","845","0.14453125","-1.1347656","0.07714844","2.96875","10.375","0.21875"
"1573642058005","846","0.15039062","-1.0986328","0.1015625","-1.65625","16.09375","-2.6875"
"1573642058005","847","0.24804688","-1.0761719","0.076171875","1.375","4.4375","4.875"
"1573642058006","848","0.22070312","-1.0546875","0.091796875","-1.46875","-0.25","-2.8125"
"1573642058006","849","0.18066406","-1.0507812","0.080078125","-1.40625","-6.4375","-1.59375"
"1573642058405","850","0.17285156","-1.0390625","0.08691406","1.5","-3.875","5.125"
"1573642058405","851","0.11425781","-0.95703125","0.07910156","1.28125","-6.0","3.21875"
"1573642058406","852","0.12792969","-0.9404297","0.095703125","2.3125","-0.75","3.65625"
"1573642058407","853","0.13378906","-0.93652344","0.09277344","2.84375","1.3125","-0.6875"
"1573642058407","854","0.14257812","-0.96777344","0.09082031","1.5","3.46875","1.15625"
"1573642058408","855","0.1484375","-0.984375","0.10253906","1.3125","1.5625","0.0"
"1573642058408","856","0.14746094","-0.9863281","0.103515625","0.03125","2.84375","1.4375"
"1573642058408","857","0.15234375","-1.0009766","0.07324219","2.0","4.0","0.90625"
"1573642058408","858","0.15429688","-1.0166016","0.10644531","0.28125","0.65625","-0.875"
"1573642058409","859","0.13378906","-1.0126953","0.107421875","0.28125","2.125","-0.375"
"1573642058802","860","0.14160156","-0.9921875","0.099609375","-0.625","1.28125","-2.03125"
"1573642058802","861","0.16503906","-0.97558594","0.09667969","-1.34375","1.28125","-2.09375"
"1573642058802","862","0.16601562","-0.97753906","0.087890625","-3.5","0.65625","-3.6875"
"1573642058803","863","0.12011719","-0.97753906","0.091796875","-5.8125","2.0625","-2.40625"
"1573642058803","864","0.16308594","-0.98046875","0.09765625","-5.21875","5.1875","-2.625"
"1573642058804","865","0.13964844","-0.9921875","0.0859375","-4.53125","2.90625","-5.4375"
"1573642058805","866","0.16699219","-1.0449219","0.111328125","-3.8125","5.59375","-4.84375"
"1573642058805","867","0.18066406","-1.0634766","0.11328125","-7.09375","1.6875","-7.875"
"1573642058805","868","0.21972656","-1.0878906","0.09082031","-9.0","-2.9375","-8.3125"
"1573642058805","869","0.18359375","-1.0439453","0.09667969","-6.53125","-4.09375","-10.15625"
"1573642059397","870","0.14648438","-1.0400391","0.0859375","-9.65625","-10.75","-2.34375"
"1573642059397","871","0.18164062","-1.0839844","0.061523438","-3.1875","2.375","-5.9375"
"1573642059397","872","0.20117188","-1.0527344","0.07421875","-7.03125","-1.125","-3.1875"
"1573642059398","873","0.15429688","-0.9921875","0.0625","-7.03125","3.34375","-2.75"
"1573642059398","874","0.19140625","-0.99609375","0.091796875","-5.21875","7.75","-1.96875"
"1573642059398","875","0.17480469","-0.9941406","0.044921875","-5.75","0.59375","-0.5625"
"1573642059398","876","0.18457031","-0.97558594","0.052734375","-1.1875","7.4375","-0.375"
"1573642059400","877","0.20117188","-1.0","0.068359375","-3.4375","5.84375","0.0"
"1573642059401","878","0.19628906","-1.0136719","0.07910156","-5.5625","2.125","-3.125"
"1573642059401","879","0.20019531","-0.9941406","0.06542969","-1.71875","6.875","-2.75"
"1573642059596","880","0.13964844","-0.9921875","0.028320312","-1.40625","5.0625","6.03125"
"1573642059597","881","0.17675781","-0.9658203","0.11425781","-0.25","9.1875","1.75"
"1573642059597","882","0.16113281","-0.9736328","0.03515625","-0.5","3.9375","0.03125"
"1573642059597","883","0.20410156","-0.9824219","0.083984375","-0.75","3.28125","-1.3125"
"1573642059597","884","0.15429688","-0.953125","0.068359375","-0.625","2.71875","1.4375"
"1573642059598","885","0.18164062","-0.96484375","0.07324219","-0.25","2.4375","1.3125"
"1573642059598","886","0.16308594","-0.97558594","0.056640625","-1.1875","1.28125","2.375"
"1573642059598","887","0.18164062","-0.96191406","0.064453125","-0.25","0.15625","1.75"
"1573642059598","888","0.17480469","-0.96972656","0.057617188","0.84375","-0.125","1.09375"
"1573642059599","889","0.16308594","-0.9765625","0.07421875","0.84375","-0.125","4.25"
"1573642059993","890","0.1484375","-0.9628906","0.064453125","1.21875","0.09375","4.0"
"1573642059994","891","0.18359375","-1.0","0.08691406","0.71875","1.8125","4.375"
"1573642059994","892","0.14160156","-0.98046875","0.0234375","1.28125","-3.1875","1.5625"
"1573642059994","893","0.17382812","-0.9550781","0.09375","-1.40625","-6.0","4.4375"
"1573642059994","894","0.1484375","-0.9013672","0.061523438","1.625","-7.21875","4.25"
"1573642059995","895","0.14550781","-0.92285156","0.07714844","-0.8125","-10.15625","3.65625"
"1573642059995","896","0.11230469","-0.9111328","0.048828125","-0.875","-9.21875","2.71875"
"1573642059995","897","0.16210938","-0.92285156","0.083984375","-1.125","-11.84375","3.34375"
"1573642059995","898","0.09375","-0.8984375","0.06347656","-3.1875","-12.65625","0.09375"
"1573642059996","899","0.09863281","-0.9003906","0.07519531","-3.625","-9.53125","4.25"
"1573642060393","900","0.10839844","-0.9042969","0.06347656","-5.375","-3.4375","2.65625"
"1573642060394","901","0.12597656","-0.9033203","0.053710938","-7.78125","-3.625","-0.8125"
"1573642060395","902","0.12402344","-0.890625","0.09082031","-7.46875","1.3125","-0.5"
"1573642060395","903","0.11035156","-0.96191406","0.05859375","-8.0625","7.84375","-2.6875"
"1573642060395","904","0.22070312","-1.1298828","-0.013671875","-4.96875","25.625","-6.71875"
"1573642060396","905","0.41308594","-1.0898438","0.08886719","5.53125","7.5625","-5.09375"
"1573642060396","906","0.17773438","-0.90722656","0.072265625","0.71875","-23.875","0.21875"
"1573642060397","907","0.028320312","-0.9003906","0.08984375","-1.96875","-12.03125","0.0"
"1573642060397","908","0.00390625","-0.99609375","0.09667969","0.65625","4.4375","0.28125"
"1573642060397","909","0.095703125","-1.0263672","0.028320312","2.25","15.1875","7.25"
"1573642060987","910","0.22070312","-0.98828125","0.01171875","0.03125","9.25","4.1875"
"1573642060988","911","0.23730469","-0.9609375","0.034179688","-1.78125","-4.90625","-3.0"
"1573642060988","912","0.14257812","-1.015625","0.048828125","-2.40625","-10.5","-6.5"
"1573642060989","913","0.123046875","-1.0390625","0.060546875","-5.09375","-5.8125","-2.34375"
"1573642060990","914","0.14746094","-1.0068359","0.038085938","-4.34375","-1.34375","-3.3125"
"1573642060990","915","0.115234375","-0.9863281","0.045898438","-6.71875","-0.9375","-1.84375"
"1573642060990","916","0.10449219","-0.97753906","0.046875","-7.8125","1.3125","-0.25"
"1573642060991","917","0.14648438","-0.9638672","0.044921875","-6.3125","6.9375","-2.09375"
"1573642060991","918","0.16894531","-0.984375","0.040039062","-3.1875","5.40625","-3.96875"
"1573642060991","919","0.17578125","-0.98046875","0.041015625","-4.71875","2.90625","-1.53125"
"1573642061186","920","0.16699219","-0.9863281","0.04296875","-5.3125","-1.1875","-1.46875"
"1573642061186","921","0.15917969","-1.0078125","0.048828125","-3.4375","-1.71875","-1.3125"
"1573642061186","922","0.12695312","-0.9863281","0.01171875","-2.21875","1.28125","-1.25"
"1573642061186","923","0.14746094","-0.9814453","0.0546875","-4.40625","1.75","-0.875"
"1573642061187","924","0.16992188","-0.9765625","0.0146484375","-1.96875","6.875","-1.65625"
"1573642061188","925","0.16503906","-0.98046875","0.045898438","-3.6875","3.84375","-0.25"
"1573642061188","926","0.14746094","-0.9765625","0.033203125","-2.6875","2.1875","-1.3125"
"1573642061188","927","0.18359375","-1.0048828","0.029296875","-0.9375","5.1875","-1.1875"
"1573642061189","928","0.14941406","-0.9550781","0.043945312","4.0625","8.34375","1.375"
"1573642061189","929","0.12695312","-0.9814453","0.05078125","7.90625","8.34375","3.09375"
"1573642061781","930","0.17285156","-1.0214844","0.046875","5.0625","13.28125","0.78125"
"1573642061782","931","0.15429688","-0.9785156","0.0625","0.40625","-0.25","-2.625"
"1573642061782","932","0.16210938","-0.9785156","0.041015625","5.1875","-0.5","-0.5625"
"1573642061782","933","0.1640625","-0.9716797","0.051757812","6.03125","3.21875","0.90625"
"1573642061782","934","0.11035156","-0.9785156","0.08203125","1.9375","-1.34375","2.25"
"1573642061783","935","0.12792969","-0.99609375","0.06347656","-0.375","0.59375","2.65625"
"1573642061783","936","0.15820312","-0.98046875","0.028320312","-0.5625","2.84375","-0.8125"
"1573642061784","937","0.12207031","-0.9472656","0.064453125","-4.59375","-3.0","-0.4375"
"1573642061785","938","0.11621094","-0.9404297","0.043945312","1.15625","6.15625","0.71875"
"1573642061785","939","0.12695312","-0.91503906","0.049804688","-1.25","2.59375","2.0625"
"1573642061981","940","0.13476562","-0.9248047","0.06738281","-1.46875","5.96875","-0.5"
"1573642061982","941","0.13671875","-0.9238281","0.04296875","-2.03125","9.3125","0.21875"
"1573642061982","942","0.17871094","-0.9238281","0.076171875","-2.59375","4.75","-1.90625"
"1573642061983","943","0.11425781","-0.94628906","0.059570312","-2.28125","0.65625","-2.59375"
"1573642061983","944","0.15136719","-0.890625","0.06738281","0.84375","6.46875","4.5625"
"1573642061983","945","0.13671875","-0.8642578","0.034179688","2.5625","1.625","3.34375"
"1573642061983","946","0.12890625","-0.9042969","0.055664062","0.71875","3.78125","0.09375"
"1573642061984","947","0.140625","-0.88964844","0.060546875","2.375","3.46875","-4.96875"
"1573642061984","948","0.13183594","-0.87109375","0.0546875","2.3125","0.21875","5.21875"
"1573642061984","949","0.15917969","-0.8623047","0.10058594","6.03125","6.6875","3.40625"
"1573642062579","950","0.0703125","-0.8203125","0.044921875","3.40625","0.21875","1.09375"
"1573642062579","951","0.15234375","-0.87402344","0.06933594","7.90625","8.34375","5.21875"
"1573642062579","952","0.12597656","-0.8876953","0.08984375","9.4375","-0.1875","-0.5625"
"1573642062580","953","0.13378906","-0.9560547","0.115234375","9.5625","2.71875","5.59375"
"1573642062580","954","0.14160156","-0.99902344","0.14648438","12.625","1.3125","0.90625"
"1573642062580","955","0.08496094","-1.0341797","0.15234375","8.21875","0.0","9.125"
"1573642062581","956","0.09375","-1.1630859","0.16796875","8.46875","6.03125","-0.5625"
"1573642062581","957","0.123046875","-1.0976562","0.17285156","5.65625","0.71875","4.0"
"1573642062581","958","0.08203125","-1.1220703","0.21875","1.375","-0.4375","1.5625"
"1573642062581","959","0.059570312","-1.0859375","0.19921875","-1.84375","2.78125","-3.4375"
"1573642062777","960","0.12109375","-1.1494141","0.21484375","-4.90625","1.4375","-1.46875"
"1573642062779","961","0.08691406","-1.0400391","0.12402344","-5.375","1.5625","-11.0"
"1573642062780","962","0.18847656","-1.1308594","0.21386719","-9.59375","4.3125","-6.125"
"1573642062780","963","0.07128906","-1.0986328","0.13378906","-11.0625","1.03125","-13.8125"
"1573642062780","964","0.11425781","-1.0703125","0.1015625","-10.5625","6.625","-5.8125"
"1573642062781","965","0.21679688","-1.0234375","0.13769531","-9.21875","5.96875","-12.15625"
"1573642062781","966","0.18652344","-1.0644531","0.072265625","-10.5625","3.9375","-16.0"
"1573642062781","967","0.19042969","-1.09375","0.07910156","-12.40625","-1.84375","-9.65625"
"1573642062781","968","0.203125","-1.0253906","0.033203125","-10.5625","-4.21875","-8.3125"
"1573642062782","969","0.20703125","-0.99902344","0.0625","-6.375","-2.59375","1.3125"
"1573642063175","970","0.15039062","-0.9394531","0.080078125","-5.875","-4.59375","0.65625"
"1573642063176","971","0.107421875","-0.92578125","0.08984375","-6.59375","-7.09375","-3.3125"
"1573642063176","972","0.13183594","-0.96875","0.08691406","-5.375","2.59375","1.3125"
"1573642063177","973","0.17089844","-0.97558594","0.053710938","-3.75","0.15625","-0.6875"
"1573642063178","974","0.20410156","-0.97265625","0.11035156","-5.03125","5.1875","-3.96875"
"1573642063178","975","0.13085938","-0.9707031","0.08886719","-3.3125","0.71875","0.90625"
"1573642063178","976","0.17285156","-1.0068359","0.068359375","-5.25","5.40625","-0.8125"
"1573642063178","977","0.17480469","-1.0078125","0.078125","-5.15625","3.9375","-1.34375"
"1573642063179","978","0.16699219","-1.0224609","0.07519531","-4.21875","2.96875","-2.40625"
"1573642063179","979","0.16601562","-0.9765625","0.07519531","-3.375","1.9375","-1.0625"
"1573642063572","980","0.15234375","-0.97265625","0.06933594","-2.46875","1.8125","-0.8125"
"1573642063572","981","0.16699219","-0.9707031","0.0703125","-0.875","5.0","-1.53125"
"1573642063573","982","0.14550781","-0.99316406","0.07128906","-2.75","2.0","-1.84375"
"1573642063576","983","0.16894531","-1.0009766","0.09277344","-2.09375","3.71875","-3.875"
"1573642063576","984","0.1796875","-0.9970703","0.087890625","-2.6875","1.5","-2.59375"
"1573642063578","985","0.15429688","-1.0332031","0.06738281","-1.3125","0.21875","-2.34375"
"1573642063579","986","0.16601562","-1.0449219","0.061523438","-2.75","-1.90625","-3.4375"
"1573642063579","987","0.21289062","-0.9951172","0.09667969","-0.625","-1.125","0.09375"
"1573642063579","988","0.19042969","-0.98828125","0.041015625","-0.8125","-4.46875","-4.34375"
"1573642063579","989","0.18261719","-1.0205078","0.07324219","0.96875","-3.6875","-0.25"
"1573642064168","990","0.17285156","-1.0195312","0.06640625","2.3125","3.78125","4.375"
"1573642064169","991","0.15722656","-0.9794922","0.08105469","1.75","0.28125","-1.46875"
"1573642064169","992","0.16699219","-1.0341797","0.060546875","2.0","4.4375","4.5625"
"1573642064169","993","0.1796875","-0.98828125","0.09667969","2.125","2.1875","2.5"
"1573642064170","994","0.18554688","-1.0","0.07714844","1.5","4.875","1.875"
"1573642064170","995","0.1953125","-1.0087891","0.103515625","1.5625","-0.9375","-3.5"
"1573642064170","996","0.109375","-1.0185547","0.041015625","-0.1875","1.9375","4.6875"
"1573642064172","997","0.21191406","-1.0136719","0.11621094","1.6875","6.34375","0.40625"
"1573642064172","998","0.17578125","-1.0019531","0.06640625","-2.875","0.40625","0.09375"
"1573642064172","999","0.17675781","-1.0244141","0.080078125","-4.21875","1.75","-6.25"
"1573642064368","1000","0.1484375","-0.99609375","0.05859375","-6.84375","2.78125","2.4375"
"1573642064368","1001","0.17089844","-0.9433594","0.08886719","-5.5","7.96875","-1.90625"
"1573642064368","1002","0.15039062","-0.9404297","0.055664062","-5.03125","1.28125","1.5"
"1573642064368","1003","0.15917969","-0.9248047","0.083984375","-5.8125","6.15625","-0.5"
"1573642064369","1004","0.14160156","-0.94628906","0.07128906","-5.21875","1.375","-2.21875"
"1573642064369","1005","0.1328125","-1.0361328","0.051757812","-4.53125","7.84375","0.65625"
"1573642064369","1006","0.19335938","-0.984375","0.072265625","-4.03125","2.78125","-0.5"
"1573642064370","1007","0.19824219","-0.97558594","0.083984375","-6.0","-1.40625","-2.6875"
"1573642064370","1008","0.15136719","-0.98535156","0.051757812","-6.0","-6.4375","-4.65625"
"1573642064370","1009","0.18359375","-0.9941406","0.08300781","-7.40625","-4.71875","-2.28125"
"1573642064764","1010","0.16015625","-1.0107422","0.045898438","-6.53125","-5.5625","-1.53125"
"1573642064764","1011","0.16796875","-1.046875","0.049804688","-4.21875","-1.125","0.34375"
"1573642064764","1012","0.18457031","-1.0351562","0.051757812","-5.09375","-1.3125","0.96875"
"1573642064765","1013","0.17675781","-1.0332031","0.048828125","-3.8125","-0.875","-2.875"
"1573642064765","1014","0.15625","-1.0390625","0.02734375","-3.96875","0.96875","0.03125"
"1573642064765","1015","0.19628906","-1.0175781","0.0546875","-2.34375","0.40625","-2.75"
"1573642064766","1016","0.15429688","-0.9824219","0.0390625","-0.3125","-0.6875","-2.8125"
"1573642064766","1017","0.15722656","-0.9970703","0.072265625","2.65625","-1.84375","0.09375"
"1573642064766","1018","0.14746094","-0.98535156","0.0234375","1.28125","-2.03125","-0.1875"
"1573642064766","1019","0.18847656","-0.98535156","0.0859375","0.71875","-2.21875","0.0"
"1573642065358","1020","0.13964844","-0.9316406","9.765625E-4","-1.0625","-5.6875","-3.625"
"1573642065359","1021","0.17578125","-0.8847656","0.06347656","-2.8125","-10.875","1.21875"
"1573642065360","1022","0.15136719","-0.79296875","0.0234375","-2.28125","-11.78125","0.0"
"1573642065361","1023","0.115234375","-0.8144531","-0.0068359375","-3.8125","-11.78125","1.5"
"1573642065361","1024","0.14550781","-0.8701172","0.022460938","-5.5","-2.8125","2.90625"
"1573642065361","1025","0.16503906","-0.8935547","0.025390625","-4.78125","1.03125","0.71875"
"1573642065361","1026","0.09082031","-0.86328125","0.034179688","-0.6875","0.09375","7.5"
"1573642065362","1027","0.032226562","-0.8886719","0.052734375","2.3125","7.5","13.15625"
"1573642065362","1028","0.09863281","-1.1220703","0.015625","0.84375","28.4375","8.03125"
"1573642065362","1029","0.31835938","-1.125","0.055664062","-0.9375","31.96875","6.03125"
"1573642065558","1030","0.34277344","-0.9082031","0.11816406","-1.71875","-5.4375","-6.0"
"1573642065559","1031","0.16992188","-0.89941406","0.064453125","-1.0","-22.65625","-10.4375"
"1573642065559","1032","0.017578125","-1.0302734","0.0146484375","-0.0625","-14.96875","-0.5"
"1573642065559","1033","0.043945312","-1.0205078","0.038085938","1.3125","0.96875","8.59375"
"1573642065560","1034","0.111328125","-0.9580078","0.021484375","0.96875","11.40625","9.25"
"1573642065560","1035","0.22167969","-0.98339844","0.02734375","-0.5625","7.0625","-0.8125"
"1573642065560","1036","0.21484375","-1.0009766","0.038085938","-2.28125","-4.34375","-9.15625"
"1573642065561","1037","0.13671875","-1.0136719","0.038085938","-4.15625","-9.65625","-6.90625"
"1573642065561","1038","0.140625","-1.0244141","0.053710938","-4.84375","0.78125","-3.75"
"1573642065561","1039","0.13085938","-0.9892578","0.032226562","-7.28125","-1.78125","-0.8125"
"1573642066750","1040","0.10546875","-0.9902344","0.018554688","-6.0","2.78125","0.21875"
"1573642066751","1041","0.12988281","-0.9970703","0.013671875","-6.0","6.625","1.3125"
"1573642066751","1042","0.16992188","-0.9746094","0.0390625","-5.75","5.59375","-1.65625"
"1573642066751","1043","0.16601562","-0.9736328","0.036132812","-6.71875","2.4375","-4.84375"
"1573642066751","1044","0.171875","-0.9892578","0.0390625","-6.78125","0.21875","-5.75"
"1573642066754","1045","0.14648438","-0.9863281","0.0078125","-5.9375","-0.4375","-2.28125"
"1573642066755","1046","0.16015625","-0.9980469","0.026367188","-4.65625","-1.40625","-2.625"
"1573642066755","1047","0.16503906","-0.99902344","0.0029296875","-1.34375","0.34375","-1.0625"
"1573642066755","1048","0.15136719","-0.9902344","0.022460938","-3.90625","-1.46875","0.53125"
"1573642066756","1049","0.15234375","-0.9892578","0.0068359375","-4.03125","0.21875","0.0"
"1573642066948","1050","0.18359375","-1.0087891","0.017578125","-3.1875","2.59375","0.09375"
"1573642066948","1051","0.16503906","-0.9892578","0.01953125","-2.75","-0.375","-0.625"
"1573642066949","1052","0.15625","-0.99609375","0.013671875","-2.34375","-1.90625","0.03125"
"1573642066950","1053","0.17285156","-0.99121094","0.0146484375","-2.09375","-1.53125","1.03125"
"1573642066950","1054","0.16601562","-0.9863281","0.0","-0.6875","-0.75","0.96875"
"1573642066950","1055","0.14355469","-0.9736328","0.0146484375","-0.8125","-0.1875","1.4375"
"1573642066950","1056","0.12890625","-0.9746094","0.0146484375","0.46875","4.0","2.65625"
"1573642066951","1057","0.13085938","-0.9658203","0.0029296875","1.375","3.40625","3.65625"
"1573642066951","1058","0.1484375","-0.96972656","0.057617188","-1.96875","6.03125","1.75"
"1573642066951","1059","0.12890625","-0.9472656","9.765625E-4","-0.875","0.0","-1.53125"
"1573642067145","1060","0.14257812","-0.93359375","0.021484375","-1.0","1.8125","0.0"
"1573642067145","1061","0.12207031","-0.8720703","0.028320312","-2.03125","2.375","0.40625"
"1573642067146","1062","0.076171875","-0.85839844","-0.03515625","0.40625","6.46875","0.28125"
"1573642067146","1063","0.1015625","-0.8671875","-0.022460938","-2.59375","11.53125","2.4375"
"1573642067146","1064","0.15625","-0.86621094","0.030273438","-2.46875","15.0","-1.84375"
"1573642067146","1065","0.14648438","-0.7792969","0.018554688","1.6875","10.84375","8.28125"
"1573642067147","1066","0.21484375","-0.7861328","-9.765625E-4","5.59375","-5.6875","4.1875"
"1573642067147","1067","0.04296875","-0.8017578","0.024414062","7.75","-5.375","2.1875"
"1573642067147","1068","0.064453125","-0.9472656","9.765625E-4","5.21875","5.34375","-5.21875"
"1573642067148","1069","0.16894531","-0.95410156","0.059570312","5.40625","10.59375","-5.15625"
"1573642067346","1070","0.19042969","-1.0322266","0.07714844","8.84375","5.125","6.46875"
"1573642067346","1071","0.095703125","-0.9707031","0.018554688","3.84375","-1.84375","-3.375"
"1573642067346","1072","0.13476562","-1.0244141","0.038085938","5.90625","4.125","5.90625"
"1573642067347","1073","0.109375","-1.0205078","0.072265625","0.84375","3.21875","6.6875"
"1573642067347","1074","0.09765625","-1.0478516","0.08496094","-1.53125","1.15625","-2.46875"
"1573642067347","1075","0.08984375","-1.1347656","0.06738281","-4.96875","8.09375","-3.3125"
"1573642067347","1076","0.15527344","-1.1298828","0.16015625","-3.625","-2.28125","-1.34375"
"1573642067348","1077","0.10644531","-1.2158203","0.048828125","-10.625","3.71875","-7.53125"
"1573642067348","1078","0.095703125","-1.2226562","0.087890625","-7.21875","22.625","4.0625"
"1573642067348","1079","0.31933594","-1.1464844","-9.765625E-4","7.90625","2.90625","27.21875"
"1573642067546","1080","0.23144531","-0.9716797","0.04296875","1.15625","-9.78125","5.0"
"1573642067547","1081","0.09667969","-1.0244141","0.045898438","-1.25","-26.125","-4.59375"
"1573642067547","1082","-0.03515625","-1.0244141","0.06933594","1.9375","-7.21875","-8.3125"
"1573642067547","1083","0.07421875","-0.9375","0.06347656","1.21875","1.3125","1.5625"
"1573642067548","1084","0.064453125","-0.9824219","0.0703125","-0.9375","4.75","0.21875"
"1573642067548","1085","0.13183594","-1.0097656","0.03125","1.15625","10.46875","0.34375"
"1573642067548","1086","0.16894531","-1.0800781","0.044921875","0.84375","6.875","-0.75"
"1573642067549","1087","0.18457031","-1.0771484","0.044921875","0.59375","-4.71875","-3.375"
"1573642067552","1088","-0.0087890625","-1.0800781","0.10839844","-5.25","10.65625","-7.46875"
"1573642067554","1089","0.13378906","-1.0830078","0.01953125","1.5","0.53125","1.8125"
"1573642068143","1090","0.16796875","-1.0361328","0.041015625","-8.875","3.28125","-6.65625"
"1573642068144","1091","0.09863281","-0.99121094","0.041992188","-6.90625","-0.5625","-3.5625"
"1573642068144","1092","0.11035156","-0.9423828","0.06347656","-4.65625","1.3125","-1.0"
"1573642068145","1093","0.12109375","-0.93652344","0.021484375","-8.125","0.71875","-6.125"
"1573642068145","1094","0.12207031","-0.97753906","0.08203125","-8.75","5.28125","-10.34375"
"1573642068146","1095","0.11230469","-0.9667969","0.029296875","-10.75","1.3125","-6.96875"
"1573642068146","1096","0.20214844","-1.0390625","0.043945312","-9.21875","5.96875","-13.5625"
"1573642068146","1097","0.123046875","-1.0478516","0.022460938","-9.125","2.71875","-5.375"
"1573642068147","1098","0.14746094","-1.0195312","0.030273438","-6.53125","3.03125","-0.625"
"1573642068147","1099","0.20019531","-1.0419922","0.03125","-7.53125","-2.6875","-6.125"
"1573642068342","1100","0.19628906","-1.0693359","0.013671875","-6.125","-6.0625","-11.71875"
"1573642068342","1101","0.17675781","-1.0439453","0.013671875","-5.6875","-5.9375","-10.09375"
"1573642068343","1102","0.16503906","-1.0449219","0.0146484375","-3.375","-9.0625","-8.625"
"1573642068343","1103","0.19335938","-1.0517578","-0.0029296875","-3.6875","-5.3125","-7.40625"
"1573642068343","1104","0.20117188","-1.0556641","0.021484375","-3.1875","-3.3125","-7.46875"
"1573642068344","1105","0.16796875","-0.97753906","-0.036132812","-1.53125","-6.1875","-5.5"
"1573642068345","1106","0.17578125","-0.9667969","0.0390625","-1.65625","-1.59375","-2.6875"
"1573642068345","1107","0.20117188","-0.9765625","0.009765625","-0.625","4.125","-6.84375"
"1573642068345","1108","0.20507812","-1.0302734","0.03125","-1.3125","3.28125","-5.875"
"1573642068346","1109","0.15917969","-1.0166016","0.01171875","-1.78125","4.5","1.4375"
"1573642069333","1110","0.20410156","-1.0078125","0.0","-1.3125","6.9375","2.375"
"1573642069334","1111","0.20996094","-0.99316406","0.015625","-0.0625","3.65625","-1.53125"
"1573642069334","1112","0.18847656","-0.9472656","0.001953125","0.46875","3.71875","-0.375"
"1573642069334","1113","0.15429688","-0.96875","0.021484375","0.84375","1.3125","2.3125"
"1573642069334","1114","0.18847656","-0.9589844","0.017578125","2.4375","7.8125","2.0"
"1573642069335","1115","0.21972656","-0.9550781","0.025390625","2.65625","2.0","3.09375"
"1573642069335","1116","0.16796875","-0.95703125","0.013671875","1.8125","-1.65625","2.0"
"1573642069336","1117","0.19335938","-0.9824219","0.03515625","2.0","4.375","4.375"
"1573642069337","1118","0.18847656","-0.9550781","0.048828125","3.15625","-5.25","3.34375"
"1573642069337","1119","0.15722656","-1.0380859","0.025390625","1.5625","0.65625","2.71875"
"1573642069533","1120","0.18554688","-1.0322266","0.0146484375","1.875","5.34375","-0.3125"
"1573642069533","1121","0.20019531","-0.9902344","0.0126953125","1.28125","-0.625","5.0625"
"1573642069533","1122","0.18066406","-0.94628906","0.04296875","1.9375","-1.34375","0.34375"
"1573642069534","1123","0.1328125","-0.9482422","0.03515625","4.125","2.0","2.71875"
"1573642069534","1124","0.17578125","-0.9707031","0.036132812","4.25","3.46875","0.78125"
"1573642069534","1125","0.15917969","-0.9951172","0.053710938","2.5625","1.6875","1.09375"
"1573642069535","1126","0.1484375","-1.0078125","0.043945312","2.4375","2.90625","0.71875"
"1573642069535","1127","0.19824219","-1.0185547","0.056640625","2.3125","4.4375","1.3125"
"1573642069535","1128","0.16699219","-1.0029297","0.036132812","3.40625","-0.75","-0.125"
"1573642069536","1129","0.15917969","-1.0332031","0.061523438","0.65625","-1.59375","0.03125"
"1573642070127","1130","0.15625","-1.0058594","0.026367188","3.03125","0.34375","1.15625"
"1573642070127","1131","0.17089844","-0.98339844","0.0546875","1.6875","-2.28125","1.875"
"1573642070128","1132","0.14257812","-0.96972656","0.056640625","0.34375","-5.09375","0.03125"
"1573642070128","1133","0.123046875","-0.9707031","0.0625","-0.5","-4.71875","1.5"
"1573642070128","1134","0.1328125","-0.93652344","0.03515625","-1.3125","-4.90625","1.375"
"1573642070128","1135","0.13574219","-0.89160156","0.0390625","-1.96875","-5.8125","1.6875"
"1573642070129","1136","0.0859375","-0.8544922","0.024414062","-3.0625","-3.3125","3.09375"
"1573642070129","1137","0.052734375","-0.86035156","0.026367188","-6.5","2.90625","2.90625"
"1573642070129","1138","0.09667969","-0.90722656","0.053710938","-9.0625","12.9375","-2.9375"
"1573642070129","1139","0.18359375","-0.9902344","0.0068359375","-11.78125","18.0625","-11.4375"
"1573642070526","1140","0.23535156","-0.9746094","0.017578125","-12.90625","16.71875","-5.15625"
"1573642070527","1141","0.1640625","-0.8671875","0.046875","-12.71875","8.40625","4.6875"
"1573642070527","1142","0.15136719","-0.89941406","0.07324219","-5.625","0.09375","-3.125"
"1573642070527","1143","0.14257812","-1.0908203","0.005859375","-5.03125","4.3125","-2.6875"
"1573642070528","1144","0.21484375","-1.1787109","0.0126953125","-3.875","15.65625","0.21875"
"1573642070528","1145","0.23144531","-0.96191406","0.07421875","-7.71875","3.84375","1.15625"
"1573642070528","1146","0.15136719","-0.8642578","0.080078125","-6.65625","2.59375","-4.28125"
"1573642070529","1147","0.171875","-0.9433594","0.051757812","-3.875","3.9375","-9.0"
"1573642070529","1148","0.18066406","-0.9921875","0.032226562","-5.09375","-0.0625","-3.90625"
"1573642070529","1149","0.15820312","-0.9746094","0.005859375","-2.9375","-3.0","2.96875"
"1573642071120","1150","0.1640625","-0.984375","-0.001953125","-0.5","-0.625","4.3125"
"1573642071121","1151","0.19140625","-1.0107422","0.032226562","-0.9375","1.28125","-1.65625"
"1573642071121","1152","0.14648438","-1.0146484","-0.0078125","-0.5625","-1.78125","-1.90625"
"1573642071123","1153","0.17480469","-1.0058594","0.034179688","-2.03125","-3.0","0.15625"
"1573642071123","1154","0.16699219","-0.9707031","0.0029296875","-0.6875","-0.8125","0.0"
"1573642071124","1155","0.14941406","-0.97558594","0.029296875","-2.6875","-1.84375","-0.75"
"1573642071124","1156","0.1328125","-0.96875","0.0107421875","-2.09375","-0.1875","-1.125"
"1573642071125","1157","0.17089844","-0.99609375","0.00390625","-2.21875","1.75","1.03125"
"1573642071125","1158","0.17382812","-0.9970703","0.0068359375","-1.53125","0.28125","0.28125"
"1573642071125","1159","0.16894531","-0.99902344","0.0087890625","-0.875","0.15625","-0.3125"
"1573642071320","1160","0.1640625","-0.99609375","0.0234375","-0.6875","2.0","-1.1875"
"1573642071321","1161","0.15722656","-0.9873047","0.026367188","-0.875","1.28125","-0.125"
"1573642071321","1162","0.15234375","-0.97753906","0.0126953125","-1.3125","0.03125","1.15625"
"1573642071322","1163","0.16308594","-0.98339844","0.02734375","-1.0","-1.40625","0.65625"
"1573642071322","1164","0.15625","-0.99316406","-0.0107421875","0.71875","2.96875","0.96875"
"1573642071324","1165","0.15039062","-0.9746094","0.020507812","-1.1875","-1.96875","-0.3125"
"1573642071325","1166","0.16699219","-0.99609375","0.01171875","1.09375","2.5625","1.21875"
"1573642071325","1167","0.14550781","-0.98535156","0.036132812","-0.375","1.5","0.65625"
"1573642071326","1168","0.14941406","-0.9736328","0.015625","1.21875","5.21875","1.09375"
"1573642071326","1169","0.14941406","-0.98828125","0.0390625","-0.0625","4.5","1.3125"
"1573642071326","1170","0.16113281","-0.9785156","0.024414062","1.75","5.90625","1.3125"
"1573642071327","1171","0.15722656","-0.99316406","0.032226562","1.5625","6.03125","0.28125"
"1573642071327","1172","0.13671875","-0.98339844","0.033203125","-0.6875","4.875","0.71875"
"1573642071327","1173","0.16015625","-0.96972656","0.030273438","-0.125","2.96875","-0.875"
"1573642071328","1174","0.16308594","-0.9658203","0.026367188","1.03125","0.03125","-2.34375"
"1573642071328","1175","0.13671875","-0.9453125","0.01953125","0.96875","-5.625","-3.0625"
"1573642071329","1176","0.12109375","-0.9326172","0.033203125","1.5","0.21875","0.28125"
"1573642071329","1177","0.109375","-0.8798828","0.009765625","1.09375","-4.03125","-1.125"
"1573642071329","1178","0.17382812","-0.8544922","0.037109375","-0.4375","-2.875","-1.46875"
"1573642071330","1179","0.14160156","-0.81347656","0.0390625","-3.5","-10.75","0.0"
"1573642071521","1180","0.076171875","-0.78125","-0.0068359375","-2.9375","2.25","7.5"
"1573642071522","1181","0.09863281","-0.7265625","0.03125","0.0","8.90625","11.03125"
"1573642071522","1182","0.123046875","-0.7060547","-0.026367188","3.21875","0.65625","6.46875"
"1573642071522","1183","0.1328125","-0.7138672","0.049804688","0.46875","-4.46875","6.6875"
"1573642071522","1184","0.09863281","-0.85839844","0.0107421875","-0.3125","-8.5","-1.59375"
"1573642071523","1185","0.040039062","-0.9863281","0.033203125","3.59375","3.90625","3.21875"
"1573642071523","1186","0.21972656","-1.1318359","0.10449219","6.34375","3.46875","9.375"
"1573642071523","1187","0.08886719","-1.1748047","0.022460938","3.71875","1.3125","0.0"
"1573642071523","1188","0.16308594","-1.2880859","0.09277344","1.3125","2.96875","12.625"
"1573642071525","1189","0.109375","-1.1064453","0.083984375","2.1875","6.03125","-1.25"
"1573642071920","1190","0.109375","-1.1035156","0.060546875","2.65625","6.6875","6.15625"
"1573642071920","1191","0.12695312","-1.1044922","0.14355469","1.21875","7.5","-0.6875"
"1573642071921","1192","0.08203125","-1.0859375","0.08300781","-4.53125","5.84375","-7.34375"
"1573642071921","1193","0.12890625","-1.1699219","0.09277344","-5.8125","7.1875","-1.96875"
"1573642071921","1194","0.12109375","-1.0849609","0.09375","-4.21875","6.28125","-10.6875"
"1573642071922","1195","0.12011719","-1.1132812","0.028320312","-3.5625","9.1875","-4.96875"
"1573642071922","1196","0.15820312","-1.1289062","0.0859375","-6.71875","15.25","-12.21875"
"1573642071922","1197","0.23339844","-1.0351562","0.01953125","1.15625","1.3125","-2.6875"
"1573642071922","1198","0.18457031","-0.99609375","0.06347656","-0.375","-3.5","2.96875"
"1573642071922","1199","0.10449219","-1.0107422","0.0625","2.65625","-7.09375","-1.25"
"1573642072317","1200","0.1171875","-1.0537109","0.055664062","0.09375","-2.40625","2.78125"
"1573642072319","1201","0.15429688","-1.0214844","0.06738281","0.78125","-3.3125","-3.1875"
"1573642072319","1202","0.14160156","-0.9921875","0.068359375","1.6875","-5.625","-1.53125"
"1573642072320","1203","0.083984375","-1.0","0.064453125","-1.3125","-5.21875","3.21875"
"1573642072320","1204","0.11425781","-0.9580078","0.032226562","-3.5","-2.6875","-2.09375"
"1573642072320","1205","0.16894531","-0.98535156","0.049804688","-8.0625","-0.5625","-3.75"
"1573642072321","1206","0.13085938","-0.9765625","0.033203125","-6.71875","0.0","-4.09375"
"1573642072321","1207","0.09472656","-0.9785156","0.056640625","-6.71875","0.21875","-2.34375"
"1573642072321","1208","0.12695312","-1.0146484","0.053710938","-9.0","-1.0","-3.4375"
"1573642072322","1209","0.10839844","-1.0283203","0.040039062","-10.09375","2.90625","-1.78125"
"1573642073308","1210","0.17089844","-1.0400391","0.0146484375","-8.5625","1.3125","-2.03125"
"1573642073308","1211","0.17089844","-0.98535156","0.052734375","-9.40625","0.59375","-9.28125"
"1573642073309","1212","0.09863281","-1.0195312","0.045898438","-7.59375","0.21875","0.09375"
"1573642073309","1213","0.20898438","-1.0527344","0.022460938","-6.53125","-0.4375","-7.46875"
"1573642073310","1214","0.19238281","-1.0576172","0.013671875","-8.875","-3.96875","-5.8125"
"1573642073310","1215","0.15820312","-1.0205078","0.0234375","-7.875","-3.75","-3.75"
"1573642073311","1216","0.12207031","-1.0087891","0.041992188","-4.21875","-2.6875","-3.8125"
"1573642073311","1217","0.17285156","-1.1113281","-0.0126953125","-0.75","1.3125","-1.3125"
"1573642073312","1218","0.171875","-1.03125","0.0146484375","2.0625","2.0625","-1.59375"
"1573642073312","1219","0.12792969","-1.0302734","0.022460938","-2.6875","3.28125","-5.9375"
"1573642073508","1220","0.1796875","-1.0039062","0.060546875","5.0","9.8125","-3.75"
"1573642073509","1221","0.14746094","-1.0439453","-0.020507812","3.90625","2.3125","2.65625"
"1573642073509","1222","0.1875","-1.0263672","0.060546875","7.625","12.875","-2.625"
"1573642073509","1223","0.13964844","-1.0205078","0.00390625","0.78125","2.375","0.96875"
"1573642073509","1224","0.1796875","-1.0244141","0.028320312","-2.03125","2.71875","-2.9375"
"1573642073510","1225","0.1640625","-0.9814453","0.033203125","-2.875","3.9375","-3.90625"
"1573642073510","1226","0.17089844","-0.9892578","0.034179688","-3.75","2.125","-2.53125"
"1573642073511","1227","0.15429688","-0.94140625","0.040039062","1.375","4.5625","-3.0"
"1573642073511","1228","0.15917969","-1.0166016","0.016601562","-0.0625","5.46875","-1.0625"
"1573642073511","1229","0.18164062","-1.0029297","0.025390625","5.21875","9.125","-1.90625"
"1573642073904","1230","0.171875","-0.9980469","0.03125","4.75","6.46875","4.8125"
"1573642073905","1231","0.1640625","-0.9589844","0.033203125","0.65625","1.6875","-1.90625"
"1573642073905","1232","0.16992188","-0.94628906","0.0546875","-1.96875","-2.6875","-2.15625"
"1573642073905","1233","0.1171875","-0.97265625","0.0546875","0.28125","2.65625","1.8125"
"1573642073906","1234","0.123046875","-0.9580078","0.0234375","2.0625","5.90625","1.75"
"1573642073906","1235","0.20507812","-0.9921875","0.041992188","3.53125","5.90625","2.125"
"1573642073906","1236","0.203125","-1.0234375","0.0546875","4.875","5.90625","-1.90625"
"1573642073908","1237","0.13964844","-0.9921875","0.02734375","5.21875","0.0","4.1875"
"1573642073908","1238","0.15917969","-0.9951172","0.06640625","2.96875","0.15625","5.125"
"1573642073909","1239","0.13378906","-0.9736328","0.08105469","0.90625","-1.84375","4.75"
"1573642074104","1240","0.12792969","-0.94628906","0.02734375","3.9375","-2.625","5.78125"
"1573642074104","1241","0.16796875","-0.9238281","0.052734375","4.0","-3.3125","6.15625"
"1573642074105","1242","0.12011719","-0.86035156","0.072265625","0.21875","-10.28125","5.53125"
"1573642074105","1243","0.07910156","-0.87597656","0.05078125","-2.03125","-9.84375","5.34375"
"1573642074105","1244","0.080078125","-0.8876953","0.036132812","-5.9375","-5.5","7.375"
"1573642074105","1245","0.07714844","-0.86328125","0.07421875","-6.78125","-5.8125","4.6875"
"1573642074106","1246","0.07128906","-0.8964844","0.0390625","-6.0625","0.0","1.09375"
"1573642074106","1247","0.12109375","-0.91796875","0.076171875","-6.96875","8.28125","1.625"
"1573642074106","1248","0.12695312","-0.87402344","0.10449219","-7.21875","10.125","-1.71875"
"1573642074107","1249","0.14453125","-1.0576172","0.055664062","-6.1875","5.0","-5.5625"
"1573642074503","1250","0.20117188","-1.2324219","0.0107421875","-7.28125","15.65625","-13.25"
"1573642074503","1251","0.20996094","-1.0410156","0.033203125","-0.4375","5.71875","0.96875"
"1573642074503","1252","0.12207031","-0.87109375","0.07128906","-0.0625","4.5","4.5625"
"1573642074504","1253","0.11328125","-0.8261719","0.06640625","-1.96875","2.90625","-3.75"
"1573642074504","1254","0.14941406","-1.0029297","0.06640625","-0.375","3.84375","-12.96875"
"1573642074504","1255","0.083984375","-1.0341797","0.0390625","-1.65625","-3.5","1.6875"
"1573642074504","1256","0.15429688","-0.98828125","0.033203125","1.3125","0.65625","7.90625"
"1573642074505","1257","0.16992188","-0.99121094","0.040039062","-1.53125","-0.9375","-0.25"
"1573642074505","1258","0.12011719","-1.0292969","0.044921875","-1.3125","-1.90625","-3.75"
"1573642074505","1259","0.125","-1.0048828","0.061523438","-2.625","-2.59375","0.09375"
"1573642074702","1260","0.14160156","-0.97753906","0.044921875","-0.5625","-2.9375","1.3125"
"1573642074702","1261","0.09375","-0.9716797","0.057617188","-0.9375","0.21875","-0.625"
"1573642074703","1262","0.087890625","-0.96777344","0.055664062","-2.40625","2.125","-3.0"
"1573642074703","1263","0.12890625","-0.99609375","0.030273438","-2.46875","3.84375","-2.46875"
"1573642074704","1264","0.15429688","-1.0117188","0.020507812","-4.28125","-0.25","-1.65625"
"1573642074704","1265","0.171875","-1.0283203","0.028320312","-4.03125","-1.71875","-2.21875"
"1573642074704","1266","0.15820312","-1.0146484","0.043945312","-5.3125","-1.0","-3.625"
"1573642074705","1267","0.13964844","-0.98828125","0.036132812","-6.1875","-0.25","-5.875"
"1573642074705","1268","0.13964844","-0.9785156","0.06347656","-8.3125","2.1875","-3.1875"
"1573642074705","1269","0.12109375","-0.96777344","0.038085938","-5.3125","2.0","-1.34375"
"1573642075099","1270","0.15625","-0.99902344","0.034179688","-3.4375","3.53125","-1.65625"
"1573642075100","1271","0.14355469","-0.97753906","0.028320312","-6.1875","1.5625","-3.5"
"1573642075100","1272","0.16015625","-0.9873047","0.038085938","-3.6875","0.59375","-2.15625"
"1573642075101","1273","0.15722656","-0.9941406","0.01953125","-2.59375","-1.3125","-1.59375"
"1573642075105","1274","0.16992188","-0.9863281","0.04296875","-3.625","-0.5","0.78125"
"1573642075105","1275","0.18652344","-0.97265625","0.041015625","-3.5","1.8125","4.875"
"1573642075106","1276","0.1796875","-0.9892578","0.036132812","-2.9375","-0.75","5.90625"
"1573642075106","1277","0.17089844","-0.9892578","0.01953125","-3.25","-5.8125","3.65625"
"1573642075110","1278","0.14160156","-0.9941406","0.024414062","-5.6875","-13.75","1.375"
"1573642075111","1279","0.11230469","-1.0117188","0.009765625","-4.28125","-8.4375","0.84375"
"1573642075497","1280","0.119140625","-0.9980469","-0.001953125","-2.625","-12.46875","1.03125"
"1573642075498","1281","0.107421875","-0.97265625","-0.0048828125","-1.0","-5.75","1.09375"
"1573642075498","1282","0.076171875","-0.9638672","-0.0078125","-0.3125","2.96875","1.5"
"1573642075498","1283","0.1015625","-0.9941406","-0.0146484375","2.5","8.59375","0.96875"
"1573642075498","1284","0.13671875","-1.0058594","0.0087890625","0.0","9.25","-1.1875"
"1573642075499","1285","0.119140625","-0.9794922","0.005859375","1.15625","6.46875","-2.59375"
"1573642075500","1286","0.14453125","-0.9892578","0.028320312","1.5","5.59375","-1.71875"
"1573642075500","1287","0.13769531","-0.9707031","0.024414062","1.21875","2.0","-1.1875"
"1573642075500","1288","0.12109375","-0.9746094","0.037109375","-0.1875","1.5","-3.75"
"1573642075501","1289","0.14746094","-0.99316406","0.047851562","-0.1875","-1.125","-1.78125"
