"# PR data"
"# Start time: 20191119T194526"
"# Subject: joao"
"# Activity type: Knee extension"
"# Correctness: Incorrect"
"# Notes: "
""
"timestamp","seq","accel_x","accel_y","accel_z","gyro_x","gyro_y","gyro_z"
"1574192726423","0","0.23730469","-0.8203125","-0.56640625","-1.25","1.9375","-1.78125"
"1574192726424","1","0.24414062","-0.82128906","-0.56640625","-2.6875","0.90625","-1.96875"
"1574192726427","2","0.24316406","-0.828125","-0.57128906","-4.53125","0.65625","-1.96875"
"1574192726427","3","0.25097656","-0.8222656","-0.5703125","-1.96875","1.375","-1.90625"
"1574192726428","4","0.23339844","-0.81640625","-0.57910156","-5.375","0.21875","-2.875"
"1574192726428","5","0.24511719","-0.8046875","-0.5732422","-6.90625","-0.5625","-2.875"
"1574192726428","6","0.23730469","-0.8095703","-0.5908203","-4.65625","0.59375","-1.125"
"1574192726428","7","0.24609375","-0.8105469","-0.5996094","-3.5625","1.375","-2.09375"
"1574192726429","8","0.24707031","-0.8095703","-0.58691406","-3.5","2.65625","-1.65625"
"1574192726429","9","0.24414062","-0.8125","-0.5810547","-2.34375","4.3125","-0.5"
"1574192726622","10","0.24023438","-0.8076172","-0.58496094","-3.90625","4.0625","-1.59375"
"1574192726622","11","0.25390625","-0.8105469","-0.5810547","-2.6875","1.15625","-2.59375"
"1574192726623","12","0.2607422","-0.8105469","-0.5859375","0.84375","3.09375","-1.0625"
"1574192726624","13","0.24707031","-0.8017578","-0.58203125","-5.4375","3.40625","-0.5625"
"1574192726624","14","0.25097656","-0.80371094","-0.59472656","-9.0","1.9375","-1.71875"
"1574192726624","15","0.24902344","-0.80859375","-0.6044922","-7.15625","0.71875","-3.0"
"1574192726625","16","0.25097656","-0.7939453","-0.59277344","-3.8125","1.5","-2.8125"
"1574192726625","17","0.25","-0.7919922","-0.59765625","-3.5625","1.625","-2.6875"
"1574192726625","18","0.2529297","-0.80371094","-0.61035156","-6.1875","1.625","-1.96875"
"1574192726628","19","0.2421875","-0.7988281","-0.60058594","-5.75","1.75","-3.6875"
"1574192727020","20","0.25097656","-0.79589844","-0.609375","-4.28125","1.6875","-5.375"
"1574192727021","21","0.25878906","-0.78125","-0.6044922","-4.21875","1.5","-4.84375"
"1574192727021","22","0.25585938","-0.7841797","-0.6171875","-1.65625","2.3125","-2.625"
"1574192727021","23","0.2578125","-0.7861328","-0.6230469","0.21875","2.4375","-2.53125"
"1574192727022","24","0.2626953","-0.7871094","-0.6142578","3.90625","4.0625","-0.75"
"1574192727028","25","0.2626953","-0.78222656","-0.5986328","4.6875","4.6875","-0.6875"
"1574192727029","26","0.25976562","-0.79003906","-0.59472656","2.5625","6.5625","0.65625"
"1574192727029","27","0.26953125","-0.79589844","-0.6035156","1.5625","7.25","1.5625"
"1574192727030","28","0.25683594","-0.796875","-0.59277344","1.5","6.28125","0.84375"
"1574192727030","29","0.26171875","-0.7998047","-0.5888672","0.90625","5.0","0.53125"
"1574192727617","30","0.26367188","-0.80566406","-0.5859375","-2.09375","5.28125","0.0"
"1574192727617","31","0.2578125","-0.7949219","-0.59375","-1.46875","4.6875","-1.0625"
"1574192727618","32","0.2626953","-0.7871094","-0.58984375","0.40625","3.53125","-1.40625"
"1574192727618","33","0.26757812","-0.8017578","-0.59765625","0.96875","4.4375","-0.3125"
"1574192727618","34","0.25878906","-0.8027344","-0.5996094","1.3125","6.21875","0.28125"
"1574192727618","35","0.26367188","-0.8046875","-0.5878906","3.78125","5.21875","-0.75"
"1574192727619","36","0.28515625","-0.79296875","-0.5888672","4.0","1.8125","-3.5625"
"1574192727620","37","0.32910156","-0.8203125","-0.6015625","0.65625","-3.25","-4.09375"
"1574192727620","38","0.34277344","-0.83984375","-0.57714844","-1.59375","-6.65625","-3.0625"
"1574192727621","39","0.28222656","-0.8125","-0.54589844","4.5","-6.0625","-5.21875"
"1574192727814","40","0.20507812","-0.8066406","-0.5800781","2.4375","-6.25","-2.03125"
"1574192727814","41","0.20410156","-0.77246094","-0.5625","7.625","0.09375","1.6875"
"1574192727815","42","0.21679688","-0.7949219","-0.56347656","5.65625","2.65625","0.53125"
"1574192727815","43","0.21386719","-0.82910156","-0.5683594","3.90625","6.5625","2.4375"
"1574192727815","44","0.24804688","-0.83203125","-0.5810547","4.875","4.5625","1.8125"
"1574192727815","45","0.26757812","-0.8232422","-0.5839844","4.875","4.75","1.875"
"1574192727816","46","0.25976562","-0.8251953","-0.5810547","1.6875","7.25","1.3125"
"1574192727816","47","0.2578125","-0.8125","-0.5517578","7.6875","6.6875","0.21875"
"1574192727816","48","0.26367188","-0.82128906","-0.5566406","3.21875","4.0625","1.5625"
"1574192727817","49","0.23925781","-0.8300781","-0.5439453","1.75","7.6875","4.0"
"1574192728410","50","0.24023438","-0.8466797","-0.5410156","6.46875","6.28125","2.0"
"1574192728411","51","0.25097656","-0.8310547","-0.51953125","5.34375","3.34375","-1.3125"
"1574192728411","52","0.27539062","-0.8359375","-0.53515625","4.5625","1.8125","-1.84375"
"1574192728411","53","0.27441406","-0.8417969","-0.54003906","2.65625","4.125","-2.15625"
"1574192728412","54","0.26464844","-0.84765625","-0.5341797","2.0","4.125","-0.375"
"1574192728412","55","0.27929688","-0.8300781","-0.5390625","0.65625","1.21875","-0.6875"
"1574192728412","56","0.26660156","-0.85058594","-0.54589844","-2.46875","0.78125","0.71875"
"1574192728412","57","0.21484375","-0.8515625","-0.5","12.25","3.90625","5.90625"
"1574192728413","58","0.24316406","-0.8339844","-0.49023438","12.1875","-3.8125","0.0"
"1574192728413","59","0.2861328","-0.84472656","-0.5488281","-5.25","-1.59375","-4.84375"
"1574192728609","60","0.25585938","-0.86035156","-0.5126953","1.21875","5.21875","-2.75"
"1574192728610","61","0.24414062","-0.8574219","-0.5126953","6.5625","1.5625","-1.59375"
"1574192728611","62","0.26171875","-0.8310547","-0.50878906","1.3125","-4.46875","-1.78125"
"1574192728611","63","0.26464844","-0.84277344","-0.50683594","7.3125","-3.0","-0.9375"
"1574192728612","64","0.23535156","-0.8388672","-0.48242188","6.875","-1.34375","0.09375"
"1574192728612","65","0.24902344","-0.8671875","-0.50683594","2.4375","-6.0625","-2.40625"
"1574192728612","66","0.23828125","-0.84277344","-0.47558594","-1.1875","-1.65625","-2.46875"
"1574192728612","67","0.25","-0.8417969","-0.53515625","-2.40625","-3.875","-6.59375"
"1574192728613","68","0.26953125","-0.8623047","-0.5722656","-17.59375","-4.96875","-6.5"
"1574192728613","69","0.25976562","-0.81933594","-0.5185547","-1.71875","3.15625","-5.21875"
"1574192729007","70","0.28027344","-0.81933594","-0.5341797","-3.0625","-2.875","-9.59375"
"1574192729007","71","0.25097656","-0.84277344","-0.50390625","-7.15625","-5.9375","-5.75"
"1574192729008","72","0.23730469","-0.8232422","-0.5361328","-12.65625","-1.53125","-4.84375"
"1574192729009","73","0.24804688","-0.8310547","-0.5517578","-6.78125","2.375","-1.25"
"1574192729010","74","0.2705078","-0.8378906","-0.5126953","0.09375","0.34375","-1.71875"
"1574192729010","75","0.27148438","-0.87109375","-0.53027344","-3.0","-2.09375","-1.71875"
"1574192729011","76","0.24609375","-0.8183594","-0.5253906","-3.625","0.96875","1.375"
"1574192729011","77","0.25390625","-0.86621094","-0.52441406","-3.5625","4.1875","1.5625"
"1574192729011","78","0.20898438","-0.8486328","-0.51953125","4.375","4.3125","5.40625"
"1574192729012","79","0.25195312","-0.8378906","-0.5205078","5.28125","-3.6875","-1.78125"
"1574192729405","80","0.21386719","-0.8535156","-0.53125","-7.9375","1.9375","0.34375"
"1574192729406","81","0.20214844","-0.8613281","-0.546875","0.53125","2.71875","4.6875"
"1574192729406","82","0.22363281","-0.7841797","-0.5253906","7.90625","3.09375","0.15625"
"1574192729406","83","0.22167969","-0.86816406","-0.6044922","3.34375","16.40625","2.0"
"1574192729407","84","0.2578125","-0.8857422","-0.5449219","24.8125","23.0625","2.4375"
"1574192729407","85","0.28027344","-0.8955078","-0.45117188","22.75","8.15625","6.5625"
"1574192729408","86","0.2861328","-0.87597656","-0.49121094","3.59375","4.875","14.21875"
"1574192729408","87","0.24902344","-0.8642578","-0.45898438","11.9375","3.65625","14.875"
"1574192729408","88","0.23242188","-0.8574219","-0.46289062","-1.90625","-2.34375","7.8125"
"1574192729409","89","0.23339844","-0.8671875","-0.49804688","-7.21875","1.625","7.375"
"1574192730000","90","0.2529297","-0.8857422","-0.49121094","-3.5","-3.96875","9.03125"
"1574192730003","91","0.24121094","-0.8935547","-0.4736328","-11.125","-2.8125","11.59375"
"1574192730004","92","0.20214844","-0.875","-0.4970703","-1.84375","5.96875","5.0625"
"1574192730004","93","0.20117188","-0.9082031","-0.4873047","2.96875","5.46875","4.6875"
"1574192730004","94","0.20117188","-0.88671875","-0.4716797","10.1875","6.6875","7.5"
"1574192730004","95","0.17089844","-0.8798828","-0.4814453","0.90625","4.6875","10.46875"
"1574192730004","96","0.15625","-0.88671875","-0.48632812","5.65625","0.46875","12.75"
"1574192730006","97","0.15136719","-0.91015625","-0.4765625","11.53125","-3.75","11.8125"
"1574192730006","98","0.18554688","-0.8857422","-0.49023438","9.625","-3.6875","8.71875"
"1574192730006","99","0.20214844","-0.9199219","-0.4765625","10.53125","-6.96875","6.09375"
"1574192730595","100","0.13671875","-0.91503906","-0.42285156","22.5","-0.375","14.75"
"1574192730596","101","0.09765625","-0.8886719","-0.41992188","24.65625","-3.1875","15.96875"
"1574192730596","102","0.16015625","-0.8886719","-0.4482422","17.8125","-2.6875","8.46875"
"1574192730596","103","0.15722656","-0.921875","-0.38867188","21.34375","-0.1875","10.84375"
"1574192730597","104","0.095703125","-0.9296875","-0.4091797","-0.0625","-1.78125","7.6875"
"1574192730597","105","0.13574219","-0.890625","-0.39257812","-1.40625","-1.59375","-3.0625"
"1574192730597","106","0.12792969","-0.953125","-0.44921875","-11.375","-1.25","-2.09375"
"1574192730597","107","0.083984375","-0.91503906","-0.39453125","-9.15625","4.0625","-2.28125"
"1574192730598","108","0.091796875","-0.8925781","-0.43652344","-18.875","0.59375","-9.65625"
"1574192730599","109","0.1171875","-0.8857422","-0.42773438","-13.125","6.8125","-7.875"
"1574192730792","110","0.12402344","-0.9140625","-0.5107422","-20.21875","7.84375","-7.8125"
"1574192730793","111","0.109375","-0.87402344","-0.4423828","-16.5","12.3125","-10.6875"
"1574192730793","112","0.1484375","-0.8964844","-0.44726562","-8.4375","7.84375","-8.25"
"1574192730793","113","0.13964844","-0.8769531","-0.5019531","-5.4375","-0.1875","-5.3125"
"1574192730793","114","0.14746094","-0.890625","-0.46777344","-3.25","4.8125","-5.9375"
"1574192730794","115","0.16699219","-0.8808594","-0.4970703","-6.375","0.90625","-11.84375"
"1574192730794","116","0.15820312","-0.91503906","-0.42285156","11.28125","4.75","-9.71875"
"1574192730794","117","0.16601562","-0.89160156","-0.43945312","9.5","0.0","-13.0625"
"1574192730794","118","0.1796875","-0.9453125","-0.43847656","-8.25","12.1875","-12.34375"
"1574192730795","119","0.16210938","-0.8964844","-0.41015625","9.375","7.25","-11.375"
"1574192730996","120","0.2548828","-0.89453125","-0.45996094","-3.75","-0.5625","-21.25"
"1574192730997","121","0.24511719","-0.94433594","-0.4609375","-24.3125","9.4375","-18.09375"
"1574192730998","122","0.23925781","-0.9003906","-0.43066406","-5.75","7.96875","-16.0625"
"1574192730998","123","0.3125","-0.88183594","-0.45507812","-18.5","-7.46875","-22.125"
"1574192730998","124","0.22265625","-0.9550781","-0.54785156","-46.84375","-1.84375","-15.8125"
"1574192730998","125","0.21386719","-0.89746094","-0.45898438","-10.875","-2.59375","-3.3125"
"1574192730999","126","0.23925781","-0.81640625","-0.5","-10.9375","-0.4375","-6.4375"
"1574192730999","127","0.24902344","-0.82128906","-0.5078125","-8.9375","3.84375","-7.53125"
"1574192730999","128","0.21875","-0.8701172","-0.48828125","2.0","3.90625","-6.84375"
"1574192731000","129","0.19726562","-0.8515625","-0.5107422","-12.40625","5.96875","-6.3125"
"1574192731392","130","0.24804688","-0.7988281","-0.55859375","-6.5","3.15625","-8.75"
"1574192731393","131","0.2939453","-0.8544922","-0.5546875","-3.1875","3.65625","-7.71875"
"1574192731393","132","0.26953125","-0.8730469","-0.53125","-1.34375","7.1875","-2.75"
"1574192731394","133","0.25585938","-0.83691406","-0.5390625","2.84375","2.65625","-3.4375"
"1574192731395","134","0.26757812","-0.79785156","-0.53808594","6.34375","3.21875","-5.8125"
"1574192731395","135","0.2734375","-0.8359375","-0.53125","6.6875","4.6875","-3.25"
"1574192731395","136","0.2578125","-0.84277344","-0.5019531","5.78125","6.5625","-2.625"
"1574192731395","137","0.28027344","-0.859375","-0.50097656","4.9375","3.78125","-4.84375"
"1574192731396","138","0.31054688","-0.83496094","-0.4921875","10.59375","4.0625","-7.78125"
"1574192731396","139","0.3232422","-0.8457031","-0.50390625","7.5","2.4375","-7.15625"
"1574192731790","140","0.30273438","-0.83984375","-0.47070312","12.75","1.75","-3.0"
"1574192731790","141","0.29589844","-0.8486328","-0.46679688","14.21875","-0.5625","-2.03125"
"1574192731790","142","0.28710938","-0.8642578","-0.46679688","14.4375","-3.0","-3.3125"
"1574192731791","143","0.25683594","-0.8564453","-0.4345703","17.8125","-2.09375","-5.21875"
"1574192731791","144","0.24902344","-0.8613281","-0.46972656","5.0","-0.375","-6.71875"
"1574192731791","145","0.2578125","-0.8642578","-0.48339844","4.5625","3.90625","-5.4375"
"1574192731792","146","0.32421875","-0.859375","-0.4423828","6.46875","3.59375","-6.71875"
"1574192731792","147","0.3046875","-0.8652344","-0.4580078","-2.21875","8.96875","-6.0625"
"1574192731792","148","0.31835938","-0.83984375","-0.4560547","-5.15625","8.96875","-5.8125"
"1574192731793","149","0.33496094","-0.8457031","-0.48339844","-7.78125","10.65625","-3.25"
"1574192732385","150","0.37109375","-0.8564453","-0.47851562","-14.46875","12.4375","-1.125"
"1574192732385","151","0.34277344","-0.8408203","-0.4248047","-4.21875","11.34375","2.90625"
"1574192732385","152","0.33398438","-0.86328125","-0.47851562","-11.3125","9.4375","7.125"
"1574192732386","153","0.35058594","-0.8535156","-0.41796875","-3.25","7.0625","9.6875"
"1574192732386","154","0.30371094","-0.8828125","-0.4267578","-6.4375","10.40625","14.21875"
"1574192732386","155","0.2919922","-0.87890625","-0.45507812","-12.59375","6.03125","13.03125"
"1574192732386","156","0.28027344","-0.87597656","-0.45214844","-7.34375","6.03125","17.5"
"1574192732387","157","0.29492188","-0.87597656","-0.47070312","-8.875","3.40625","20.1875"
"1574192732388","158","0.2998047","-0.8779297","-0.44140625","-2.75","2.90625","21.15625"
"1574192732388","159","0.26171875","-0.88378906","-0.45703125","-6.125","5.28125","26.21875"
"1574192732783","160","0.23632812","-0.83984375","-0.47070312","-1.3125","2.65625","24.71875"
"1574192732784","161","0.24414062","-0.8876953","-0.5185547","-11.125","-3.90625","27.5625"
"1574192732784","162","0.20117188","-0.9316406","-0.51660156","-4.34375","-6.5","38.875"
"1574192732784","163","0.15136719","-0.8535156","-0.45898438","12.9375","1.21875","27.6875"
"1574192732784","164","0.23144531","-0.9140625","-0.47460938","-3.96875","1.75","11.8125"
"1574192732785","165","0.23632812","-0.96191406","-0.43554688","-35.46875","0.59375","28.4375"
"1574192732785","166","0.091796875","-0.86816406","-0.44433594","-1.34375","6.5","39.21875"
"1574192732785","167","0.051757812","-0.82128906","-0.5917969","-11.0625","-17.40625","27.625"
"1574192732785","168","0.08496094","-0.8955078","-0.5361328","-11.0625","-16.5625","26.96875"
"1574192732786","169","0.05078125","-0.9033203","-0.5029297","-3.25","-0.1875","31.25"
"1574192733182","170","0.02734375","-0.8984375","-0.52246094","-17.09375","-19.375","27.375"
"1574192733183","171","0.01953125","-0.8544922","-0.5048828","-8.375","-18.03125","20.8125"
"1574192733183","172","-0.0078125","-0.87597656","-0.5361328","-4.84375","-5.5","10.59375"
"1574192733183","173","-0.052734375","-0.9140625","-0.5341797","-7.28125","-12.21875","13.15625"
"1574192733183","174","-0.036132812","-0.8876953","-0.5527344","2.3125","-15.28125","14.375"
"1574192733184","175","0.0029296875","-0.828125","-0.55371094","-0.6875","-8.5","11.59375"
"1574192733184","176","-0.059570312","-0.84375","-0.53027344","-1.53125","-13.6875","11.9375"
"1574192733184","177","-0.1328125","-0.88964844","-0.53125","0.40625","-7.65625","13.40625"
"1574192733184","178","-0.13183594","-0.85546875","-0.5341797","-1.90625","-4.65625","14.875"
"1574192733185","179","-0.09472656","-0.8339844","-0.5673828","5.1875","-7.03125","10.59375"
"1574192733380","180","-0.15429688","-0.8720703","-0.4921875","8.84375","4.8125","3.03125"
"1574192733381","181","-0.111328125","-0.8876953","-0.58203125","3.59375","8.84375","-0.125"
"1574192733381","182","-0.076171875","-0.90527344","-0.47558594","10.25","9.6875","-3.625"
"1574192733381","183","-0.038085938","-0.83496094","-0.5048828","-6.125","6.625","-6.96875"
"1574192733382","184","0.020507812","-0.8847656","-0.5576172","-10.15625","-0.3125","-7.46875"
"1574192733382","185","-0.040039062","-0.8769531","-0.53027344","-4.09375","6.5","-6.90625"
"1574192733382","186","-0.06933594","-0.8574219","-0.56640625","-11.6875","-3.8125","-12.03125"
"1574192733382","187","-0.052734375","-0.8066406","-0.5576172","-2.09375","-3.25","-11.0"
"1574192733383","188","-0.07128906","-0.8574219","-0.5654297","3.15625","-6.25","-11.71875"
"1574192733383","189","-0.13671875","-0.89453125","-0.5341797","1.625","-3.375","-12.15625"
"1574192733778","190","-0.055664062","-0.8330078","-0.56933594","-3.0","-21.1875","-17.53125"
"1574192733778","191","-0.052734375","-0.87890625","-0.5644531","17.6875","-5.375","-20.875"
"1574192733779","192","-0.123046875","-0.8691406","-0.5048828","8.28125","7.90625","-20.84375"
"1574192733779","193","-0.037109375","-0.8623047","-0.45117188","12.5625","-2.6875","-30.90625"
"1574192733780","194","0.030273438","-0.90234375","-0.5097656","18.84375","-5.15625","-36.625"
"1574192733780","195","0.0087890625","-0.86816406","-0.4658203","23.375","6.8125","-39.3125"
"1574192733780","196","0.037109375","-0.8876953","-0.47265625","18.78125","7.90625","-44.28125"
"1574192733780","197","0.08691406","-0.9746094","-0.46972656","14.875","16.34375","-39.3125"
"1574192733781","198","0.14550781","-0.93359375","-0.44433594","19.46875","15.84375","-41.59375"
"1574192733782","199","0.17285156","-0.94140625","-0.41601562","13.03125","16.15625","-42.96875"
"1574192734176","200","0.09667969","-0.9169922","-0.3642578","18.40625","23.96875","-38.84375"
"1574192734176","201","0.17675781","-0.90234375","-0.4189453","15.0625","19.46875","-40.84375"
"1574192734176","202","0.3310547","-0.9453125","-0.42578125","16.53125","10.46875","-47.6875"
"1574192734177","203","0.2421875","-1.0361328","-0.26953125","28.5625","16.21875","-42.625"
"1574192734177","204","0.20214844","-0.8720703","-0.35546875","13.84375","11.40625","-50.6875"
"1574192734178","205","0.29882812","-0.8359375","-0.43164062","9.8125","10.1875","-51.96875"
"1574192734179","206","0.3515625","-0.8769531","-0.30273438","48.09375","27.8125","-42.4375"
"1574192734179","207","0.3720703","-0.90234375","-0.3203125","27.09375","21.28125","-34.6875"
"1574192734179","208","0.45214844","-0.8808594","-0.23339844","31.90625","15.0625","-31.3125"
"1574192734179","209","0.453125","-0.8691406","-0.23144531","23.78125","9.25","-22.90625"
"1574192734573","210","0.4736328","-0.83691406","-0.24121094","26.46875","3.71875","-21.375"
"1574192734574","211","0.49316406","-0.8808594","-0.17871094","23.125","3.46875","-19.0625"
"1574192734574","212","0.51464844","-0.890625","-0.16699219","22.375","1.375","-14.78125"
"1574192734574","213","0.50390625","-0.87890625","-0.16308594","16.34375","-0.5625","-14.0"
"1574192734574","214","0.48632812","-0.85546875","-0.18164062","17.375","-2.15625","-11.96875"
"1574192734574","215","0.4716797","-0.8671875","-0.125","18.96875","-3.875","-13.625"
"1574192734575","216","0.47558594","-0.8886719","-0.16210938","10.71875","1.6875","-9.125"
"1574192734576","217","0.47558594","-0.87890625","-0.13183594","14.5","6.15625","-7.78125"
"1574192734577","218","0.49414062","-0.8730469","-0.12109375","9.375","3.21875","-5.4375"
"1574192734577","219","0.5107422","-0.86621094","-0.13574219","3.90625","0.90625","-4.65625"
"1574192735366","220","0.5214844","-0.8691406","-0.125","-1.84375","1.375","-2.875"
"1574192735366","221","0.515625","-0.8623047","-0.13964844","-4.15625","1.28125","-0.6875"
"1574192735367","222","0.49316406","-0.84277344","-0.15625","-2.40625","0.96875","0.0"
"1574192735367","223","0.50097656","-0.8652344","-0.13476562","-4.28125","1.03125","3.03125"
"1574192735367","224","0.48632812","-0.8623047","-0.14355469","-10.28125","2.59375","6.46875"
"1574192735367","225","0.46777344","-0.8613281","-0.13574219","-10.875","5.28125","6.5625"
"1574192735367","226","0.46972656","-0.89453125","-0.125","-7.03125","5.96875","5.53125"
"1574192735368","227","0.44433594","-0.875","-0.17675781","-13.5625","5.34375","8.46875"
"1574192735368","228","0.4814453","-0.83203125","-0.15722656","-13.8125","8.96875","7.25"
"1574192735369","229","0.48632812","-0.86035156","-0.19238281","-19.96875","11.53125","6.28125"
"1574192735566","230","0.4609375","-0.89453125","-0.18945312","-21.9375","15.0","10.71875"
"1574192735566","231","0.46484375","-0.87890625","-0.17382812","-27.59375","16.84375","13.53125"
"1574192735566","232","0.44921875","-0.87890625","-0.19140625","-27.3125","19.15625","14.28125"
"1574192735566","233","0.46289062","-0.8935547","-0.19726562","-26.4375","16.34375","15.84375"
"1574192735567","234","0.43945312","-0.86328125","-0.2265625","-27.65625","16.9375","21.65625"
"1574192735567","235","0.44140625","-0.87109375","-0.23046875","-24.78125","16.34375","22.8125"
"1574192735567","236","0.45507812","-0.8886719","-0.22167969","-28.65625","14.15625","20.6875"
"1574192735567","237","0.45410156","-0.9003906","-0.24023438","-30.15625","7.4375","22.75"
"1574192735568","238","0.421875","-0.8808594","-0.2626953","-32.78125","1.3125","29.15625"
"1574192735568","239","0.40820312","-0.89453125","-0.28808594","-28.65625","0.0","36.0"
"1574192735765","240","0.3720703","-0.9160156","-0.30078125","-27.90625","-4.15625","42.40625"
"1574192735765","241","0.3251953","-0.87890625","-0.3125","-27.0625","-11.375","43.5625"
"1574192735766","242","0.2685547","-0.8769531","-0.32714844","-11.0625","-25.40625","51.0"
"1574192735766","243","0.20410156","-0.8964844","-0.4189453","2.59375","-21.875","49.46875"
"1574192735766","244","0.3779297","-1.0361328","-0.3388672","-6.5","-8.4375","22.5625"
"1574192735766","245","0.32226562","-1.0986328","-0.28320312","-41.09375","-23.5625","49.125"
"1574192735767","246","0.11621094","-0.9189453","-0.37695312","-36.8125","-18.75","67.71875"
"1574192735767","247","0.036132812","-0.7236328","-0.41210938","-17.34375","-25.21875","52.34375"
"1574192735767","248","0.053710938","-0.9394531","-0.50390625","-15.34375","-41.28125","44.34375"
"1574192735768","249","0.009765625","-0.9316406","-0.42382812","-9.53125","-23.28125","61.6875"
"1574192736162","250","-0.11230469","-0.94433594","-0.40820312","-16.375","-9.28125","46.4375"
"1574192736163","251","-0.15136719","-0.9013672","-0.48535156","-24.90625","-22.34375","22.875"
"1574192736163","252","-0.12011719","-0.8798828","-0.5029297","-19.25","-16.75","17.0"
"1574192736164","253","-0.16796875","-0.9169922","-0.4580078","-14.40625","-1.78125","20.96875"
"1574192736165","254","-0.12402344","-0.8613281","-0.5214844","-18.6875","-10.5","14.875"
"1574192736165","255","-0.09765625","-0.86035156","-0.55371094","-15.15625","-4.71875","5.46875"
"1574192736165","256","-0.19921875","-0.88378906","-0.5332031","-6.53125","-3.875","17.625"
"1574192736166","257","-0.22460938","-0.83984375","-0.48828125","-12.34375","-5.3125","21.78125"
"1574192736166","258","-0.17675781","-0.8261719","-0.5234375","-7.28125","-6.125","12.9375"
"1574192736166","259","-0.1953125","-0.8388672","-0.5136719","4.6875","-4.96875","10.25"
"1574192736756","260","-0.19042969","-0.8798828","-0.5341797","6.21875","-5.5625","5.21875"
"1574192736757","261","-0.16894531","-0.8828125","-0.53027344","9.3125","-7.28125","1.875"
"1574192736757","262","-0.1875","-0.86035156","-0.5107422","12.1875","-5.9375","2.78125"
"1574192736757","263","-0.23339844","-0.8515625","-0.4921875","10.84375","-3.3125","3.65625"
"1574192736758","264","-0.21972656","-0.8486328","-0.48828125","17.625","-3.125","2.0"
"1574192736759","265","-0.2265625","-0.8730469","-0.46484375","19.625","2.25","-4.84375"
"1574192736760","266","-0.20703125","-0.9033203","-0.47460938","10.0625","5.40625","-12.21875"
"1574192736760","267","-0.15820312","-0.91015625","-0.44628906","9.375","2.84375","-16.625"
"1574192736761","268","-0.15136719","-0.91015625","-0.46972656","-7.875","5.96875","-22.65625"
"1574192736761","269","-0.14257812","-0.8701172","-0.453125","-6.0","7.625","-24.90625"
"1574192736958","270","-0.12109375","-0.8671875","-0.48339844","-12.53125","8.40625","-25.15625"
"1574192736958","271","-0.13476562","-0.8857422","-0.4482422","4.1875","11.9375","-21.6875"
"1574192736958","272","-0.19042969","-0.89453125","-0.484375","3.03125","13.28125","-18.3125"
"1574192736959","273","-0.080078125","-0.8613281","-0.4638672","5.34375","11.15625","-26.625"
"1574192736959","274","-0.016601562","-0.90234375","-0.45410156","17.5625","6.28125","-30.15625"
"1574192736959","275","-0.051757812","-0.9375","-0.4765625","2.375","6.46875","-29.25"
"1574192736959","276","-0.06347656","-0.86035156","-0.3798828","27.875","8.28125","-28.75"
"1574192736961","277","0.059570312","-0.9140625","-0.49414062","5.53125","-7.53125","-36.03125"
"1574192736961","278","-0.0146484375","-1.0019531","-0.33691406","33.125","16.65625","-27.25"
"1574192736961","279","-0.043945312","-0.91796875","-0.38183594","29.21875","1.625","-31.875"
"1574192737354","280","0.09667969","-1.0146484","-0.40820312","5.34375","0.71875","-51.34375"
"1574192737355","281","0.060546875","-0.92285156","-0.3046875","27.09375","15.0","-47.8125"
"1574192737355","282","0.06640625","-0.9433594","-0.32128906","31.25","20.125","-53.0625"
"1574192737355","283","0.13085938","-1.1240234","-0.33398438","2.25","14.625","-56.09375"
"1574192737356","284","0.08203125","-0.9267578","-0.29296875","7.625","8.46875","-43.96875"
"1574192737356","285","0.12207031","-0.91503906","-0.31835938","-14.96875","23.53125","-48.125"
"1574192737356","286","0.22070312","-0.8964844","-0.3486328","6.6875","43.75","-55.1875"
"1574192737356","287","0.3544922","-0.83691406","-0.2421875","78.59375","30.625","-55.0625"
"1574192737356","288","0.43945312","-0.9423828","-0.18164062","38.6875","41.375","-36.15625"
"1574192737358","289","0.4111328","-0.88378906","-0.29101562","22.8125","28.5625","-27.3125"
"1574192737950","290","0.5488281","-0.89746094","-0.11035156","32.875","15.65625","-22.96875"
"1574192737951","291","0.5136719","-0.9296875","-0.083984375","5.0625","2.84375","-17.96875"
"1574192737951","292","0.5","-0.8876953","-0.13964844","1.15625","-8.8125","-17.03125"
"1574192737951","293","0.42578125","-0.87890625","-0.17382812","15.90625","-4.59375","-14.0"
"1574192737952","294","0.38671875","-0.87109375","-0.14550781","26.84375","-3.0","-16.0625"
"1574192737952","295","0.38867188","-0.91308594","-0.15136719","29.09375","0.09375","-15.03125"
"1574192737952","296","0.42578125","-0.91308594","-0.1015625","28.96875","-1.71875","-13.125"
"1574192737952","297","0.4453125","-0.8730469","-0.10058594","16.65625","3.59375","-9.28125"
"1574192737952","298","0.47851562","-0.88378906","-0.05859375","19.75","4.4375","-7.53125"
"1574192737953","299","0.46972656","-0.8935547","-0.060546875","16.34375","2.0625","-6.4375"
"1574192738744","300","0.48242188","-0.8935547","-0.047851562","14.28125","-4.09375","-5.875"
"1574192738745","301","0.4609375","-0.9042969","-0.080078125","3.53125","-2.40625","-4.84375"
"1574192738747","302","0.48046875","-0.88964844","-0.07714844","1.28125","-2.15625","-5.3125"
"1574192738747","303","0.44628906","-0.88378906","-0.07519531","-1.3125","-1.1875","-3.8125"
"1574192738747","304","0.43164062","-0.87109375","-0.052734375","1.75","4.1875","-6.78125"
"1574192738748","305","0.43359375","-0.8876953","-0.038085938","4.5625","8.84375","-3.25"
"1574192738748","306","0.47558594","-0.8701172","-0.055664062","-0.5625","8.21875","2.3125"
"1574192738748","307","0.48046875","-0.8671875","-0.049804688","-6.96875","14.5625","7.375"
"1574192738748","308","0.5341797","-0.859375","-0.061523438","-14.25","13.65625","8.03125"
"1574192738749","309","0.53027344","-0.8886719","-0.045898438","-19.1875","15.90625","14.15625"
"1574192738750","310","0.5107422","-0.88964844","-0.061523438","-28.875","14.875","16.78125"
"1574192738750","311","0.49609375","-0.88964844","-0.072265625","-24.3125","12.9375","18.125"
"1574192738750","312","0.46777344","-0.9189453","-0.08300781","-23.625","10.40625","24.75"
"1574192738751","313","0.40722656","-0.921875","-0.06640625","-26.8125","6.28125","31.78125"
"1574192738752","314","0.41308594","-0.90234375","-0.08691406","-28.65625","-1.3125","24.65625"
"1574192738752","315","0.40429688","-0.9003906","-0.13378906","-25.96875","-4.65625","29.78125"
"1574192738752","316","0.35546875","-0.9453125","-0.13867188","-22.46875","-5.625","38.8125"
"1574192738752","317","0.29101562","-0.9658203","-0.16699219","-26.4375","-7.15625","43.5625"
"1574192738753","318","0.30273438","-0.93652344","-0.18554688","-29.5625","-9.46875","41.90625"
"1574192738753","319","0.26660156","-0.93066406","-0.20996094","-32.25","-13.5625","48.5625"
"1574192739144","320","0.20019531","-0.9550781","-0.25683594","-28.6875","-9.0","51.8125"
"1574192739145","321","0.20800781","-0.9248047","-0.20117188","-22.15625","-9.65625","47.96875"
"1574192739145","322","0.06640625","-1.0400391","-0.30664062","-35.71875","-4.34375","64.875"
"1574192739145","323","0.16992188","-0.9794922","-0.2529297","-38.09375","6.28125","24.15625"
"1574192739146","324","0.25683594","-1.0371094","-0.2783203","-22.0","-7.53125","18.1875"
"1574192739147","325","0.111328125","-1.0498047","-0.33496094","-44.28125","-8.3125","70.1875"
"1574192739147","326","-0.064453125","-0.7949219","-0.30371094","-3.3125","-23.21875","53.4375"
"1574192739148","327","0.061523438","-0.8613281","-0.45898438","-38.90625","-46.59375","18.28125"
"1574192739148","328","-0.021484375","-1.046875","-0.359375","-28.09375","-19.5","43.3125"
"1574192739148","329","-0.19433594","-0.96484375","-0.35546875","-33.21875","-3.1875","33.1875"
"1574192739542","330","-0.1796875","-0.890625","-0.48339844","-40.40625","-25.40625","25.75"
"1574192739543","331","-0.14160156","-0.8886719","-0.48242188","-25.15625","-16.5625","17.0625"
"1574192739543","332","-0.18945312","-0.90722656","-0.48339844","-14.3125","-14.40625","8.71875"
"1574192739543","333","-0.19433594","-0.87402344","-0.48242188","-12.53125","-12.28125","7.375"
"1574192739543","334","-0.22753906","-0.8828125","-0.47460938","-9.34375","-3.5625","10.375"
"1574192739544","335","-0.18554688","-0.84765625","-0.48632812","-17.40625","-9.96875","5.90625"
"1574192739544","336","-0.11425781","-0.8730469","-0.48828125","-17.15625","-10.34375","3.59375"
"1574192739545","337","-0.15429688","-0.8964844","-0.49121094","-9.28125","-7.8125","4.125"
"1574192739546","338","-0.21289062","-0.8886719","-0.51464844","-8.9375","-8.5","1.5"
"1574192739546","339","-0.19433594","-0.84472656","-0.50390625","-3.5625","-12.40625","4.375"
"1574192740138","340","-0.19824219","-0.86035156","-0.55078125","-5.03125","-10.09375","5.65625"
"1574192740139","341","-0.20898438","-0.8359375","-0.5341797","0.59375","-6.25","1.03125"
"1574192740139","342","-0.22167969","-0.8330078","-0.5205078","3.9375","-6.0","0.71875"
"1574192740140","343","-0.21875","-0.8730469","-0.5058594","5.71875","-3.8125","2.3125"
"1574192740140","344","-0.16796875","-0.8574219","-0.515625","4.625","-8.125","-2.9375"
"1574192740141","345","-0.19140625","-0.9111328","-0.4892578","-0.125","-5.5","-7.34375"
"1574192740141","346","-0.15820312","-0.8701172","-0.47851562","-8.125","-5.5","-16.5"
"1574192740142","347","-0.15917969","-0.8339844","-0.50390625","-8.6875","-7.46875","-18.75"
"1574192740142","348","-0.23632812","-0.8925781","-0.5058594","-8.0","0.15625","-22.0625"
"1574192740143","349","-0.17382812","-0.7792969","-0.5625","-2.8125","-1.3125","-26.6875"
"1574192740335","350","-0.15917969","-0.85839844","-0.52734375","4.6875","7.25","-18.09375"
"1574192740336","351","-0.15429688","-0.86328125","-0.5498047","13.28125","4.25","-16.1875"
"1574192740336","352","-0.17675781","-0.8730469","-0.5097656","15.0625","4.25","-19.84375"
"1574192740336","353","-0.16015625","-0.8457031","-0.51464844","17.875","5.0","-28.6875"
"1574192740336","354","-0.107421875","-0.86621094","-0.47070312","22.875","4.0625","-25.90625"
"1574192740337","355","-0.072265625","-0.9248047","-0.4501953","22.75","8.90625","-27.25"
"1574192740337","356","-0.052734375","-0.93652344","-0.42578125","36.65625","2.375","-34.8125"
"1574192740337","357","-0.078125","-0.9267578","-0.36523438","39.65625","-4.40625","-43.21875"
"1574192740338","358","-0.0859375","-1.0058594","-0.34375","30.1875","-6.5","-48.96875"
"1574192740338","359","-0.049804688","-0.9482422","-0.28125","37.53125","10.71875","-55.6875"
"1574192740735","360","0.021484375","-0.9736328","-0.39257812","23.90625","8.90625","-58.90625"
"1574192740737","361","0.07324219","-0.8964844","-0.23925781","40.625","20.625","-54.34375"
"1574192740737","362","0.032226562","-1.1601562","-0.3232422","28.25","33.125","-46.59375"
"1574192740737","363","0.13183594","-0.98828125","-0.20117188","37.71875","47.03125","-60.5625"
"1574192740738","364","0.11621094","-0.97265625","-0.2734375","13.0","39.09375","-54.53125"
"1574192740738","365","0.15527344","-0.9658203","-0.17578125","31.53125","59.625","-41.875"
"1574192740738","366","0.4140625","-0.8691406","-0.1328125","47.28125","33.0","-52.6875"
"1574192740739","367","0.43554688","-0.93847656","0.056640625","37.15625","40.625","-33.84375"
"1574192740739","368","0.31445312","-0.9082031","-0.07519531","19.03125","26.34375","-31.21875"
"1574192740739","369","0.39941406","-0.84765625","-0.115234375","25.125","18.78125","-36.40625"
"1574192741132","370","0.4951172","-0.9667969","-0.0107421875","27.375","23.71875","-31.25"
"1574192741133","371","0.4921875","-0.96484375","0.032226562","17.6875","16.09375","-28.53125"
"1574192741133","372","0.48339844","-0.8935547","-0.0146484375","10.84375","10.0625","-22.59375"
"1574192741134","373","0.46484375","-0.8925781","-0.0146484375","8.90625","9.125","-23.40625"
"1574192741135","374","0.4658203","-0.8984375","0.022460938","8.21875","4.6875","-20.21875"
"1574192741135","375","0.46972656","-0.8828125","0.029296875","5.125","4.9375","-10.625"
"1574192741135","376","0.4482422","-0.8779297","0.0126953125","2.65625","4.3125","-6.84375"
"1574192741135","377","0.45996094","-0.90234375","0.021484375","4.8125","5.34375","-10.21875"
"1574192741136","378","0.4873047","-0.8701172","0.0","-3.4375","7.75","-12.53125"
"1574192741136","379","0.5048828","-0.86035156","-0.030273438","-10.5625","12.125","-11.25"
"1574192741725","380","0.55078125","-0.8769531","0.0048828125","-11.0","11.875","-6.78125"
"1574192741726","381","0.5097656","-0.8730469","0.0625","-10.5625","8.65625","0.90625"
"1574192741726","382","0.5097656","-0.8173828","0.016601562","-14.34375","5.71875","0.84375"
"1574192741726","383","0.5361328","-0.85058594","-0.0029296875","-13.1875","3.03125","4.0625"
"1574192741727","384","0.52246094","-0.8730469","-0.01171875","-15.21875","4.5","8.59375"
"1574192741728","385","0.5371094","-0.8564453","-0.056640625","-19.3125","1.6875","8.15625"
"1574192741728","386","0.5048828","-0.88183594","-0.040039062","-20.15625","1.4375","13.15625"
"1574192741729","387","0.48535156","-0.8515625","-0.06542969","-20.875","-1.25","13.53125"
"1574192741729","388","0.46777344","-0.8691406","-0.06347656","-21.8125","-4.46875","15.1875"
"1574192741729","389","0.4375","-0.9111328","-0.07519531","-22.28125","-7.65625","22.1875"
"1574192741926","390","0.38378906","-0.90722656","-0.115234375","-17.84375","-5.75","31.25"
"1574192741927","391","0.40234375","-0.91796875","-0.123046875","-17.53125","-3.96875","29.15625"
"1574192741927","392","0.3798828","-0.9355469","-0.10546875","-9.84375","-3.96875","34.09375"
"1574192741927","393","0.39746094","-0.9111328","-0.125","-6.53125","-7.53125","33.625"
"1574192741928","394","0.34570312","-0.9082031","-0.14257812","-4.53125","-9.71875","39.96875"
"1574192741928","395","0.29101562","-0.953125","-0.13085938","-5.03125","-11.375","47.90625"
"1574192741928","396","0.25976562","-0.9433594","-0.1328125","-6.90625","-5.375","42.53125"
"1574192741930","397","0.25097656","-0.9394531","-0.12109375","-4.59375","-19.90625","40.75"
"1574192741930","398","0.1875","-1.0048828","-0.15136719","1.15625","-22.53125","58.03125"
"1574192741930","399","0.13476562","-1.0458984","-0.12792969","-16.875","-10.40625","49.53125"
"1574192742323","400","0.2421875","-1.0302734","-0.12011719","-31.375","-10.21875","13.0"
"1574192742323","401","0.19042969","-1.0986328","-0.16503906","-49.9375","-7.78125","42.21875"
"1574192742324","402","0.095703125","-1.0332031","-0.19433594","-31.5","-12.90625","67.6875"
"1574192742324","403","0.03515625","-0.9550781","-0.22851562","-40.46875","-16.375","50.46875"
"1574192742324","404","0.08984375","-0.95703125","-0.26367188","-38.46875","-30.96875","33.3125"
"1574192742324","405","-0.025390625","-0.95214844","-0.234375","-22.40625","-17.40625","45.9375"
"1574192742325","406","-0.13476562","-0.9199219","-0.29882812","-30.96875","-27.90625","43.375"
"1574192742325","407","-0.125","-0.9267578","-0.3310547","-25.21875","-31.25","38.5"
"1574192742325","408","-0.15625","-0.9892578","-0.3466797","-9.65625","-19.96875","32.875"
"1574192742326","409","-0.22070312","-0.9248047","-0.3935547","-19.96875","-17.03125","31.1875"
"1574192743514","410","-0.28320312","-0.9111328","-0.38378906","-10.09375","-12.59375","28.375"
"1574192743515","411","-0.24511719","-0.91503906","-0.42871094","-17.78125","-9.65625","19.6875"
"1574192743515","412","-0.2578125","-0.8964844","-0.38476562","-12.71875","-2.875","20.0625"
"1574192743516","413","-0.28125","-0.875","-0.41210938","-14.59375","3.59375","19.6875"
"1574192743516","414","-0.27734375","-0.8720703","-0.40722656","-9.46875","2.59375","17.3125"
"1574192743516","415","-0.29492188","-0.88671875","-0.4091797","2.25","9.375","17.875"
"1574192743516","416","-0.3017578","-0.8886719","-0.39648438","10.84375","4.875","17.5"
"1574192743517","417","-0.2841797","-0.890625","-0.39941406","20.5","2.90625","16.53125"
"1574192743517","418","-0.28222656","-0.9355469","-0.37890625","25.125","2.84375","17.875"
"1574192743517","419","-0.2783203","-0.8964844","-0.31933594","27.03125","7.25","12.375"
