"# PR data"
"# Start time: 20191119T194921"
"# Subject: joao"
"# Activity type: Bicep curl"
"# Correctness: Incorrect"
"# Notes: "
""
"timestamp","seq","accel_x","accel_y","accel_z","gyro_x","gyro_y","gyro_z"
"1574192962141","0","0.20117188","-0.9628906","-0.26953125","-3.8125","9.75","3.53125"
"1574192962142","1","0.19238281","-0.96972656","-0.25878906","-5.25","9.09375","4.1875"
"1574192962142","2","0.19042969","-0.96484375","-0.2705078","-1.53125","4.6875","3.34375"
"1574192962142","3","0.19726562","-0.9511719","-0.27246094","-1.65625","0.0","0.09375"
"1574192962142","4","0.20703125","-0.94921875","-0.27734375","1.9375","-1.125","0.65625"
"1574192962143","5","0.19140625","-0.9482422","-0.27734375","-0.25","0.15625","-1.84375"
"1574192962143","6","0.17089844","-0.96484375","-0.26464844","-0.875","-2.21875","-2.9375"
"1574192962143","7","0.18652344","-0.9667969","-0.28710938","5.40625","-2.875","-0.875"
"1574192962143","8","0.20703125","-0.9580078","-0.27441406","1.21875","2.375","-0.5"
"1574192962144","9","0.20019531","-0.95410156","-0.2783203","0.0","2.25","0.78125"
"1574192962734","10","0.18652344","-0.9580078","-0.28515625","0.09375","2.125","1.75"
"1574192962735","11","0.1875","-0.96875","-0.265625","-1.84375","2.59375","1.625"
"1574192962735","12","0.18652344","-0.9638672","-0.26953125","-0.0625","3.15625","0.53125"
"1574192962736","13","0.18652344","-0.9580078","-0.2763672","-0.125","2.78125","-0.6875"
"1574192962736","14","0.18359375","-0.94921875","-0.2763672","2.3125","2.0625","0.40625"
"1574192962737","15","0.17285156","-0.9609375","-0.26757812","0.03125","3.71875","1.09375"
"1574192962737","16","0.17285156","-0.96191406","-0.26757812","1.4375","4.0","-0.625"
"1574192962737","17","0.17675781","-0.9609375","-0.25878906","0.84375","3.34375","0.28125"
"1574192962737","18","0.17089844","-0.96484375","-0.25585938","-3.375","2.90625","-0.3125"
"1574192962738","19","0.17285156","-0.9707031","-0.26464844","2.0","4.6875","0.78125"
"1574192962936","20","0.17773438","-0.95410156","-0.26757812","1.3125","4.0","0.53125"
"1574192962936","21","0.16894531","-0.9501953","-0.25976562","1.4375","4.1875","1.03125"
"1574192962937","22","0.17382812","-0.97558594","-0.27441406","2.65625","1.3125","1.21875"
"1574192962937","23","0.20703125","-0.98535156","-0.24414062","-2.34375","-0.8125","0.71875"
"1574192962937","24","0.18945312","-0.95996094","-0.23144531","-4.65625","1.8125","0.03125"
"1574192962939","25","0.16699219","-0.9482422","-0.25195312","-3.875","1.9375","0.09375"
"1574192962939","26","0.17578125","-0.95996094","-0.2763672","-3.3125","-1.46875","-1.59375"
"1574192962939","27","0.17773438","-0.95410156","-0.26464844","-3.25","-2.21875","-3.3125"
"1574192962939","28","0.18652344","-0.95703125","-0.2626953","-1.90625","-1.3125","-3.5"
"1574192962940","29","0.18359375","-0.96191406","-0.27148438","-1.84375","-1.71875","-3.8125"
"1574192963335","30","0.16992188","-0.9501953","-0.27539062","-0.625","0.65625","-3.625"
"1574192963336","31","0.17480469","-0.95214844","-0.27734375","1.03125","-0.6875","-2.875"
"1574192963336","32","0.18164062","-0.96972656","-0.26464844","-2.34375","0.59375","-2.8125"
"1574192963337","33","0.18945312","-0.9609375","-0.2626953","-4.40625","-0.5","-3.25"
"1574192963337","34","0.18652344","-0.9609375","-0.2734375","-1.53125","2.71875","-0.8125"
"1574192963337","35","0.17675781","-0.9560547","-0.2783203","-2.8125","3.28125","-1.1875"
"1574192963337","36","0.18261719","-0.9609375","-0.27734375","-3.5625","1.6875","-1.71875"
"1574192963339","37","0.18652344","-0.96484375","-0.2763672","-3.6875","1.5","-2.15625"
"1574192963339","38","0.19042969","-0.95996094","-0.27441406","-3.375","0.84375","-2.53125"
"1574192963339","39","0.18847656","-0.9609375","-0.27734375","-4.71875","1.5","-1.84375"
"1574192963731","40","0.19335938","-0.95410156","-0.28125","-4.15625","1.3125","-1.65625"
"1574192963731","41","0.19433594","-0.953125","-0.2841797","-4.15625","0.84375","-0.9375"
"1574192963731","42","0.18945312","-0.94921875","-0.2939453","-3.3125","-0.0625","-2.09375"
"1574192963732","43","0.18945312","-0.94628906","-0.2919922","-2.03125","1.15625","-2.53125"
"1574192963732","44","0.19335938","-0.94921875","-0.2998047","-1.25","-0.0625","-2.28125"
"1574192963732","45","0.19335938","-0.96191406","-0.2841797","-0.6875","2.0625","0.0"
"1574192963732","46","0.19726562","-0.95703125","-0.27734375","-1.65625","2.1875","0.21875"
"1574192963733","47","0.17285156","-0.953125","-0.28125","-5.25","1.03125","-1.53125"
"1574192963733","48","0.17382812","-0.95996094","-0.2998047","-1.46875","1.28125","-0.125"
"1574192963733","49","0.17285156","-0.9609375","-0.27734375","-1.84375","3.9375","-0.25"
"1574192964128","50","0.16894531","-0.9560547","-0.2734375","-2.6875","2.5","-1.78125"
"1574192964129","51","0.17089844","-0.95703125","-0.28515625","-3.1875","1.5625","-2.75"
"1574192964129","52","0.18457031","-0.9638672","-0.28515625","-2.28125","2.0","-2.875"
"1574192964129","53","0.19433594","-0.9658203","-0.29101562","-3.5625","1.28125","-1.84375"
"1574192964130","54","0.19238281","-0.93652344","-0.29785156","-1.53125","4.5","-1.34375"
"1574192964130","55","0.1796875","-0.9375","-0.27929688","-2.53125","3.53125","-2.75"
"1574192964130","56","0.19238281","-0.96191406","-0.3017578","-0.0625","0.40625","-1.1875"
"1574192964130","57","0.19921875","-0.9511719","-0.30078125","-0.125","2.1875","-0.625"
"1574192964131","58","0.1796875","-0.9501953","-0.28125","0.96875","3.09375","-1.53125"
"1574192964131","59","0.19042969","-0.9394531","-0.2939453","0.84375","3.53125","0.09375"
"1574192964527","60","0.18554688","-0.9453125","-0.3017578","0.53125","5.125","0.28125"
"1574192964529","61","0.18164062","-0.9550781","-0.296875","0.15625","6.9375","-0.125"
"1574192964529","62","0.18847656","-0.9375","-0.30078125","1.4375","3.65625","-2.9375"
"1574192964530","63","0.20507812","-0.9638672","-0.27929688","2.96875","5.34375","2.375"
"1574192964530","64","0.21289062","-0.96972656","-0.2861328","-1.125","7.4375","1.625"
"1574192964530","65","0.20214844","-0.93847656","-0.296875","3.09375","6.5625","0.40625"
"1574192964530","66","0.19628906","-0.9628906","-0.27148438","-1.34375","5.84375","3.59375"
"1574192964531","67","0.2109375","-0.95996094","-0.28320312","-3.6875","3.65625","1.6875"
"1574192964531","68","0.1875","-0.9394531","-0.27929688","2.125","5.53125","0.0"
"1574192964531","69","0.18652344","-0.9580078","-0.2783203","-2.03125","4.625","0.65625"
"1574192964925","70","0.203125","-0.9667969","-0.29003906","0.28125","2.0625","-0.3125"
"1574192964925","71","0.19433594","-0.96191406","-0.27246094","4.125","5.59375","-0.1875"
"1574192964925","72","0.16796875","-0.95703125","-0.265625","3.46875","5.46875","0.65625"
"1574192964927","73","0.16992188","-0.9589844","-0.27441406","3.34375","2.84375","0.78125"
"1574192964927","74","0.17773438","-0.9814453","-0.2529297","3.09375","4.6875","2.4375"
"1574192964927","75","0.18164062","-0.9716797","-0.24414062","4.0","5.21875","3.59375"
"1574192964928","76","0.17871094","-0.9667969","-0.24609375","-0.4375","3.84375","3.65625"
"1574192964928","77","0.17382812","-0.9638672","-0.24121094","-4.40625","1.375","2.3125"
"1574192964928","78","0.17773438","-0.9765625","-0.2529297","1.5625","1.5","4.125"
"1574192964928","79","0.17675781","-0.9746094","-0.24902344","0.90625","0.28125","0.96875"
"1574192965320","80","0.16699219","-0.9658203","-0.24414062","-1.125","-2.28125","-0.5625"
"1574192965321","81","0.1640625","-0.96484375","-0.25585938","-0.0625","-5.5","-1.1875"
"1574192965321","82","0.16699219","-0.9609375","-0.26757812","-0.3125","-5.875","-1.90625"
"1574192965321","83","0.18066406","-0.9609375","-0.26464844","1.375","-5.5625","-1.71875"
"1574192965322","84","0.17480469","-0.9638672","-0.25585938","-2.40625","-0.75","-1.59375"
"1574192965324","85","0.16308594","-0.97265625","-0.25097656","-1.59375","-1.1875","-1.96875"
"1574192965324","86","0.16015625","-0.97753906","-0.2626953","-3.75","-1.96875","-2.46875"
"1574192965324","87","0.15039062","-0.9580078","-0.25976562","-2.09375","-1.78125","-3.1875"
"1574192965325","88","0.1484375","-0.9550781","-0.25683594","-3.625","-1.90625","-3.375"
"1574192965325","89","0.15820312","-0.9628906","-0.27148438","-4.71875","-1.1875","-4.40625"
"1574192965915","90","0.16894531","-0.96191406","-0.26757812","-3.5","0.71875","-3.1875"
"1574192965916","91","0.17382812","-0.95214844","-0.27441406","-2.03125","3.65625","-1.84375"
"1574192965916","92","0.16894531","-0.95703125","-0.2578125","-7.78125","5.1875","-2.46875"
"1574192965916","93","0.17675781","-0.9560547","-0.28125","-6.3125","-1.1875","-3.5625"
"1574192965916","94","0.19238281","-0.95410156","-0.29101562","-1.59375","1.9375","-1.125"
"1574192965917","95","0.18457031","-0.95996094","-0.2763672","-3.1875","3.53125","-2.75"
"1574192965917","96","0.17382812","-0.9628906","-0.28515625","-2.75","1.28125","-2.75"
"1574192965918","97","0.18066406","-0.95703125","-0.28808594","-1.46875","1.28125","-1.90625"
"1574192965919","98","0.17871094","-0.9550781","-0.27929688","-2.46875","2.90625","-2.59375"
"1574192965919","99","0.18847656","-0.9589844","-0.2861328","-2.53125","3.03125","-1.46875"
"1574192966116","100","0.19140625","-0.9511719","-0.2919922","-1.96875","3.53125","-1.34375"
"1574192966117","101","0.18652344","-0.9511719","-0.28027344","-1.84375","2.71875","-2.53125"
"1574192966117","102","0.19042969","-0.95410156","-0.28515625","-2.6875","1.4375","-2.53125"
"1574192966117","103","0.19042969","-0.9560547","-0.29101562","-3.5","1.75","-2.34375"
"1574192966117","104","0.19042969","-0.95214844","-0.28320312","-1.96875","1.5","-2.03125"
"1574192966118","105","0.18261719","-0.9560547","-0.2890625","-2.21875","1.8125","-1.46875"
"1574192966118","106","0.19042969","-0.95410156","-0.28710938","-2.9375","0.40625","-0.9375"
"1574192966118","107","0.18359375","-0.94921875","-0.2939453","-2.9375","1.5","-1.71875"
"1574192966118","108","0.18359375","-0.9580078","-0.28320312","-2.28125","1.6875","-0.375"
"1574192966120","109","0.171875","-0.9550781","-0.28808594","-6.25","0.46875","-3.3125"
"1574192966713","110","0.18945312","-0.9667969","-0.2939453","-0.6875","-1.65625","-1.59375"
"1574192966714","111","0.19238281","-0.95703125","-0.2890625","-1.59375","1.28125","-0.875"
"1574192966714","112","0.17871094","-0.9550781","-0.2861328","-1.96875","1.28125","-1.53125"
"1574192966714","113","0.17578125","-0.9511719","-0.2939453","-1.71875","0.78125","-2.34375"
"1574192966714","114","0.17480469","-0.9511719","-0.28125","-2.875","2.1875","-1.65625"
"1574192966715","115","0.1875","-0.96777344","-0.2861328","-5.625","1.375","-0.875"
"1574192966715","116","0.18945312","-0.9589844","-0.3046875","-2.875","3.9375","0.03125"
"1574192966715","117","0.17871094","-0.9453125","-0.29589844","-0.5625","6.875","-0.25"
"1574192966715","118","0.20214844","-0.9375","-0.29003906","-2.53125","7.4375","0.34375"
"1574192966716","119","0.18652344","-0.9355469","-0.31640625","-0.6875","7.0625","-1.125"
"1574192966912","120","0.16699219","-0.9707031","-0.3017578","-1.90625","6.8125","-3.4375"
"1574192966913","121","0.17871094","-0.9345703","-0.3046875","2.5625","4.875","-5.6875"
"1574192966913","122","0.2109375","-0.9267578","-0.30664062","5.0625","5.65625","-3.75"
"1574192966914","123","0.23925781","-0.9433594","-0.3232422","4.5625","4.5625","-1.65625"
"1574192966914","124","0.23730469","-0.93847656","-0.30273438","7.0","6.34375","-2.46875"
"1574192966914","125","0.18847656","-0.96777344","-0.2607422","-2.59375","11.53125","3.90625"
"1574192966914","126","0.16308594","-0.96875","-0.3330078","-3.4375","2.125","-0.8125"
"1574192966915","127","0.1875","-0.93359375","-0.35058594","8.15625","6.34375","1.03125"
"1574192966915","128","0.17871094","-0.9277344","-0.24023438","3.21875","15.96875","3.90625"
"1574192966915","129","0.18847656","-0.9746094","-0.25097656","4.25","12.75","4.375"
"1574192967308","130","0.23828125","-0.98535156","-0.2734375","5.78125","12.875","9.125"
"1574192967309","131","0.22949219","-0.96484375","-0.22167969","0.0","19.09375","10.375"
"1574192967309","132","0.17285156","-0.9667969","-0.23339844","-2.875","14.5625","6.46875"
"1574192967310","133","0.17480469","-0.9550781","-0.2705078","2.0","2.0","4.9375"
"1574192967310","134","0.20117188","-0.96484375","-0.22363281","2.125","-0.875","2.5625"
"1574192967311","135","0.19042969","-0.9707031","-0.21875","4.0","1.5","0.84375"
"1574192967311","136","0.16894531","-0.9716797","-0.24414062","4.25","-1.25","-0.3125"
"1574192967311","137","0.16113281","-0.97558594","-0.24023438","4.125","-4.65625","-1.125"
"1574192967311","138","0.17089844","-0.9785156","-0.22753906","1.4375","-2.9375","-1.71875"
"1574192967312","139","0.17773438","-0.97558594","-0.25097656","3.46875","-2.8125","-2.15625"
"1574192967905","140","0.17675781","-0.98535156","-0.234375","3.28125","-4.28125","-0.625"
"1574192967905","141","0.17480469","-0.9873047","-0.23925781","1.28125","-3.90625","-0.625"
"1574192967906","142","0.16210938","-0.9765625","-0.22753906","-3.1875","-9.96875","-3.375"
"1574192967906","143","0.16992188","-0.9716797","-0.22851562","-7.65625","-10.9375","-7.40625"
"1574192967906","144","0.18066406","-0.95410156","-0.26757812","-0.9375","-12.34375","-5.09375"
"1574192967908","145","0.18359375","-0.9560547","-0.25390625","-4.90625","-7.71875","-5.15625"
"1574192967908","146","0.16992188","-0.95214844","-0.25390625","-4.40625","-4.53125","-4.96875"
"1574192967909","147","0.171875","-0.95410156","-0.26660156","-2.6875","-3.8125","-4.28125"
"1574192967909","148","0.17871094","-0.953125","-0.26367188","-1.96875","-0.25","-3.96875"
"1574192967909","149","0.17382812","-0.9560547","-0.26171875","-2.28125","-0.1875","-3.25"
"1574192968104","150","0.18066406","-0.9550781","-0.26464844","-0.5625","0.96875","-2.75"
"1574192968105","151","0.18261719","-0.96484375","-0.26171875","-1.84375","2.0","-1.84375"
"1574192968105","152","0.17480469","-0.9550781","-0.27246094","-0.75","2.5","-2.03125"
"1574192968105","153","0.1640625","-0.9609375","-0.2685547","-1.78125","1.8125","-2.15625"
"1574192968105","154","0.18847656","-0.95996094","-0.265625","-0.1875","1.28125","-0.375"
"1574192968105","155","0.20019531","-0.97558594","-0.25","-1.65625","6.40625","1.09375"
"1574192968106","156","0.19824219","-0.96972656","-0.24023438","-5.6875","9.3125","1.625"
"1574192968107","157","0.17773438","-0.9511719","-0.2734375","-2.09375","7.3125","-0.8125"
"1574192968108","158","0.18945312","-0.95703125","-0.27148438","-3.3125","2.125","-1.3125"
"1574192968108","159","0.20410156","-0.9716797","-0.2548828","-7.8125","0.84375","-2.875"
"1574192968503","160","0.18945312","-0.95996094","-0.27148438","-3.1875","-2.09375","-4.78125"
"1574192968503","161","0.18066406","-0.94921875","-0.28027344","-2.53125","0.15625","-4.59375"
"1574192968504","162","0.18554688","-0.94628906","-0.265625","-2.34375","1.625","-3.5625"
"1574192968504","163","0.20019531","-0.95996094","-0.27246094","-3.0625","2.5","-1.90625"
"1574192968504","164","0.19335938","-0.95996094","-0.26757812","-2.09375","3.84375","-1.40625"
"1574192968504","165","0.18847656","-0.95703125","-0.27441406","-1.0625","4.1875","-1.125"
"1574192968505","166","0.1875","-0.9550781","-0.2783203","-3.5","1.9375","-1.0"
"1574192968505","167","0.19042969","-0.94921875","-0.27929688","-1.25","1.28125","-1.34375"
"1574192968505","168","0.19726562","-0.9560547","-0.26464844","-1.46875","2.59375","0.21875"
"1574192968507","169","0.20507812","-0.953125","-0.2763672","-1.34375","4.375","2.90625"
"1574192969097","170","0.19140625","-0.9609375","-0.26757812","-1.96875","4.1875","2.65625"
"1574192969098","171","0.16308594","-0.96484375","-0.2607422","-1.65625","3.03125","2.0"
"1574192969098","172","0.16015625","-0.9707031","-0.25390625","-4.90625","2.65625","2.0"
"1574192969098","173","0.1796875","-0.9609375","-0.2626953","-4.34375","3.28125","0.53125"
"1574192969098","174","0.171875","-0.953125","-0.27441406","-2.46875","3.59375","-1.25"
"1574192969099","175","0.1484375","-0.95996094","-0.2685547","-7.15625","3.03125","-4.40625"
"1574192969099","176","0.17773438","-0.98339844","-0.296875","-4.09375","0.21875","-3.90625"
"1574192969099","177","0.22753906","-0.9482422","-0.2890625","-3.375","3.34375","-1.65625"
"1574192969099","178","0.21484375","-0.9404297","-0.2763672","-3.1875","11.34375","0.15625"
"1574192969100","179","0.20019531","-0.92871094","-0.30371094","0.15625","7.125","0.09375"
"1574192969296","180","0.20117188","-0.9277344","-0.30664062","-1.78125","2.375","-2.15625"
"1574192969297","181","0.21386719","-0.93359375","-0.3232422","4.8125","1.8125","-4.90625"
"1574192969297","182","0.21289062","-0.91796875","-0.32910156","4.375","1.3125","-5.8125"
"1574192969298","183","0.24902344","-0.9580078","-0.34375","5.84375","-4.21875","-3.5625"
"1574192969298","184","0.2763672","-0.9345703","-0.2841797","0.0","3.34375","1.875"
"1574192969298","185","0.22851562","-0.96484375","-0.27246094","-5.625","17.0","5.78125"
"1574192969298","186","0.099609375","-0.98046875","-0.36523438","5.0","-0.4375","-3.25"
"1574192969299","187","0.07519531","-0.9667969","-0.34472656","4.125","3.59375","-4.34375"
"1574192969299","188","0.21191406","-0.9746094","-0.18261719","-4.28125","7.5625","6.03125"
"1574192969299","189","0.2685547","-0.9863281","-0.18652344","-14.53125","11.21875","7.5"
"1574192969893","190","0.18554688","-0.95410156","-0.2705078","-10.15625","27.4375","5.78125"
"1574192969893","191","0.109375","-0.95410156","-0.2705078","-2.28125","4.5","4.0"
"1574192969893","192","0.19042969","-0.953125","-0.25195312","2.59375","-12.59375","2.65625"
"1574192969895","193","0.23535156","-0.9707031","-0.21875","-1.34375","-1.84375","3.09375"
"1574192969895","194","0.18164062","-0.9667969","-0.24707031","3.40625","1.875","0.09375"
"1574192969895","195","0.12988281","-0.9707031","-0.2607422","5.0625","-4.40625","-1.3125"
"1574192969896","196","0.15234375","-0.9765625","-0.25976562","4.75","-6.53125","-4.71875"
"1574192969896","197","0.18847656","-0.97753906","-0.2607422","2.1875","-3.3125","-6.53125"
"1574192969896","198","0.20898438","-0.97265625","-0.25878906","0.84375","-2.15625","-6.53125"
"1574192969896","199","0.20898438","-0.9628906","-0.26953125","-0.4375","-3.125","-6.5"
"1574192970093","200","0.20117188","-0.9628906","-0.30371094","7.625","-6.3125","-6.5"
"1574192970093","201","0.19140625","-0.95410156","-0.28320312","-0.5","-7.03125","-7.8125"
"1574192970093","202","0.20117188","-0.9433594","-0.2685547","-2.15625","-6.1875","-5.9375"
"1574192970094","203","0.203125","-0.95410156","-0.3046875","-4.28125","-9.21875","-2.28125"
"1574192970094","204","0.17382812","-0.9316406","-0.3095703","-1.34375","-6.0","-5.09375"
"1574192970095","205","0.16015625","-0.93847656","-0.28808594","2.1875","-5.8125","-2.875"
"1574192970096","206","0.18359375","-0.96972656","-0.27441406","-2.875","-10.75","-2.625"
"1574192970096","207","0.22070312","-0.9716797","-0.26464844","-0.3125","-4.21875","0.09375"
"1574192970096","208","0.18847656","-0.94140625","-0.26464844","1.8125","11.59375","0.90625"
"1574192970096","209","0.17089844","-0.94433594","-0.28320312","-1.40625","7.4375","1.6875"
"1574192970490","210","0.1953125","-0.95703125","-0.28515625","-1.53125","4.1875","2.0"
"1574192970490","211","0.20410156","-0.9433594","-0.26171875","2.0625","7.625","0.34375"
"1574192970490","212","0.20019531","-0.9482422","-0.25878906","1.3125","5.53125","1.3125"
"1574192970491","213","0.20996094","-0.96875","-0.26953125","-0.625","3.53125","2.0"
"1574192970491","214","0.203125","-0.9628906","-0.26660156","-0.5","5.46875","0.90625"
"1574192970491","215","0.18164062","-0.9609375","-0.2685547","-1.40625","5.1875","-0.6875"
"1574192970491","216","0.18652344","-0.9638672","-0.27148438","-2.21875","0.65625","-1.90625"
"1574192970493","217","0.19628906","-0.9638672","-0.2626953","-0.25","1.3125","-2.28125"
"1574192970493","218","0.18945312","-0.9580078","-0.26660156","-1.59375","3.84375","-1.46875"
"1574192970493","219","0.19628906","-0.95214844","-0.265625","-1.25","4.0","-0.375"
"1574192970887","220","0.20117188","-0.95996094","-0.25585938","-2.03125","4.125","1.15625"
"1574192970887","221","0.1875","-0.96777344","-0.25683594","-6.0625","0.84375","-0.3125"
"1574192970887","222","0.1796875","-0.97558594","-0.2626953","-1.90625","1.3125","0.65625"
"1574192970887","223","0.16015625","-0.96191406","-0.25195312","-2.6875","3.71875","-2.40625"
"1574192970888","224","0.16894531","-0.94921875","-0.25976562","-3.25","-0.0625","-3.5"
"1574192970888","225","0.1875","-0.9667969","-0.26660156","-4.46875","1.4375","-0.6875"
"1574192970888","226","0.18847656","-0.96875","-0.26660156","-4.71875","4.25","-0.5"
"1574192970888","227","0.171875","-0.9404297","-0.28125","-1.40625","7.75","-3.3125"
"1574192970889","228","0.1875","-0.9589844","-0.29101562","-2.34375","4.5","-3.0625"
"1574192970890","229","0.21582031","-0.95703125","-0.28222656","-1.65625","4.375","-2.03125"
"1574192971283","230","0.20703125","-0.9404297","-0.26953125","-1.25","10.3125","-2.09375"
"1574192971283","231","0.23339844","-0.9628906","-0.28808594","-5.09375","5.84375","1.375"
"1574192971284","232","0.22949219","-0.9267578","-0.31445312","-0.875","7.4375","-0.25"
"1574192971284","233","0.17578125","-0.91308594","-0.27734375","0.03125","8.34375","-4.09375"
"1574192971284","234","0.19335938","-0.9580078","-0.30664062","3.59375","4.4375","-1.90625"
"1574192971284","235","0.21582031","-0.94433594","-0.31054688","-6.25","4.0625","-6.53125"
"1574192971285","236","0.2607422","-0.97265625","-0.265625","-4.15625","9.75","-2.6875"
"1574192971285","237","0.29589844","-0.94921875","-0.27929688","-6.0625","6.875","5.78125"
"1574192971285","238","0.19433594","-0.9345703","-0.35351562","4.9375","-3.125","-1.96875"
"1574192971285","239","0.09277344","-0.9511719","-0.29882812","10.59375","9.9375","0.21875"
"1574192971681","240","0.14257812","-0.9589844","-0.22949219","-1.0","6.625","3.71875"
"1574192971682","241","0.23730469","-1.0087891","-0.20214844","-1.59375","-0.625","2.96875"
"1574192971682","242","0.23144531","-0.9824219","-0.22363281","-3.875","24.53125","5.21875"
"1574192971682","243","0.17285156","-0.9394531","-0.2705078","0.53125","16.65625","5.53125"
"1574192971683","244","0.18847656","-0.9482422","-0.24414062","-0.8125","0.21875","3.53125"
"1574192971683","245","0.24511719","-0.97558594","-0.2421875","-3.875","-0.8125","1.03125"
"1574192971683","246","0.23535156","-0.9716797","-0.24609375","-2.53125","1.03125","0.65625"
"1574192971683","247","0.18359375","-0.953125","-0.23828125","-3.5625","-2.875","-0.75"
"1574192971684","248","0.17285156","-0.9589844","-0.2861328","-0.5","-4.34375","-1.71875"
"1574192971684","249","0.18554688","-0.96191406","-0.2861328","-1.71875","-4.21875","-4.03125"
"1574192972279","250","0.19042969","-0.9707031","-0.25390625","-3.4375","-4.40625","-5.09375"
"1574192972280","251","0.20117188","-0.9658203","-0.28125","-4.59375","-8.0625","-7.15625"
"1574192972281","252","0.20410156","-0.9472656","-0.2939453","-4.34375","0.28125","-4.21875"
"1574192972282","253","0.20605469","-0.9560547","-0.28320312","-6.0625","-5.25","-6.78125"
"1574192972282","254","0.19335938","-0.9433594","-0.30371094","-1.0625","-8.375","-8.0625"
"1574192972282","255","0.19921875","-0.95703125","-0.2861328","-2.75","-6.90625","-7.40625"
"1574192972282","256","0.20996094","-0.9472656","-0.2841797","-2.34375","-6.59375","-6.4375"
"1574192972283","257","0.21679688","-0.94628906","-0.30859375","-0.625","-4.34375","-5.3125"
"1574192972283","258","0.21191406","-0.9482422","-0.29589844","-2.53125","-1.71875","-4.46875"
"1574192972284","259","0.20800781","-0.94140625","-0.28808594","-0.375","-1.84375","-2.6875"
"1574192972477","260","0.20507812","-0.9482422","-0.29003906","-1.125","1.6875","-1.71875"
"1574192972477","261","0.21582031","-0.94628906","-0.29492188","-2.46875","1.9375","0.09375"
"1574192972477","262","0.2109375","-0.94628906","-0.29882812","0.40625","2.96875","1.3125"
"1574192972477","263","0.20703125","-0.9482422","-0.28222656","-1.0","6.03125","1.3125"
"1574192972478","264","0.203125","-0.94140625","-0.2890625","1.3125","5.125","1.625"
"1574192972479","265","0.21679688","-0.9453125","-0.28125","-0.375","4.375","2.78125"
"1574192972480","266","0.2109375","-0.95410156","-0.27539062","-1.78125","3.34375","0.71875"
"1574192972480","267","0.2109375","-0.94921875","-0.29101562","2.3125","3.53125","2.125"
"1574192972480","268","0.20800781","-0.94921875","-0.28515625","0.28125","3.78125","1.4375"
"1574192972480","269","0.20019531","-0.9482422","-0.28125","-0.5","2.59375","1.15625"
"1574192972874","270","0.20214844","-0.94921875","-0.2841797","0.09375","2.90625","1.03125"
"1574192972875","271","0.19433594","-0.9501953","-0.28027344","-0.3125","4.6875","0.65625"
"1574192972876","272","0.19726562","-0.9560547","-0.2861328","0.0","5.0625","1.09375"
"1574192972876","273","0.19335938","-0.9453125","-0.28320312","0.09375","5.0","0.34375"
"1574192972876","274","0.1953125","-0.953125","-0.27441406","-0.125","5.46875","0.71875"
"1574192972877","275","0.19042969","-0.95996094","-0.28125","-1.1875","5.96875","0.65625"
"1574192972877","276","0.20214844","-0.9560547","-0.27734375","-1.0625","4.25","-0.125"
"1574192972877","277","0.20996094","-0.95214844","-0.2763672","-1.46875","5.59375","0.71875"
"1574192972878","278","0.20214844","-0.9511719","-0.27441406","-2.40625","5.53125","0.53125"
"1574192972878","279","0.18554688","-0.95410156","-0.27148438","-0.75","6.21875","-0.6875"
"1574192973271","280","0.18066406","-0.96875","-0.27246094","0.65625","5.78125","-0.4375"
"1574192973272","281","0.19140625","-0.96777344","-0.25585938","-3.25","-3.875","-4.46875"
"1574192973272","282","0.21777344","-0.9667969","-0.26464844","-1.78125","-3.125","-1.78125"
"1574192973272","283","0.18847656","-0.95703125","-0.25976562","-3.0625","2.71875","-2.8125"
"1574192973272","284","0.17578125","-0.9589844","-0.26953125","-3.4375","-0.875","-2.875"
"1574192973273","285","0.17675781","-0.96484375","-0.27734375","-5.09375","-2.8125","-4.03125"
"1574192973273","286","0.18359375","-0.9580078","-0.2783203","-3.90625","0.09375","-4.09375"
"1574192973273","287","0.19433594","-0.95410156","-0.27734375","-3.1875","4.1875","-2.40625"
"1574192973273","288","0.19140625","-0.9589844","-0.2861328","-2.625","5.28125","-1.78125"
"1574192973274","289","0.19824219","-0.9394531","-0.2939453","-0.25","6.15625","-2.625"
"1574192973669","290","0.19921875","-0.91308594","-0.27441406","0.84375","11.53125","-1.71875"
"1574192973670","291","0.2109375","-0.9394531","-0.3095703","3.03125","9.8125","-1.96875"
"1574192973670","292","0.23925781","-0.9345703","-0.33789062","3.21875","4.4375","-4.15625"
"1574192973670","293","0.2705078","-0.95214844","-0.3203125","3.21875","2.0625","1.3125"
"1574192973671","294","0.2685547","-0.95996094","-0.27929688","0.21875","6.8125","4.3125"
"1574192973671","295","0.26171875","-0.9433594","-0.28515625","-0.5625","11.53125","4.4375"
"1574192973671","296","0.25390625","-0.89746094","-0.27929688","-13.4375","20.125","4.0625"
"1574192973671","297","0.17675781","-0.9423828","-0.265625","-21.4375","3.65625","5.78125"
"1574192973672","298","0.10644531","-1.0068359","-0.44433594","31.40625","-16.625","-4.03125"
"1574192973672","299","0.2265625","-1.015625","-0.234375","-0.8125","-11.5625","-5.15625"
"1574192974067","300","0.24511719","-0.9326172","-0.018554688","-1.53125","14.875","13.71875"
"1574192974068","301","0.12402344","-0.89746094","-0.28027344","-3.0625","12.1875","7.125"
"1574192974069","302","0.13964844","-0.99609375","-0.38867188","-11.5625","-0.0625","-3.0"
"1574192974069","303","0.22460938","-1.0546875","-0.24511719","17.8125","-24.78125","-3.6875"
"1574192974069","304","0.24316406","-0.9511719","-0.18359375","1.3125","1.3125","0.15625"
"1574192974069","305","0.1953125","-0.90722656","-0.22167969","-10.625","2.90625","-1.65625"
"1574192974070","306","0.15625","-0.9707031","-0.3095703","-0.8125","-10.21875","-1.0"
"1574192974070","307","0.15917969","-0.9873047","-0.3017578","-3.6875","-4.84375","-5.21875"
"1574192974070","308","0.19042969","-0.9609375","-0.2763672","-0.75","-7.34375","-10.34375"
"1574192974070","309","0.22167969","-0.95214844","-0.2607422","-2.28125","-7.53125","-9.0"
"1574192974465","310","0.23730469","-0.94628906","-0.29589844","-7.34375","-2.6875","-5.03125"
"1574192974465","311","0.20898438","-0.93652344","-0.31835938","-2.625","-1.34375","-5.75"
"1574192974465","312","0.2109375","-0.92285156","-0.3076172","-1.40625","-6.3125","-6.71875"
"1574192974467","313","0.21582031","-0.9375","-0.29785156","-0.875","-5.4375","-5.6875"
"1574192974467","314","0.22851562","-0.9580078","-0.3125","3.15625","-4.84375","-2.46875"
"1574192974467","315","0.20800781","-0.9453125","-0.30664062","3.59375","-1.71875","0.46875"
"1574192974468","316","0.18652344","-0.9511719","-0.2841797","2.84375","1.6875","0.90625"
"1574192974468","317","0.18652344","-0.96191406","-0.27148438","2.71875","1.5625","1.75"
"1574192974468","318","0.19726562","-0.9609375","-0.27246094","-3.875","3.15625","1.5625"
"1574192974468","319","0.2109375","-0.9638672","-0.28125","-3.375","4.1875","-0.4375"
"1574192974861","320","0.20117188","-0.9609375","-0.2919922","0.15625","6.8125","-0.875"
"1574192974861","321","0.20214844","-0.9423828","-0.29101562","-0.375","3.28125","-2.40625"
"1574192974861","322","0.21289062","-0.9423828","-0.28710938","-1.125","0.59375","-1.78125"
"1574192974862","323","0.21484375","-0.94628906","-0.2841797","0.09375","1.15625","-3.375"
"1574192974862","324","0.21972656","-0.9433594","-0.2890625","-0.0625","4.25","-1.84375"
"1574192974863","325","0.21289062","-0.9394531","-0.28222656","-1.53125","8.09375","1.03125"
"1574192974863","326","0.21972656","-0.93847656","-0.2783203","0.03125","6.6875","1.6875"
"1574192974864","327","0.22558594","-0.9550781","-0.2783203","0.0","6.6875","1.75"
"1574192974864","328","0.21289062","-0.94921875","-0.26953125","3.46875","4.75","-0.1875"
"1574192974864","329","0.20703125","-0.9638672","-0.25878906","-0.75","2.125","-1.40625"
"1574192975258","330","0.21289062","-0.9511719","-0.27246094","-0.9375","-2.46875","-1.0"
"1574192975258","331","0.21289062","-0.95410156","-0.27148438","0.0","0.03125","-1.34375"
"1574192975259","332","0.1953125","-0.95996094","-0.2626953","-1.1875","-1.46875","-1.90625"
"1574192975259","333","0.1796875","-0.9638672","-0.25878906","-1.34375","-1.53125","-1.78125"
"1574192975259","334","0.18457031","-0.96484375","-0.26464844","-1.78125","0.0","-2.21875"
"1574192975259","335","0.18359375","-0.953125","-0.2705078","-3.5","-0.25","-2.53125"
"1574192975260","336","0.203125","-0.9472656","-0.28710938","-3.125","-0.0625","-2.625"
"1574192975261","337","0.21972656","-0.95410156","-0.29003906","-4.28125","0.65625","-1.90625"
"1574192975261","338","0.21582031","-0.9375","-0.27929688","-2.03125","4.625","-0.8125"
"1574192975262","339","0.19042969","-0.93066406","-0.2705078","-0.0625","5.40625","-1.65625"
"1574192976053","340","0.20800781","-0.94433594","-0.2998047","0.65625","0.28125","-0.6875"
"1574192976053","341","0.22363281","-0.9248047","-0.3125","3.90625","2.3125","-2.40625"
"1574192976054","342","0.20214844","-0.9580078","-0.28515625","5.0625","2.65625","-0.6875"
"1574192976054","343","0.20703125","-0.9560547","-0.3017578","1.5","1.375","1.75"
"1574192976054","344","0.19726562","-0.9550781","-0.28710938","1.4375","6.03125","1.3125"
"1574192976054","345","0.21191406","-0.95996094","-0.26953125","0.0","7.125","2.96875"
"1574192976055","346","0.23144531","-0.9404297","-0.27929688","-4.03125","9.75","4.0"
"1574192976055","347","0.22460938","-0.9296875","-0.28027344","-4.03125","20.625","2.65625"
"1574192976055","348","0.20605469","-0.9472656","-0.30859375","-4.21875","15.0","2.4375"
"1574192976057","349","0.15820312","-0.97753906","-0.32617188","0.0","5.90625","0.65625"
"1574192976250","350","0.22167969","-0.9970703","-0.27734375","5.0","-5.09375","-2.40625"
"1574192976251","351","0.27246094","-0.95996094","-0.17480469","-1.53125","11.875","5.78125"
"1574192976251","352","0.19433594","-0.9121094","-0.21484375","-6.375","25.75","7.8125"
"1574192976251","353","0.13671875","-0.9892578","-0.27929688","-6.59375","12.125","2.1875"
"1574192976252","354","0.18652344","-1.0078125","-0.2705078","-0.4375","-8.25","-2.53125"
"1574192976252","355","0.23535156","-0.9453125","-0.23144531","3.15625","-3.1875","-3.625"
"1574192976252","356","0.21679688","-0.93847656","-0.20898438","-2.28125","-0.0625","-1.25"
"1574192976252","357","0.18847656","-0.9746094","-0.24511719","-1.78125","-2.6875","-0.875"
"1574192976253","358","0.17382812","-0.99121094","-0.27734375","-1.40625","-2.28125","-2.6875"
"1574192976253","359","0.18457031","-0.95703125","-0.26953125","1.375","-5.15625","-5.25"
"1574192976847","360","0.203125","-0.9550781","-0.24804688","-2.53125","-5.5625","-5.4375"
"1574192976849","361","0.21777344","-0.9628906","-0.25976562","-7.40625","-9.40625","-6.96875"
"1574192976849","362","0.2265625","-0.96191406","-0.2919922","-5.4375","-10.03125","-5.625"
"1574192976849","363","0.21484375","-0.94140625","-0.3046875","-4.40625","-3.375","-6.65625"
"1574192976850","364","0.21289062","-0.93847656","-0.29101562","-3.0625","-9.125","-7.65625"
"1574192976850","365","0.21289062","-0.9433594","-0.29785156","-0.75","-10.4375","-8.1875"
"1574192976850","366","0.20898438","-0.94628906","-0.2890625","-3.0","-8.0","-7.78125"
"1574192976850","367","0.20800781","-0.9404297","-0.30566406","-3.4375","-4.84375","-4.90625"
"1574192976851","368","0.20117188","-0.9394531","-0.3125","-3.6875","-1.53125","-3.375"
"1574192976851","369","0.20019531","-0.94140625","-0.30664062","-1.90625","1.03125","-2.46875"
"1574192977047","370","0.21484375","-0.9453125","-0.3076172","-1.65625","3.9375","-0.75"
"1574192977048","371","0.21679688","-0.95410156","-0.27929688","-3.5625","7.1875","0.96875"
"1574192977048","372","0.22753906","-0.94921875","-0.2939453","-5.9375","8.53125","1.5625"
"1574192977049","373","0.22363281","-0.94921875","-0.31933594","-4.84375","6.15625","0.34375"
"1574192977049","374","0.21484375","-0.94140625","-0.29589844","-1.90625","3.53125","-2.21875"
"1574192977050","375","0.22558594","-0.94140625","-0.2763672","-1.46875","1.03125","-3.375"
"1574192977050","376","0.21777344","-0.9394531","-0.28515625","-10.03125","-6.53125","-4.03125"
"1574192977050","377","0.19335938","-0.93847656","-0.35351562","-13.25","-21.0","-5.6875"
"1574192977050","378","0.28515625","-0.9472656","-0.3359375","-2.46875","-0.4375","1.3125"
"1574192977050","379","0.21777344","-0.90722656","-0.31835938","-3.75","19.40625","2.65625"
"1574192977246","380","0.19726562","-0.91503906","-0.328125","-5.8125","9.1875","1.21875"
"1574192977247","381","0.22460938","-0.9423828","-0.3359375","0.15625","6.03125","1.625"
"1574192977247","382","0.24316406","-0.9550781","-0.30273438","2.78125","7.5","2.125"
"1574192977247","383","0.22558594","-0.9404297","-0.32128906","8.15625","12.625","2.84375"
"1574192977247","384","0.22363281","-0.95996094","-0.31152344","9.6875","11.8125","6.03125"
"1574192977248","385","0.19335938","-0.9560547","-0.26660156","10.1875","18.28125","8.46875"
"1574192977249","386","0.15722656","-0.9345703","-0.29296875","-1.125","7.625","2.1875"
"1574192977249","387","0.21289062","-0.9501953","-0.30664062","-0.5625","-0.875","-0.6875"
"1574192977249","388","0.2265625","-0.96191406","-0.2783203","-0.9375","4.125","0.53125"
"1574192977250","389","0.21972656","-0.9511719","-0.2783203","-0.25","2.1875","0.15625"
"1574192977644","390","0.20703125","-0.94140625","-0.30664062","0.78125","0.78125","-0.6875"
"1574192977645","391","0.20410156","-0.9482422","-0.2861328","-2.03125","1.8125","-1.3125"
"1574192977645","392","0.20117188","-0.96191406","-0.28710938","-5.21875","-0.5625","-2.09375"
"1574192977646","393","0.21777344","-0.94628906","-0.30078125","1.8125","1.09375","0.0"
"1574192977646","394","0.20703125","-0.91503906","-0.28808594","-0.875","6.625","0.34375"
"1574192977646","395","0.18359375","-0.9296875","-0.296875","-2.15625","3.15625","-0.9375"
"1574192977646","396","0.20898438","-0.9550781","-0.3095703","-1.53125","3.71875","-1.0"
"1574192977648","397","0.23535156","-0.9501953","-0.31347656","1.4375","4.5625","-1.84375"
"1574192977648","398","0.234375","-0.92089844","-0.29589844","0.03125","4.5625","-2.34375"
"1574192977648","399","0.2578125","-0.94921875","-0.3310547","-3.90625","14.4375","-0.9375"
"1574192978041","400","0.23339844","-0.9423828","-0.2685547","-14.34375","16.46875","2.5625"
"1574192978042","401","0.15332031","-0.97265625","-0.3173828","12.125","-17.65625","-12.03125"
"1574192978042","402","0.123046875","-0.9560547","-0.4169922","9.75","-18.25","-17.46875"
"1574192978042","403","0.13964844","-0.95214844","-0.23828125","14.5","13.40625","-3.875"
"1574192978043","404","0.26660156","-0.9423828","-0.16308594","-8.0625","-0.3125","7.125"
"1574192978043","405","0.27441406","-0.9716797","-0.2421875","-19.0","22.6875","7.0"
"1574192978043","406","0.18261719","-0.9941406","-0.31054688","-13.5","35.9375","7.125"
"1574192978043","407","0.16992188","-0.9472656","-0.2890625","2.1875","3.46875","4.0"
"1574192978043","408","0.23730469","-0.93359375","-0.23242188","6.15625","1.8125","2.125"
"1574192978045","409","0.28710938","-0.9560547","-0.21289062","0.34375","-0.125","0.03125"
"1574192978440","410","0.2548828","-0.96972656","-0.24414062","-3.5","-3.5","-1.71875"
"1574192978440","411","0.20214844","-0.97265625","-0.29101562","-2.09375","-4.46875","-5.3125"
"1574192978440","412","0.19628906","-0.9472656","-0.2919922","2.90625","-7.8125","-7.78125"
"1574192978441","413","0.2421875","-0.921875","-0.2626953","-1.25","-9.53125","-8.1875"
"1574192978441","414","0.27148438","-0.9501953","-0.29003906","0.03125","-8.5625","-6.375"
"1574192978441","415","0.2529297","-0.9765625","-0.3046875","3.65625","-9.21875","-6.25"
"1574192978441","416","0.20898438","-0.93847656","-0.28125","2.375","-3.8125","-6.5"
"1574192978442","417","0.21484375","-0.9169922","-0.2841797","-5.09375","-4.15625","-7.21875"
"1574192978442","418","0.24902344","-0.9160156","-0.34277344","-0.5","-14.3125","-8.8125"
"1574192978442","419","0.24316406","-0.9580078","-0.32128906","1.375","-6.1875","-7.65625"
"1574192979034","420","0.21875","-0.9550781","-0.28808594","1.75","-1.1875","-4.21875"
"1574192979036","421","0.21191406","-0.9326172","-0.29003906","-3.1875","0.0","-2.03125"
"1574192979037","422","0.234375","-0.9169922","-0.32617188","-7.8125","0.28125","-1.34375"
"1574192979037","423","0.25878906","-0.94628906","-0.31054688","-5.4375","8.28125","3.53125"
"1574192979037","424","0.24609375","-0.9482422","-0.2939453","-7.21875","9.5","3.90625"
"1574192979038","425","0.23144531","-0.93652344","-0.3095703","-4.96875","3.40625","0.34375"
"1574192979038","426","0.24707031","-0.93066406","-0.31054688","-5.625","-0.6875","-1.53125"
"1574192979038","427","0.24707031","-0.92871094","-0.30078125","-5.8125","2.25","-2.21875"
"1574192979038","428","0.2421875","-0.93066406","-0.3173828","-3.96875","1.5","-1.65625"
"1574192979039","429","0.23730469","-0.9326172","-0.31640625","-3.5625","3.03125","-0.5625"
"1574192979233","430","0.234375","-0.9326172","-0.31054688","-2.34375","2.59375","-1.1875"
"1574192979233","431","0.23535156","-0.93359375","-0.3203125","-1.96875","1.6875","-1.59375"
"1574192979234","432","0.23144531","-0.9375","-0.31933594","-1.0625","0.71875","-2.03125"
"1574192979235","433","0.22949219","-0.9404297","-0.30566406","0.65625","1.625","-0.5"
"1574192979235","434","0.23828125","-0.94921875","-0.31054688","0.21875","4.5625","2.0"
"1574192979235","435","0.22460938","-0.93652344","-0.3154297","2.0","4.3125","0.09375"
"1574192979236","436","0.21679688","-0.93847656","-0.2939453","-0.5","3.65625","0.0"
"1574192979236","437","0.22949219","-0.9472656","-0.31347656","-2.53125","0.34375","-1.46875"
"1574192979236","438","0.25195312","-0.9423828","-0.31347656","2.84375","2.90625","1.21875"
"1574192979236","439","0.23730469","-0.9345703","-0.3017578","0.21875","7.25","0.84375"
"1574192979631","440","0.23046875","-0.9404297","-0.30273438","-1.65625","4.0","0.53125"
"1574192979632","441","0.22265625","-0.9394531","-0.30859375","0.84375","4.6875","1.6875"
"1574192979632","442","0.20703125","-0.93847656","-0.30664062","1.3125","5.21875","-0.625"
"1574192979632","443","0.24609375","-0.9355469","-0.328125","2.96875","0.65625","0.65625"
"1574192979632","444","0.25097656","-0.90234375","-0.31054688","6.28125","3.59375","1.75"
"1574192979634","445","0.24511719","-0.93652344","-0.3017578","6.03125","4.875","4.1875"
"1574192979634","446","0.2548828","-0.93066406","-0.30566406","2.5","8.46875","6.5625"
"1574192979635","447","0.23144531","-0.9423828","-0.296875","4.6875","7.8125","6.9375"
"1574192979635","448","0.22851562","-0.9472656","-0.296875","5.65625","3.21875","5.125"
"1574192979635","449","0.22460938","-0.9511719","-0.2705078","3.53125","5.0625","4.875"
"1574192980224","450","0.20507812","-0.9511719","-0.26953125","3.34375","4.8125","3.40625"
"1574192980224","451","0.21289062","-0.95996094","-0.2607422","1.4375","6.6875","4.1875"
"1574192980225","452","0.20703125","-0.9560547","-0.26367188","-4.78125","5.71875","3.09375"
"1574192980225","453","0.203125","-0.96484375","-0.2919922","-1.84375","5.0625","2.0"
"1574192980225","454","0.18261719","-0.95703125","-0.27539062","0.90625","3.09375","-0.375"
"1574192980225","455","0.18945312","-0.96972656","-0.25585938","-0.3125","4.0625","2.1875"
"1574192980226","456","0.21191406","-0.96777344","-0.23242188","-4.96875","1.9375","2.65625"
"1574192980227","457","0.20898438","-0.9765625","-0.23632812","-5.4375","5.59375","1.625"
"1574192980227","458","0.17871094","-0.9609375","-0.26367188","-5.15625","6.40625","0.34375"
"1574192980227","459","0.18066406","-0.9511719","-0.26757812","-3.25","0.59375","-0.75"
"1574192980623","460","0.19824219","-0.96191406","-0.2548828","-3.0625","-3.5625","-2.40625"
"1574192980624","461","0.19824219","-0.9746094","-0.25683594","-2.875","-2.15625","-2.59375"
"1574192980624","462","0.19824219","-0.96484375","-0.26953125","-3.6875","-0.3125","-3.375"
"1574192980624","463","0.21484375","-0.9453125","-0.27929688","-2.21875","-1.78125","-3.5"
"1574192980625","464","0.22265625","-0.9404297","-0.29296875","-1.53125","-2.21875","-3.25"
"1574192980625","465","0.20507812","-0.95703125","-0.2783203","-4.96875","-2.6875","-4.09375"
"1574192980625","466","0.19921875","-0.9482422","-0.296875","-2.9375","-8.25","-6.5"
"1574192980625","467","0.20507812","-0.9472656","-0.30859375","-3.90625","-8.625","-6.96875"
"1574192980626","468","0.21484375","-0.9511719","-0.31347656","-3.90625","-8.6875","-7.65625"
"1574192980627","469","0.20214844","-0.9296875","-0.3046875","-1.0","-3.25","-5.6875"
"1574192980823","470","0.19628906","-0.9296875","-0.3046875","-1.25","-1.53125","-4.40625"
"1574192980823","471","0.20605469","-0.9375","-0.3076172","0.21875","1.6875","-2.21875"
"1574192980824","472","0.20996094","-0.95214844","-0.30859375","-0.125","3.15625","-0.5625"
"1574192980824","473","0.21875","-0.9501953","-0.30273438","-1.84375","1.625","-0.375"
"1574192980824","474","0.22070312","-0.94628906","-0.30078125","-0.875","2.4375","-0.375"
"1574192980824","475","0.22167969","-0.94433594","-0.30566406","-3.1875","2.5","0.21875"
"1574192980825","476","0.21484375","-0.94628906","-0.29589844","-3.96875","5.84375","1.375"
"1574192980825","477","0.21386719","-0.9501953","-0.3125","-4.40625","6.625","1.4375"
"1574192980825","478","0.21191406","-0.9511719","-0.3046875","-5.4375","5.59375","0.09375"
"1574192980825","479","0.21875","-0.94140625","-0.3017578","-5.5625","5.59375","-1.0625"
"1574192981221","480","0.21679688","-0.94140625","-0.3046875","-3.5","5.28125","-0.75"
"1574192981222","481","0.21289062","-0.9423828","-0.3173828","-4.65625","6.15625","-0.5"
"1574192981223","482","0.20996094","-0.9472656","-0.3154297","-1.96875","4.3125","-1.46875"
"1574192981223","483","0.21191406","-0.9394531","-0.30859375","-3.4375","5.1875","-1.0"
"1574192981223","484","0.22265625","-0.9404297","-0.31347656","-5.03125","2.25","-0.75"
"1574192981223","485","0.22460938","-0.93847656","-0.31640625","-2.625","4.75","0.84375"
"1574192981224","486","0.21875","-0.9404297","-0.31054688","-2.46875","5.84375","1.03125"
"1574192981224","487","0.203125","-0.9423828","-0.29785156","-2.03125","4.6875","0.46875"
"1574192981224","488","0.20507812","-0.94921875","-0.31445312","-0.75","2.3125","-0.75"
"1574192981224","489","0.20996094","-0.9501953","-0.30664062","-0.5","-1.96875","-1.78125"
"1574192981620","490","0.21582031","-0.9472656","-0.30664062","-0.25","1.03125","-0.3125"
"1574192981620","491","0.20703125","-0.94921875","-0.3046875","-2.875","1.9375","0.0"
"1574192981620","492","0.20703125","-0.9658203","-0.30566406","-3.375","-1.34375","-0.1875"
"1574192981622","493","0.203125","-0.93066406","-0.31640625","-0.3125","2.84375","-1.0625"
"1574192981622","494","0.20800781","-0.92578125","-0.31835938","0.0","1.375","-0.8125"
"1574192981623","495","0.23828125","-0.93359375","-0.32128906","1.5625","2.5","2.65625"
"1574192981623","496","0.21484375","-0.9355469","-0.31835938","4.125","5.0625","0.65625"
"1574192981623","497","0.21679688","-0.9140625","-0.33203125","5.65625","2.1875","2.0"
"1574192981623","498","0.21777344","-0.92089844","-0.33691406","5.46875","1.5","2.0"
"1574192981624","499","0.21386719","-0.94433594","-0.31640625","9.125","3.03125","0.84375"
"1574192982215","500","0.22167969","-0.94628906","-0.3125","6.40625","-1.78125","0.84375"
"1574192982215","501","0.22167969","-0.9394531","-0.30664062","7.0","4.1875","3.40625"
"1574192982215","502","0.19140625","-0.95214844","-0.28808594","2.125","11.53125","1.09375"
"1574192982215","503","0.16992188","-0.9638672","-0.29785156","5.78125","4.25","-1.0"
"1574192982216","504","0.12988281","-0.96484375","-0.32226562","8.84375","1.3125","-4.46875"
"1574192982217","505","0.13183594","-0.97265625","-0.28808594","6.03125","13.59375","-4.34375"
"1574192982218","506","0.22167969","-0.96191406","-0.22753906","6.6875","12.625","2.71875"
"1574192982218","507","0.25878906","-0.9707031","-0.18652344","-8.0","18.84375","10.71875"
"1574192982218","508","0.20800781","-0.9609375","-0.22070312","-11.78125","25.9375","11.71875"
"1574192982218","509","0.15722656","-0.9746094","-0.2705078","-3.375","16.84375","6.9375"
"1574192982415","510","0.18457031","-0.9736328","-0.25097656","-3.1875","5.1875","4.6875"
"1574192982415","511","0.22460938","-0.953125","-0.21777344","-2.9375","1.03125","2.5625"
"1574192982415","512","0.22265625","-0.9511719","-0.23339844","-4.78125","0.40625","-0.25"
"1574192982416","513","0.20214844","-0.95996094","-0.25683594","-2.28125","-4.46875","-2.9375"
"1574192982416","514","0.18847656","-0.96191406","-0.27539062","0.46875","-7.78125","-4.09375"
"1574192982416","515","0.19335938","-0.97265625","-0.26953125","0.71875","-7.875","-5.21875"
"1574192982416","516","0.20214844","-0.9658203","-0.25585938","-4.34375","-9.15625","-6.84375"
"1574192982418","517","0.19726562","-0.97265625","-0.27539062","-5.5625","-9.15625","-7.40625"
"1574192982419","518","0.18457031","-0.9638672","-0.29785156","-2.28125","-7.53125","-9.46875"
"1574192982419","519","0.18554688","-0.9589844","-0.29296875","-3.5","-9.78125","-12.09375"
"1574192982810","520","0.19042969","-0.93847656","-0.2861328","-3.96875","-8.4375","-11.1875"
"1574192982811","521","0.18457031","-0.9472656","-0.29296875","-5.75","-6.78125","-9.125"
"1574192982811","522","0.21386719","-0.94921875","-0.31835938","-7.71875","-5.3125","-5.375"
"1574192982812","523","0.20605469","-0.9394531","-0.3203125","-5.03125","1.5","-3.6875"
"1574192982812","524","0.19824219","-0.93066406","-0.30371094","-5.5625","4.875","-1.46875"
"1574192982812","525","0.203125","-0.9433594","-0.29589844","-7.28125","4.0625","0.15625"
"1574192982812","526","0.20605469","-0.95703125","-0.3125","-8.4375","7.4375","-0.6875"
"1574192982813","527","0.22070312","-0.9472656","-0.31640625","-9.40625","7.96875","-0.8125"
"1574192982813","528","0.22949219","-0.9316406","-0.32226562","-8.25","5.46875","0.46875"
"1574192982813","529","0.22167969","-0.9375","-0.32617188","-5.75","5.1875","-0.375"
"1574192983209","530","0.23144531","-0.92871094","-0.3330078","-7.8125","4.125","-1.53125"
"1574192983210","531","0.22265625","-0.91796875","-0.3310547","-1.90625","1.6875","-2.59375"
"1574192983210","532","0.2109375","-0.9199219","-0.32421875","-3.75","0.71875","-3.75"
"1574192983210","533","0.21777344","-0.9316406","-0.33984375","-1.96875","-1.125","-2.46875"
"1574192983211","534","0.21582031","-0.9326172","-0.3330078","-0.5625","4.1875","0.09375"
"1574192983211","535","0.21289062","-0.9394531","-0.3251953","-0.9375","6.03125","0.40625"
"1574192983211","536","0.22167969","-0.9404297","-0.3154297","0.28125","5.40625","2.0"
"1574192983211","537","0.22070312","-0.9482422","-0.32128906","-0.625","6.40625","1.5625"
"1574192983212","538","0.21875","-0.9355469","-0.31835938","-1.65625","5.28125","0.90625"
"1574192983212","539","0.21875","-0.9375","-0.32421875","-0.4375","1.9375","0.21875"
"1574192983607","540","0.21875","-0.9355469","-0.3203125","0.46875","1.03125","-1.0"
"1574192983609","541","0.2265625","-0.93847656","-0.3154297","0.40625","0.78125","0.0"
"1574192983609","542","0.21777344","-0.93652344","-0.3251953","0.09375","1.6875","0.46875"
"1574192983610","543","0.20996094","-0.93652344","-0.32421875","1.3125","2.65625","0.65625"
"1574192983610","544","0.20703125","-0.94433594","-0.32421875","1.9375","-0.5625","0.28125"
"1574192983611","545","0.21582031","-0.94140625","-0.3232422","3.03125","0.65625","0.09375"
"1574192983611","546","0.21875","-0.9375","-0.31054688","3.09375","4.0","1.5"
"1574192983611","547","0.21289062","-0.9453125","-0.31933594","2.375","3.03125","0.46875"
"1574192983612","548","0.21191406","-0.94433594","-0.31152344","-0.875","0.90625","-1.59375"
"1574192983612","549","0.22265625","-0.9404297","-0.31445312","2.5","-0.375","-1.84375"
"1574192984202","550","0.21484375","-0.9423828","-0.30664062","2.0625","1.21875","-1.65625"
"1574192984203","551","0.20703125","-0.9482422","-0.3203125","1.3125","-0.875","-3.5"
"1574192984203","552","0.21484375","-0.94628906","-0.3095703","1.15625","-1.46875","-3.375"
"1574192984204","553","0.20898438","-0.93359375","-0.30078125","1.5","2.96875","-1.96875"
"1574192984204","554","0.20019531","-0.93359375","-0.30371094","0.03125","2.78125","-2.8125"
"1574192984204","555","0.23242188","-0.93847656","-0.3203125","0.71875","1.375","-1.1875"
"1574192984205","556","0.2548828","-0.9248047","-0.3173828","-0.75","6.21875","1.3125"
"1574192984205","557","0.22363281","-0.9140625","-0.32421875","1.09375","10.375","0.0"
"1574192984205","558","0.24316406","-0.8925781","-0.34179688","5.65625","15.65625","-1.40625"
"1574192984205","559","0.22753906","-0.9394531","-0.30566406","-4.90625","16.34375","6.15625"
"1574192984403","560","0.12597656","-0.99902344","-0.41503906","19.28125","-15.6875","-9.125"
"1574192984403","561","0.13574219","-0.93066406","-0.40429688","17.375","-18.5625","-13.5625"
"1574192984404","562","0.26757812","-0.8798828","-0.13476562","4.4375","30.5","13.40625"
"1574192984404","563","0.23730469","-0.93066406","-0.16308594","-12.15625","26.15625","20.96875"
"1574192984404","564","0.18652344","-1.03125","-0.29296875","-25.71875","45.53125","17.0625"
"1574192984405","565","0.16308594","-1.0996094","-0.31640625","8.03125","8.90625","-0.25"
"1574192984406","566","0.17675781","-0.8964844","-0.23242188","13.53125","0.90625","-3.90625"
"1574192984406","567","0.25390625","-0.87402344","-0.1796875","-3.625","5.53125","1.625"
"1574192984406","568","0.296875","-0.96972656","-0.22949219","-10.75","-10.9375","1.4375"
"1574192984407","569","0.23144531","-1.0078125","-0.2734375","-0.625","-1.34375","-4.65625"
