"# PR data"
"# Start time: 20191119T194403"
"# Subject: joao"
"# Activity type: Sit to stand"
"# Correctness: Incorrect"
"# Notes: "
""
"timestamp","seq","accel_x","accel_y","accel_z","gyro_x","gyro_y","gyro_z"
"1574192643153","0","-0.037109375","-1.0019531","-0.140625","-6.375","6.625","-1.34375"
"1574192643154","1","-0.026367188","-1.0058594","-0.13964844","-2.875","3.28125","-2.875"
"1574192643154","2","-0.0078125","-0.9951172","-0.14550781","-3.875","4.5","-1.40625"
"1574192643154","3","-0.018554688","-1.0029297","-0.14355469","-2.03125","3.9375","-2.34375"
"1574192643154","4","-0.0146484375","-0.99316406","-0.14355469","-5.8125","2.4375","-3.625"
"1574192643155","5","-0.0107421875","-1.0039062","-0.15722656","-2.75","3.46875","-1.84375"
"1574192643155","6","-0.009765625","-0.9951172","-0.15332031","-2.15625","3.84375","-3.1875"
"1574192643155","7","-0.01953125","-0.9921875","-0.14355469","-3.4375","4.5","-2.6875"
"1574192643155","8","-0.021484375","-0.98828125","-0.16210938","-6.5","3.53125","-2.46875"
"1574192643156","9","-0.0107421875","-0.9980469","-0.15332031","-1.78125","2.25","-2.9375"
"1574192643545","10","-0.00390625","-0.99902344","-0.15820312","-2.59375","1.375","-3.0"
"1574192643545","11","0.0","-0.99316406","-0.15820312","-2.53125","1.8125","-2.34375"
"1574192643545","12","-0.005859375","-0.9941406","-0.16503906","-4.90625","0.90625","-2.34375"
"1574192643546","13","9.765625E-4","-0.99902344","-0.15820312","-2.28125","2.0","-1.90625"
"1574192643546","14","-0.0078125","-0.9921875","-0.1640625","-2.875","1.8125","-2.75"
"1574192643546","15","9.765625E-4","-0.9921875","-0.16796875","-2.875","1.5625","-2.625"
"1574192643546","16","-0.0029296875","-1.0058594","-0.1640625","-0.3125","1.9375","-2.59375"
"1574192643547","17","0.0","-1.0009766","-0.15625","-1.3125","2.125","-3.375"
"1574192643547","18","0.0068359375","-1.0019531","-0.15722656","-5.4375","0.03125","-3.125"
"1574192643547","19","0.0146484375","-1.0087891","-0.17871094","-0.8125","4.375","-0.75"
"1574192643942","20","-0.001953125","-0.9902344","-0.1796875","1.3125","4.875","-1.1875"
"1574192643942","21","0.001953125","-0.9941406","-0.15625","0.78125","0.65625","-1.46875"
"1574192643943","22","0.028320312","-1.0019531","-0.16113281","-2.8125","-1.25","-0.375"
"1574192643943","23","0.022460938","-0.9951172","-0.18164062","3.34375","2.96875","1.6875"
"1574192643943","24","0.0","-0.9873047","-0.14355469","4.0625","6.21875","4.125"
"1574192643945","25","-0.024414062","-0.9765625","-0.13574219","2.0","4.0","7.5"
"1574192643946","26","-0.0068359375","-0.9794922","-0.17578125","3.53125","0.65625","6.8125"
"1574192643947","27","0.0029296875","-0.98828125","-0.16894531","10.59375","2.65625","7.125"
"1574192643947","28","-0.01171875","-0.99902344","-0.15429688","11.9375","3.78125","6.46875"
"1574192643947","29","-0.021484375","-1.0214844","-0.13671875","10.0625","0.65625","5.53125"
"1574192644539","30","-0.024414062","-0.9980469","-0.12011719","7.125","0.78125","5.34375"
"1574192644540","31","-0.04296875","-1.0078125","-0.09765625","8.59375","3.46875","10.46875"
"1574192644540","32","-0.07324219","-0.9941406","-0.09472656","6.03125","-2.46875","8.71875"
"1574192644540","33","-0.045898438","-0.98046875","-0.1015625","12.5625","-5.09375","7.90625"
"1574192644540","34","-0.056640625","-1.0039062","-0.07519531","16.03125","-2.46875","8.21875"
"1574192644541","35","-0.07324219","-1.0097656","-0.076171875","11.46875","-1.96875","7.5"
"1574192644541","36","-0.08496094","-1.0117188","-0.078125","10.96875","-3.96875","2.1875"
"1574192644541","37","-0.08691406","-1.0009766","-0.057617188","13.46875","-5.875","-4.09375"
"1574192644542","38","-0.099609375","-1.0234375","-0.0546875","13.78125","-7.28125","-7.28125"
"1574192644542","39","-0.09472656","-1.0380859","-0.034179688","7.1875","-10.03125","-11.78125"
"1574192644737","40","-0.064453125","-1.0224609","-0.037109375","1.28125","-7.46875","-11.0625"
"1574192644737","41","-0.030273438","-1.0166016","-0.024414062","-1.34375","-3.25","-4.59375"
"1574192644737","42","-0.021484375","-1.0048828","-0.024414062","-2.21875","0.65625","-2.46875"
"1574192644738","43","-0.02734375","-1.0","-0.025390625","-1.65625","-0.0625","-3.375"
"1574192644738","44","-0.034179688","-1.0087891","-0.03515625","0.0","0.21875","-2.9375"
"1574192644738","45","-0.036132812","-0.99902344","-0.016601562","2.65625","1.625","-1.59375"
"1574192644738","46","-0.0390625","-1.0068359","-0.036132812","2.1875","4.25","0.96875"
"1574192644739","47","-0.038085938","-1.0351562","-0.05859375","5.34375","4.5625","4.375"
"1574192644739","48","-0.041992188","-0.9892578","-0.038085938","15.0","5.40625","7.90625"
"1574192644740","49","-0.043945312","-0.9667969","-0.0234375","15.5","4.75","12.5"
"1574192645135","50","-0.034179688","-0.9628906","-0.0390625","15.71875","5.90625","19.625"
"1574192645135","51","-0.0234375","-0.9638672","-0.009765625","32.625","4.1875","24.40625"
"1574192645135","52","-0.0625","-0.95410156","0.0068359375","39.71875","1.21875","25.5625"
"1574192645136","53","-0.1015625","-0.9824219","0.0087890625","36.4375","0.15625","23.78125"
"1574192645136","54","-0.15527344","-1.0078125","0.080078125","41.0625","7.125","33.5625"
"1574192645136","55","-0.17382812","-0.9794922","0.12207031","41.90625","4.5625","37.8125"
"1574192645136","56","-0.16503906","-0.9902344","0.11621094","40.28125","2.71875","41.1875"
"1574192645137","57","-0.18652344","-0.9970703","0.15039062","34.53125","0.21875","48.9375"
"1574192645137","58","-0.2626953","-0.97265625","0.20019531","34.90625","3.21875","50.78125"
"1574192645137","59","-0.27246094","-0.98339844","0.23144531","24.09375","6.5625","52.28125"
"1574192645534","60","-0.30273438","-0.97753906","0.25097656","30.375","3.46875","56.0625"
"1574192645536","61","-0.34375","-0.9326172","0.29492188","30.0","-2.6875","59.75"
"1574192645537","62","-0.43554688","-0.9609375","0.29785156","31.0","-2.8125","63.59375"
"1574192645537","63","-0.51171875","-0.92089844","0.34960938","30.6875","-0.1875","63.65625"
"1574192645537","64","-0.53808594","-0.93652344","0.3984375","31.59375","2.125","57.125"
"1574192645537","65","-0.5576172","-0.8486328","0.39941406","33.6875","3.03125","49.46875"
"1574192645538","66","-0.6064453","-0.8232422","0.3779297","32.21875","-1.71875","44.1875"
"1574192645538","67","-0.5683594","-0.8095703","0.40527344","29.59375","1.21875","46.3125"
"1574192645538","68","-0.62109375","-0.71777344","0.40429688","37.40625","-10.5","55.53125"
"1574192645539","69","-0.7001953","-0.7216797","0.4482422","9.125","11.9375","23.53125"
"1574192645930","70","-0.6972656","-0.73828125","0.47265625","-1.3125","22.6875","9.03125"
"1574192645931","71","-0.6611328","-0.7548828","0.47460938","4.4375","13.28125","-5.25"
"1574192645932","72","-0.6796875","-0.734375","0.50878906","6.21875","11.9375","-6.71875"
"1574192645933","73","-0.6621094","-0.7558594","0.47558594","-9.59375","17.375","-24.5"
"1574192645933","74","-0.66308594","-0.8388672","0.43945312","-7.875","13.0","-44.875"
"1574192645934","75","-0.65527344","-0.89941406","0.37597656","-11.3125","21.28125","-46.09375"
"1574192645934","76","-0.6660156","-0.84472656","0.37402344","-5.03125","17.4375","-37.1875"
"1574192645934","77","-0.62109375","-0.9169922","0.359375","-0.0625","17.5","-63.84375"
"1574192645934","78","-0.46972656","-0.83984375","0.24511719","-12.15625","32.5625","-72.65625"
"1574192645935","79","-0.3388672","-0.7763672","0.2841797","-35.65625","17.6875","-47.3125"
"1574192646922","80","-0.375","-0.7314453","0.27929688","-65.1875","4.6875","-36.46875"
"1574192646922","81","-0.3388672","-0.7138672","0.2607422","-57.875","-9.34375","-32.25"
"1574192646922","82","-0.33984375","-0.69140625","0.20214844","-72.9375","0.03125","-45.5625"
"1574192646923","83","-0.25390625","-0.69921875","0.13574219","-43.40625","-28.46875","-48.0625"
"1574192646923","84","-0.24316406","-0.7089844","0.12597656","-50.3125","-19.59375","-41.21875"
"1574192646925","85","-0.28027344","-0.671875","0.13769531","-52.5625","-4.15625","-49.03125"
"1574192646925","86","-0.34179688","-0.7294922","0.13769531","-32.0625","-14.65625","-47.125"
"1574192646926","87","-0.28515625","-0.7832031","0.11035156","-38.21875","-8.375","-33.46875"
"1574192646926","88","-0.26464844","-0.85253906","0.11328125","-31.375","-8.9375","-24.4375"
"1574192646927","89","-0.27539062","-0.89746094","0.12988281","-31.4375","0.0","-24.5"
"1574192647317","90","-0.27734375","-0.92089844","0.064453125","-27.34375","-2.34375","-22.15625"
"1574192647318","91","-0.25585938","-0.9453125","0.041992188","-21.875","-5.5625","-12.46875"
"1574192647318","92","-0.21875","-0.95703125","0.028320312","-19.84375","-3.25","-9.0625"
"1574192647318","93","-0.19238281","-0.9394531","0.043945312","-12.40625","3.28125","-5.625"
"1574192647319","94","-0.19140625","-0.9082031","0.0703125","-7.8125","-1.34375","-4.96875"
"1574192647319","95","-0.21484375","-0.93066406","0.045898438","-1.78125","-12.71875","-2.6875"
"1574192647319","96","-0.19628906","-0.96484375","0.015625","-1.0","-9.96875","2.1875"
"1574192647321","97","-0.24804688","-0.9746094","0.028320312","3.46875","-4.53125","3.40625"
"1574192647322","98","-0.24609375","-0.9892578","0.02734375","7.625","-5.25","7.5"
"1574192647322","99","-0.22363281","-0.9658203","0.06640625","10.3125","-3.25","6.875"
"1574192647322","100","-0.2607422","-0.9609375","0.020507812","16.78125","1.6875","6.28125"
"1574192647323","101","-0.23828125","-0.92871094","0.0859375","20.5625","1.03125","11.03125"
"1574192647323","102","-0.22363281","-0.921875","0.140625","20.375","4.5625","15.625"
"1574192647323","103","-0.26464844","-0.92871094","0.08300781","24.46875","2.96875","16.65625"
"1574192647323","104","-0.2607422","-0.93359375","0.111328125","30.5625","-0.5","19.625"
"1574192647324","105","-0.29785156","-0.92285156","0.15722656","24.09375","4.6875","26.34375"
"1574192647324","106","-0.30566406","-0.8408203","0.17089844","33.6875","0.84375","26.53125"
"1574192647324","107","-0.2734375","-0.8310547","0.17773438","32.625","-0.8125","26.78125"
"1574192647324","108","-0.36621094","-0.8251953","0.22558594","33.5","10.71875","33.5625"
"1574192647325","109","-0.38476562","-0.7294922","0.2607422","39.90625","4.6875","31.96875"
"1574192647520","110","-0.34179688","-0.7314453","0.24609375","41.90625","-6.65625","30.0625"
"1574192647521","111","-0.27539062","-0.6699219","0.24511719","52.53125","-0.625","38.625"
"1574192647521","112","-0.29101562","-0.63183594","0.2939453","42.09375","-1.53125","32.6875"
"1574192647521","113","-0.40625","-0.65722656","0.30664062","27.375","1.875","29.15625"
"1574192647521","114","-0.35351562","-0.69433594","0.25097656","34.34375","5.21875","26.78125"
"1574192647522","115","-0.2939453","-0.68359375","0.24804688","32.75","-28.46875","32.875"
"1574192647522","116","-0.31347656","-0.72265625","0.2841797","15.375","-27.90625","43.625"
"1574192647522","117","-0.4404297","-0.6621094","0.27734375","18.78125","-15.03125","12.25"
"1574192647522","118","-0.40039062","-0.7558594","0.34375","38.6875","-5.9375","16.65625"
"1574192647523","119","-0.4326172","-0.8183594","0.42089844","-5.09375","3.15625","24.28125"
"1574192647918","120","-0.6074219","-0.7832031","0.5234375","4.75","-13.1875","14.375"
"1574192647920","121","-0.7001953","-0.88378906","0.45898438","4.75","8.15625","-22.125"
"1574192647920","122","-0.5800781","-0.9160156","0.5859375","12.1875","-22.46875","-45.125"
"1574192647920","123","-0.45214844","-0.9121094","0.55566406","-7.8125","-5.75","-33.875"
"1574192647921","124","-0.42871094","-0.89941406","0.53515625","-32.65625","0.09375","-27.1875"
"1574192647921","125","-0.56640625","-1.0126953","0.51464844","-41.59375","7.0625","-45.3125"
"1574192647921","126","-0.5917969","-1.2841797","0.3779297","-109.5","33.4375","-59.53125"
"1574192647921","127","-0.52734375","-1.421875","0.4736328","-71.1875","9.4375","-60.4375"
"1574192647922","128","-0.46679688","-1.2314453","0.5439453","-48.59375","34.09375","-85.84375"
"1574192647922","129","-0.15917969","-1.0908203","0.17675781","-95.09375","-8.0625","-96.8125"
"1574192648315","130","-0.0390625","-0.91015625","0.08984375","-82.40625","30.25","-39.4375"
"1574192648315","131","-0.32128906","-0.9003906","0.10253906","-49.28125","48.1875","-28.65625"
"1574192648315","132","-0.14453125","-0.8701172","-0.0546875","-56.53125","0.78125","-47.0625"
"1574192648316","133","0.052734375","-0.8886719","-0.080078125","-61.34375","21.34375","-40.25"
"1574192648317","134","-0.05078125","-0.9638672","-0.08691406","-27.40625","13.90625","-25.03125"
"1574192648317","135","-0.034179688","-1.0117188","-0.13085938","-35.71875","13.09375","-19.3125"
"1574192648317","136","-0.048828125","-1.0351562","-0.08203125","-21.5","25.5625","-13.1875"
"1574192648317","137","0.0146484375","-1.0917969","-0.09082031","-15.09375","9.625","-17.28125"
"1574192648318","138","0.044921875","-0.96777344","-0.17285156","3.53125","1.8125","-10.15625"
"1574192648318","139","0.01171875","-0.9091797","-0.13183594","17.1875","10.90625","2.25"
"1574192648713","140","-0.0107421875","-0.95214844","-0.08496094","23.375","10.59375","9.9375"
"1574192648713","141","-0.06738281","-0.9824219","-0.087890625","26.71875","5.59375","17.0"
"1574192648714","142","-0.072265625","-0.94433594","-0.057617188","39.96875","6.46875","19.75"
"1574192648714","143","-0.052734375","-0.9345703","-0.05078125","44.53125","7.0","26.03125"
"1574192648714","144","-0.05859375","-0.95996094","0.0107421875","63.34375","2.5","39.71875"
"1574192648715","145","-0.15917969","-0.94433594","0.07421875","78.59375","6.15625","49.59375"
"1574192648715","146","-0.23535156","-0.94921875","0.12011719","80.4375","0.84375","47.96875"
"1574192648716","147","-0.22460938","-0.94140625","0.20703125","100.4375","-1.125","38.4375"
"1574192648716","148","-0.18359375","-0.9423828","0.29882812","101.25","0.84375","49.25"
"1574192648716","149","-0.26464844","-0.95410156","0.40429688","124.5625","-3.5","71.875"
"1574192649109","150","-0.34375","-0.85546875","0.5029297","174.0","5.21875","98.3125"
"1574192649110","151","-0.30078125","-0.78808594","0.5703125","138.71875","1.8125","110.53125"
"1574192649110","152","-0.4482422","-0.6972656","0.6591797","147.5","0.09375","123.75"
"1574192649110","153","-0.5654297","-0.6845703","0.8066406","102.9375","8.90625","117.71875"
"1574192649111","154","-0.5439453","-0.7128906","0.85839844","54.125","23.59375","84.28125"
"1574192649111","155","-0.66015625","-0.54589844","0.7949219","11.03125","25.0625","51.625"
"1574192649111","156","-0.7841797","-0.4638672","0.86621094","-27.40625","27.34375","27.8125"
"1574192649112","157","-0.81347656","-0.45117188","0.9013672","-30.34375","5.84375","16.21875"
"1574192649112","158","-0.78222656","-0.49316406","0.9160156","-65.03125","0.65625","-1.1875"
"1574192649112","159","-0.7294922","-0.53515625","0.8017578","-66.71875","3.28125","-28.75"
"1574192649509","160","-0.6894531","-0.55566406","0.68066406","-37.25","5.40625","-47.4375"
"1574192649510","161","-0.60253906","-0.6269531","0.6582031","-34.9375","-1.78125","-22.59375"
"1574192649510","162","-0.6669922","-0.56933594","0.66503906","-17.53125","-1.46875","-33.59375"
"1574192649510","163","-0.5644531","-0.5078125","0.6191406","-39.1875","10.78125","-30.09375"
"1574192649510","164","-0.44921875","-0.48242188","0.49414062","-71.90625","-7.9375","-29.6875"
"1574192649511","165","-0.4501953","-0.57128906","0.48242188","-89.3125","7.1875","-26.03125"
"1574192649511","166","-0.5048828","-0.6591797","0.5498047","-89.8125","7.75","-26.375"
"1574192649511","167","-0.6074219","-0.7080078","0.421875","-54.59375","3.59375","-35.34375"
"1574192649511","168","-0.57910156","-0.8261719","0.38378906","-72.9375","11.875","-52.625"
"1574192649512","169","-0.45214844","-0.8017578","0.30566406","-90.34375","14.9375","-69.09375"
"1574192649905","170","-0.2578125","-0.79296875","0.31152344","-35.34375","-20.875","-54.9375"
"1574192649905","171","-0.20507812","-0.7265625","0.3359375","-36.15625","-6.90625","-33.03125"
"1574192649906","172","-0.31152344","-0.6972656","0.2685547","-63.25","0.28125","-50.78125"
"1574192649906","173","-0.44921875","-0.7558594","0.20800781","-71.78125","0.40625","-69.71875"
"1574192649906","174","-0.31640625","-0.83203125","0.13476562","-57.5625","10.40625","-52.6875"
"1574192649906","175","-0.17871094","-0.8408203","0.18652344","-58.84375","-10.21875","-43.46875"
"1574192649907","176","-0.19921875","-0.82910156","0.1796875","-66.0625","-8.0","-55.875"
"1574192649907","177","-0.2685547","-0.8388672","0.16015625","-49.8125","-6.53125","-55.1875"
"1574192649907","178","-0.25976562","-0.8642578","0.052734375","-52.5625","-19.0","-51.09375"
"1574192649908","179","-0.19824219","-0.79785156","-0.0107421875","-42.6875","-26.5625","-44.28125"
"1574192650301","180","-0.1015625","-0.8378906","0.07714844","-30.84375","-12.65625","-35.59375"
"1574192650303","181","-0.12011719","-0.85839844","0.103515625","-38.78125","-3.4375","-27.96875"
"1574192650303","182","-0.16992188","-0.9667969","0.0625","-27.25","-4.78125","-27.53125"
"1574192650303","183","-0.10253906","-0.9863281","0.02734375","-27.125","-1.0","-27.96875"
"1574192650303","184","-0.07910156","-1.0322266","-0.0107421875","-29.625","0.15625","-21.25"
"1574192650304","185","-0.04296875","-1.0332031","-0.064453125","-29.25","4.0","-15.03125"
"1574192650304","186","0.052734375","-1.0039062","-0.10644531","-26.5625","-4.78125","-18.875"
"1574192650304","187","0.05078125","-0.9814453","-0.10546875","-3.5","-11.625","-10.9375"
"1574192650304","188","-0.046875","-0.9589844","-0.032226562","-1.125","-3.25","4.375"
"1574192650305","189","-0.10644531","-0.9433594","-0.05859375","-1.1875","-5.09375","5.78125"
"1574192650699","190","-0.024414062","-0.9970703","-0.107421875","2.71875","-5.09375","5.0"
"1574192650699","191","-0.0234375","-1.0019531","-0.047851562","13.40625","12.0625","8.84375"
"1574192650699","192","-0.06542969","-0.9345703","0.01953125","22.09375","10.375","9.6875"
"1574192650701","193","-0.07128906","-0.90625","0.01171875","40.5","7.0","16.40625"
"1574192650702","194","-0.10644531","-0.8691406","0.06542969","47.03125","17.0625","27.5625"
"1574192650702","195","-0.1015625","-0.8330078","0.109375","55.90625","21.78125","34.15625"
"1574192650703","196","-0.125","-0.8027344","0.13574219","60.84375","20.0","37.21875"
"1574192650703","197","-0.10058594","-0.8574219","0.15527344","55.84375","21.21875","33.96875"
"1574192650703","198","-0.047851562","-0.89453125","0.08691406","69.0","26.78125","45.03125"
"1574192650703","199","-0.051757812","-0.91796875","0.21582031","60.78125","4.6875","56.6875"
"1574192651098","200","-0.23046875","-0.87109375","0.25976562","40.75","8.59375","41.3125"
"1574192651098","201","-0.2861328","-0.89453125","0.24707031","67.1875","10.375","31.78125"
"1574192651099","202","-0.11621094","-0.80859375","0.18359375","61.4375","15.96875","37.8125"
"1574192651099","203","-0.20703125","-0.7363281","0.26464844","41.78125","5.34375","36.1875"
"1574192651099","204","-0.3408203","-0.84277344","0.296875","20.75","22.125","37.03125"
"1574192651101","205","-0.2734375","-0.7480469","0.33203125","30.0","11.71875","31.84375"
"1574192651101","206","-0.15917969","-0.671875","0.37597656","64.1875","-10.625","12.75"
"1574192651101","207","-0.111328125","-0.72558594","0.29882812","16.34375","12.375","49.71875"
"1574192651102","208","-0.39648438","-0.68652344","0.23339844","-7.53125","-9.34375","61.03125"
"1574192651102","209","-0.50097656","-0.76171875","0.36328125","52.28125","40.6875","15.0625"
"1574192651495","210","-0.37109375","-0.8154297","0.4296875","66.8125","17.1875","37.03125"
"1574192651496","211","-0.46191406","-0.75097656","0.6035156","50.09375","-2.03125","42.84375"
"1574192651496","212","-0.5517578","-0.92089844","0.5986328","26.78125","14.28125","19.75"
"1574192651496","213","-0.8251953","-1.0185547","0.61035156","22.03125","10.59375","14.625"
"1574192651497","214","-0.5966797","-0.8964844","0.6972656","50.15625","-21.8125","-20.71875"
"1574192651497","215","-0.5185547","-0.89453125","0.5283203","-46.46875","4.5","-36.34375"
"1574192651497","216","-0.6748047","-1.1464844","0.5263672","-74.0","14.5625","-31.5"
"1574192651499","217","-0.7363281","-1.2695312","0.91308594","-33.40625","-5.03125","-40.59375"
"1574192651499","218","-0.6904297","-1.2480469","0.6464844","-184.90625","35.9375","-58.3125"
"1574192651499","219","-0.4580078","-1.0761719","0.3330078","-139.0","-0.625","-66.53125"
"1574192651893","220","-0.2265625","-0.86816406","0.17382812","-83.9375","15.25","-45.4375"
"1574192651893","221","-0.23925781","-0.7265625","-0.030273438","-57.09375","13.90625","-38.40625"
"1574192651894","222","-0.2265625","-0.7060547","-0.016601562","-62.5","11.34375","-41.59375"
"1574192651894","223","-0.16796875","-0.8144531","-0.038085938","-67.03125","2.25","-36.09375"
"1574192651894","224","-0.21386719","-0.95703125","0.00390625","-49.21875","0.03125","-19.59375"
"1574192651894","225","-0.2763672","-1.0068359","0.009765625","-20.84375","9.3125","-10.28125"
"1574192651895","226","-0.24023438","-1.0087891","-0.017578125","-20.40625","0.03125","-15.8125"
"1574192651895","227","-0.12109375","-0.98339844","-0.048828125","-3.3125","0.03125","-10.875"
"1574192651895","228","-0.19433594","-0.93066406","-0.044921875","9.625","-0.25","3.71875"
"1574192651896","229","-0.21777344","-0.9199219","-0.029296875","25.125","-2.53125","9.6875"
"1574192652289","230","-0.21386719","-0.9091797","-0.025390625","29.09375","2.90625","18.90625"
"1574192652290","231","-0.22460938","-0.91503906","0.03125","40.8125","5.0","18.90625"
"1574192652290","232","-0.1953125","-0.9033203","0.018554688","45.625","-1.125","20.8125"
"1574192652290","233","-0.27441406","-0.93359375","0.12695312","73.65625","3.59375","40.4375"
"1574192652291","234","-0.36523438","-0.9404297","0.18554688","74.6875","5.34375","55.78125"
"1574192652291","235","-0.3544922","-0.9394531","0.25976562","85.625","-11.90625","47.84375"
"1574192652291","236","-0.4033203","-0.88183594","0.30078125","117.53125","-7.59375","50.40625"
"1574192652291","237","-0.37890625","-0.84277344","0.390625","118.9375","-0.1875","50.59375"
"1574192652292","238","-0.39941406","-0.8076172","0.43554688","84.28125","-2.40625","53.21875"
"1574192652292","239","-0.49316406","-0.79003906","0.5830078","95.8125","-10.34375","61.8125"
"1574192652884","240","-0.4951172","-0.7109375","0.5673828","89.40625","-2.21875","67.0625"
"1574192652886","241","-0.60839844","-0.70996094","0.5361328","92.8125","2.4375","66.03125"
"1574192652886","242","-0.5732422","-0.6748047","0.703125","100.5625","-2.6875","61.1875"
"1574192652886","243","-0.5341797","-0.60839844","0.67578125","65.15625","2.25","50.59375"
"1574192652887","244","-0.6279297","-0.4921875","0.7392578","58.34375","12.625","53.21875"
"1574192652887","245","-0.7470703","-0.40722656","0.7919922","15.0625","9.25","42.03125"
"1574192652887","246","-0.6611328","-0.38183594","0.82128906","7.8125","0.28125","30.625"
"1574192652887","247","-0.6826172","-0.28515625","0.73046875","11.09375","-4.21875","26.84375"
"1574192652888","248","-0.7402344","-0.2939453","0.8417969","20.90625","-4.71875","27.6875"
"1574192652888","249","-0.6826172","-0.296875","0.78222656","1.6875","1.6875","19.46875"
"1574192653284","250","-0.6201172","-0.3154297","0.734375","5.53125","-3.5","15.0625"
"1574192653284","251","-0.67089844","-0.34375","0.7871094","0.96875","2.65625","15.5"
"1574192653284","252","-0.78808594","-0.3564453","0.875","-17.90625","17.5625","15.0625"
"1574192653285","253","-0.80371094","-0.42382812","0.8251953","-38.59375","12.0","-13.9375"
"1574192653286","254","-0.6953125","-0.4609375","0.7285156","-39.1875","-4.90625","-42.0625"
"1574192653286","255","-0.7207031","-0.4921875","0.7597656","-21.25","-6.53125","-45.78125"
"1574192653286","256","-0.6611328","-0.45214844","0.64746094","-41.53125","11.21875","-40.375"
"1574192653286","257","-0.6015625","-0.39648438","0.6328125","-54.875","8.40625","-43.15625"
"1574192653287","258","-0.4873047","-0.46289062","0.54003906","-91.4375","3.15625","-60.8125"
"1574192653287","259","-0.40722656","-0.5283203","0.5234375","-74.65625","1.9375","-60.3125"
"1574192653484","260","-0.4296875","-0.5859375","0.48242188","-57.4375","-0.375","-44.75"
"1574192653485","261","-0.5253906","-0.6171875","0.4765625","-105.71875","5.46875","-54.46875"
"1574192653485","262","-0.5292969","-0.70214844","0.46289062","-107.375","-17.03125","-71.71875"
"1574192653485","263","-0.44335938","-0.828125","0.5097656","-81.875","-12.84375","-62.625"
"1574192653485","264","-0.38183594","-0.7705078","0.41503906","-63.84375","-10.40625","-47.0"
"1574192653487","265","-0.375","-0.6767578","0.40429688","-75.875","-2.21875","-44.875"
"1574192653487","266","-0.35742188","-0.7167969","0.32714844","-61.125","-24.4375","-41.9375"
"1574192653488","267","-0.25390625","-0.7890625","0.34765625","-62.03125","-13.03125","-36.28125"
"1574192653488","268","-0.3310547","-0.765625","0.28808594","-71.0625","-16.1875","-47.1875"
"1574192653488","269","-0.38085938","-0.7939453","0.23925781","-48.125","-18.03125","-40.71875"
"1574192653881","270","-0.2890625","-0.7294922","0.22265625","-57.21875","0.03125","-39.4375"
"1574192653881","271","-0.20996094","-0.8066406","0.18164062","-63.5625","1.28125","-39.9375"
"1574192653882","272","-0.18847656","-0.86328125","0.099609375","-45.1875","-0.375","-35.96875"
"1574192653882","273","-0.18945312","-0.8886719","0.115234375","-46.65625","5.53125","-36.75"
"1574192653882","274","-0.21289062","-0.9003906","0.14257812","-36.21875","8.96875","-32.90625"
"1574192653882","275","-0.1796875","-0.90234375","0.1171875","-26.375","6.8125","-26.8125"
"1574192653883","276","-0.16308594","-0.9482422","0.07128906","-22.59375","8.28125","-24.0625"
"1574192653884","277","-0.11230469","-0.9941406","0.057617188","-20.59375","12.0","-23.5625"
"1574192653885","278","-0.0625","-0.98339844","0.046875","-19.4375","9.09375","-23.4375"
"1574192653885","279","-0.025390625","-0.9394531","0.01953125","-10.28125","2.4375","-23.6875"
"1574192654277","280","-0.080078125","-0.9824219","0.033203125","-10.21875","5.96875","-19.96875"
"1574192654278","281","-0.0625","-1.0380859","0.038085938","-17.15625","5.84375","-15.28125"
"1574192654278","282","-0.0703125","-0.96875","-0.0087890625","-0.375","-3.875","-10.9375"
"1574192654279","283","-0.0546875","-0.96777344","0.055664062","4.25","2.0","-5.6875"
"1574192654279","284","-0.057617188","-0.95214844","0.083984375","4.3125","9.03125","-5.15625"
"1574192654279","285","-0.046875","-0.9472656","0.061523438","13.15625","10.1875","0.71875"
"1574192654280","286","-0.04296875","-0.90234375","0.07519531","30.75","0.65625","11.59375"
"1574192654280","287","-0.041015625","-0.78515625","0.12402344","46.25","0.53125","19.46875"
"1574192654280","288","-0.06933594","-0.6767578","0.20898438","70.1875","0.28125","31.78125"
"1574192654281","289","-0.16699219","-0.75390625","0.27734375","75.1875","9.5625","45.09375"
"1574192654871","290","-0.16699219","-0.7841797","0.18457031","74.21875","10.84375","60.15625"
"1574192654872","291","-0.125","-0.80371094","0.15429688","66.75","17.75","50.03125"
"1574192654872","292","-0.107421875","-0.8251953","0.22265625","89.65625","35.15625","48.8125"
"1574192654872","293","-0.18359375","-0.84765625","0.39160156","43.3125","13.96875","44.46875"
"1574192654872","294","-0.28125","-0.796875","0.38085938","46.3125","31.59375","45.625"
"1574192654873","295","-0.18652344","-0.83691406","0.3310547","58.40625","4.4375","41.0"
"1574192654873","296","-0.23925781","-0.8886719","0.40625","37.03125","-14.34375","42.46875"
"1574192654873","297","-0.30859375","-0.7480469","0.48339844","58.6875","19.03125","36.90625"
"1574192654873","298","-0.39648438","-0.8359375","0.4111328","60.21875","35.5","24.15625"
"1574192654873","299","-0.28222656","-1.0410156","0.42871094","-12.21875","30.8125","62.96875"
"1574192655073","300","-0.6035156","-0.703125","0.4033203","30.25","-33.9375","39.0"
"1574192655075","301","-0.42773438","-0.78515625","0.5683594","58.34375","19.40625","-14.53125"
"1574192655075","302","-0.21191406","-0.9355469","0.515625","-8.25","3.84375","0.0"
"1574192655076","303","-0.5","-0.9580078","0.6171875","-46.71875","60.40625","21.84375"
"1574192655076","304","-0.7402344","-0.7373047","0.48046875","-30.28125","-1.84375","-1.59375"
"1574192655076","305","-0.45410156","-0.8652344","0.55566406","-12.15625","-14.90625","-52.5"
"1574192655077","306","-0.29101562","-0.7373047","0.4111328","-64.71875","5.53125","-44.875"
"1574192655077","307","-0.38378906","-0.8183594","0.3564453","-73.3125","21.59375","-56.90625"
"1574192655077","308","-0.43164062","-0.8125","0.35839844","-114.03125","2.4375","-68.75"
"1574192655077","309","-0.3623047","-0.96191406","0.13183594","-162.84375","11.65625","-86.625"
"1574192655866","310","-0.3408203","-1.3154297","0.25195312","-193.9375","19.875","-103.28125"
"1574192655867","311","-0.44628906","-2.0","0.2607422","-224.5625","66.9375","-117.1875"
"1574192655867","312","0.040039062","-1.6650391","-0.16992188","-81.375","-34.875","-97.375"
"1574192655868","313","-0.12695312","-0.8964844","-0.125","-59.71875","14.28125","-81.8125"
"1574192655869","314","0.13769531","-0.48339844","-0.4404297","-32.65625","-7.09375","-86.625"
"1574192655869","315","0.26660156","-0.53222656","-0.29589844","-78.4375","3.28125","-59.09375"
"1574192655869","316","-0.01953125","-0.6298828","-0.12597656","-60.625","14.5625","-10.5"
"1574192655870","317","0.036132812","-0.7871094","-0.4111328","-43.21875","-5.5625","-20.34375"
"1574192655870","318","0.24023438","-0.9707031","-0.5625","-66.53125","0.09375","-22.53125"
"1574192655870","319","0.2626953","-1.0498047","-0.4794922","-20.84375","9.09375","-10.15625"
"1574192656064","320","0.123046875","-0.9658203","-0.6621094","-7.8125","-2.8125","-14.65625"
"1574192656064","321","0.14941406","-0.7519531","-0.55859375","4.0","-13.25","8.90625"
"1574192656064","322","0.19140625","-0.78125","-0.41503906","-7.09375","0.28125","23.90625"
"1574192656065","323","0.0625","-0.92578125","-0.47851562","-13.6875","22.75","35.5"
"1574192656065","324","0.048828125","-0.88378906","-0.5","27.375","0.0","27.375"
"1574192656066","325","0.17382812","-0.8496094","-0.42871094","37.9375","-11.3125","0.78125"
"1574192656067","326","0.17089844","-0.86621094","-0.4111328","32.9375","10.0625","13.71875"
"1574192656067","327","0.07421875","-0.80859375","-0.4375","50.78125","7.125","37.8125"
"1574192656067","328","0.06542969","-0.8378906","-0.37890625","84.46875","-18.625","41.5"
"1574192656067","329","0.022460938","-0.9013672","-0.26660156","107.84375","-7.03125","49.46875"
"1574192656265","330","-0.11035156","-0.99609375","-0.23828125","139.03125","8.90625","69.875"
"1574192656265","331","-0.11425781","-0.9169922","-0.10449219","161.25","-20.53125","76.21875"
"1574192656265","332","-0.06640625","-0.921875","0.038085938","174.25","-1.78125","93.0"
"1574192656265","333","-0.24609375","-0.88378906","0.12109375","187.1875","29.21875","139.375"
"1574192656266","334","-0.4921875","-0.95214844","0.4501953","205.96875","40.8125","163.0"
"1574192656266","335","-0.42285156","-0.9863281","0.6328125","196.8125","8.03125","122.96875"
"1574192656266","336","-0.40429688","-0.9873047","0.5625","144.40625","27.5625","126.9375"
"1574192656267","337","-0.671875","-0.6015625","0.66308594","208.25","-31.5","115.34375"
"1574192656268","338","-0.75","-0.36816406","0.92089844","123.875","-10.9375","67.96875"
"1574192656268","339","-0.5908203","-0.39257812","0.82910156","69.9375","3.21875","45.5625"
"1574192656665","340","-0.66015625","-0.36035156","0.83496094","51.4375","4.0","34.03125"
"1574192656666","341","-0.7001953","-0.25390625","0.96875","21.84375","2.1875","20.0625"
"1574192656666","342","-0.734375","-0.36132812","0.9169922","-48.46875","17.8125","9.03125"
"1574192656666","343","-0.7050781","-0.4345703","0.91503906","-46.78125","12.4375","-8.5"
"1574192656666","344","-0.7607422","-0.4716797","0.8496094","-67.65625","12.5625","-31.625"
"1574192656667","345","-0.71484375","-0.43554688","0.7548828","-68.5","18.46875","-81.375"
"1574192656667","346","-0.5751953","-1.0527344","0.8701172","-134.90625","-57.8125","-145.65625"
"1574192656667","347","-0.5654297","-0.76953125","0.7207031","-89.0625","-9.78125","-74.84375"
"1574192656667","348","-0.6035156","-0.57128906","0.50878906","-115.96875","32.46875","-73.25"
"1574192656669","349","-0.32128906","-0.3154297","0.43847656","-156.21875","4.0","-43.96875"
"1574192657059","350","-0.3857422","-0.421875","0.28027344","-79.0625","-41.21875","-29.625"
"1574192657059","351","-0.22070312","-0.7685547","0.38085938","-32.71875","12.875","-12.09375"
"1574192657060","352","-0.27539062","-0.7685547","0.34179688","-76.625","65.21875","4.75"
"1574192657060","353","-0.52441406","-0.8359375","0.34277344","-61.90625","-4.34375","-23.5625"
"1574192657060","354","-0.45410156","-0.8261719","0.28808594","-20.9375","-38.28125","-75.5625"
"1574192657060","355","-0.29003906","-0.75683594","0.24804688","-26.4375","-17.03125","-38.21875"
"1574192657061","356","-0.23339844","-0.6816406","0.3671875","-40.40625","-5.375","-18.09375"
"1574192657061","357","-0.28808594","-0.8535156","0.34765625","-42.1875","24.09375","-16.5625"
"1574192657061","358","-0.24121094","-0.9423828","0.18261719","-50.78125","20.8125","-24.78125"
"1574192657061","359","-0.3173828","-0.93359375","0.18945312","-43.15625","-45.59375","-30.96875"
"1574192657458","360","-0.3173828","-0.8857422","0.22363281","-21.5","-14.1875","-28.34375"
"1574192657460","361","-0.2578125","-0.7988281","0.19238281","-40.3125","-3.125","-32.375"
"1574192657460","362","-0.27929688","-0.8486328","0.21484375","-62.6875","5.0625","-32.3125"
"1574192657460","363","-0.21582031","-0.9082031","0.16308594","-57.4375","1.5625","-28.6875"
"1574192657461","364","-0.18554688","-0.9433594","0.12890625","-49.21875","0.0","-24.5625"
"1574192657461","365","-0.24414062","-0.94140625","0.05859375","-42.5625","4.625","-22.0"
"1574192657461","366","-0.25878906","-0.93652344","0.04296875","-39.1875","8.40625","-17.15625"
"1574192657461","367","-0.2607422","-0.9169922","0.036132812","-44.03125","9.625","-18.09375"
"1574192657462","368","-0.22753906","-0.90234375","-0.016601562","-28.6875","4.3125","-19.71875"
"1574192657462","369","-0.16894531","-0.9013672","-0.11816406","-25.65625","2.4375","-17.09375"
"1574192657854","370","-0.15722656","-0.8857422","-0.076171875","-18.15625","10.96875","-19.78125"
"1574192657854","371","-0.16796875","-0.9140625","-0.0859375","-14.96875","4.0625","-22.46875"
"1574192657855","372","-0.13085938","-0.9824219","-0.072265625","-2.6875","-2.21875","-13.3125"
"1574192657856","373","-0.115234375","-0.9501953","0.0087890625","14.4375","-11.4375","-4.96875"
"1574192657856","374","-0.19433594","-0.8984375","0.07421875","31.90625","-16.75","2.65625"
"1574192657857","375","-0.20605469","-0.8232422","0.09667969","37.34375","-13.1875","9.6875"
"1574192657857","376","-0.16699219","-0.7841797","0.13476562","44.46875","-1.65625","25.875"
"1574192657857","377","-0.33789062","-0.9082031","0.1953125","49.90625","19.875","40.5"
"1574192657857","378","-0.38671875","-0.8691406","0.14160156","59.90625","28.375","48.6875"
"1574192657858","379","-0.12890625","-0.71777344","0.14648438","90.6875","8.90625","58.28125"
"1574192658251","380","0.07519531","-0.65722656","0.35253906","98.0625","-26.03125","38.875"
"1574192658252","381","0.0107421875","-0.78515625","0.31054688","57.25","7.25","57.125"
"1574192658252","382","-0.3642578","-0.7792969","0.20703125","24.71875","-21.0","55.09375"
"1574192658252","383","-0.5234375","-0.8642578","0.2421875","64.125","-35.65625","52.15625"
"1574192658253","384","-0.47753906","-0.9296875","0.31933594","50.15625","0.78125","45.875"
"1574192658254","385","-0.27441406","-0.7451172","0.46289062","64.0","-18.375","47.78125"
"1574192658254","386","-0.19238281","-0.67089844","0.40722656","53.5","-2.09375","24.21875"
"1574192658254","387","-0.33789062","-0.66796875","0.29492188","-12.53125","1.3125","30.0"
"1574192658255","388","-0.5292969","-0.7763672","0.36132812","14.625","31.0","54.625"
"1574192658255","389","-0.40625","-0.7597656","0.45117188","12.4375","-3.125","27.09375"
"1574192659044","390","-0.3330078","-0.8642578","0.3828125","-25.65625","14.3125","17.75"
"1574192659044","391","-0.6220703","-0.87890625","0.43164062","-35.59375","-2.34375","9.125"
"1574192659044","392","-0.65722656","-1.1005859","0.43066406","-35.46875","-0.375","-47.875"
"1574192659045","393","-0.40722656","-1.1064453","0.50390625","-37.78125","10.53125","-88.53125"
"1574192659045","394","-0.4580078","-0.93066406","0.39453125","-77.53125","18.0","-47.9375"
"1574192659045","395","-0.45117188","-0.96484375","0.3466797","-105.59375","32.03125","-72.9375"
"1574192659045","396","-0.48828125","-1.0576172","0.140625","-146.375","38.75","-113.125"
"1574192659047","397","-0.50390625","-1.0351562","0.18164062","-94.375","20.6875","-97.71875"
"1574192659047","398","-0.17675781","-1.84375","0.11328125","-155.09375","126.5","-126.25"
"1574192659047","399","-0.04296875","-1.7148438","0.19335938","-129.28125","45.34375","-83.21875"
"1574192659246","400","-0.095703125","-1.0371094","-0.12792969","-130.75","3.34375","-78.09375"
"1574192659246","401","0.24316406","-0.7470703","-0.52734375","-150.59375","-8.0625","-99.6875"
"1574192659247","402","0.2705078","-0.6816406","-0.4482422","-140.34375","8.65625","-97.71875"
"1574192659247","403","0.13671875","-0.8574219","-0.4560547","-118.90625","18.125","-84.71875"
"1574192659247","404","0.16210938","-0.5732422","-0.5761719","-35.71875","-22.40625","-54.53125"
"1574192659247","405","0.30859375","-0.56640625","-0.6611328","-47.125","-24.96875","-21.0625"
"1574192659248","406","0.31347656","-0.7841797","-0.65625","-74.0625","38.6875","-19.0625"
"1574192659248","407","0.32714844","-0.5917969","-0.7011719","19.34375","-3.3125","-14.125"
"1574192659248","408","0.44140625","-0.6855469","-0.55566406","18.0625","-24.25","18.90625"
"1574192659249","409","0.24902344","-0.71972656","-0.7138672","-3.125","-9.96875","39.53125"
"1574192659643","410","0.10839844","-0.73535156","-0.69433594","54.625","-18.09375","14.875"
"1574192659644","411","0.14648438","-0.7998047","-0.53515625","5.0","-20.28125","10.1875"
"1574192659644","412","0.036132812","-0.82714844","-0.578125","7.3125","-22.53125","35.875"
"1574192659644","413","0.0859375","-0.7548828","-0.5986328","70.1875","-13.5625","50.28125"
"1574192659644","414","0.125","-0.8076172","-0.4638672","72.8125","-17.28125","39.65625"
"1574192659645","415","0.06640625","-0.859375","-0.41503906","76.65625","-8.375","48.75"
"1574192659645","416","-0.005859375","-0.9375","-0.47753906","80.4375","-5.625","59.1875"
"1574192659645","417","-0.091796875","-0.9111328","-0.41992188","101.78125","-11.375","50.875"
"1574192659645","418","-0.068359375","-0.87402344","-0.23828125","124.625","-6.59375","48.15625"
"1574192659646","419","-0.119140625","-0.9248047","-0.16015625","112.46875","-6.53125","57.96875"
"1574192659843","420","-0.17871094","-0.9785156","-0.07714844","139.28125","-1.84375","65.59375"
"1574192659844","421","-0.16699219","-0.98535156","-0.034179688","134.5","-15.09375","61.15625"
"1574192659844","422","-0.2939453","-0.8964844","0.140625","151.84375","-10.15625","67.0625"
"1574192659845","423","-0.3486328","-0.8457031","0.33398438","186.4375","-14.0625","68.96875"
"1574192659845","424","-0.31152344","-0.9160156","0.40429688","223.125","9.375","97.75"
"1574192659845","425","-0.4189453","-0.82714844","0.46679688","213.125","23.84375","84.625"
"1574192659845","426","-0.5205078","-0.6982422","0.6972656","237.21875","9.9375","72.5"
"1574192659846","427","-0.5048828","-0.55371094","0.75878906","193.53125","32.34375","43.125"
"1574192659846","428","-0.4658203","-0.4951172","0.8544922","133.09375","25.75","40.375"
"1574192659846","429","-0.57128906","-0.35058594","0.83691406","113.625","28.96875","45.9375"
"1574192660239","430","-0.5449219","-0.3173828","0.7919922","76.34375","16.40625","25.6875"
"1574192660239","431","-0.58203125","-0.27929688","0.7949219","57.78125","8.59375","17.3125"
"1574192660240","432","-0.6279297","-0.3017578","0.80566406","27.9375","12.75","10.84375"
"1574192660241","433","-0.6298828","-0.23535156","0.82128906","15.0625","10.375","10.46875"
"1574192660241","434","-0.6230469","-0.15820312","0.9238281","22.125","29.78125","20.4375"
"1574192660242","435","-0.7314453","-0.068359375","0.9482422","13.03125","32.34375","29.40625"
"1574192660242","436","-0.74316406","-0.057617188","1.0556641","-14.0","13.0","29.34375"
"1574192660242","437","-0.8408203","-0.13671875","1.0537109","-73.125","-13.5","13.28125"
"1574192660242","438","-0.8496094","-0.24023438","1.0517578","-113.1875","-21.9375","-9.46875"
"1574192660243","439","-0.67089844","-0.4296875","1.1416016","-224.375","0.90625","-32.90625"
"1574192661035","440","-0.69921875","-0.5029297","0.81933594","-160.21875","6.75","-45.5625"
"1574192661036","441","-0.65625","-0.484375","0.76171875","-62.46875","-12.40625","-99.1875"
"1574192661037","442","-0.55859375","-0.6777344","0.7607422","-103.78125","-25.34375","-64.46875"
"1574192661037","443","-0.57714844","-0.78808594","0.6230469","-162.125","6.15625","-57.625"
"1574192661037","444","-0.64160156","-0.81933594","0.5439453","-153.53125","30.5625","-71.84375"
"1574192661038","445","-0.23046875","-0.9316406","0.49316406","-110.375","-50.75","-55.875"
"1574192661039","446","-0.23144531","-0.68652344","0.21875","-57.5625","-17.09375","-48.65625"
"1574192661039","447","-0.28808594","-0.6503906","0.2998047","-38.28125","38.0","-44.28125"
"1574192661039","448","-0.17089844","-0.66308594","0.375","-93.65625","-5.625","-50.0625"
"1574192661040","449","-0.12890625","-0.6328125","0.18847656","-120.0625","-26.6875","-66.0"
"1574192661231","450","-0.14746094","-0.7109375","0.078125","-74.125","-0.1875","-94.625"
"1574192661232","451","-0.12890625","-0.6953125","0.18847656","-88.46875","-21.6875","-76.5625"
"1574192661232","452","-0.21679688","-0.6933594","0.18554688","-85.09375","-12.28125","-59.03125"
"1574192661232","453","-0.15625","-0.6621094","0.18652344","-57.75","-10.28125","-44.4375"
"1574192661233","454","-0.06542969","-0.68066406","0.17871094","-68.0","-1.0625","-32.90625"
"1574192661233","455","-0.08203125","-0.8388672","0.1328125","-62.8125","-4.46875","-24.75"
"1574192661233","456","-0.115234375","-1.078125","0.041992188","-39.125","4.3125","-6.78125"
"1574192661234","457","-0.13964844","-1.0771484","-0.059570312","-20.84375","-5.21875","-15.03125"
"1574192661235","458","-0.07910156","-0.9628906","-0.030273438","-24.3125","2.0625","-13.0625"
"1574192661235","459","-0.07324219","-0.9199219","-0.001953125","-28.6875","5.53125","-7.09375"
"1574192661431","460","-0.045898438","-0.9785156","-0.04296875","-8.8125","19.03125","-0.8125"
"1574192661432","461","-0.05859375","-0.9423828","-0.04296875","1.03125","16.84375","2.65625"
"1574192661432","462","-0.14453125","-0.9160156","-0.0068359375","0.78125","15.3125","9.125"
"1574192661432","463","-0.23144531","-0.9404297","-9.765625E-4","12.1875","1.15625","21.84375"
"1574192661433","464","-0.16113281","-0.9423828","-0.05078125","14.9375","-2.75","31.59375"
"1574192661433","465","-0.12890625","-0.86328125","-0.016601562","33.8125","7.5","32.5625"
"1574192661433","466","-0.21875","-0.7988281","0.0546875","45.625","10.84375","41.1875"
"1574192661433","467","-0.30078125","-0.7714844","0.087890625","50.34375","6.21875","50.875"
"1574192661434","468","-0.31445312","-0.7998047","0.09863281","51.5","5.90625","57.1875"
"1574192661435","469","-0.22753906","-0.78125","0.11035156","59.375","2.375","59.0625"
"1574192661829","470","-0.18164062","-0.7675781","0.12402344","64.5","-13.5","58.875"
"1574192661830","471","-0.2607422","-0.7060547","0.15234375","64.5","-22.0625","49.53125"
"1574192661830","472","-0.2841797","-0.7138672","0.15722656","51.6875","-15.625","37.75"
"1574192661830","473","-0.20605469","-0.6669922","0.20214844","72.75","-42.96875","34.78125"
"1574192661831","474","-0.20605469","-0.6904297","0.26464844","57.1875","-40.84375","21.84375"
"1574192661831","475","-0.28808594","-0.71191406","0.22949219","12.5625","-17.21875","8.71875"
"1574192661831","476","-0.3388672","-0.6767578","0.26464844","23.59375","-9.90625","-7.9375"
"1574192661831","477","-0.28515625","-0.7470703","0.26757812","29.53125","-12.15625","-3.375"
"1574192661832","478","-0.2705078","-0.90234375","0.33789062","-34.375","17.125","5.0625"
"1574192661832","479","-0.3251953","-1.0126953","0.5234375","-0.875","8.78125","3.21875"
"1574192662427","480","-0.5214844","-1.0175781","0.42382812","-8.6875","11.09375","15.1875"
"1574192662429","481","-0.53515625","-0.99902344","0.34960938","-26.875","2.65625","-50.0625"
"1574192662429","482","-0.24121094","-0.78515625","0.16894531","-11.125","2.59375","-82.03125"
"1574192662430","483","-0.453125","-1.3857422","-0.19824219","-95.96875","8.96875","-5.8125"
"1574192662430","484","-0.8417969","-2.0","1.1904297","-50.90625","8.15625","-51.53125"
"1574192662430","485","-0.33984375","-1.9648438","0.2548828","-218.09375","27.875","-130.03125"
"1574192662430","486","-0.036132812","-1.3105469","0.032226562","-121.65625","-1.65625","-101.09375"
"1574192662431","487","0.27148438","-0.59472656","-0.18066406","-96.4375","11.09375","-78.5"
"1574192662431","488","0.12402344","-0.46777344","-0.3466797","-57.875","23.0625","-72.15625"
"1574192662431","489","0.015625","-0.34472656","-0.20703125","11.28125","15.1875","-60.25"
"1574192662625","490","0.1484375","-0.29101562","-0.26367188","-140.15625","-10.4375","-69.78125"
"1574192662626","491","0.31152344","-0.5859375","-0.39746094","-149.78125","24.09375","-37.75"
"1574192662626","492","0.15722656","-1.1953125","-0.56933594","-129.03125","58.8125","6.6875"
"1574192662627","493","0.020507812","-1.6621094","-0.46191406","-52.09375","29.46875","11.40625"
"1574192662628","494","0.25195312","-1.1464844","-0.4501953","23.0","-24.5625","-39.5"
"1574192662628","495","0.3984375","-0.8144531","-0.49316406","59.125","-9.84375","-30.15625"
"1574192662628","496","0.2578125","-0.7763672","-0.41015625","8.59375","8.71875","16.15625"
"1574192662628","497","0.080078125","-0.59277344","-0.359375","-18.3125","-10.8125","-19.65625"
"1574192662629","498","0.119140625","-0.7373047","-0.37597656","37.65625","23.84375","-11.96875"
"1574192662629","499","0.115234375","-0.7763672","-0.40429688","-19.0625","27.75","23.96875"
"1574192663022","500","0.19042969","-0.8925781","-0.35546875","-4.28125","36.0","18.125"
"1574192663023","501","0.3486328","-1.1386719","-0.46191406","22.4375","33.0","8.71875"
"1574192663023","502","0.33203125","-0.8925781","-0.33398438","71.875","24.28125","30.1875"
"1574192663023","503","0.2529297","-0.8222656","-0.27929688","81.21875","30.4375","50.09375"
"1574192663024","504","0.15332031","-0.8828125","-0.27734375","59.90625","28.65625","55.65625"
"1574192663031","505","0.11621094","-0.9765625","-0.18359375","87.09375","27.15625","63.78125"
"1574192663032","506","0.038085938","-0.953125","-0.08984375","111.3125","16.65625","72.875"
"1574192663032","507","0.020507812","-0.99316406","-0.015625","110.875","2.0625","85.625"
"1574192663032","508","-0.056640625","-0.9765625","0.048828125","109.78125","1.5","106.78125"
"1574192663032","509","-0.18164062","-0.9658203","0.18457031","121.25","-10.625","118.03125"
"1574192663419","510","-0.22949219","-0.9189453","0.3095703","128.90625","1.8125","125.15625"
"1574192663419","511","-0.32128906","-0.8857422","0.34960938","128.65625","28.1875","130.21875"
"1574192663420","512","-0.3701172","-0.8574219","0.46777344","142.625","21.84375","107.21875"
"1574192663420","513","-0.3876953","-0.81640625","0.40625","119.4375","13.65625","104.96875"
"1574192663420","514","-0.50390625","-0.7167969","0.5410156","147.4375","-10.875","108.6875"
"1574192663420","515","-0.6933594","-0.61621094","0.8222656","174.4375","-14.1875","96.3125"
"1574192663421","516","-0.63378906","-0.5878906","0.81152344","155.25","-4.34375","76.34375"
"1574192663421","517","-0.6738281","-0.46289062","0.90527344","109.84375","15.3125","53.8125"
"1574192663422","518","-0.7939453","-0.27441406","0.9980469","58.09375","29.28125","31.53125"
"1574192663422","519","-0.8925781","-0.2421875","1.0205078","-3.5","17.375","23.1875"
"1574192663816","520","-0.8720703","-0.32910156","0.9638672","-60.4375","15.78125","7.8125"
"1574192663817","521","-0.8388672","-0.48828125","0.99902344","-136.5625","65.53125","-13.75"
"1574192663817","522","-0.859375","-0.58203125","0.9433594","-134.59375","2.125","-40.90625"
"1574192663817","523","-0.83496094","-0.58691406","0.7246094","-117.25","23.65625","-67.03125"
"1574192663818","524","-0.6777344","-0.8066406","0.5908203","-76.0625","-53.59375","-118.375"
"1574192663818","525","-0.6035156","-0.76171875","0.5488281","-91.03125","-13.125","-79.90625"
"1574192663818","526","-0.37109375","-0.56347656","0.37695312","-121.0","9.75","-82.59375"
"1574192663818","527","-0.18945312","-0.47753906","0.32714844","-89.5625","-31.375","-68.8125"
"1574192663819","528","-0.18261719","-0.6982422","0.3798828","-77.15625","-4.65625","-22.0625"
"1574192663819","529","-0.36523438","-0.6826172","0.3154297","-115.3125","26.65625","-35.96875"
"1574192664215","530","-0.5","-0.73828125","0.19824219","-89.375","29.28125","-87.28125"
"1574192664216","531","-0.359375","-0.76953125","0.23632812","-61.28125","-23.9375","-91.8125"
"1574192664216","532","-0.20019531","-0.7890625","0.23535156","-90.90625","-32.5","-58.65625"
"1574192664216","533","-0.14160156","-0.6347656","0.18066406","-87.0","-45.25","-43.78125"
"1574192664216","534","-0.19628906","-0.6738281","0.13671875","-59.59375","-24.6875","-54.53125"
"1574192664217","535","-0.23144531","-0.8027344","0.12792969","-74.90625","16.46875","-48.59375"
"1574192664217","536","-0.2548828","-0.9589844","0.048828125","-69.09375","-5.875","-37.625"
"1574192664217","537","-0.20214844","-0.9091797","0.041992188","-38.46875","-17.96875","-34.4375"
"1574192664217","538","-0.099609375","-0.7529297","0.013671875","-27.96875","-23.4375","-35.34375"
"1574192664218","539","-0.15332031","-0.8261719","-0.03515625","-43.40625","-1.90625","-28.03125"
"1574192665008","540","-0.234375","-1.0019531","-0.037109375","-30.15625","17.0","-19.71875"
"1574192665010","541","-0.16894531","-0.9863281","-0.055664062","-18.4375","0.46875","-20.78125"
"1574192665010","542","-0.047851562","-0.87402344","-0.05859375","-5.5625","-10.15625","-13.875"
"1574192665011","543","-0.059570312","-0.9121094","-0.029296875","-4.96875","7.0625","-12.28125"
"1574192665011","544","-0.11230469","-1.0048828","-0.032226562","-1.90625","1.9375","-8.375"
"1574192665012","545","-0.08300781","-0.9550781","-0.057617188","12.4375","-14.34375","5.90625"
"1574192665012","546","-0.052734375","-0.9091797","0.0","15.0","-9.78125","7.5"
"1574192665012","547","-0.095703125","-0.9042969","-0.0068359375","30.6875","-0.625","9.5625"
"1574192665012","548","-0.15820312","-0.8730469","0.017578125","43.75","-3.90625","19.15625"
"1574192665013","549","-0.13964844","-0.78125","0.10449219","63.71875","-3.90625","30.1875"
"1574192665206","550","-0.14355469","-0.71777344","0.19042969","79.8125","-0.5","39.28125"
"1574192665206","551","-0.21875","-0.69921875","0.19433594","95.25","2.96875","42.90625"
"1574192665207","552","-0.20117188","-0.765625","0.18847656","95.8125","16.90625","54.3125"
"1574192665208","553","-0.20117188","-0.78515625","0.26660156","96.65625","17.4375","60.59375"
"1574192665209","554","-0.2548828","-0.79589844","0.36132812","103.6875","24.71875","49.59375"
"1574192665209","555","-0.18847656","-0.875","0.3720703","56.25","27.75","36.125"
"1574192665209","556","-0.17773438","-0.87109375","0.2734375","44.53125","-8.0","27.28125"
"1574192665209","557","-0.10839844","-0.7998047","0.2861328","74.5625","-31.09375","3.09375"
"1574192665210","558","-0.18164062","-0.9794922","0.3955078","53.875","-18.3125","27.03125"
"1574192665210","559","-0.4140625","-0.7578125","0.5517578","37.8125","6.46875","41.125"
"1574192665408","560","-0.3720703","-0.6855469","0.5332031","41.0625","31.71875","1.6875"
"1574192665408","561","-0.30371094","-0.89746094","0.27539062","38.25","24.53125","11.71875"
"1574192665408","562","-0.17871094","-0.7753906","0.5253906","41.0625","-9.125","49.90625"
"1574192665409","563","-0.20800781","-0.9482422","0.72558594","46.8125","19.21875","69.6875"
"1574192665409","564","-0.4970703","-0.9033203","0.7714844","-19.65625","39.21875","56.9375"
"1574192665410","565","-0.9169922","-0.9111328","0.53125","-1.84375","10.40625","1.6875"
"1574192665410","566","-0.5888672","-0.76171875","0.7207031","24.40625","-44.625","-51.53125"
"1574192665411","567","-0.36816406","-0.7089844","0.82714844","-72.21875","-11.3125","-38.71875"
"1574192665411","568","-0.30078125","-0.62109375","0.41308594","-81.125","16.15625","-29.4375"
"1574192665411","569","-0.33007812","-0.5859375","0.34472656","-41.9375","2.0625","-40.25"
"1574192665805","570","-0.3173828","-0.47265625","0.40527344","-47.625","7.96875","-40.90625"
"1574192665806","571","-0.35058594","-0.6064453","0.16601562","-127.625","9.1875","-55.5625"
"1574192665806","572","-0.20117188","-1.2275391","0.12207031","-142.46875","28.375","-43.21875"
"1574192665806","573","-0.35351562","-2.0","0.9267578","2.25","-24.78125","-49.8125"
"1574192665806","574","-0.3984375","-1.9375","0.38867188","-217.125","6.40625","-83.34375"
"1574192665807","575","-0.09082031","-1.2236328","0.21972656","-117.15625","15.5625","-110.5625"
"1574192665807","576","0.18164062","-0.7783203","-0.26660156","-171.59375","-17.34375","-91.4375"
"1574192665808","577","0.091796875","-0.68847656","-0.068359375","-81.125","34.34375","-71.96875"
"1574192665808","578","-0.043945312","-0.67871094","-0.20214844","-22.96875","47.96875","-16.1875"
"1574192665809","579","-0.1953125","-0.53515625","-0.2265625","-77.21875","17.9375","-41.03125"
"1574192666203","580","0.15332031","-0.6796875","-0.2890625","-120.8125","27.9375","-56.15625"
"1574192666204","581","0.2998047","-1.015625","-0.3544922","-68.4375","19.875","-22.90625"
"1574192666204","582","0.12011719","-1.1171875","-0.4501953","-48.84375","24.46875","-3.4375"
"1574192666204","583","0.06640625","-1.1035156","-0.32714844","-8.0625","28.3125","-5.75"
"1574192666204","584","0.14746094","-0.92089844","-0.3876953","-10.4375","2.96875","-22.28125"
"1574192666204","585","0.21972656","-0.8261719","-0.41992188","10.0625","22.25","-2.9375"
"1574192666205","586","0.13964844","-0.85058594","-0.34277344","23.25","34.09375","16.40625"
"1574192666205","587","0.109375","-0.8701172","-0.29492188","24.65625","22.3125","7.25"
"1574192666205","588","0.16113281","-0.88964844","-0.3388672","34.65625","25.4375","9.5625"
"1574192666207","589","0.14257812","-0.8183594","-0.27734375","59.90625","35.25","28.1875"
"1574192666798","590","0.21875","-0.9941406","-0.27148438","52.46875","30.0","46.1875"
"1574192666799","591","0.115234375","-1.0341797","-0.19042969","63.78125","22.625","66.28125"
"1574192666799","592","0.041015625","-1.0302734","-0.12109375","107.34375","13.03125","78.40625"
"1574192666799","593","-0.049804688","-0.95996094","-0.06738281","108.6875","6.28125","98.96875"
"1574192666799","594","-0.22265625","-0.8769531","-0.083984375","98.5625","-37.1875","103.625"
"1574192666799","595","-0.2939453","-0.9111328","0.18261719","161.3125","22.375","106.0625"
"1574192666800","596","-0.25195312","-1.0771484","0.32910156","175.15625","16.28125","117.125"
"1574192666800","597","-0.2578125","-0.9267578","0.39257812","185.96875","15.96875","129.9375"
"1574192666800","598","-0.3330078","-0.7910156","0.4453125","173.6875","6.5625","120.90625"
"1574192666800","599","-0.34765625","-0.6972656","0.5605469","166.65625","-0.625","107.09375"
"1574192667197","600","-0.60058594","-0.5957031","0.9316406","290.03125","-41.03125","126.625"
"1574192667198","601","-0.6923828","-0.44335938","0.7519531","167.59375","20.625","91.40625"
"1574192667199","602","-0.6542969","-0.24902344","0.97265625","130.53125","32.5625","72.125"
"1574192667199","603","-0.6386719","-0.19824219","0.85546875","84.625","44.40625","62.25"
"1574192667199","604","-0.8330078","-0.0390625","0.99902344","69.875","35.4375","54.78125"
"1574192667200","605","-0.83984375","-9.765625E-4","0.9921875","54.78125","-3.4375","57.40625"
"1574192667200","606","-0.76660156","-0.024414062","0.95996094","24.21875","-31.8125","49.46875"
"1574192667200","607","-0.71484375","-0.038085938","0.96875","-45.59375","-20.59375","24.65625"
"1574192667201","608","-0.9082031","-0.16308594","1.1064453","-206.3125","57.1875","-26.9375"
"1574192667201","609","-0.8457031","-0.45117188","1.3037109","-295.25","50.46875","-88.34375"
"1574192667594","610","-0.84472656","-0.70410156","0.84765625","-228.09375","52.28125","-112.0"
"1574192667595","611","-0.7167969","-0.57714844","0.53027344","-106.28125","-9.78125","-117.8125"
"1574192667595","612","-0.61816406","-0.4765625","0.45410156","-137.84375","-14.25","-122.625"
"1574192667596","613","-0.2548828","-0.33398438","0.47070312","-128.5","-60.5","-93.28125"
"1574192667597","614","-0.048828125","-0.5957031","0.37304688","-93.59375","-37.375","-38.78125"
"1574192667597","615","-0.14648438","-0.69140625","0.42773438","-106.8125","48.875","-12.40625"
"1574192667597","616","-0.45410156","-0.640625","0.32128906","-165.53125","1.4375","-58.0625"
"1574192667598","617","-0.4326172","-0.71191406","0.22460938","-63.125","-78.375","-116.65625"
"1574192667598","618","-0.28320312","-0.7578125","0.20117188","-55.375","-8.1875","-69.15625"
"1574192667598","619","-0.1953125","-0.58496094","0.3046875","-83.6875","-23.28125","-58.5"
"1574192667991","620","-0.12207031","-0.57910156","0.22363281","-94.6875","-19.375","-61.78125"
"1574192667992","621","-0.10644531","-0.8076172","0.1875","-63.0","8.96875","-44.5"
"1574192667992","622","-0.13378906","-0.87597656","0.17773438","-68.9375","-24.6875","-33.71875"
"1574192667992","623","-0.2548828","-0.92285156","0.11425781","-60.4375","-21.625","-34.8125"
"1574192667993","624","-0.21191406","-0.9453125","0.017578125","-24.0625","4.8125","-16.25"
"1574192667993","625","-0.13476562","-0.88671875","0.01171875","-33.28125","0.71875","-9.21875"
"1574192667993","626","-0.08984375","-0.94140625","0.020507812","-32.65625","4.8125","-10.875"
"1574192667994","627","-0.11621094","-1.0048828","-0.022460938","-23.625","-1.0625","-12.34375"
"1574192667994","628","-0.12597656","-0.92578125","-0.06933594","-7.59375","-8.0625","-7.78125"
"1574192667995","629","-0.17675781","-0.89941406","-0.024414062","-7.46875","2.59375","-5.03125"
"1574192668388","630","-0.15429688","-0.96875","0.009765625","-9.125","18.125","-0.875"
"1574192668388","631","-0.18359375","-1.0078125","-0.12597656","-5.5625","11.34375","7.5625"
"1574192668388","632","-0.15917969","-0.9482422","-0.12597656","8.84375","0.46875","13.84375"
"1574192668389","633","-0.12402344","-0.9785156","-0.10058594","8.59375","8.84375","18.34375"
"1574192668389","634","-0.14648438","-0.9199219","-0.083984375","23.46875","13.03125","19.9375"
"1574192668389","635","-0.17578125","-0.9970703","-0.059570312","27.75","9.03125","16.78125"
"1574192668389","636","-0.22265625","-0.96777344","-0.026367188","30.3125","15.5625","17.875"
"1574192668390","637","-0.20507812","-0.91015625","0.045898438","44.90625","10.375","21.21875"
"1574192668391","638","-0.21972656","-0.92871094","0.07714844","41.84375","12.625","26.28125"
"1574192668391","639","-0.21972656","-0.9160156","0.064453125","57.40625","19.46875","33.0"
"1574192669182","640","-0.18164062","-0.84472656","0.13085938","72.3125","4.6875","27.6875"
"1574192669182","641","-0.20800781","-0.7636719","0.2265625","76.03125","0.0","26.15625"
"1574192669183","642","-0.24804688","-0.79296875","0.2861328","68.09375","7.8125","35.5"
"1574192669183","643","-0.2919922","-0.84375","0.25683594","69.1875","-6.78125","41.0625"
"1574192669183","644","-0.32910156","-0.7626953","0.2861328","93.5","-5.375","39.09375"
"1574192669183","645","-0.26953125","-0.7216797","0.40039062","100.25","-18.375","57.28125"
"1574192669184","646","-0.25878906","-0.5986328","0.4501953","86.65625","-29.8125","57.46875"
"1574192669184","647","-0.32128906","-0.6269531","0.43945312","73.46875","-17.21875","53.34375"
"1574192669184","648","-0.3330078","-0.6015625","0.54003906","104.34375","-27.125","44.28125"
"1574192669186","649","-0.3564453","-0.6230469","0.515625","71.40625","-19.0625","46.125"
"1574192669579","650","-0.4111328","-0.5722656","0.5683594","62.25","-25.21875","36.65625"
"1574192669580","651","-0.24414062","-0.48046875","0.62109375","78.21875","3.09375","-5.03125"
"1574192669580","652","-0.39160156","-0.5917969","0.6113281","27.15625","-28.03125","24.15625"
"1574192669580","653","-0.5703125","-0.6611328","0.76953125","7.5","29.40625","36.1875"
"1574192669581","654","-0.4736328","-0.8105469","0.61621094","49.25","23.375","4.5625"
"1574192669581","655","-0.3955078","-0.5732422","0.7626953","51.3125","-27.125","-10.75"
"1574192669582","656","-0.4140625","-0.6953125","0.9316406","1.03125","-5.625","-10.5"
"1574192669582","657","-0.4501953","-0.61816406","0.8652344","-4.78125","12.125","-6.125"
"1574192669582","658","-0.5253906","-0.6503906","0.7832031","-29.125","11.65625","-21.5"
"1574192669582","659","-0.4482422","-0.6669922","0.8515625","-53.125","8.65625","-50.0625"
"1574192669777","660","-0.43945312","-0.65234375","0.91503906","-32.78125","-20.34375","-58.71875"
"1574192669778","661","-0.390625","-0.5263672","0.84375","-86.3125","-1.34375","-41.40625"
"1574192669779","662","-0.43066406","-0.5341797","0.7080078","-104.15625","-1.96875","-48.0"
"1574192669779","663","-0.3642578","-0.640625","0.53222656","-119.78125","-2.28125","-72.09375"
"1574192669779","664","-0.3359375","-0.64746094","0.3955078","-104.3125","4.5","-68.9375"
"1574192669780","665","-0.28320312","-0.6767578","0.16796875","-171.46875","26.53125","-88.40625"
"1574192669780","666","0.041015625","-1.171875","0.3203125","-204.375","-13.25","-138.8125"
"1574192669780","667","0.12109375","-2.0","0.55078125","-118.78125","22.5","-73.0625"
"1574192669780","668","-0.26660156","-1.8183594","0.51660156","-107.9375","31.25","-35.78125"
"1574192669781","669","-0.20605469","-0.98339844","-0.10546875","-151.6875","-24.96875","-50.78125"
"1574192669979","670","-0.018554688","-0.7285156","-0.2783203","-44.15625","-2.59375","-49.46875"
"1574192669980","671","0.07421875","-0.7265625","-0.12988281","7.5","66.5625","18.53125"
"1574192669980","672","-0.046875","-0.5517578","0.0146484375","-39.1875","27.625","6.09375"
"1574192669986","673","0.14160156","-0.71972656","-0.2109375","-59.59375","13.46875","-29.3125"
"1574192669987","674","0.23144531","-0.8935547","-0.2265625","-11.0","24.65625","11.53125"
"1574192669987","675","0.034179688","-1.0830078","-0.16601562","-0.25","33.75","44.46875"
"1574192669988","676","-0.11328125","-1.1181641","-0.18554688","33.75","24.875","47.09375"
"1574192669988","677","0.021484375","-1.0859375","-0.18457031","36.59375","15.96875","24.53125"
"1574192669988","678","0.09667969","-1.0527344","-0.14648438","44.34375","8.21875","40.75"
"1574192669988","679","-0.0126953125","-0.9423828","-0.08300781","59.0625","6.03125","59.1875"
"1574192670376","680","-0.0859375","-0.92089844","-0.048828125","47.15625","0.65625","45.40625"
"1574192670376","681","-0.08886719","-0.9345703","-0.022460938","35.5625","6.03125","33.125"
"1574192670377","682","-0.046875","-1.0058594","0.0126953125","47.65625","-1.59375","38.5"
"1574192670377","683","-0.10253906","-1.0166016","0.07519531","52.53125","-5.375","41.5"
"1574192670377","684","-0.18847656","-1.0166016","0.1171875","41.625","-9.78125","42.90625"
"1574192670378","685","-0.21679688","-1.03125","0.14941406","46.75","-11.4375","37.9375"
"1574192670379","686","-0.21875","-0.9785156","0.16308594","52.96875","-13.25","39.15625"
"1574192670379","687","-0.24902344","-0.9560547","0.18164062","53.375","-11.96875","39.28125"
"1574192670379","688","-0.27734375","-0.93359375","0.25878906","54.96875","-7.78125","35.75"
"1574192670380","689","-0.29785156","-0.91503906","0.28710938","67.0625","-12.15625","39.0625"
"1574192670775","690","-0.33398438","-0.8955078","0.34570312","84.46875","-7.28125","53.5625"
"1574192670776","691","-0.43066406","-0.8203125","0.44335938","101.0625","-1.125","63.78125"
"1574192670776","692","-0.44433594","-0.75","0.45214844","110.21875","-3.75","62.71875"
"1574192670776","693","-0.41796875","-0.72558594","0.48046875","111.4375","9.03125","64.8125"
"1574192670776","694","-0.4658203","-0.6279297","0.56640625","150.75","8.84375","79.4375"
"1574192670777","695","-0.5048828","-0.46484375","0.65722656","161.96875","-17.96875","70.34375"
"1574192670777","696","-0.48632812","-0.4482422","0.74902344","141.21875","-30.03125","47.59375"
"1574192670778","697","-0.53515625","-0.3232422","0.8466797","117.84375","-9.96875","41.84375"
"1574192670778","698","-0.546875","-0.2841797","0.8095703","86.28125","2.4375","30.375"
"1574192670779","699","-0.48535156","-0.2734375","0.80371094","50.21875","2.90625","11.03125"
"1574192671367","700","-0.53222656","-0.21289062","0.8730469","46.5","-0.1875","8.03125"
"1574192671368","701","-0.5566406","-0.12207031","0.83984375","44.0625","-1.84375","4.375"
"1574192671368","702","-0.484375","-0.11328125","0.8310547","38.5625","3.40625","0.90625"
"1574192671368","703","-0.6308594","-0.025390625","0.7675781","42.21875","11.15625","6.8125"
"1574192671369","704","-0.68359375","-0.024414062","0.9296875","49.4375","31.125","18.96875"
"1574192671370","705","-0.7675781","-0.10644531","0.8261719","61.875","80.5","14.625"
"1574192671370","706","-0.78222656","-0.038085938","1.0400391","57.25","77.125","16.78125"
"1574192671371","707","-0.71875","0.07421875","0.9814453","4.6875","27.5625","34.21875"
"1574192671371","708","-0.8984375","0.13476562","0.9560547","-36.75","-19.3125","33.0625"
"1574192671371","709","-0.8203125","0.01953125","1.0625","-88.21875","-32.90625","5.34375"
"1574192671568","710","-0.91015625","-0.14160156","1.2773438","-301.96875","49.53125","-59.84375"
"1574192671568","711","-1.0117188","-0.42089844","1.0576172","-312.5","123.75","-121.90625"
"1574192671568","712","-0.9628906","-0.6152344","0.7607422","-148.75","39.84375","-130.875"
"1574192671569","713","-0.79785156","-0.6513672","0.5703125","-109.875","-13.1875","-133.0"
"1574192671569","714","-0.5683594","-0.5361328","0.5488281","-118.96875","-1.125","-112.0625"
"1574192671569","715","-0.31347656","-0.5029297","0.33984375","-74.59375","-14.1875","-103.90625"
"1574192671569","716","-0.123046875","-0.5263672","0.30664062","-41.21875","-5.5625","-43.03125"
"1574192671570","717","-0.17773438","-0.54589844","0.3251953","-80.59375","12.1875","-48.71875"
"1574192671570","718","-0.6816406","-0.65625","0.29589844","-159.1875","-1.46875","-127.875"
"1574192671570","719","-0.38085938","-0.90527344","0.10546875","-85.28125","-21.8125","-120.1875"
"1574192671967","720","0.025390625","-0.6035156","0.16601562","-71.90625","-79.125","-55.0625"
"1574192671971","721","-0.06738281","-0.51464844","0.27148438","-113.1875","-14.1875","-61.84375"
"1574192671972","722","-0.18066406","-0.5644531","0.19140625","-87.96875","-7.78125","-67.53125"
"1574192671972","723","-0.16992188","-0.73339844","0.068359375","-64.78125","-21.1875","-43.03125"
"1574192671972","724","-0.26367188","-0.8417969","0.07128906","-102.75","-4.28125","-21.875"
"1574192671972","725","-0.2734375","-0.86816406","0.03125","-53.53125","-16.25","-25.03125"
"1574192671973","726","-0.20703125","-0.90527344","0.046875","-16.875","-18.9375","-12.28125"
"1574192671973","727","-0.19042969","-0.92089844","-0.055664062","-28.40625","-2.46875","-5.09375"
"1574192671973","728","-0.25390625","-1.0273438","-0.10058594","-20.28125","6.8125","2.0"
"1574192671973","729","-0.18457031","-0.96777344","-0.125","3.40625","-15.9375","12.75"
"1574192672365","730","-0.15332031","-0.8076172","0.0625","15.65625","-9.78125","18.65625"
"1574192672365","731","-0.203125","-0.7636719","0.080078125","38.5625","9.03125","27.875"
"1574192672365","732","-0.3251953","-0.8330078","-0.0087890625","45.6875","-2.9375","34.84375"
"1574192672366","733","-0.3515625","-0.75878906","0.09667969","69.25","-12.34375","50.8125"
"1574192672367","734","-0.31640625","-0.62109375","0.18164062","103.6875","-14.59375","59.875"
"1574192672367","735","-0.25585938","-0.5263672","0.19628906","132.0","-18.9375","74.375"
"1574192672367","736","-0.17285156","-0.4560547","0.2841797","117.34375","-34.6875","71.09375"
"1574192672367","737","-0.16210938","-0.47265625","0.24609375","120.90625","-23.5625","58.625"
"1574192672368","738","-0.42578125","-0.5878906","0.33203125","59.625","19.5625","52.96875"
"1574192672368","739","-0.5566406","-0.7792969","0.35839844","4.6875","19.75","83.59375"
"1574192672762","740","-0.4501953","-0.7841797","0.25976562","115.34375","-89.25","76.53125"
"1574192672763","741","-0.18847656","-0.8027344","0.43554688","79.03125","3.40625","6.15625"
"1574192672763","742","-0.30859375","-0.7529297","0.578125","48.03125","30.0625","-12.46875"
"1574192672763","743","-0.58691406","-0.7871094","0.6152344","84.6875","-27.25","50.03125"
"1574192672764","744","-0.61816406","-0.6894531","0.8466797","73.59375","23.84375","33.75"
"1574192672765","745","-0.546875","-0.74609375","0.6191406","91.59375","-11.5625","-0.5625"
"1574192672765","746","-0.64746094","-0.6455078","0.86035156","135.59375","-4.78125","41.625"
"1574192672766","747","-0.5410156","-0.44335938","0.953125","126.5","5.59375","3.78125"
"1574192672766","748","-0.515625","-0.4580078","0.8330078","153.3125","26.21875","-14.90625"
"1574192672766","749","-0.53515625","-0.31152344","0.77734375","80.375","45.09375","-12.59375"
"1574192673554","750","-0.54296875","-0.4658203","0.6386719","2.71875","36.0","-29.5625"
"1574192673555","751","-0.9267578","-0.4140625","1.3173828","21.03125","-10.21875","-7.28125"
"1574192673555","752","-1.0019531","-0.8515625","1.3681641","-117.75","12.4375","-46.40625"
"1574192673555","753","-0.7871094","-0.86816406","1.3544922","-77.40625","-32.5625","-49.09375"
"1574192673555","754","-0.53808594","-0.6669922","0.75390625","-227.875","-47.125","-86.0"
"1574192673556","755","-0.43066406","-0.6621094","0.4794922","-286.46875","-0.1875","-127.6875"
"1574192673556","756","-0.2861328","-0.5625","0.31933594","-189.40625","15.25","-88.15625"
"1574192673558","757","-0.18261719","-0.45117188","0.19140625","-111.78125","-1.3125","-61.0"
"1574192673558","758","-0.17675781","-0.54785156","0.16601562","-84.5","-6.0625","-55.125"
"1574192673558","759","-0.2607422","-0.72265625","0.2939453","-63.125","15.78125","-29.375"
"1574192673751","760","-0.3857422","-1.0410156","0.40039062","-47.25","31.59375","-14.96875"
"1574192673751","761","-0.37402344","-1.1904297","0.30566406","-56.78125","26.65625","-34.875"
"1574192673752","762","-0.23632812","-1.0341797","0.16113281","-17.03125","15.78125","-47.625"
"1574192673752","763","-0.11230469","-0.9560547","0.091796875","-19.5","25.4375","-33.875"
"1574192673752","764","-0.05078125","-0.9375","0.072265625","-22.28125","25.4375","-26.9375"
"1574192673752","765","0.015625","-0.9707031","0.045898438","-19.1875","23.25","-28.59375"
"1574192673753","766","-0.064453125","-0.98339844","0.078125","-13.3125","16.46875","-17.71875"
"1574192673753","767","-0.083984375","-0.98535156","0.07519531","-4.03125","11.75","-8.625"
"1574192673753","768","-0.055664062","-0.9736328","0.08105469","3.65625","7.8125","0.40625"
"1574192673754","769","-0.12890625","-0.9746094","0.1171875","18.28125","8.84375","10.0625"
"1574192673953","770","-0.140625","-0.9609375","0.11230469","32.46875","6.8125","16.90625"
"1574192673953","771","-0.091796875","-0.9160156","0.13671875","50.9375","0.03125","27.4375"
"1574192673953","772","-0.103515625","-0.8720703","0.14257812","73.03125","0.96875","46.5"
"1574192673954","773","-0.20214844","-0.91308594","0.20507812","105.5625","-6.84375","62.65625"
"1574192673954","774","-0.23828125","-0.9355469","0.35742188","158.84375","-3.8125","80.71875"
"1574192673954","775","-0.28320312","-0.85546875","0.42382812","159.59375","8.28125","89.28125"
"1574192673954","776","-0.32910156","-0.74902344","0.5830078","168.625","10.90625","92.09375"
"1574192673955","777","-0.3828125","-0.7324219","0.7050781","161.78125","2.4375","90.9375"
"1574192673955","778","-0.4296875","-0.67871094","0.7451172","95.625","-10.09375","75.78125"
"1574192673955","779","-0.51464844","-0.53125","0.89160156","156.25","-24.96875","70.25"
"1574192674350","780","-0.51171875","-0.5126953","0.9716797","153.78125","-4.40625","60.46875"
"1574192674352","781","-0.671875","-0.32714844","0.97265625","107.78125","44.84375","55.59375"
"1574192674352","782","-0.8261719","-0.18261719","1.0507812","55.28125","21.15625","55.78125"
"1574192674352","783","-0.7285156","-0.25097656","1.125","9.25","5.21875","43.0"
"1574192674352","784","-0.7607422","-0.3173828","1.1044922","-80.75","28.4375","20.375"
"1574192674353","785","-0.7890625","-0.4716797","1.3232422","-259.90625","28.5625","-50.1875"
"1574192674353","786","-0.7753906","-0.7324219","1.0009766","-331.125","29.65625","-90.53125"
"1574192674353","787","-0.8251953","-1.0302734","0.6738281","-177.5","53.4375","-97.96875"
"1574192674353","788","-0.75","-0.7451172","0.59375","-106.28125","11.09375","-93.53125"
"1574192674354","789","-0.30273438","-0.59472656","0.35253906","-87.71875","-51.84375","-81.5"
"1574192674749","790","-0.021484375","-0.52441406","0.171875","-81.5625","-26.8125","-68.1875"
"1574192674750","791","-0.024414062","-0.5966797","0.18164062","-66.84375","48.1875","-57.4375"
"1574192674750","792","-0.34960938","-0.5966797","0.3935547","-124.53125","28.5625","-73.375"
"1574192674752","793","-0.55566406","-0.65527344","0.2109375","-131.78125","-11.90625","-92.0"
"1574192674752","794","-0.16796875","-0.79296875","0.07910156","-67.75","-11.0625","-76.1875"
"1574192674753","795","0.044921875","-0.7138672","0.12695312","-67.40625","-38.03125","-54.65625"
"1574192674753","796","-0.09667969","-0.5917969","0.19433594","-77.96875","15.625","-57.4375"
"1574192674753","797","-0.3017578","-0.69628906","0.11230469","-69.84375","28.0625","-41.03125"
"1574192674753","798","-0.25390625","-0.84277344","0.05859375","-78.25","-6.125","-43.46875"
"1574192674754","799","-0.25683594","-0.8964844","0.041015625","-66.46875","0.59375","-40.59375"
"1574192675148","800","-0.07421875","-0.8408203","-0.030273438","-32.84375","-6.0625","-29.125"
"1574192675148","801","-0.0390625","-0.8457031","-0.046875","-36.5","6.5","-16.9375"
"1574192675149","802","-0.125","-0.95214844","-0.047851562","-31.25","19.03125","-11.3125"
"1574192675149","803","-0.24023438","-0.9941406","-0.099609375","-15.8125","7.75","-10.5625"
"1574192675149","804","-0.16894531","-1.0029297","-0.14746094","-8.3125","-3.0","-0.6875"
"1574192675151","805","-0.037109375","-1.0039062","-0.13085938","1.15625","12.0625","3.90625"
"1574192675151","806","-0.037109375","-0.9355469","-0.06933594","8.84375","16.78125","-0.1875"
"1574192675152","807","-0.07714844","-0.9169922","-0.10058594","13.53125","16.84375","7.125"
"1574192675152","808","-0.107421875","-0.9121094","-0.068359375","27.4375","4.0625","20.5625"
"1574192675152","809","-0.11425781","-0.93066406","0.0048828125","30.625","8.46875","30.375"
"1574192675545","810","-0.12988281","-0.8378906","0.048828125","49.71875","9.03125","33.0625"
"1574192675545","811","-0.16113281","-0.80078125","0.07714844","70.46875","-2.15625","42.28125"
"1574192675546","812","-0.19921875","-0.7480469","0.12402344","74.625","-13.0625","51.6875"
"1574192675546","813","-0.21484375","-0.67871094","0.15429688","85.8125","-10.4375","56.75"
"1574192675546","814","-0.29785156","-0.7089844","0.20410156","96.1875","-8.25","63.53125"
"1574192675546","815","-0.3046875","-0.75390625","0.1875","90.9375","-11.125","64.8125"
"1574192675547","816","-0.2763672","-0.7998047","0.14746094","92.9375","-11.71875","41.78125"
"1574192675548","817","-0.14160156","-0.78222656","0.23242188","78.84375","-30.84375","47.03125"
"1574192675548","818","-0.16601562","-0.67285156","0.3720703","67.96875","-22.15625","46.90625"
"1574192675549","819","-0.35839844","-0.7636719","0.31152344","40.9375","17.6875","39.0"
"1574192675940","820","-0.3955078","-0.8408203","0.28222656","51.625","-22.28125","30.3125"
"1574192675941","821","-0.31835938","-0.84765625","0.2548828","8.40625","-32.59375","47.71875"
"1574192675941","822","-0.2890625","-0.76171875","0.52734375","47.59375","22.03125","28.1875"
"1574192675941","823","-0.4580078","-0.8173828","0.5722656","83.0625","21.53125","8.21875"
"1574192675942","824","-0.39160156","-0.7519531","0.63378906","51.25","-1.90625","47.71875"
"1574192675942","825","-0.66796875","-1.0634766","0.8261719","168.3125","29.65625","55.40625"
"1574192675942","826","-0.68066406","-0.68066406","0.91308594","167.71875","3.03125","10.0625"
"1574192675942","827","-0.49804688","-0.5078125","0.6542969","58.03125","2.375","-39.4375"
"1574192675943","828","-0.6074219","-0.83691406","0.5449219","28.96875","-6.375","-48.0"
"1574192675943","829","-0.60058594","-0.8564453","1.3496094","-27.84375","-26.75","-33.875"
"1574192676338","830","-0.6845703","-1.2685547","1.3105469","-169.875","26.96875","-53.90625"
"1574192676338","831","-0.7324219","-1.2060547","1.0361328","-270.53125","0.90625","-76.0"
"1574192676338","832","-0.33789062","-0.9970703","0.40722656","-262.15625","-11.1875","-130.3125"
"1574192676339","833","-0.09277344","-0.8564453","0.044921875","-161.875","7.84375","-90.90625"
"1574192676339","834","-0.083984375","-0.6171875","0.07910156","-50.375","13.46875","-43.46875"
"1574192676339","835","-0.099609375","-0.5625","0.04296875","-51.84375","-3.25","-39.6875"
"1574192676339","836","-0.028320312","-0.66503906","-0.0625","-117.5625","14.875","-38.28125"
"1574192676340","837","-0.072265625","-1.0507812","0.041015625","-57.15625","31.71875","6.28125"
"1574192676340","838","-0.24121094","-1.2197266","0.15917969","0.96875","18.53125","19.53125"
"1574192676340","839","-0.1796875","-1.0986328","0.026367188","-7.71875","-10.875","-13.625"
"1574192676737","840","-0.10253906","-0.98046875","-0.064453125","22.03125","-13.25","-11.375"
"1574192676738","841","-0.099609375","-0.86328125","-0.021484375","28.1875","6.15625","6.8125"
"1574192676739","842","-0.12402344","-0.8701172","-0.0048828125","26.34375","11.71875","18.53125"
"1574192676739","843","-0.13964844","-0.8798828","0.046875","43.4375","7.25","28.5625"
"1574192676739","844","-0.13476562","-0.87109375","0.08886719","77.625","5.46875","39.59375"
"1574192676740","845","-0.22070312","-0.87109375","0.1640625","99.21875","6.6875","55.96875"
"1574192676740","846","-0.3251953","-1.0166016","0.31835938","165.34375","-13.0625","70.125"
"1574192676740","847","-0.33984375","-0.8828125","0.3671875","217.8125","-13.25","91.65625"
"1574192676740","848","-0.42285156","-0.7128906","0.51464844","292.34375","-8.5625","112.15625"
"1574192676740","849","-0.48632812","-0.59765625","0.8388672","257.5","-33.59375","88.125"
"1574192677331","850","-0.46875","-0.6142578","1.0859375","186.5","-14.25","54.25"
"1574192677331","851","-0.33007812","-0.4375","1.0810547","117.59375","65.71875","51.875"
"1574192677331","852","-0.734375","-0.42578125","0.66796875","79.21875","-14.34375","51.9375"
"1574192677332","853","-0.80859375","-0.25878906","1.1328125","41.5","-18.3125","38.0"
"1574192677332","854","-0.7138672","-0.15429688","1.0849609","7.96875","-29.0625","24.40625"
"1574192677332","855","-0.62597656","-0.14453125","0.98535156","-56.40625","-26.3125","-16.0625"
"1574192677333","856","-0.57421875","-0.26660156","1.2792969","-240.75","47.78125","-61.0625"
"1574192677333","857","-0.59765625","-0.5644531","1.0732422","-340.90625","26.46875","-79.25"
"1574192677333","858","-0.4794922","-0.77734375","0.7324219","-163.40625","-9.90625","-81.875"
"1574192677333","859","-0.4091797","-0.6923828","0.54296875","-71.1875","18.59375","-47.1875"
"1574192677531","860","-0.31054688","-0.49316406","0.50683594","-38.59375","23.3125","-28.75"
"1574192677532","861","-0.2548828","-0.578125","0.39648438","-52.1875","20.375","-24.5625"
"1574192677532","862","-0.25390625","-0.62402344","0.4345703","-68.125","5.71875","-14.46875"
"1574192677532","863","-0.41796875","-0.6845703","0.4580078","-71.0","2.4375","-31.25"
"1574192677532","864","-0.4189453","-0.8105469","0.43066406","-68.5625","8.40625","-39.375"
"1574192677534","865","-0.3330078","-0.8574219","0.3798828","-67.9375","-8.375","-38.15625"
"1574192677534","866","-0.2841797","-0.8691406","0.36523438","-62.15625","-8.4375","-37.84375"
"1574192677534","867","-0.25878906","-0.86035156","0.35253906","-78.625","4.375","-49.5"
"1574192677535","868","-0.28125","-0.83691406","0.28808594","-76.625","-14.0","-57.21875"
"1574192677535","869","-0.23144531","-0.7734375","0.2783203","-73.25","-29.1875","-54.65625"
"1574192677929","870","-0.16992188","-0.7089844","0.21386719","-74.1875","-20.65625","-52.4375"
"1574192677929","871","-0.1796875","-0.6767578","0.19726562","-70.15625","-21.6875","-49.21875"
"1574192677930","872","-0.22265625","-0.66503906","0.18945312","-68.5","-20.84375","-41.65625"
"1574192677930","873","-0.24023438","-0.7373047","0.14160156","-61.59375","-15.625","-27.125"
"1574192677930","874","-0.22460938","-0.79296875","0.10546875","-42.0625","-15.09375","-10.625"
"1574192677930","875","-0.14355469","-0.85839844","0.11230469","-28.9375","-6.65625","-0.125"
"1574192677931","876","-0.1875","-0.95214844","0.14160156","-27.125","-0.75","-2.625"
"1574192677932","877","-0.24023438","-1.0488281","0.015625","-11.6875","2.0625","-1.46875"
"1574192677932","878","-0.17773438","-1.0019531","-0.018554688","1.15625","-6.96875","2.84375"
"1574192677933","879","-0.13476562","-0.95214844","0.053710938","2.71875","12.875","2.0"
"1574192678325","880","-0.020507812","-0.9121094","0.034179688","12.625","11.40625","3.03125"
"1574192678326","881","-0.059570312","-0.9121094","0.018554688","9.375","4.3125","2.90625"
"1574192678326","882","-0.16113281","-0.9814453","0.048828125","0.15625","7.0","0.78125"
"1574192678326","883","-0.15625","-1.0166016","0.040039062","21.21875","5.78125","7.125"
"1574192678327","884","-0.103515625","-0.95703125","0.09765625","15.71875","1.8125","13.40625"
"1574192678327","885","-0.16601562","-0.95703125","0.091796875","14.8125","18.0","10.1875"
"1574192678327","886","-0.16992188","-0.97753906","0.061523438","21.09375","44.65625","19.9375"
"1574192678327","887","-0.18652344","-0.875","0.09277344","32.53125","29.59375","24.9375"
"1574192678328","888","-0.16503906","-0.85839844","0.17285156","40.4375","31.78125","21.03125"
"1574192678329","889","-0.203125","-0.8232422","0.19726562","25.5","32.46875","24.09375"
"1574192678920","890","-0.14941406","-0.8144531","0.13085938","37.9375","23.125","18.65625"
"1574192678921","891","-0.20605469","-0.8222656","0.1796875","73.65625","-24.75","35.75"
"1574192678922","892","-0.171875","-0.77441406","0.22558594","86.46875","-33.875","70.90625"
"1574192678922","893","-0.29003906","-0.6689453","0.30078125","65.65625","30.625","83.40625"
"1574192678922","894","-0.44140625","-0.61816406","0.34570312","97.34375","11.40625","65.0"
"1574192678923","895","-0.3154297","-0.5029297","0.4013672","76.40625","-27.71875","53.09375"
"1574192678923","896","-0.203125","-0.6455078","0.40039062","83.3125","-36.8125","37.03125"
"1574192678923","897","-0.036132812","-0.61816406","0.38476562","82.1875","-20.46875","8.84375"
"1574192678923","898","-0.24902344","-0.66796875","0.30664062","49.90625","13.03125","27.75"
"1574192678924","899","-0.50878906","-0.61328125","0.25976562","36.53125","-10.09375","11.03125"
