"# PR data"
"# Start time: 20191113T105644"
"# Subject: sharan"
"# Activity type: Step ups"
"# Correctness: Correct"
"# Notes: "
""
"timestamp","seq","accel_x","accel_y","accel_z","gyro_x","gyro_y","gyro_z"
"1573642604184","0","0.24121094","-0.97753906","-0.10253906","-10.6875","-12.71875","-12.53125"
"1573642604184","1","0.21484375","-0.92871094","-0.083984375","-4.15625","-13.6875","-9.46875"
"1573642604184","2","0.17773438","-0.97558594","-0.10839844","-1.53125","-14.34375","-6.59375"
"1573642604185","3","0.18652344","-0.9638672","-0.12792969","2.1875","-12.21875","-6.90625"
"1573642604185","4","0.18945312","-1.0039062","-0.125","2.375","-13.75","-7.09375"
"1573642604185","5","0.22265625","-0.9638672","-0.1015625","4.5","-13.1875","-7.78125"
"1573642604185","6","0.17480469","-0.9716797","-0.11425781","7.75","-8.8125","-3.4375"
"1573642604186","7","0.21289062","-0.9873047","-0.07421875","11.09375","-2.21875","-4.03125"
"1573642604186","8","0.1640625","-0.9404297","-0.041015625","12.5625","-2.875","0.65625"
"1573642604186","9","0.18945312","-0.9941406","-0.052734375","16.90625","9.5","-0.625"
"1573642604568","10","0.23144531","-0.99121094","-0.083984375","14.5","6.875","2.0"
"1573642604569","11","0.23535156","-0.97753906","-0.009765625","12.875","10.375","1.4375"
"1573642604569","12","0.20800781","-0.9765625","-0.051757812","6.9375","3.90625","-1.1875"
"1573642604570","13","0.22460938","-0.9873047","-0.032226562","7.1875","-1.34375","-1.46875"
"1573642604571","14","0.16210938","-1.0009766","-0.055664062","4.5","-6.1875","-1.46875"
"1573642604571","15","0.19433594","-0.9736328","-0.060546875","6.03125","-5.25","-3.625"
"1573642604571","16","0.17773438","-0.9951172","-0.044921875","5.96875","-5.5625","-2.28125"
"1573642604571","17","0.20410156","-0.98339844","-0.033203125","4.9375","-6.78125","-6.1875"
"1573642604572","18","0.21386719","-0.95214844","-0.04296875","6.15625","-7.875","-4.53125"
"1573642604572","19","0.24023438","-0.97265625","0.001953125","10.125","-9.46875","-3.1875"
"1573642605165","20","0.23242188","-0.9785156","0.0068359375","10.96875","-19.125","-3.5"
"1573642605166","21","0.23535156","-0.9941406","0.0087890625","12.0","-24.25","-3.4375"
"1573642605166","22","0.24902344","-0.9902344","0.0126953125","8.65625","-24.6875","-1.59375"
"1573642605166","23","0.20019531","-0.9765625","0.059570312","-0.625","-26.3125","-2.09375"
"1573642605167","24","0.234375","-0.953125","-0.017578125","2.90625","-13.875","-6.53125"
"1573642605168","25","0.29492188","-1.0019531","-0.017578125","-1.3125","-10.875","-6.0625"
"1573642605168","26","0.22558594","-1.0458984","-0.072265625","-7.875","-16.1875","-2.34375"
"1573642605169","27","0.20507812","-0.99902344","-0.01953125","-11.0625","-12.40625","-2.75"
"1573642605169","28","0.18945312","-0.91015625","-0.018554688","-10.09375","-3.4375","-4.40625"
"1573642605169","29","0.21386719","-0.9042969","0.001953125","-1.53125","13.21875","-9.21875"
"1573642605365","30","0.26953125","-0.8876953","0.07714844","3.46875","21.21875","-10.15625"
"1573642605366","31","0.28515625","-1.0595703","-0.040039062","1.3125","8.71875","-14.65625"
"1573642605366","32","0.26757812","-1.0488281","-0.06542969","-5.25","18.28125","-5.5625"
"1573642605366","33","0.2421875","-0.8642578","-0.037109375","-10.8125","13.59375","-4.96875"
"1573642605366","34","0.28710938","-0.89941406","0.0048828125","-4.84375","22.5625","-5.75"
"1573642605367","35","0.32226562","-0.9404297","0.057617188","14.375","7.5","0.15625"
"1573642605367","36","0.33203125","-0.92285156","-0.025390625","15.625","-4.09375","0.40625"
"1573642605368","37","0.34765625","-0.92871094","-0.005859375","24.53125","-10.625","5.21875"
"1573642605368","38","0.3154297","-1.0019531","-0.053710938","23.90625","-3.8125","6.875"
"1573642605368","39","0.33398438","-1.0019531","0.013671875","19.40625","0.0","9.5"
"1573642605764","40","0.3330078","-0.9707031","0.018554688","19.09375","0.34375","12.75"
"1573642605764","41","0.3017578","-0.89746094","-0.009765625","18.28125","-1.3125","12.1875"
"1573642605764","42","0.3388672","-0.8964844","0.045898438","19.03125","-4.40625","14.5"
"1573642605765","43","0.2998047","-0.9423828","0.047851562","14.3125","-5.21875","11.59375"
"1573642605765","44","0.32226562","-0.96875","0.0703125","10.53125","-6.65625","9.125"
"1573642605765","45","0.28027344","-0.94628906","0.01953125","6.625","-7.59375","10.46875"
"1573642605765","46","0.31347656","-0.96191406","0.06640625","-2.9375","-8.375","11.9375"
"1573642605765","47","0.29589844","-0.95996094","0.01171875","-5.03125","-4.03125","12.75"
"1573642605766","48","0.34277344","-0.99121094","0.013671875","-3.90625","0.0","13.96875"
"1573642605767","49","0.3359375","-1.0429688","0.091796875","-1.71875","-5.375","21.21875"
"1573642606356","50","0.23339844","-1.1572266","0.10546875","-0.625","-0.4375","25.375"
"1573642606356","51","0.23730469","-1.3203125","0.1875","2.375","-2.28125","33.0625"
"1573642606356","52","0.13574219","-1.4111328","0.31054688","4.875","5.34375","32.46875"
"1573642606356","53","-9.765625E-4","-1.3164062","0.27734375","-3.0625","-0.0625","15.3125"
"1573642606357","54","-0.001953125","-1.0644531","0.23535156","-6.4375","1.375","17.0"
"1573642606357","55","-0.15820312","-0.9638672","0.20410156","-9.65625","9.3125","4.6875"
"1573642606357","56","-0.19238281","-0.9326172","0.11816406","-10.625","14.6875","2.25"
"1573642606357","57","-0.0048828125","-0.8876953","0.10449219","-14.0625","15.25","3.21875"
"1573642606358","58","0.052734375","-0.74121094","0.08691406","-22.125","2.0625","-6.59375"
"1573642606358","59","-0.046875","-0.71875","-9.765625E-4","-20.03125","-1.34375","-2.9375"
"1573642606556","60","0.0146484375","-0.7841797","0.041015625","-16.3125","5.28125","2.65625"
"1573642606558","61","0.028320312","-0.8017578","0.03125","-14.71875","0.34375","-1.65625"
"1573642606559","62","0.064453125","-0.89746094","0.016601562","-13.375","-4.90625","-2.40625"
"1573642606559","63","0.12890625","-0.9707031","0.099609375","-13.625","-20.09375","-7.40625"
"1573642606559","64","-0.040039062","-1.0","0.0048828125","-14.71875","-23.15625","-17.84375"
"1573642606560","65","-0.06738281","-1.0751953","-0.051757812","-16.625","-14.3125","-12.84375"
"1573642606560","66","0.0107421875","-0.9326172","-0.057617188","-14.71875","-6.25","-14.59375"
"1573642606560","67","0.03125","-0.7753906","-0.07910156","-18.4375","-8.5","-20.9375"
"1573642606561","68","0.115234375","-1.0048828","-0.01953125","-13.125","-4.53125","-32.25"
"1573642606561","69","0.13769531","-1.0654297","0.083984375","-0.625","3.9375","-28.6875"
"1573642606960","70","0.1796875","-1.0205078","-0.0146484375","-0.4375","-8.1875","-11.125"
"1573642606960","71","0.21191406","-0.87109375","0.038085938","9.4375","-8.5","-9.78125"
"1573642606960","72","0.13183594","-0.9404297","0.00390625","7.96875","-6.1875","-5.03125"
"1573642606961","73","0.17675781","-1.0644531","-0.016601562","5.1875","-1.25","-6.53125"
"1573642606961","74","0.21386719","-1.0351562","0.0029296875","-0.6875","-2.21875","-3.75"
"1573642606961","75","0.1796875","-0.99316406","0.0068359375","-4.34375","-5.09375","-1.34375"
"1573642606962","76","0.19140625","-0.9902344","0.0126953125","-3.375","3.34375","0.53125"
"1573642606962","77","0.12890625","-1.0058594","0.0","3.34375","8.90625","4.0625"
"1573642606962","78","0.21191406","-0.94433594","0.03125","10.0625","6.09375","10.71875"
"1573642606962","79","0.2529297","-0.88378906","0.059570312","18.0625","-0.25","7.25"
"1573642607351","80","0.17675781","-0.8769531","0.087890625","24.28125","-11.0","19.03125"
"1573642607353","81","0.10644531","-0.9189453","0.16699219","17.125","-2.8125","21.71875"
"1573642607353","82","0.15332031","-1.125","0.11230469","16.34375","0.0","2.78125"
"1573642607353","83","0.15625","-1.1416016","0.14648438","0.0","14.5","6.46875"
"1573642607354","84","0.16113281","-0.9511719","0.07128906","-6.1875","-3.625","10.90625"
"1573642607354","85","0.0625","-0.8847656","0.078125","-2.28125","11.875","11.59375"
"1573642607354","86","0.083984375","-0.921875","0.099609375","-4.15625","19.875","6.03125"
"1573642607355","87","0.16894531","-0.78515625","0.13964844","-10.40625","16.21875","2.5625"
"1573642607355","88","0.08496094","-0.5595703","0.16113281","-9.21875","3.46875","2.84375"
"1573642607356","89","0.0234375","-0.5966797","0.17675781","-7.65625","9.3125","2.0"
"1573642607945","90","-0.016601562","-0.7080078","0.21679688","-2.28125","5.40625","-8.5625"
"1573642607946","91","-0.052734375","-0.6845703","0.119140625","-2.9375","18.65625","8.03125"
"1573642607946","92","0.14648438","-0.8466797","0.21679688","-2.09375","-4.40625","0.78125"
"1573642607946","93","-0.17773438","-0.96875","0.20214844","-2.875","31.125","18.53125"
"1573642607946","94","-0.041992188","-2.0","-0.040039062","-0.875","42.59375","15.65625"
"1573642607947","95","0.38671875","-1.6132812","-0.02734375","17.75","23.65625","27.21875"
"1573642607947","96","0.14160156","-1.5078125","0.03515625","7.84375","-2.53125","19.875"
"1573642607948","97","-0.005859375","-1.1025391","-0.28710938","33.0","23.3125","25.6875"
"1573642607948","98","0.29882812","-1.0146484","0.09082031","-5.75","13.78125","24.28125"
"1573642607949","99","0.03125","-0.6074219","-0.057617188","-9.90625","-0.8125","-10.40625"
"1573642608147","100","-0.001953125","-0.84765625","-0.119140625","-21.125","7.0625","-30.84375"
"1573642608147","101","0.19921875","-1.1748047","-0.049804688","-17.34375","-4.53125","-22.0625"
"1573642608148","102","0.09277344","-1.0566406","-0.07519531","-10.09375","-12.40625","-8.0"
"1573642608148","103","0.048828125","-0.9082031","-0.045898438","-7.09375","-10.5625","-6.0"
"1573642608148","104","0.043945312","-0.9189453","-0.07128906","-4.09375","-3.1875","-11.5625"
"1573642608148","105","0.056640625","-1.0068359","-0.00390625","-8.0625","7.0625","-11.0"
"1573642608149","106","-0.11035156","-1.0527344","-0.024414062","-3.8125","10.125","-2.28125"
"1573642608149","107","-0.02734375","-0.93652344","-0.061523438","-6.0","11.34375","-4.53125"
"1573642608149","108","0.14355469","-0.96875","0.11035156","-0.5","15.65625","-17.78125"
"1573642608150","109","0.12109375","-1.0849609","0.05859375","-0.75","16.21875","-30.59375"
"1573642608544","110","0.06640625","-1.0712891","0.046875","0.40625","7.90625","1.03125"
"1573642608545","111","0.19335938","-0.9423828","0.05859375","6.15625","14.15625","-11.625"
"1573642608545","112","0.30371094","-0.97265625","0.052734375","2.3125","-0.1875","-19.0625"
"1573642608545","113","0.16113281","-1.0166016","0.01171875","-5.15625","-17.84375","-7.65625"
"1573642608545","114","0.091796875","-0.94628906","-0.009765625","-4.15625","-11.25","-9.28125"
"1573642608546","115","0.12597656","-1.0214844","0.017578125","-6.53125","-6.96875","-6.71875"
"1573642608546","116","0.13378906","-1.0253906","-0.0068359375","-4.53125","-5.25","-6.59375"
"1573642608546","117","0.13867188","-0.99902344","0.041992188","-5.4375","-6.5","-4.21875"
"1573642608546","118","0.13476562","-0.97265625","0.00390625","-5.875","-8.0625","-6.3125"
"1573642608547","119","0.119140625","-1.0048828","-0.0126953125","-6.59375","-8.75","-7.21875"
"1573642608942","120","0.1171875","-1.0039062","-0.0234375","-8.25","-9.21875","-7.78125"
"1573642608942","121","0.16210938","-0.9482422","-0.0029296875","-1.40625","-6.71875","-9.46875"
"1573642608943","122","0.20800781","-0.8701172","0.0234375","5.96875","-14.34375","-8.125"
"1573642608943","123","0.24121094","-0.82421875","0.078125","5.59375","-18.3125","-0.25"
"1573642608943","124","0.17382812","-1.0693359","-0.034179688","16.90625","-6.65625","-5.5"
"1573642608943","125","0.37890625","-1.0878906","-0.001953125","17.125","-4.03125","7.25"
"1573642608944","126","0.36035156","-0.9658203","-0.041992188","10.53125","-21.5","7.5"
"1573642608944","127","0.2890625","-0.9589844","-0.01953125","13.53125","-12.15625","2.65625"
"1573642608944","128","0.18359375","-1.0068359","-0.038085938","12.4375","-10.875","7.6875"
"1573642608944","129","0.1796875","-0.9003906","0.021484375","16.28125","-5.875","14.15625"
"1573642609339","130","0.26171875","-0.89453125","0.030273438","23.3125","3.71875","12.25"
"1573642609340","131","0.2919922","-0.9628906","0.0107421875","13.34375","-0.125","4.4375"
"1573642609340","132","0.2998047","-0.9589844","0.09375","2.78125","-7.46875","1.21875"
"1573642609340","133","0.19824219","-1.0292969","0.024414062","-4.28125","-2.9375","-3.625"
"1573642609341","134","0.29101562","-1.1386719","0.0703125","-7.65625","10.96875","-4.03125"
"1573642609341","135","0.29785156","-1.1708984","0.13574219","-10.28125","18.71875","3.21875"
"1573642609341","136","0.3310547","-1.4375","0.19140625","-10.6875","10.125","-1.0625"
"1573642609341","137","0.18066406","-1.4833984","0.20507812","-13.625","4.75","10.59375"
"1573642609342","138","-0.020507812","-1.3134766","0.19335938","-2.46875","20.75","20.96875"
"1573642609342","139","-0.07519531","-1.0205078","0.24414062","-6.78125","21.09375","19.03125"
"1573642609931","140","-0.12207031","-0.88378906","0.15234375","-9.65625","17.9375","15.0625"
"1573642609932","141","-0.087890625","-0.9189453","0.15039062","-17.15625","23.65625","3.90625"
"1573642609932","142","0.076171875","-0.8828125","0.026367188","-21.25","17.9375","-2.03125"
"1573642609932","143","0.107421875","-0.7451172","0.06542969","-21.0625","-1.0","2.1875"
"1573642609932","144","-0.030273438","-0.6279297","0.0048828125","-19.53125","-5.9375","3.59375"
"1573642609934","145","-0.041015625","-0.6171875","-0.01953125","-13.1875","0.59375","1.875"
"1573642609934","146","-0.015625","-0.78808594","0.0048828125","-11.78125","7.0625","-8.25"
"1573642609934","147","0.028320312","-0.95410156","0.022460938","-12.21875","0.28125","-18.8125"
"1573642609935","148","0.0048828125","-1.0634766","0.024414062","-15.59375","-4.09375","-13.6875"
"1573642609935","149","-0.020507812","-1.015625","-0.02734375","-17.53125","-9.84375","-8.5625"
"1573642610134","150","0.055664062","-0.9394531","-0.044921875","-17.53125","-12.59375","-18.625"
"1573642610135","151","0.12988281","-1.0097656","0.0068359375","-21.125","-10.875","-27.84375"
"1573642610135","152","0.12011719","-1.0820312","-0.0107421875","-22.34375","-8.8125","-37.4375"
"1573642610135","153","0.08203125","-0.93847656","0.022460938","-10.4375","-7.71875","-15.75"
"1573642610135","154","0.009765625","-0.84765625","-0.041015625","6.5625","0.65625","0.90625"
"1573642610136","155","0.09863281","-0.953125","-0.01171875","16.15625","8.71875","0.15625"
"1573642610136","156","0.14648438","-1.1044922","-0.04296875","12.5","2.5","-2.8125"
"1573642610138","157","0.18359375","-1.0","-0.02734375","17.375","-8.625","6.15625"
"1573642610139","158","0.28125","-0.85253906","0.091796875","32.15625","-17.78125","8.59375"
"1573642610139","159","0.23242188","-0.7705078","0.20507812","32.46875","-41.65625","15.1875"
"1573642610729","160","0.037109375","-0.9970703","0.19433594","24.03125","-23.15625","8.28125"
"1573642610730","161","0.10644531","-1.2568359","0.064453125","17.0","-2.8125","-16.125"
"1573642610730","162","0.25976562","-1.1669922","0.12011719","-1.0","-2.75","9.9375"
"1573642610730","163","0.08496094","-0.9921875","0.07324219","-16.25","-6.25","1.4375"
"1573642610730","164","0.11035156","-0.9160156","-9.765625E-4","-13.8125","0.03125","-7.53125"
"1573642610731","165","0.16796875","-0.86816406","0.14941406","-15.34375","9.1875","6.6875"
"1573642610731","166","0.080078125","-0.6816406","0.10839844","-14.3125","7.5","2.84375"
"1573642610731","167","0.06347656","-0.61816406","0.08691406","-8.5","19.625","2.84375"
"1573642610731","168","0.06640625","-0.48632812","0.08203125","-9.21875","11.75","13.28125"
"1573642610733","169","0.10546875","-0.5341797","0.12109375","-9.78125","5.28125","6.28125"
"1573642610928","170","0.123046875","-0.63671875","0.03125","-4.40625","-6.1875","-19.53125"
"1573642610929","171","0.1328125","-0.7861328","0.19433594","0.65625","-12.46875","4.4375"
"1573642610929","172","-0.025390625","-1.2265625","0.030273438","21.53125","2.375","9.6875"
"1573642610929","173","0.13671875","-2.0","-0.015625","25.875","25.0","39.09375"
"1573642610929","174","0.35058594","-1.7871094","-0.057617188","1.5","-2.03125","14.21875"
"1573642610930","175","0.13085938","-1.7304688","-0.2548828","-8.4375","-11.375","3.21875"
"1573642610930","176","0.31445312","-1.0332031","-0.11621094","6.03125","22.25","17.1875"
"1573642610930","177","0.20605469","-0.60546875","0.030273438","-15.21875","-6.78125","-1.34375"
"1573642610931","178","-0.13476562","-0.6308594","-0.19042969","-5.6875","5.96875","-11.125"
"1573642610931","179","0.09082031","-1.0097656","-0.045898438","-2.03125","17.125","-16.3125"
"1573642611326","180","0.17089844","-1.0703125","-0.11035156","-9.46875","2.59375","-14.96875"
"1573642611328","181","0.15527344","-1.0195312","-0.17480469","-11.5625","4.0625","-10.6875"
"1573642611329","182","0.18359375","-0.93652344","-0.080078125","-6.0625","6.21875","-10.5625"
"1573642611329","183","0.18359375","-0.9716797","-0.09082031","-7.59375","2.90625","-14.96875"
"1573642611329","184","0.10644531","-1.0126953","-0.09863281","-5.8125","4.6875","-14.25"
"1573642611330","185","0.06542969","-0.9472656","-0.13671875","-10.03125","4.75","-4.03125"
"1573642611330","186","0.040039062","-0.88183594","-0.047851562","4.5625","13.15625","-4.21875"
"1573642611330","187","-0.00390625","-0.921875","-0.036132812","6.21875","21.53125","4.6875"
"1573642611330","188","0.24511719","-1.2382812","-0.0068359375","4.6875","22.125","-30.40625"
"1573642611331","189","0.09667969","-0.9667969","0.064453125","6.46875","17.0625","5.59375"
"1573642611725","190","0.09375","-0.90722656","0.052734375","18.90625","10.59375","27.21875"
"1573642611725","191","0.15039062","-0.82714844","0.01953125","12.5","23.84375","-28.40625"
"1573642611726","192","0.3720703","-1.1796875","0.016601562","1.5625","12.75","-24.4375"
"1573642611727","193","0.34472656","-0.8066406","0.12109375","-4.78125","-34.3125","-4.78125"
"1573642611727","194","0.33203125","-0.9433594","-0.068359375","9.875","-20.84375","-33.28125"
"1573642611728","195","0.3798828","-1.1816406","-0.005859375","13.09375","-22.15625","-6.90625"
"1573642611728","196","0.265625","-1.0449219","-0.015625","12.5625","-40.59375","21.21875"
"1573642611728","197","0.21484375","-0.9394531","0.024414062","15.5625","-21.5625","7.125"
"1573642611728","198","0.20898438","-0.9921875","0.038085938","14.75","-3.6875","13.40625"
"1573642611729","199","0.2578125","-0.9628906","0.043945312","10.3125","-0.5625","5.90625"
"1573642612121","200","0.25097656","-0.8964844","0.064453125","6.875","1.6875","-1.90625"
"1573642612122","201","0.2529297","-0.9248047","0.047851562","11.28125","4.375","3.03125"
"1573642612122","202","0.32226562","-0.9189453","0.08984375","6.15625","0.21875","-1.59375"
"1573642612122","203","0.2861328","-0.94433594","0.068359375","2.65625","-3.4375","-3.6875"
"1573642612122","204","0.23925781","-1.0146484","0.080078125","-6.5","2.84375","-4.78125"
"1573642612124","205","0.2685547","-1.0859375","0.017578125","-14.40625","15.65625","-2.28125"
"1573642612124","206","0.4814453","-1.2285156","0.16601562","-13.375","17.625","-9.65625"
"1573642612125","207","0.35839844","-1.3330078","0.24316406","-10.4375","2.375","7.90625"
"1573642612125","208","0.08691406","-1.578125","0.24121094","-10.15625","2.96875","2.65625"
"1573642612125","209","-0.0146484375","-1.234375","0.13085938","-11.90625","18.84375","21.78125"
"1573642612519","210","0.020507812","-0.9003906","0.21386719","-19.3125","20.625","23.65625"
"1573642612520","211","-0.0146484375","-0.8105469","0.15820312","-17.90625","21.53125","-13.3125"
"1573642612520","212","0.025390625","-0.953125","0.09863281","-24.375","18.0625","-10.8125"
"1573642612520","213","0.123046875","-0.8964844","0.0029296875","-23.4375","1.8125","4.25"
"1573642612521","214","0.087890625","-0.7207031","0.022460938","-24.625","-8.75","5.59375"
"1573642612521","215","0.068359375","-0.6699219","-0.0126953125","-16.25","-5.09375","3.34375"
"1573642612521","216","0.07324219","-0.6875","0.0087890625","-11.96875","-1.65625","2.71875"
"1573642612522","217","0.013671875","-0.8457031","-0.044921875","-10.21875","-3.625","1.75"
"1573642612523","218","0.07714844","-0.94140625","0.029296875","-7.15625","0.78125","-4.84375"
"1573642612523","219","0.045898438","-1.0068359","0.005859375","-11.3125","-10.21875","-4.90625"
"1573642612916","220","0.061523438","-1.0429688","-0.055664062","-11.6875","-14.71875","-9.125"
"1573642612916","221","0.13769531","-0.9736328","-0.0546875","-6.78125","-17.90625","-6.90625"
"1573642612917","222","0.11035156","-0.98046875","-0.0107421875","-0.125","-21.0625","-5.375"
"1573642612917","223","0.10546875","-0.953125","0.001953125","6.5","-17.34375","-9.53125"
"1573642612917","224","0.11425781","-0.8984375","0.08984375","18.46875","-19.59375","2.0"
"1573642612917","225","0.021484375","-0.8564453","-0.020507812","24.21875","-20.78125","9.25"
"1573642612918","226","0.14941406","-0.93359375","0.0625","31.0","-3.8125","15.1875"
"1573642612918","227","0.20117188","-0.89160156","0.18847656","16.59375","-7.53125","8.15625"
"1573642612918","228","0.21484375","-1.1474609","0.09863281","12.0","-14.78125","-17.15625"
"1573642612919","229","0.078125","-1.2900391","0.111328125","-4.15625","9.1875","-2.34375"
"1573642613511","230","0.14746094","-0.9921875","0.055664062","-7.78125","11.65625","4.0"
"1573642613511","231","0.095703125","-0.8847656","0.11621094","-6.78125","18.46875","8.15625"
"1573642613511","232","0.022460938","-0.85058594","0.109375","-9.53125","34.59375","1.3125"
"1573642613512","233","0.119140625","-0.7402344","0.11328125","-11.3125","35.03125","2.96875"
"1573642613512","234","0.06640625","-0.5136719","0.16308594","-10.03125","40.875","10.46875"
"1573642613512","235","0.0546875","-0.46972656","0.034179688","-8.875","27.8125","3.65625"
"1573642613512","236","0.21289062","-0.6777344","0.11035156","-2.75","28.0625","-23.75"
"1573642613513","237","0.22070312","-0.7363281","0.2861328","-12.90625","0.96875","-15.03125"
"1573642613513","238","-0.05859375","-0.9902344","0.05859375","-6.65625","-6.0","6.09375"
"1573642613513","239","-0.041015625","-1.3427734","0.046875","1.875","6.09375","7.25"
"1573642613712","240","0.49902344","-2.0","-0.15039062","9.6875","26.09375","7.375"
"1573642613714","241","0.3623047","-1.7871094","-0.10449219","-33.03125","-24.84375","0.40625"
"1573642613714","242","0.046875","-1.3466797","-0.30664062","7.375","1.03125","-5.5625"
"1573642613715","243","0.4814453","-0.8203125","0.107421875","-5.8125","-5.15625","13.65625"
"1573642613715","244","0.078125","-0.42773438","-0.103515625","-15.625","-27.65625","4.25"
"1573642613715","245","-0.09082031","-0.6748047","-0.12402344","-5.6875","-4.71875","-7.03125"
"1573642613715","246","0.13964844","-1.1669922","-0.12207031","0.0","4.8125","-12.90625"
"1573642613716","247","0.15429688","-1.3916016","-0.17675781","-6.59375","-5.6875","14.15625"
"1573642613716","248","0.16113281","-0.9199219","-0.09667969","-10.15625","-20.21875","16.65625"
"1573642613717","249","0.21679688","-0.7294922","-0.064453125","3.40625","-17.96875","4.0"
"1573642614110","250","0.107421875","-0.9902344","-0.099609375","2.96875","-8.5625","3.03125"
"1573642614110","251","-0.018554688","-1.0976562","-0.14160156","2.65625","-1.65625","9.8125"
"1573642614110","252","0.048828125","-1.0400391","-0.140625","1.03125","10.1875","10.59375"
"1573642614112","253","0.13085938","-0.9658203","-0.083984375","1.5","10.46875","9.9375"
"1573642614112","254","0.03515625","-0.9765625","-0.06542969","0.15625","9.5","2.0"
"1573642614113","255","0.030273438","-1.0234375","-0.044921875","4.125","14.5","-6.0"
"1573642614113","256","0.055664062","-1.1054688","-0.0146484375","-0.4375","17.5","-4.84375"
"1573642614113","257","0.08496094","-0.96972656","-0.0234375","3.59375","17.1875","-9.0"
"1573642614114","258","0.068359375","-0.9121094","-0.09765625","1.5","14.09375","-3.1875"
"1573642614114","259","0.15332031","-0.9746094","-0.13574219","-2.03125","13.78125","-24.96875"
"1573642614706","260","0.30859375","-1.0712891","-0.017578125","-3.625","-0.8125","-41.34375"
"1573642614707","261","0.23828125","-0.82128906","0.051757812","-1.40625","-37.90625","-21.0625"
"1573642614707","262","0.123046875","-0.9296875","0.01171875","17.8125","-16.625","-10.03125"
"1573642614707","263","0.18164062","-1.1582031","-0.0107421875","22.875","4.0","2.90625"
"1573642614708","264","0.37109375","-1.1357422","-0.0546875","28.375","-5.8125","12.0625"
"1573642614709","265","0.3515625","-0.8769531","-0.0126953125","21.34375","-14.46875","4.875"
"1573642614710","266","0.1796875","-0.88183594","0.022460938","10.53125","-17.46875","0.28125"
"1573642614710","267","0.051757812","-1.03125","0.00390625","10.71875","6.28125","-6.4375"
"1573642614711","268","0.19921875","-1.046875","0.021484375","7.8125","23.71875","-4.09375"
"1573642614711","269","0.3798828","-0.90625","0.048828125","2.1875","12.25","-4.15625"
"1573642614903","270","0.33007812","-0.87597656","0.038085938","-5.875","-0.5","-13.8125"
"1573642614904","271","0.2421875","-0.92578125","0.051757812","-12.65625","-3.25","-13.25"
"1573642614904","272","0.21972656","-1.046875","-0.0087890625","-13.0625","15.5","-8.875"
"1573642614904","273","0.43066406","-1.1074219","0.15917969","1.09375","12.25","-2.09375"
"1573642614904","274","0.23242188","-1.2880859","0.12792969","-5.3125","12.8125","2.5625"
"1573642614905","275","0.31054688","-1.5585938","0.119140625","-11.0625","1.75","-2.03125"
"1573642614905","276","0.23242188","-1.3789062","0.17675781","-10.8125","1.75","12.5"
"1573642614906","277","-0.028320312","-1.0742188","0.15527344","-6.53125","9.3125","10.59375"
"1573642614906","278","-0.044921875","-0.9345703","0.18164062","-7.34375","16.34375","6.875"
"1573642614907","279","-0.016601562","-0.85058594","0.18554688","-4.90625","12.6875","7.125"
"1573642615303","280","-0.107421875","-0.89453125","0.07714844","-8.0625","17.5625","5.90625"
"1573642615303","281","0.041015625","-0.91308594","0.0107421875","-11.1875","22.6875","3.40625"
"1573642615304","282","0.15136719","-0.8095703","0.041992188","-17.59375","8.78125","-1.71875"
"1573642615304","283","0.10546875","-0.70703125","0.083984375","-15.46875","-4.09375","-4.65625"
"1573642615304","284","-0.020507812","-0.7246094","0.00390625","-9.21875","1.15625","0.96875"
"1573642615304","285","0.047851562","-0.8535156","-0.037109375","-9.84375","3.28125","-2.8125"
"1573642615305","286","0.1484375","-0.8652344","0.030273438","-7.8125","-4.46875","-4.59375"
"1573642615305","287","0.076171875","-0.92285156","0.024414062","-9.78125","-17.71875","-6.125"
"1573642615305","288","0.030273438","-1.0048828","-0.020507812","-7.21875","-18.3125","-11.125"
"1573642615307","289","0.10644531","-1.0683594","-0.0234375","-6.375","-20.65625","-15.03125"
"1573642615701","290","0.13476562","-1.0175781","0.043945312","-8.75","-18.4375","-19.53125"
"1573642615702","291","0.13085938","-1.0107422","-0.0107421875","4.375","-17.90625","-15.15625"
"1573642615702","292","0.2109375","-0.9013672","0.01171875","22.03125","-22.28125","1.15625"
"1573642615702","293","0.15722656","-0.71972656","0.087890625","37.65625","-27.84375","24.46875"
"1573642615702","294","0.10058594","-0.83984375","0.18945312","34.90625","-20.875","27.8125"
"1573642615703","295","0.09082031","-1.3027344","0.19335938","27.4375","-10.5625","-16.125"
"1573642615703","296","0.08105469","-1.2080078","0.13378906","1.6875","7.375","1.375"
"1573642615703","297","0.22949219","-0.9394531","0.043945312","-2.59375","-4.21875","14.5"
"1573642615703","298","0.06347656","-0.78027344","0.091796875","0.0","8.71875","9.9375"
"1573642615704","299","0.001953125","-0.8232422","0.123046875","-6.4375","22.25","-1.53125"
"1573642616096","300","0.11425781","-0.6953125","0.13769531","-9.96875","24.8125","-0.5"
"1573642616097","301","0.10546875","-0.5449219","0.099609375","-12.09375","22.03125","-1.84375"
"1573642616097","302","0.083984375","-0.5283203","0.13671875","-11.6875","22.125","-5.25"
"1573642616098","303","0.10839844","-0.66015625","0.13183594","-9.53125","10.78125","-13.125"
"1573642616098","304","0.107421875","-0.7050781","0.16210938","-11.0625","8.65625","0.53125"
"1573642616098","305","-0.021484375","-0.93359375","0.0625","-2.40625","14.15625","-0.6875"
"1573642616098","306","0.24707031","-1.9257812","0.15527344","-3.25","27.625","-27.40625"
"1573642616099","307","0.30566406","-1.7998047","-0.11425781","-3.125","15.4375","12.25"
"1573642616099","308","0.31054688","-1.3818359","0.06347656","-3.5625","1.8125","-4.71875"
"1573642616099","309","0.1171875","-1.4375","-0.421875","-8.5625","23.84375","-9.53125"
"1573642616494","310","0.65234375","-0.97753906","0.15136719","11.8125","27.03125","18.34375"
"1573642616494","311","0.20507812","-0.3828125","-0.052734375","-8.0","-46.78125","-5.8125"
"1573642616495","312","-0.0390625","-0.7246094","-0.055664062","6.21875","-10.8125","-9.0625"
"1573642616496","313","0.1484375","-1.1972656","-0.087890625","3.71875","-1.1875","-15.21875"
"1573642616496","314","0.3544922","-1.2900391","-0.14257812","-4.09375","-14.0","-1.0625"
"1573642616496","315","0.28027344","-0.9814453","-0.10449219","-9.71875","-22.96875","2.84375"
"1573642616497","316","0.15625","-0.6826172","-0.08691406","3.46875","-28.53125","-8.3125"
"1573642616497","317","0.20605469","-0.9404297","-0.0078125","3.28125","-7.59375","-1.78125"
"1573642616497","318","0.15234375","-1.1064453","-0.10644531","2.5","-12.28125","-19.59375"
"1573642616498","319","0.14550781","-0.9628906","-0.078125","-4.40625","-17.59375","-9.0625"
"1573642616891","320","0.034179688","-0.9765625","0.18164062","-9.59375","-1.1875","-3.96875"
"1573642616892","321","-0.0048828125","-1.0820312","0.0146484375","-5.875","7.1875","-50.75"
"1573642616892","322","0.07519531","-0.83496094","0.032226562","6.75","-27.40625","54.71875"
"1573642616892","323","0.2890625","-0.49609375","0.12890625","30.875","24.8125","21.28125"
"1573642616893","324","0.5","-0.89160156","-0.053710938","20.5","-17.03125","-31.75"
"1573642616894","325","0.3857422","-1.6494141","0.099609375","-11.0","-29.25","10.1875"
"1573642616894","326","0.12890625","-0.9042969","-0.053710938","6.9375","-29.0625","18.40625"
"1573642616895","327","0.31054688","-0.7109375","0.0107421875","8.78125","-12.09375","4.125"
"1573642616895","328","0.29492188","-0.9560547","0.025390625","7.1875","-3.5","-2.6875"
"1573642616895","329","0.23242188","-1.0380859","0.03515625","4.0","-5.75","-0.25"
"1573642617290","330","0.2109375","-0.98535156","0.029296875","3.71875","6.03125","4.3125"
"1573642617290","331","0.29296875","-0.94921875","-0.029296875","4.0625","13.28125","2.65625"
"1573642617291","332","0.3623047","-0.89746094","0.024414062","2.5","11.59375","2.71875"
"1573642617291","333","0.25585938","-0.8925781","-0.06640625","-0.5625","6.5","0.53125"
"1573642617291","334","0.32617188","-1.0029297","0.09375","-0.1875","12.6875","4.3125"
"1573642617291","335","0.20019531","-0.96875","-0.00390625","0.84375","10.1875","6.875"
"1573642617292","336","0.3076172","-0.99121094","0.009765625","2.5625","14.625","6.5625"
"1573642617293","337","0.36523438","-1.0273438","0.01953125","-2.34375","12.1875","4.0625"
"1573642617293","338","0.30371094","-1.0644531","0.109375","-2.75","6.75","4.8125"
"1573642617294","339","0.21972656","-1.2929688","0.18359375","-3.5625","3.59375","1.75"
"1573642617688","340","0.31054688","-1.6240234","0.16992188","-7.28125","8.21875","4.3125"
"1573642617688","341","0.14257812","-1.3232422","0.21484375","-4.28125","9.3125","9.9375"
"1573642617689","342","-0.16210938","-0.94433594","0.20996094","5.53125","11.9375","26.40625"
"1573642617689","343","-0.11816406","-0.82714844","0.22363281","1.3125","29.65625","18.40625"
"1573642617689","344","9.765625E-4","-0.8671875","0.17480469","-1.96875","22.75","-9.90625"
"1573642617690","345","0.02734375","-0.9277344","0.05078125","-6.5","19.34375","-1.3125"
"1573642617690","346","0.10839844","-0.8544922","0.061523438","-16.625","9.09375","-3.1875"
"1573642617690","347","0.13671875","-0.8310547","0.11328125","-17.90625","-0.5","-7.28125"
"1573642617691","348","-0.01953125","-0.7871094","0.08105469","-14.59375","0.65625","-3.875"
"1573642617691","349","-0.017578125","-0.8408203","0.034179688","-9.125","15.78125","-0.5625"
"1573642618084","350","0.11425781","-0.8847656","0.06738281","-13.75","10.125","-2.21875"
"1573642618085","351","0.045898438","-0.87109375","0.08203125","-21.5","-1.78125","-7.46875"
"1573642618085","352","-0.029296875","-0.90625","0.052734375","-22.53125","-8.625","-11.25"
"1573642618085","353","0.0078125","-0.9550781","0.0107421875","-14.84375","-5.15625","-14.40625"
"1573642618086","354","0.16113281","-1.0048828","0.107421875","-11.125","-6.5","-16.3125"
"1573642618086","355","0.13085938","-1.0039062","0.09375","-7.8125","-15.03125","-25.15625"
"1573642618086","356","0.12109375","-0.9716797","0.021484375","5.28125","-23.4375","-11.5625"
"1573642618087","357","0.13867188","-0.8779297","0.03125","20.375","-14.53125","7.5"
"1573642618087","358","0.16113281","-0.8095703","0.09277344","24.34375","-19.0625","22.25"
"1573642618087","359","0.12109375","-0.9345703","0.20898438","27.4375","-14.90625","19.9375"
"1573642618481","360","0.20019531","-1.2275391","0.14257812","22.03125","-10.75","-1.53125"
"1573642618482","361","0.08105469","-1.1865234","0.12402344","-2.40625","7.1875","10.375"
"1573642618482","362","0.099609375","-0.96484375","0.026367188","-13.5625","1.6875","8.46875"
"1573642618483","363","0.10839844","-0.8310547","0.091796875","-17.78125","16.03125","1.03125"
"1573642618483","364","0.12109375","-0.8183594","0.08691406","-19.125","26.15625","-6.5"
"1573642618483","365","0.16699219","-0.7324219","0.15429688","-14.53125","23.53125","-6.90625"
"1573642618483","366","0.06542969","-0.6425781","0.11621094","-11.96875","23.375","-5.21875"
"1573642618484","367","-0.0146484375","-0.60253906","0.07714844","-9.15625","27.03125","3.21875"
"1573642618484","368","0.15234375","-0.56640625","0.12890625","-4.65625","28.3125","2.1875"
"1573642618484","369","0.15039062","-0.5830078","0.09765625","-1.84375","8.65625","-11.71875"
"1573642619274","370","0.044921875","-0.7685547","0.15039062","-6.25","7.75","0.0"
"1573642619275","371","-0.048828125","-1.2148438","0.030273438","2.5625","23.3125","-4.21875"
"1573642619275","372","0.27539062","-2.0","-0.021484375","4.125","36.53125","-15.46875"
"1573642619277","373","0.54003906","-1.6269531","-0.034179688","-1.3125","-1.125","3.78125"
"1573642619277","374","0.37109375","-1.4033203","0.107421875","7.1875","-9.40625","-4.65625"
"1573642619278","375","-0.107421875","-1.3564453","-0.3095703","18.21875","37.53125","17.1875"
"1573642619278","376","0.45117188","-0.9892578","-0.0087890625","-7.03125","2.71875","19.21875"
"1573642619278","377","0.24023438","-0.5078125","-0.043945312","-8.0","-5.5","-7.65625"
"1573642619278","378","0.07519531","-0.7167969","-0.03515625","-7.46875","-8.75","-14.3125"
"1573642619279","379","0.12890625","-1.1503906","-0.05859375","-4.65625","-12.28125","-16.5625"
"1573642619471","380","0.057617188","-1.1660156","-0.032226562","-4.65625","-8.0625","5.65625"
"1573642619471","381","0.13671875","-0.859375","-0.06542969","-3.875","-4.34375","12.25"
"1573642619472","382","0.21875","-0.84472656","-0.0625","-1.0","-1.3125","-11.1875"
"1573642619472","383","0.14355469","-1.1054688","-0.064453125","-8.4375","-1.25","-14.0625"
"1573642619472","384","0.07128906","-1.1035156","-0.07421875","-7.46875","2.90625","-3.1875"
"1573642619473","385","0.10253906","-0.93652344","-0.06542969","-8.875","6.28125","0.09375"
"1573642619473","386","0.055664062","-0.9394531","-0.055664062","-11.3125","10.3125","-6.25"
"1573642619474","387","0.18945312","-1.1083984","0.0546875","-7.28125","9.75","-19.375"
"1573642619474","388","0.24414062","-0.890625","0.05859375","5.34375","-18.375","-15.59375"
"1573642619474","389","0.125","-0.63183594","0.057617188","6.21875","-33.84375","30.9375"
"1573642619869","390","0.18359375","-0.88964844","-0.09277344","34.65625","5.21875","-9.0"
"1573642619870","391","0.43359375","-1.46875","0.076171875","13.03125","19.875","-10.625"
"1573642619870","392","0.3671875","-1.1689453","0.01171875","2.1875","-29.875","26.65625"
"1573642619871","393","0.36132812","-0.5986328","0.09863281","23.1875","-44.5","-8.625"
"1573642619871","394","0.11816406","-1.0205078","0.041015625","16.84375","-22.65625","6.21875"
"1573642619871","395","0.0625","-1.1904297","0.0107421875","17.3125","-3.75","12.9375"
"1573642619872","396","0.22753906","-0.84472656","0.013671875","7.125","6.5625","8.46875"
"1573642619872","397","0.30566406","-0.8017578","0.07324219","9.75","-3.1875","2.125"
"1573642619872","398","0.21484375","-0.94433594","0.046875","8.28125","-4.71875","-1.34375"
"1573642619873","399","0.25683594","-1.0039062","0.13085938","4.1875","-4.40625","-0.8125"
"1573642620072","400","0.21582031","-1.0107422","0.06933594","-3.90625","-3.625","-2.46875"
"1573642620072","401","0.26757812","-1.0292969","0.060546875","-5.03125","5.0625","-1.59375"
"1573642620073","402","0.3154297","-1.0566406","0.068359375","-9.0625","11.34375","-2.09375"
"1573642620073","403","0.2734375","-1.1630859","0.203125","-1.125","4.0625","0.53125"
"1573642620073","404","0.13671875","-1.4394531","0.22363281","-5.6875","10.78125","-2.53125"
"1573642620073","405","0.11328125","-1.4736328","0.15332031","-9.53125","18.46875","14.28125"
"1573642620074","406","0.14160156","-1.1181641","0.21582031","-1.90625","33.125","22.5"
"1573642620074","407","-0.07910156","-0.8691406","0.22070312","-7.21875","22.75","26.90625"
"1573642620074","408","-0.171875","-0.84375","0.16308594","-9.65625","30.125","1.4375"
"1573642620075","409","-0.06542969","-1.0039062","0.1171875","-21.1875","28.5625","-9.71875"
"1573642620468","410","0.0625","-0.9355469","0.0703125","-26.5625","20.0625","-13.75"
"1573642620469","411","0.078125","-0.81933594","0.05078125","-21.3125","7.75","-5.8125"
"1573642620469","412","0.0703125","-0.78808594","0.026367188","-14.59375","-2.46875","0.21875"
"1573642620469","413","0.07910156","-0.6845703","0.038085938","-8.9375","2.96875","-1.34375"
"1573642620469","414","0.08886719","-0.7792969","0.0234375","-7.78125","-4.78125","-0.5"
"1573642620470","415","0.022460938","-0.875","0.040039062","-9.90625","-13.9375","-4.46875"
"1573642620470","416","-0.032226562","-0.9248047","-0.03515625","-12.40625","-20.34375","-3.25"
"1573642620470","417","0.13085938","-0.9736328","0.0625","-6.1875","-24.6875","-12.40625"
"1573642620470","418","0.009765625","-0.97558594","0.041015625","-8.5625","-33.15625","-16.1875"
"1573642620471","419","0.053710938","-1.1640625","0.040039062","-9.34375","-34.6875","-23.15625"
"1573642621065","420","0.22265625","-1.1123047","0.01953125","-1.40625","-32.25","-19.84375"
"1573642621066","421","0.23632812","-0.84765625","0.020507812","14.09375","-42.1875","-4.15625"
"1573642621067","422","0.10546875","-0.7294922","0.14746094","18.96875","-41.75","14.21875"
"1573642621067","423","-0.09765625","-0.8496094","0.12597656","31.78125","-9.53125","15.0625"
"1573642621067","424","0.080078125","-1.1660156","0.19433594","31.90625","11.59375","9.5"
"1573642621068","425","0.12597656","-1.1474609","0.14941406","6.15625","29.90625","-9.21875"
"1573642621068","426","0.22851562","-0.94140625","0.12792969","-5.03125","5.59375","-1.125"
"1573642621069","427","-0.025390625","-0.8154297","0.099609375","-4.46875","18.84375","13.96875"
"1573642621069","428","0.005859375","-0.7558594","0.10839844","-1.84375","44.125","-1.34375"
"1573642621069","429","0.20996094","-0.7324219","0.13085938","-5.9375","39.84375","-0.375"
"1573642621265","430","0.171875","-0.6123047","0.21582031","-7.03125","24.34375","-1.59375"
"1573642621266","431","0.013671875","-0.60839844","0.10644531","-9.65625","14.4375","-4.90625"
"1573642621266","432","-0.017578125","-0.6328125","0.15332031","-7.59375","30.875","16.21875"
"1573642621267","433","0.16796875","-0.63964844","0.23242188","3.78125","11.8125","-3.8125"
"1573642621268","434","-0.025390625","-0.88378906","0.080078125","-3.4375","19.8125","-3.5"
"1573642621268","435","0.09277344","-1.9589844","0.265625","2.125","33.96875","-25.84375"
"1573642621268","436","0.18359375","-1.6904297","-0.11425781","1.4375","25.5625","25.625"
"1573642621269","437","0.5419922","-1.4892578","0.111328125","-13.75","-5.15625","-14.84375"
"1573642621269","438","-0.083984375","-1.6611328","-0.21972656","-12.21875","14.9375","-4.71875"
"1573642621269","439","0.5917969","-0.9667969","0.15429688","4.5","-3.1875","15.71875"
"1573642621662","440","0.15429688","-0.42773438","-0.030273438","-7.9375","-45.84375","6.6875"
"1573642621663","441","-0.16601562","-0.6748047","-0.14550781","-5.15625","-12.03125","1.15625"
"1573642621663","442","0.13183594","-1.1669922","-0.0126953125","-3.1875","2.5","-0.1875"
"1573642621663","443","0.24023438","-1.2333984","-0.107421875","-8.9375","-17.03125","-10.8125"
"1573642621663","444","0.1484375","-0.9736328","-0.1328125","-8.8125","-16.4375","12.25"
"1573642621665","445","0.16601562","-0.7998047","-0.025390625","-1.90625","-11.0625","-1.84375"
"1573642621666","446","0.107421875","-0.96875","-0.043945312","-4.71875","-3.5","-9.40625"
"1573642621666","447","0.022460938","-1.0615234","-0.08300781","-4.59375","-5.625","-2.34375"
"1573642621666","448","0.040039062","-1.0253906","-0.028320312","-9.53125","-1.40625","-9.15625"
"1573642621667","449","-0.04296875","-0.95703125","-0.0146484375","-13.125","7.96875","-8.5"
"1573642622058","450","0.25195312","-1.3193359","0.07910156","-11.4375","7.0625","-39.1875"
"1573642622059","451","0.15136719","-0.71191406","0.036132812","-5.5","-12.40625","-5.75"
"1573642622059","452","0.091796875","-0.6738281","-0.0068359375","8.09375","-18.6875","41.1875"
"1573642622059","453","0.2421875","-0.8808594","-0.051757812","35.5625","11.03125","-39.25"
"1573642622059","454","0.4267578","-1.6171875","0.025390625","-2.46875","13.78125","-7.53125"
"1573642622060","455","0.3359375","-1.0341797","0.005859375","1.15625","-24.5","14.875"
"1573642622060","456","0.3125","-0.73535156","0.07324219","22.5","-18.09375","-8.0625"
"1573642622060","457","0.17480469","-1.0400391","0.0087890625","13.78125","-10.8125","-8.125"
"1573642622061","458","0.14746094","-1.0341797","9.765625E-4","16.78125","-3.375","11.53125"
"1573642622061","459","0.19628906","-0.86328125","0.0146484375","14.28125","12.375","15.96875"
"1573642622457","460","0.31347656","-0.83984375","0.009765625","12.9375","9.375","-0.1875"
"1573642622457","461","0.2783203","-0.9511719","0.11035156","4.25","1.6875","0.40625"
"1573642622458","462","0.20410156","-1.0117188","0.029296875","0.03125","0.40625","-0.3125"
"1573642622458","463","0.32910156","-1.0371094","0.0625","-5.375","-1.40625","0.0"
"1573642622458","464","0.31933594","-1.0605469","0.048828125","-10.75","2.78125","-2.625"
"1573642622458","465","0.25","-1.0859375","0.17578125","-6.0","-1.59375","-1.59375"
"1573642622459","466","0.109375","-1.5146484","0.22070312","-11.90625","5.0625","-1.53125"
"1573642622459","467","0.16015625","-1.6367188","0.123046875","-10.4375","17.5625","9.9375"
"1573642622459","468","0.083984375","-1.1425781","0.23925781","-9.46875","18.84375","21.46875"
"1573642622460","469","-0.02734375","-0.9121094","0.16601562","-1.96875","21.78125","15.4375"
"1573642622855","470","-0.038085938","-0.9580078","0.20996094","-3.96875","25.875","3.59375"
"1573642622855","471","-0.18554688","-0.91796875","0.11816406","-13.3125","22.625","8.90625"
"1573642622856","472","0.02734375","-0.8310547","0.08886719","-10.5625","30.3125","8.84375"
"1573642622856","473","0.095703125","-0.74902344","-0.038085938","-12.65625","19.8125","-0.3125"
"1573642622856","474","0.14453125","-0.7480469","0.08886719","-17.53125","6.625","-5.5625"
"1573642622856","475","-0.029296875","-0.6669922","-9.765625E-4","-14.25","1.15625","0.84375"
"1573642622857","476","0.038085938","-0.78808594","0.013671875","-0.5625","10.1875","1.3125"
"1573642622857","477","0.051757812","-0.8886719","0.064453125","-2.15625","4.1875","-5.25"
"1573642622857","478","-0.0126953125","-0.97265625","0.0146484375","-6.5","-3.90625","-6.3125"
"1573642622857","479","-0.061523438","-1.0332031","-0.048828125","-10.6875","-4.59375","-6.0"
"1573642623251","480","0.10546875","-0.99121094","0.009765625","-0.9375","-3.625","-14.25"
"1573642623253","481","0.16503906","-0.9863281","0.09667969","-1.0625","-19.71875","-14.53125"
"1573642623253","482","0.2607422","-1.0458984","0.11816406","10.65625","-31.5625","-20.21875"
"1573642623253","483","0.17675781","-0.9658203","0.12988281","19.9375","-44.8125","6.28125"
"1573642623254","484","-0.00390625","-0.8125","0.1328125","23.90625","-47.875","30.4375"
"1573642623254","485","-0.10253906","-0.828125","0.12792969","21.96875","-20.78125","23.4375"
"1573642623254","486","0.13671875","-1.1679688","0.22753906","11.875","-10.21875","-14.90625"
"1573642623255","487","0.12988281","-1.1914062","0.16699219","-2.8125","-3.5625","-4.84375"
"1573642623255","488","0.041992188","-1.0917969","0.076171875","-14.25","5.71875","4.75"
"1573642623255","489","0.046875","-0.88183594","0.1015625","-11.125","15.65625","9.375"
"1573642624043","490","0.068359375","-0.8466797","0.12109375","-16.5625","31.1875","-1.0625"
"1573642624043","491","0.083984375","-0.8232422","0.14550781","-21.375","31.78125","-17.03125"
"1573642624043","492","0.11230469","-0.7001953","0.14941406","-22.28125","31.40625","-10.75"
"1573642624045","493","0.041992188","-0.6171875","0.15917969","-17.71875","22.625","-8.1875"
"1573642624045","494","-0.107421875","-0.57421875","0.048828125","-13.3125","27.09375","6.46875"
"1573642624045","495","0.10253906","-0.6152344","0.19921875","0.96875","38.3125","3.65625"
"1573642624046","496","0.17578125","-0.54785156","0.12988281","3.71875","1.3125","-6.84375"
"1573642624046","497","0.034179688","-0.90234375","0.1015625","8.28125","0.90625","4.4375"
"1573642624046","498","-0.0546875","-1.5859375","0.10546875","16.40625","12.5","-9.78125"
"1573642624046","499","0.17578125","-1.9042969","-0.040039062","21.90625","19.15625","26.03125"
"1573642624243","500","0.4140625","-1.4580078","-0.032226562","5.28125","-7.15625","9.25"
"1573642624243","501","0.15527344","-1.8271484","-0.14160156","7.3125","-10.09375","-20.03125"
"1573642624244","502","0.26953125","-1.1865234","-0.0078125","0.46875","6.875","17.3125"
"1573642624244","503","0.2861328","-0.6904297","-0.11425781","-19.65625","-17.96875","-6.90625"
"1573642624244","504","-0.0146484375","-0.7246094","-0.06347656","-16.375","-6.5","-19.1875"
"1573642624246","505","0.1640625","-1.0410156","-0.036132812","-13.75","-0.0625","-17.53125"
"1573642624246","506","0.17578125","-1.0068359","-0.052734375","-15.9375","-22.90625","-22.0625"
"1573642624246","507","0.0703125","-0.8876953","-0.0859375","-6.25","-23.875","-1.25"
"1573642624247","508","0.11425781","-0.9628906","-0.103515625","-4.71875","-7.65625","-5.15625"
"1573642624247","509","0.2265625","-1.0058594","-0.15429688","-12.65625","2.84375","-17.40625"
"1573642625635","510","0.10449219","-1.0761719","-0.10449219","-14.0","3.9375","-11.25"
"1573642625636","511","-0.049804688","-0.9707031","-0.08300781","-18.4375","12.125","1.5625"
"1573642625636","512","0.0859375","-0.85058594","-0.07128906","-6.0625","21.90625","-0.75"
"1573642625636","513","0.13769531","-0.953125","-0.044921875","0.28125","26.46875","-6.0625"
"1573642625637","514","0.29785156","-1.2587891","0.07421875","9.9375","18.53125","-39.5625"
"1573642625637","515","0.05078125","-0.8876953","-0.0234375","7.4375","-11.125","29.03125"
"1573642625637","516","0.1171875","-0.6191406","-0.04296875","23.90625","0.71875","25.4375"
"1573642625639","517","0.296875","-0.80566406","0.061523438","28.1875","-4.40625","-27.3125"
"1573642625640","518","0.34179688","-1.4121094","0.09667969","20.3125","-2.34375","-28.09375"
"1573642625640","519","0.30859375","-1.1376953","0.041015625","19.09375","-22.96875","30.1875"
"1573642625640","520","0.29589844","-0.80371094","0.060546875","23.59375","-20.53125","5.78125"
"1573642625641","521","0.20996094","-0.90527344","0.06738281","20.1875","-15.21875","-4.78125"
"1573642625641","522","0.24414062","-1.078125","0.016601562","18.65625","-6.90625","-0.9375"
"1573642625641","523","0.24023438","-0.92578125","0.091796875","9.1875","-3.6875","-2.34375"
"1573642625642","524","0.22753906","-0.8828125","0.036132812","8.40625","-4.78125","-1.53125"
"1573642625642","525","0.2548828","-0.9394531","0.043945312","7.125","0.53125","-2.8125"
"1573642625642","526","0.29003906","-0.94921875","0.06738281","4.1875","4.6875","0.53125"
"1573642625643","527","0.31933594","-0.96875","0.10253906","4.625","-4.40625","-2.09375"
"1573642625643","528","0.24023438","-1.0224609","0.041015625","-3.8125","3.46875","-1.3125"
"1573642625643","529","0.2783203","-1.0693359","0.08300781","-6.78125","8.21875","8.15625"
"1573642625834","530","0.35839844","-1.1347656","0.1796875","-4.65625","8.09375","2.65625"
"1573642625835","531","0.21289062","-1.2539062","0.27539062","-1.96875","0.40625","13.0"
"1573642625835","532","0.16113281","-1.6054688","0.30078125","2.4375","21.03125","2.65625"
"1573642625835","533","0.171875","-1.4130859","0.29882812","-14.3125","14.09375","16.40625"
"1573642625836","534","-0.041015625","-0.9902344","0.203125","-12.96875","17.5","23.53125"
"1573642625836","535","-0.1640625","-0.76464844","0.203125","3.46875","55.53125","31.96875"
"1573642625836","536","-0.15234375","-0.8886719","0.12695312","4.0","60.53125","27.28125"
"1573642625837","537","0.17871094","-0.8808594","0.15429688","-10.21875","36.1875","-8.125"
"1573642625837","538","0.19726562","-0.7529297","0.07910156","-32.0625","-6.3125","-7.40625"
"1573642625837","539","0.0087890625","-0.7597656","0.048828125","-29.4375","-20.9375","-3.4375"
"1573642626428","540","-0.10449219","-0.7138672","0.041015625","-18.15625","-6.84375","11.40625"
"1573642626429","541","-0.029296875","-0.765625","0.015625","-13.03125","4.0625","5.21875"
"1573642626429","542","0.09765625","-0.8720703","0.10058594","-13.9375","-4.78125","-10.625"
"1573642626430","543","-0.015625","-0.96191406","0.059570312","-16.875","-20.65625","-7.875"
"1573642626430","544","-0.068359375","-0.98339844","0.044921875","-15.6875","-24.625","-5.625"
"1573642626430","545","-0.0087890625","-0.9238281","0.020507812","-12.78125","-22.40625","-13.375"
"1573642626431","546","0.107421875","-1.0322266","0.07421875","-9.46875","-28.28125","-25.84375"
"1573642626431","547","0.041992188","-1.0136719","0.11328125","-4.34375","-25.96875","-23.8125"
"1573642626432","548","0.043945312","-0.9345703","0.03125","7.5625","-28.9375","-3.0"
"1573642626432","549","0.18261719","-0.7919922","0.12792969","25.6875","-16.8125","-2.625"
"1573642626629","550","0.07910156","-0.8330078","0.15527344","22.6875","-16.3125","7.5"
"1573642626630","551","-0.03125","-1.1181641","0.16699219","24.59375","6.5625","7.125"
"1573642626631","552","0.17480469","-1.21875","0.1953125","12.5","12.75","-9.90625"
"1573642626633","553","0.22949219","-1.0927734","0.14453125","-6.59375","8.65625","-8.1875"
"1573642626633","554","0.19140625","-0.9238281","0.09472656","-11.125","-4.84375","-3.25"
"1573642626633","555","0.0048828125","-0.9033203","0.08105469","-5.15625","8.78125","4.6875"
"1573642626634","556","0.064453125","-0.87597656","0.13769531","-6.375","23.375","1.875"
"1573642626634","557","0.13867188","-0.7441406","0.16113281","-11.625","17.5","-1.65625"
"1573642626634","558","0.07324219","-0.66308594","0.1328125","-14.40625","13.21875","-1.53125"
"1573642626634","559","0.11328125","-0.7158203","0.14257812","-4.59375","3.84375","-14.25"
"1573642626635","560","0.18554688","-0.6660156","0.1640625","-6.78125","-6.4375","-5.15625"
"1573642626635","561","0.03125","-0.6845703","0.13671875","-8.25","-13.8125","4.1875"
"1573642626635","562","-0.07128906","-0.6113281","0.103515625","-9.34375","-1.53125","20.75"
"1573642626636","563","0.078125","-0.8095703","0.203125","-0.25","3.15625","13.59375"
"1573642626636","564","-0.046875","-1.5849609","0.072265625","-4.09375","29.09375","-25.15625"
"1573642626636","565","0.3154297","-2.0","-0.1875","9.6875","39.46875","15.84375"
"1573642626636","566","0.35546875","-1.25","-0.01171875","0.28125","-8.875","29.9375"
"1573642626637","567","0.10839844","-1.1298828","-0.025390625","26.65625","15.96875","19.21875"
"1573642626637","568","-0.021484375","-1.3916016","-0.15722656","6.15625","48.8125","13.40625"
"1573642626637","569","0.2734375","-0.94433594","-0.017578125","-25.34375","15.125","6.21875"
"1573642627028","570","0.17871094","-0.49414062","-0.07910156","-21.3125","-2.40625","-15.15625"
"1573642627029","571","0.123046875","-0.75878906","-0.055664062","-8.0625","-7.40625","-31.6875"
"1573642627029","572","0.13867188","-1.328125","-0.083984375","-4.53125","-10.4375","-29.0"
"1573642627029","573","0.10839844","-1.1503906","-0.0703125","-4.96875","-16.125","-0.6875"
"1573642627030","574","0.13378906","-0.8486328","-0.10058594","-7.46875","-12.90625","-1.59375"
"1573642627030","575","0.16503906","-0.8574219","-0.095703125","-6.65625","-12.09375","-25.40625"
"1573642627030","576","0.09472656","-1.1054688","-0.09863281","-16.25","-8.25","-20.84375"
"1573642627031","577","-0.0048828125","-1.0351562","-0.07128906","-14.96875","-5.09375","-13.875"
"1573642627031","578","-0.0234375","-0.8955078","-0.07128906","-20.09375","5.53125","-3.3125"
"1573642627031","579","0.2548828","-1.1455078","0.021484375","-4.78125","16.71875","-57.375"
"1573642627424","580","0.15527344","-0.7578125","0.02734375","-0.375","-6.125","9.03125"
"1573642627425","581","0.2705078","-0.5595703","0.08496094","20.125","-0.3125","16.65625"
"1573642627425","582","0.26757812","-0.9042969","0.052734375","24.8125","-6.96875","-47.75"
"1573642627425","583","0.3544922","-1.9765625","-0.0029296875","1.09375","25.0625","-10.875"
"1573642627426","584","0.4111328","-1.0732422","-9.765625E-4","15.90625","-26.8125","42.28125"
"1573642627426","585","0.3623047","-0.5371094","-0.06738281","17.0","-21.875","-8.1875"
"1573642627426","586","0.19433594","-0.96972656","0.025390625","11.21875","-6.84375","7.8125"
"1573642627426","587","0.125","-1.0527344","-0.0107421875","20.90625","3.09375","16.53125"
"1573642627426","588","0.29296875","-0.8515625","0.030273438","12.25","14.3125","0.65625"
"1573642627428","589","0.30859375","-0.9501953","0.0234375","7.375","5.78125","2.84375"
"1573642627824","590","0.28320312","-0.9638672","0.022460938","5.78125","4.4375","2.5625"
"1573642627824","591","0.3154297","-0.9550781","0.072265625","2.90625","-2.28125","2.78125"
"1573642627824","592","0.20117188","-1.0380859","-0.021484375","-4.40625","-1.53125","1.75"
"1573642627825","593","0.34765625","-1.0224609","0.034179688","-7.9375","2.78125","4.5625"
"1573642627825","594","0.3623047","-1.0556641","0.09472656","-3.8125","5.1875","3.21875"
"1573642627825","595","0.16796875","-1.1865234","0.14550781","0.28125","5.59375","12.375"
"1573642627825","596","0.14257812","-1.5234375","0.18457031","-9.40625","17.6875","4.5625"
"1573642627826","597","0.17480469","-1.4199219","0.20996094","-13.375","27.15625","13.71875"
"1573642627826","598","0.0068359375","-1.1015625","0.19726562","-11.625","28.71875","7.5"
"1573642627826","599","-0.09863281","-0.9716797","0.16113281","-4.21875","32.5625","11.28125"
"1573642629609","600","-0.032226562","-0.90527344","0.18261719","-13.03125","26.15625","1.3125"
"1573642629611","601","-0.04296875","-0.8496094","0.10253906","-16.625","18.0","-3.0"
"1573642629612","602","0.056640625","-0.7607422","-0.0048828125","-14.65625","9.875","0.65625"
"1573642629612","603","0.17773438","-0.7597656","-0.0048828125","-14.125","-0.9375","-6.78125"
"1573642629612","604","0.09667969","-0.7910156","0.072265625","-14.90625","-5.3125","-8.3125"
"1573642629613","605","-0.046875","-0.7792969","0.028320312","-12.46875","-13.875","-2.03125"
"1573642629613","606","-0.06933594","-0.8671875","-0.01171875","-2.21875","7.0625","4.0625"
"1573642629613","607","0.09375","-0.9550781","-0.015625","-5.4375","7.1875","1.09375"
"1573642629613","608","0.087890625","-0.9169922","0.016601562","-11.4375","-4.90625","-2.75"
"1573642629614","609","0.024414062","-0.9042969","0.0078125","-12.15625","-14.59375","-15.875"
"1573642629614","610","0.09082031","-0.9511719","0.0078125","-7.34375","-14.90625","-23.75"
"1573642629615","611","0.22851562","-1.0625","0.07910156","7.625","-14.125","-24.4375"
"1573642629615","612","0.12207031","-0.99121094","0.11621094","16.84375","-23.75","-14.84375"
"1573642629615","613","0.119140625","-0.9091797","0.072265625","32.9375","-27.1875","1.6875"
"1573642629615","614","0.125","-0.7714844","0.171875","39.34375","-19.78125","25.125"
"1573642629616","615","0.15234375","-0.8125","0.19628906","30.0625","-19.0","18.78125"
"1573642629616","616","0.1171875","-1.2402344","0.18945312","14.875","-10.9375","-18.5625"
"1573642629616","617","0.07128906","-1.2001953","0.18554688","0.65625","13.53125","-0.25"
"1573642629616","618","0.19921875","-1.0585938","0.103515625","-12.96875","3.84375","5.59375"
"1573642629617","619","0.13769531","-0.9472656","0.11425781","-18.75","11.09375","-4.40625"
"1573642629808","620","0.20214844","-0.8691406","0.1171875","-22.15625","16.46875","-4.96875"
"1573642629809","621","0.14160156","-0.70410156","0.14160156","-27.65625","7.4375","-3.125"
"1573642629809","622","0.0146484375","-0.6015625","0.15332031","-19.71875","18.46875","0.15625"
"1573642629810","623","-0.02734375","-0.6064453","0.16015625","-6.25","31.78125","4.6875"
"1573642629810","624","0.040039062","-0.54296875","0.064453125","-3.1875","31.40625","20.125"
"1573642629811","625","0.28320312","-0.6064453","0.19335938","-3.75","6.15625","-2.53125"
"1573642629812","626","0.072265625","-0.67285156","0.111328125","-9.59375","-22.90625","-15.34375"
"1573642629812","627","-0.001953125","-1.3945312","0.115234375","-4.71875","-3.625","7.5"
"1573642629812","628","0.030273438","-1.9580078","0.043945312","6.09375","36.78125","-2.15625"
"1573642629812","629","0.40234375","-1.7275391","-0.09863281","10.59375","2.96875","31.25"
"1573642630007","630","0.076171875","-1.078125","-0.11035156","-19.53125","-0.6875","-22.21875"
"1573642630008","631","-0.005859375","-0.8564453","-0.099609375","-16.875","-0.9375","-11.84375"
"1573642630008","632","0.08984375","-0.99121094","0.024414062","-30.21875","36.96875","-25.84375"
"1573642630008","633","0.21484375","-0.98046875","0.13964844","-1.90625","5.40625","-55.6875"
"1573642630009","634","0.23925781","-0.68847656","-0.01953125","-0.0625","-21.375","52.46875"
"1573642630009","635","0.2919922","-0.6582031","-0.013671875","30.875","13.15625","-25.09375"
"1573642630009","636","0.39648438","-1.3955078","0.06933594","8.59375","19.46875","-52.75"
"1573642630009","637","0.36328125","-1.3398438","-0.00390625","24.875","-26.75","39.65625"
"1573642630010","638","0.2763672","-0.6591797","-0.0048828125","25.625","-14.0","16.90625"
"1573642630010","639","0.32910156","-0.74121094","0.005859375","22.5","-5.3125","1.75"
"1573642630208","640","0.203125","-1.0361328","-0.052734375","21.90625","-1.0","15.71875"
"1573642630208","641","0.29101562","-0.9345703","0.047851562","13.28125","4.1875","3.59375"
"1573642630209","642","0.32617188","-0.88964844","0.043945312","10.59375","0.78125","3.34375"
"1573642630209","643","0.2705078","-0.9472656","0.034179688","7.5625","1.5","4.75"
"1573642630209","644","0.3203125","-0.9501953","0.060546875","5.65625","6.15625","3.03125"
"1573642630211","645","0.28320312","-1.0244141","0.026367188","3.53125","5.0625","11.71875"
"1573642630211","646","0.2939453","-1.0673828","0.037109375","-2.40625","8.21875","12.0625"
"1573642630212","647","0.35351562","-1.0751953","0.037109375","-10.625","12.5625","8.71875"
"1573642630212","648","0.39648438","-1.0683594","0.14941406","-4.84375","2.59375","11.40625"
"1573642630212","649","0.22753906","-1.3779297","0.34765625","-7.65625","-6.65625","7.375"
"1573642630605","650","-0.15039062","-1.7333984","0.203125","0.0","11.15625","19.21875"
"1573642630606","651","-0.091796875","-1.1923828","0.21679688","-12.78125","21.34375","39.34375"
"1573642630606","652","0.01953125","-0.8076172","0.20019531","-4.53125","30.8125","8.03125"
"1573642630607","653","-0.13964844","-0.8623047","0.22265625","-13.125","30.625","-1.125"
"1573642630607","654","-0.1640625","-0.9873047","0.11425781","-8.1875","34.40625","0.28125"
"1573642630607","655","0.09082031","-0.8701172","0.09765625","-18.75","26.15625","2.84375"
"1573642630607","656","0.078125","-0.76464844","0.060546875","-19.375","14.3125","-2.875"
"1573642630608","657","0.0390625","-0.73828125","0.060546875","-15.09375","8.53125","-6.90625"
"1573642630608","658","0.0029296875","-0.75","0.0107421875","-14.34375","6.75","-4.34375"
"1573642630608","659","0.061523438","-0.8330078","0.046875","-11.0","1.03125","-7.71875"
"1573642631005","660","0.044921875","-0.8378906","0.06347656","-13.4375","-10.8125","-14.84375"
"1573642631006","661","-0.017578125","-0.90625","0.04296875","-11.4375","-19.4375","-14.0"
"1573642631006","662","-0.024414062","-0.92089844","-0.0078125","-2.40625","-16.96875","-10.15625"
"1573642631006","663","0.06347656","-0.8925781","-0.01953125","3.15625","-20.40625","-14.53125"
"1573642631007","664","0.16992188","-0.9501953","0.078125","10.65625","-21.3125","-21.5625"
"1573642631007","665","0.10058594","-0.9824219","0.083984375","17.8125","-31.8125","-18.9375"
"1573642631007","666","0.13867188","-1.0166016","0.15429688","39.90625","-27.65625","-5.6875"
"1573642631008","667","0.19433594","-0.875","0.22460938","48.5625","-29.0625","16.53125"
"1573642631008","668","0.14941406","-0.7265625","0.25195312","41.1875","-30.15625","25.0"
"1573642631008","669","0.0087890625","-1.0341797","0.22167969","34.09375","-3.0625","11.28125"
"1573642631400","670","0.0234375","-1.4179688","0.16992188","3.34375","30.5","-17.71875"
"1573642631400","671","0.3251953","-1.1972656","0.12109375","-16.6875","13.21875","-2.625"
"1573642631400","672","0.265625","-0.9140625","0.13085938","-18.4375","-2.6875","12.625"
"1573642631407","673","-0.00390625","-0.7392578","0.19433594","-11.96875","10.0","11.59375"
"1573642631408","674","0.040039062","-0.8847656","0.20996094","-13.03125","23.90625","8.03125"
"1573642631408","675","0.078125","-0.7158203","0.1484375","-20.46875","19.53125","-4.28125"
"1573642631408","676","-0.018554688","-0.5292969","0.19042969","-25.78125","26.09375","12.1875"
"1573642631409","677","-0.0087890625","-0.4814453","0.14257812","-19.78125","40.15625","5.78125"
"1573642631409","678","0.1328125","-0.5908203","0.10449219","-24.3125","34.65625","-11.90625"
"1573642631409","679","0.13769531","-0.7246094","0.21386719","-29.5","10.1875","-21.5625"
"1573642631996","680","-0.001953125","-0.8408203","0.21582031","-17.96875","1.375","1.4375"
"1573642631996","681","-0.24804688","-1.8564453","0.13867188","4.5625","57.59375","12.375"
"1573642631996","682","0.453125","-1.8398438","-0.1015625","16.65625","18.34375","32.8125"
"1573642631997","683","0.40429688","-2.0","-0.001953125","-12.34375","-9.59375","-2.46875"
"1573642631997","684","0.19042969","-1.2890625","-0.43164062","-15.34375","-15.53125","-3.8125"
"1573642631998","685","0.64746094","-0.7207031","0.15234375","-11.4375","-29.625","1.09375"
"1573642631998","686","0.0087890625","-0.4248047","-0.12402344","-14.1875","-29.9375","2.5625"
"1573642631999","687","-0.11621094","-0.8378906","-0.109375","-6.90625","-15.625","-7.21875"
"1573642631999","688","0.15136719","-1.2070312","-0.049804688","-9.28125","-14.71875","-14.125"
"1573642631999","689","0.12011719","-1.0107422","-0.0390625","-4.59375","-22.40625","-4.53125"
"1573642632195","690","0.04296875","-0.91796875","-0.12207031","-1.84375","-12.15625","6.28125"
"1573642632196","691","0.07128906","-0.9765625","-0.06640625","-4.65625","-5.9375","-10.5625"
"1573642632196","692","0.052734375","-1.0302734","-0.041015625","-11.625","4.625","-17.53125"
"1573642632198","693","-0.017578125","-1.0185547","-0.13769531","-16.8125","11.34375","-14.34375"
"1573642632199","694","0.053710938","-0.89746094","-0.09277344","-19.65625","9.875","-15.46875"
"1573642632199","695","0.08300781","-1.1621094","0.041992188","-26.6875","9.3125","-28.28125"
"1573642632200","696","0.10546875","-1.0927734","0.033203125","-22.96875","45.53125","-29.625"
"1573642632200","697","0.2626953","-0.8613281","0.0068359375","-12.28125","12.1875","11.15625"
"1573642632200","698","0.1015625","-0.75683594","0.0390625","8.21875","34.84375","-6.25"
"1573642632201","699","0.26464844","-1.2714844","-0.029296875","0.09375","41.78125","-19.5"
