"# PR data"
"# Start time: 20191113T104421"
"# Subject: sharan"
"# Activity type: Sit to stand"
"# Correctness: Correct"
"# Notes: "
""
"timestamp","seq","accel_x","accel_y","accel_z","gyro_x","gyro_y","gyro_z"
"1573641861441","0","0.04296875","-0.9785156","-0.0859375","-3.5","1.75","-4.84375"
"1573641861442","1","0.091796875","-0.96191406","-0.16699219","-1.125","6.625","-7.46875"
"1573641861442","2","0.15527344","-0.96191406","-0.109375","3.53125","9.03125","-11.5"
"1573641861442","3","0.16992188","-0.9589844","-0.14648438","3.21875","16.28125","-19.0"
"1573641861442","4","0.19921875","-1.0019531","-0.11621094","5.59375","13.96875","-13.25"
"1573641861443","5","0.14550781","-0.9248047","-0.11816406","5.34375","8.03125","-14.96875"
"1573641861443","6","0.29882812","-1.0703125","-0.107421875","-1.78125","4.8125","-11.0625"
"1573641861443","7","0.28515625","-1.0283203","-0.048828125","2.1875","-9.53125","-22.96875"
"1573641861443","8","0.12207031","-0.9580078","-0.07519531","8.78125","-14.1875","-17.65625"
"1573641861444","9","0.20898438","-0.95410156","-0.06738281","16.03125","-11.4375","-2.8125"
"1573641861641","10","0.21777344","-0.9716797","-0.045898438","8.53125","-8.6875","-6.65625"
"1573641861642","11","0.16210938","-1.0068359","-0.041992188","10.78125","-1.0625","0.03125"
"1573641861642","12","0.19726562","-0.99316406","-0.06640625","9.75","-10.09375","0.84375"
"1573641861642","13","0.20410156","-0.98828125","-0.022460938","0.84375","-3.0625","-3.96875"
"1573641861643","14","0.21289062","-1.0058594","-0.059570312","0.71875","1.4375","-1.125"
"1573641861643","15","0.24316406","-0.9921875","-0.049804688","-1.71875","7.625","-6.3125"
"1573641861644","16","0.21777344","-0.98046875","-0.045898438","-3.1875","5.84375","-9.53125"
"1573641861644","17","0.20996094","-0.96191406","-0.06933594","-5.9375","4.1875","-8.25"
"1573641861644","18","0.20019531","-0.94628906","-0.061523438","-10.8125","7.5625","-6.65625"
"1573641861644","19","0.21679688","-0.9560547","-0.107421875","-15.03125","8.96875","-9.96875"
"1573641862235","20","0.26464844","-0.97265625","-0.07714844","-12.03125","9.75","-15.09375"
"1573641862236","21","0.24414062","-0.953125","-0.10449219","-8.6875","6.625","-15.28125"
"1573641862236","22","0.3388672","-0.9707031","-0.11816406","2.25","-0.75","-12.84375"
"1573641862236","23","0.34179688","-0.99902344","-0.107421875","4.125","5.59375","-7.875"
"1573641862236","24","0.32910156","-1.0048828","-0.0390625","9.5","5.65625","2.1875"
"1573641862237","25","0.2607422","-0.9716797","-0.06347656","7.5625","-1.25","4.5625"
"1573641862238","26","0.22363281","-0.97558594","-0.0625","5.34375","2.71875","10.375"
"1573641862239","27","0.21972656","-0.95996094","-0.029296875","-3.625","2.84375","4.0"
"1573641862239","28","0.23242188","-0.9707031","-0.040039062","-7.875","1.6875","2.0"
"1573641862239","29","0.24023438","-0.97753906","-0.052734375","-8.4375","0.34375","-1.0"
"1573641862436","30","0.26757812","-0.9609375","-0.046875","-6.4375","0.46875","-3.125"
"1573641862436","31","0.27148438","-0.9873047","-0.072265625","-7.78125","1.8125","-4.03125"
"1573641862436","32","0.27246094","-0.9921875","-0.06640625","-9.34375","-0.8125","-2.21875"
"1573641862437","33","0.24902344","-0.9550781","-0.07324219","-7.21875","-5.5625","-1.0"
"1573641862437","34","0.25585938","-0.95410156","-0.076171875","-6.5","-5.625","0.0"
"1573641862437","35","0.24804688","-0.95214844","-0.09765625","-6.65625","-6.3125","0.0"
"1573641862437","36","0.234375","-0.9511719","-0.1015625","-1.125","-14.53125","4.3125"
"1573641862438","37","0.265625","-0.98339844","-0.11328125","-1.71875","-7.65625","5.34375"
"1573641862439","38","0.28320312","-0.9980469","-0.09863281","-3.25","-8.125","1.5625"
"1573641862439","39","0.22753906","-0.97265625","-0.11816406","-2.59375","-14.90625","2.0"
"1573641862835","40","0.22851562","-0.95214844","-0.08496094","-5.5625","-16.0","2.0"
"1573641862835","41","0.21484375","-0.93847656","-0.09863281","2.1875","-4.96875","0.0"
"1573641862835","42","0.23339844","-0.97558594","-0.10546875","1.625","-3.375","-2.40625"
"1573641862836","43","0.23730469","-0.9794922","-0.076171875","0.65625","1.5625","-4.34375"
"1573641862836","44","0.23242188","-0.96191406","-0.08300781","5.34375","4.0625","-6.71875"
"1573641862836","45","0.22851562","-0.98828125","-0.125","-0.875","2.59375","-3.5625"
"1573641862836","46","0.30566406","-0.98046875","-0.11816406","-2.53125","-7.40625","-7.34375"
"1573641862837","47","0.22558594","-0.97265625","-0.06542969","-7.40625","-0.375","-20.9375"
"1573641862837","48","0.31054688","-0.9794922","-0.12109375","-2.40625","-5.09375","-18.6875"
"1573641862838","49","0.21484375","-0.98046875","-0.07324219","0.96875","15.0625","-21.875"
"1573641863429","50","0.2421875","-0.93652344","-0.111328125","12.875","12.0625","-19.78125"
"1573641863430","51","0.22363281","-0.8828125","-0.12109375","2.125","25.1875","-15.9375"
"1573641863430","52","0.2861328","-0.9345703","-0.07128906","1.03125","27.5","-15.28125"
"1573641863430","53","0.3935547","-0.9746094","-0.10546875","3.40625","15.3125","-16.0625"
"1573641863430","54","0.4716797","-0.9580078","-0.038085938","-3.1875","-8.9375","-27.78125"
"1573641863431","55","0.3125","-0.9472656","0.016601562","-0.0625","12.3125","-30.96875"
"1573641863431","56","0.4013672","-0.92285156","-0.055664062","20.84375","1.625","-14.40625"
"1573641863431","57","0.3388672","-0.8544922","-0.032226562","16.40625","5.34375","-11.25"
"1573641863431","58","0.32910156","-0.91796875","-0.091796875","-1.25","-2.8125","-4.09375"
"1573641863432","59","0.390625","-0.9345703","0.02734375","-8.125","-6.78125","-1.40625"
"1573641863629","60","0.42382812","-0.8798828","-0.0703125","-0.0625","-9.78125","2.0"
"1573641863629","61","0.37597656","-0.9472656","-0.048828125","-10.5625","-2.34375","-1.65625"
"1573641863630","62","0.44628906","-0.94433594","-0.087890625","-12.78125","-2.34375","-1.96875"
"1573641863630","63","0.45507812","-0.9453125","-0.1015625","-9.40625","4.625","3.46875"
"1573641863631","64","0.45703125","-0.890625","-0.095703125","-6.0","2.96875","-1.1875"
"1573641863631","65","0.3798828","-0.8613281","-0.055664062","-1.78125","1.75","-3.90625"
"1573641863631","66","0.35058594","-0.9248047","-0.091796875","4.8125","5.90625","7.375"
"1573641863631","67","0.3828125","-0.921875","-0.0146484375","2.71875","2.375","5.34375"
"1573641863632","68","0.3779297","-0.9511719","-0.03515625","8.78125","-2.34375","7.90625"
"1573641863632","69","0.3310547","-0.89453125","0.04296875","3.28125","-3.3125","6.34375"
"1573641864026","70","0.34570312","-0.9248047","-0.12402344","15.4375","-13.3125","9.03125"
"1573641864027","71","0.2685547","-0.99316406","-0.018554688","-10.4375","2.375","1.3125"
"1573641864027","72","0.4169922","-0.92578125","-0.040039062","-3.375","-1.65625","-6.0625"
"1573641864029","73","0.36035156","-0.9550781","-0.06542969","-0.8125","2.96875","-5.8125"
"1573641864029","74","0.42871094","-0.90722656","-0.06933594","-3.75","0.28125","0.09375"
"1573641864029","75","0.39941406","-0.9277344","-0.07519531","-1.71875","-2.8125","-0.875"
"1573641864029","76","0.375","-0.8808594","-0.056640625","-2.28125","-0.1875","1.15625"
"1573641864030","77","0.32226562","-0.89160156","-0.07128906","2.5","-0.25","1.5"
"1573641864030","78","0.36914062","-0.94140625","-0.06640625","0.84375","9.9375","1.03125"
"1573641864030","79","0.4169922","-0.9238281","-0.03515625","0.28125","4.6875","-2.28125"
"1573641864424","80","0.31933594","-0.9765625","-0.09277344","1.21875","6.46875","0.90625"
"1573641864425","81","0.42382812","-0.9345703","-0.038085938","-8.375","7.3125","-7.34375"
"1573641864425","82","0.3408203","-0.95214844","-0.032226562","-2.875","9.75","-4.21875"
"1573641864425","83","0.38476562","-0.9033203","-0.044921875","1.21875","7.8125","5.90625"
"1573641864425","84","0.4091797","-0.90234375","-0.020507812","6.875","7.6875","3.46875"
"1573641864427","85","0.35058594","-0.9277344","-0.03125","0.90625","-1.46875","6.46875"
"1573641864427","86","0.3486328","-0.9111328","-0.053710938","3.40625","-1.65625","6.875"
"1573641864427","87","0.3466797","-0.9013672","-0.017578125","-4.03125","-4.21875","2.125"
"1573641864428","88","0.33496094","-0.9746094","-0.045898438","3.34375","2.1875","9.03125"
"1573641864428","89","0.34570312","-0.9511719","-0.020507812","-2.28125","-3.5625","16.53125"
"1573641864822","90","0.33691406","-0.9248047","-0.044921875","-2.34375","-6.96875","15.625"
"1573641864822","91","0.3095703","-0.91308594","-0.036132812","-1.40625","-5.03125","15.3125"
"1573641864823","92","0.29882812","-0.9482422","-0.11425781","-2.15625","1.3125","16.84375"
"1573641864823","93","0.3876953","-0.9609375","0.0126953125","-14.125","-3.1875","12.625"
"1573641864823","94","0.19824219","-0.98535156","-0.0703125","-7.28125","3.40625","23.46875"
"1573641864824","95","0.25878906","-0.9970703","-0.026367188","-7.53125","9.3125","34.59375"
"1573641864824","96","0.31054688","-0.9169922","-0.05078125","-5.8125","6.875","21.34375"
"1573641864825","97","0.18847656","-0.9921875","-0.053710938","-10.8125","7.3125","23.4375"
"1573641864825","98","0.22558594","-1.0283203","-0.049804688","-14.34375","9.4375","29.09375"
"1573641864825","99","0.21679688","-1.0273438","-0.09375","-13.3125","5.96875","30.75"
"1573641865220","100","0.22460938","-0.9609375","-0.09082031","-13.4375","-2.09375","30.25"
"1573641865220","101","0.20800781","-0.99316406","-0.07714844","-17.90625","-2.875","15.71875"
"1573641865221","102","0.14257812","-1.0068359","-0.0703125","-19.65625","-1.96875","11.9375"
"1573641865221","103","0.078125","-1.0126953","-0.15136719","-14.53125","-2.8125","17.4375"
"1573641865221","104","0.11328125","-1.0615234","-0.14355469","-26.375","1.9375","21.46875"
"1573641865221","105","0.1015625","-1.0214844","-0.15722656","-21.125","1.03125","15.84375"
"1573641865222","106","0.06542969","-1.0175781","-0.2705078","-26.5625","-6.59375","20.125"
"1573641865222","107","0.125","-0.93652344","-0.09082031","-21.8125","-1.65625","11.28125"
"1573641865222","108","0.009765625","-0.8964844","-0.12402344","-6.25","-3.25","9.25"
"1573641865224","109","0.0048828125","-0.9267578","-0.15039062","-9.71875","0.90625","15.1875"
"1573641865816","110","0.08105469","-0.98828125","-0.17773438","-10.09375","5.46875","3.71875"
"1573641865817","111","0.068359375","-1.0224609","-0.21777344","-9.53125","4.875","-6.78125"
"1573641865817","112","0.025390625","-0.9902344","-0.21386719","-9.125","9.625","-6.78125"
"1573641865817","113","0.07910156","-1.0078125","-0.20605469","-5.15625","8.84375","-6.84375"
"1573641865817","114","0.064453125","-0.9707031","-0.25","-6.78125","5.40625","-7.09375"
"1573641865818","115","0.13085938","-1.0195312","-0.2763672","-5.6875","1.375","-2.40625"
"1573641865818","116","0.109375","-0.9902344","-0.23535156","-3.5625","2.0","-7.875"
"1573641865818","117","0.08496094","-0.9394531","-0.24511719","-0.8125","-0.0625","-3.1875"
"1573641865818","118","0.119140625","-0.9628906","-0.24121094","-1.46875","-4.03125","-0.125"
"1573641865818","119","0.08886719","-0.97753906","-0.16699219","1.28125","-5.3125","-3.875"
"1573641866013","120","0.061523438","-0.9794922","-0.20605469","5.59375","-10.15625","0.84375"
"1573641866014","121","0.048828125","-1.0039062","-0.19921875","7.4375","-3.5","2.5"
"1573641866015","122","0.0625","-1.0214844","-0.18359375","0.28125","3.34375","0.34375"
"1573641866015","123","0.08691406","-0.9921875","-0.19433594","-0.25","2.1875","-5.6875"
"1573641866015","124","0.095703125","-0.96777344","-0.16015625","0.03125","-4.46875","-9.15625"
"1573641866016","125","0.11621094","-1.0273438","-0.21972656","-1.40625","-4.53125","0.15625"
"1573641866016","126","0.091796875","-1.0244141","-0.22460938","-4.96875","1.9375","-0.75"
"1573641866016","127","0.10058594","-0.9472656","-0.23144531","-0.3125","1.4375","-4.28125"
"1573641866016","128","0.10058594","-1.0","-0.22363281","-3.6875","3.59375","-3.4375"
"1573641866017","129","0.078125","-0.96777344","-0.21777344","-0.25","3.59375","-1.25"
"1573641866412","130","0.107421875","-0.9716797","-0.19238281","1.625","2.0","-2.6875"
"1573641866413","131","0.07910156","-0.99316406","-0.20214844","0.96875","2.0","-2.6875"
"1573641866413","132","0.053710938","-0.96777344","-0.20117188","3.71875","-6.84375","2.0"
"1573641866414","133","0.09277344","-0.99609375","-0.19628906","2.0625","3.34375","1.8125"
"1573641866415","134","0.08886719","-0.98828125","-0.18164062","0.0","5.21875","-5.5"
"1573641866415","135","0.17382812","-1.0126953","-0.1796875","-2.46875","2.3125","-2.875"
"1573641866415","136","0.125","-1.0332031","-0.17089844","-3.0625","-0.0625","-8.5625"
"1573641866416","137","0.06738281","-0.9736328","-0.19140625","5.34375","0.46875","-0.375"
"1573641866416","138","0.09082031","-1.0117188","-0.17773438","3.90625","2.71875","6.875"
"1573641866416","139","0.068359375","-0.9980469","-0.17480469","5.40625","4.0","0.21875"
"1573641867006","140","0.091796875","-0.94628906","-0.16992188","3.71875","5.53125","1.15625"
"1573641867006","141","0.07714844","-0.9824219","-0.17285156","-2.03125","6.40625","-1.3125"
"1573641867006","142","0.10058594","-1.0136719","-0.17382812","0.09375","7.25","-5.5625"
"1573641867007","143","0.09082031","-0.99902344","-0.19628906","2.25","5.59375","-6.78125"
"1573641867007","144","0.1171875","-0.98339844","-0.15234375","1.375","10.1875","-4.71875"
"1573641867008","145","0.10253906","-0.99121094","-0.18554688","6.03125","8.46875","-5.15625"
"1573641867008","146","0.11328125","-0.9863281","-0.16894531","5.125","10.84375","-10.03125"
"1573641867008","147","0.15234375","-0.94628906","-0.16992188","4.5625","5.78125","-11.25"
"1573641867009","148","0.14941406","-0.98046875","-0.15332031","4.25","7.25","-16.6875"
"1573641867009","149","0.19140625","-0.9765625","-0.14160156","9.3125","-1.53125","-20.84375"
"1573641867207","150","0.16796875","-0.9736328","-0.15039062","7.0","4.25","-19.78125"
"1573641867208","151","0.19921875","-0.99902344","-0.115234375","10.46875","0.21875","-16.125"
"1573641867208","152","0.06347656","-0.94921875","-0.09277344","11.8125","4.6875","-16.25"
"1573641867208","153","0.21679688","-0.9980469","-0.12597656","9.5","3.90625","-3.25"
"1573641867208","154","0.28222656","-1.0429688","-0.109375","4.1875","-9.90625","-17.59375"
"1573641867209","155","0.24023438","-1.0302734","-0.1015625","1.5625","-4.21875","-16.96875"
"1573641867209","156","0.17773438","-0.9921875","-0.119140625","2.0625","-4.65625","-7.15625"
"1573641867210","157","0.24121094","-0.96484375","-0.12402344","-0.8125","-9.59375","-2.75"
"1573641867210","158","0.28027344","-0.98535156","-0.12402344","-5.375","-12.96875","-0.875"
"1573641867211","159","0.2578125","-0.99316406","-0.12988281","-3.0625","-23.875","-8.75"
"1573641867604","160","0.17089844","-0.9609375","-0.10449219","-2.59375","-4.53125","-14.59375"
"1573641867604","161","0.21679688","-0.97558594","-0.11621094","1.5","-0.6875","-11.96875"
"1573641867605","162","0.27246094","-0.9970703","-0.14257812","-0.625","-0.0625","-18.25"
"1573641867605","163","0.33007812","-1.0","-0.11816406","-1.59375","-5.25","-25.15625"
"1573641867605","164","0.2705078","-0.9482422","-0.095703125","-1.3125","-7.875","-29.3125"
"1573641867605","165","0.29492188","-0.91308594","-0.06738281","6.40625","-9.28125","-28.875"
"1573641867606","166","0.13964844","-0.9013672","-0.07324219","15.5","-1.71875","-21.1875"
"1573641867606","167","0.2265625","-0.9248047","-0.099609375","11.40625","5.59375","-10.4375"
"1573641867606","168","0.28027344","-0.9785156","-0.08691406","-3.125","7.84375","-5.375"
"1573641867607","169","0.3095703","-0.96777344","-0.13378906","-6.3125","9.625","-9.84375"
"1573641868001","170","0.375","-0.95214844","-0.059570312","-8.8125","2.375","-4.65625"
"1573641868001","171","0.35742188","-0.9355469","-0.103515625","-9.65625","6.40625","-4.90625"
"1573641868002","172","0.3408203","-0.97265625","-0.10058594","-6.25","7.5625","-3.25"
"1573641868002","173","0.3857422","-0.921875","-0.12695312","-8.75","3.84375","-4.53125"
"1573641868003","174","0.36621094","-0.89941406","-0.12890625","-9.28125","1.5625","-5.5"
"1573641868003","175","0.35839844","-0.92285156","-0.14160156","-6.65625","7.1875","-5.9375"
"1573641868003","176","0.3701172","-0.9394531","-0.12109375","-1.90625","6.15625","0.65625"
"1573641868004","177","0.3935547","-0.95996094","-0.12695312","4.0","6.03125","4.25"
"1573641868004","178","0.36328125","-0.8886719","-0.051757812","7.375","0.96875","0.71875"
"1573641868016","179","0.26171875","-0.8955078","-0.11230469","13.71875","3.21875","5.53125"
"1573641868598","180","0.29785156","-0.9238281","-0.059570312","7.8125","4.5625","7.125"
"1573641868600","181","0.32421875","-1.0048828","-0.16894531","7.4375","-2.9375","7.5"
"1573641868600","182","0.40722656","-0.9892578","-0.028320312","-13.4375","6.625","-5.15625"
"1573641868601","183","0.3251953","-0.9628906","-0.09765625","-0.875","-1.46875","-4.09375"
"1573641868601","184","0.3310547","-0.94628906","-0.119140625","-6.125","4.3125","0.78125"
"1573641868601","185","0.3701172","-0.9091797","-0.08886719","-2.6875","4.75","-0.9375"
"1573641868602","186","0.33398438","-0.9423828","-0.1484375","-4.53125","10.84375","-2.75"
"1573641868602","187","0.34472656","-0.7675781","0.041015625","9.03125","40.09375","0.65625"
"1573641868602","188","0.2109375","-0.99121094","-0.14257812","44.28125","4.875","22.25"
"1573641868603","189","0.35351562","-0.88378906","0.04296875","15.65625","-0.3125","8.59375"
"1573641868798","190","0.31347656","-0.96191406","-0.08105469","10.25","0.46875","2.25"
"1573641868799","191","0.30664062","-1.03125","-0.029296875","4.0","1.5625","13.53125"
"1573641868799","192","0.31640625","-0.99609375","-0.06640625","7.96875","-5.09375","15.0625"
"1573641868801","193","0.29003906","-0.8935547","0.0048828125","-2.75","-17.84375","12.5"
"1573641868802","194","0.20117188","-0.9482422","-0.13964844","-5.03125","-18.625","6.03125"
"1573641868802","195","0.4716797","-0.9970703","0.032226562","5.0","11.28125","-12.03125"
"1573641868802","196","0.14453125","-1.015625","-0.025390625","-0.6875","-1.3125","-6.4375"
"1573641868802","197","0.2763672","-0.9794922","0.032226562","3.09375","18.40625","-1.84375"
"1573641868803","198","0.37304688","-0.9580078","-0.026367188","-4.96875","-0.9375","-8.125"
"1573641868803","199","0.28808594","-0.9921875","-0.026367188","-4.90625","-7.53125","-9.40625"
"1573641869196","200","0.32617188","-0.8984375","0.0048828125","2.25","1.4375","-6.3125"
"1573641869197","201","0.20214844","-0.9169922","-0.03125","4.5625","0.03125","6.6875"
"1573641869197","202","0.24609375","-0.9345703","-0.020507812","9.5","2.5625","5.59375"
"1573641869197","203","0.375","-1.0146484","-0.034179688","-0.8125","2.84375","0.03125"
"1573641869197","204","0.33691406","-0.99609375","-0.013671875","-6.71875","-5.625","1.03125"
"1573641869199","205","0.24511719","-0.95214844","-0.009765625","-9.125","-2.03125","11.03125"
"1573641869200","206","0.22363281","-0.921875","-0.05078125","2.25","-0.875","11.03125"
"1573641869200","207","0.2998047","-0.98339844","-0.046875","-6.59375","8.15625","9.375"
"1573641869200","208","0.40429688","-0.9472656","0.0087890625","-18.15625","-3.125","1.5625"
"1573641869201","209","0.13476562","-0.9550781","-0.08691406","-10.75","-2.03125","3.21875"
"1573641869792","210","0.28125","-0.9160156","0.015625","-7.34375","11.21875","10.71875"
"1573641869792","211","0.21777344","-0.9189453","-0.072265625","-8.875","13.21875","0.0"
"1573641869793","212","0.2548828","-1.0224609","-0.01171875","-13.25","17.6875","-1.90625"
"1573641869793","213","0.2783203","-1.0712891","-0.051757812","-8.4375","13.21875","4.5625"
"1573641869793","214","0.3330078","-1.0185547","-0.08691406","-16.0625","15.125","11.28125"
"1573641869793","215","0.22851562","-0.93066406","-0.047851562","-15.6875","0.59375","12.5"
"1573641869793","216","0.22265625","-0.9160156","-0.061523438","-12.34375","8.28125","8.15625"
"1573641869795","217","0.23046875","-0.94628906","-0.078125","-13.375","13.65625","8.34375"
"1573641869795","218","0.2529297","-1.0292969","-0.0859375","-13.625","4.0625","14.21875"
"1573641869795","219","0.22851562","-1.0595703","-0.12988281","-24.78125","-1.46875","10.71875"
"1573641870188","220","0.20117188","-1.0732422","-0.16015625","-32.65625","-6.0","20.0"
"1573641870189","221","0.19921875","-0.9921875","-0.09472656","-21.9375","-0.875","21.90625"
"1573641870189","222","0.087890625","-0.96777344","-0.17578125","-10.4375","-1.53125","28.5625"
"1573641870190","223","0.19628906","-0.9082031","-0.08105469","-22.78125","0.15625","18.71875"
"1573641870190","224","0.1640625","-0.89746094","-0.099609375","-9.40625","-6.5","6.46875"
"1573641870190","225","0.08886719","-0.97558594","-0.16210938","-12.46875","-3.5","9.5"
"1573641870190","226","0.1328125","-0.99902344","-0.17480469","-15.09375","-2.9375","5.21875"
"1573641870190","227","0.14257812","-1.0","-0.17382812","-13.6875","-0.3125","1.875"
"1573641870191","228","0.13085938","-0.98339844","-0.18066406","-14.71875","0.21875","-5.25"
"1573641870192","229","0.14746094","-0.9902344","-0.24316406","-15.53125","-1.71875","-3.1875"
"1573641870585","230","0.17285156","-0.9921875","-0.26757812","-12.90625","-2.875","-4.03125"
"1573641870586","231","0.10449219","-0.96777344","-0.2529297","-11.4375","3.59375","-4.78125"
"1573641870586","232","0.14746094","-0.9394531","-0.27148438","-6.125","-1.40625","0.0"
"1573641870586","233","0.17285156","-0.984375","-0.25097656","-6.25","-1.0625","0.46875"
"1573641870586","234","0.1171875","-0.96972656","-0.234375","-1.40625","-2.53125","-1.40625"
"1573641870587","235","0.12597656","-0.96875","-0.22753906","0.21875","-0.375","4.25"
"1573641870587","236","0.1015625","-0.9902344","-0.20800781","-0.75","1.9375","-0.5"
"1573641870587","237","0.10449219","-0.9765625","-0.22558594","1.75","1.5625","1.8125"
"1573641870587","238","0.09765625","-0.9667969","-0.20214844","0.15625","4.5625","-0.75"
"1573641870588","239","0.12792969","-0.9794922","-0.2109375","1.21875","5.34375","-1.0625"
"1573641871180","240","0.12207031","-0.9970703","-0.2265625","-1.40625","5.34375","-2.75"
"1573641871181","241","0.1640625","-0.9746094","-0.23730469","-1.71875","4.125","-3.4375"
"1573641871182","242","0.15722656","-0.96972656","-0.2421875","-0.1875","1.375","-5.3125"
"1573641871182","243","0.119140625","-0.9746094","-0.19726562","-1.65625","5.34375","-3.125"
"1573641871182","244","0.13769531","-0.984375","-0.2607422","0.78125","-0.8125","0.78125"
"1573641871183","245","0.14257812","-0.99316406","-0.23925781","1.21875","1.09375","-2.9375"
"1573641871183","246","0.13769531","-0.9609375","-0.21582031","1.09375","0.65625","-0.1875"
"1573641871183","247","0.1171875","-0.94628906","-0.22949219","3.90625","2.71875","0.03125"
"1573641871183","248","0.13476562","-0.98535156","-0.20605469","-2.09375","2.84375","2.0"
"1573641871184","249","0.140625","-0.9736328","-0.20410156","2.5625","3.90625","-1.34375"
"1573641871380","250","0.13671875","-0.98339844","-0.22070312","-0.1875","2.90625","-0.6875"
"1573641871380","251","0.13574219","-0.96972656","-0.18359375","2.84375","4.6875","-0.125"
"1573641871380","252","0.12597656","-0.9746094","-0.20507812","-1.40625","5.59375","-2.46875"
"1573641871381","253","0.18554688","-1.0185547","-0.20703125","-3.75","1.75","-2.03125"
"1573641871382","254","0.18457031","-1.0117188","-0.2529297","-1.46875","-3.875","-3.875"
"1573641871382","255","0.11621094","-0.99316406","-0.16113281","-3.0625","0.78125","-3.4375"
"1573641871382","256","0.119140625","-0.9511719","-0.20507812","2.4375","-2.8125","4.75"
"1573641871383","257","0.12890625","-0.97265625","-0.21972656","-1.0625","-2.59375","2.84375"
"1573641871383","258","0.12011719","-0.98339844","-0.21972656","0.03125","-2.28125","2.3125"
"1573641871383","259","0.0859375","-0.98828125","-0.22070312","0.28125","5.0625","0.90625"
"1573641871779","260","0.14160156","-0.9501953","-0.20703125","0.09375","4.5625","0.65625"
"1573641871779","261","0.14355469","-0.9921875","-0.22363281","-4.09375","3.9375","-5.03125"
"1573641871779","262","0.12792969","-1.0068359","-0.22753906","0.0","6.9375","-7.40625"
"1573641871780","263","0.1484375","-0.95996094","-0.18847656","3.78125","6.28125","-7.28125"
"1573641871780","264","0.15039062","-0.96191406","-0.16796875","4.0625","8.84375","-10.6875"
"1573641871781","265","0.18066406","-0.9580078","-0.203125","6.5625","5.21875","-6.90625"
"1573641871782","266","0.18457031","-0.97558594","-0.20019531","8.34375","0.90625","-12.53125"
"1573641871782","267","0.15820312","-0.9423828","-0.16503906","8.15625","4.875","-18.5625"
"1573641871782","268","0.22265625","-0.9638672","-0.1875","8.84375","-0.25","-10.5625"
"1573641871783","269","0.2763672","-1.0009766","-0.15136719","10.0","-4.40625","-20.03125"
"1573641872175","270","0.21484375","-0.97558594","-0.16992188","15.78125","-8.6875","-24.125"
"1573641872175","271","0.28027344","-0.9863281","-0.12890625","19.03125","-8.3125","-13.9375"
"1573641872175","272","0.22753906","-0.9560547","-0.123046875","14.8125","-12.09375","-23.625"
"1573641872175","273","0.20703125","-1.03125","-0.15820312","14.15625","-3.125","-17.21875"
"1573641872176","274","0.17285156","-1.0380859","-0.16015625","9.75","-1.0","-8.375"
"1573641872176","275","0.25390625","-0.9560547","-0.14453125","4.125","-2.03125","-10.15625"
"1573641872177","276","0.27246094","-0.9707031","-0.13671875","-2.625","-8.375","-12.40625"
"1573641872177","277","0.25","-0.9658203","-0.09765625","0.71875","0.15625","-19.53125"
"1573641872178","278","0.30859375","-0.9814453","-0.10644531","0.28125","-8.5625","-18.25"
"1573641872178","279","0.33203125","-0.95214844","-0.056640625","-5.625","0.03125","-30.46875"
"1573641872771","280","0.36914062","-0.9042969","-0.06542969","18.96875","-14.71875","-30.46875"
"1573641872772","281","0.16503906","-0.9394531","-0.10253906","15.0625","12.875","-21.125"
"1573641872772","282","0.29296875","-0.94628906","-0.09472656","7.25","11.59375","-15.53125"
"1573641872772","283","0.36132812","-0.9238281","-0.08203125","-9.15625","10.40625","-16.4375"
"1573641872773","284","0.40039062","-0.92089844","-0.06640625","-4.59375","4.25","-18.625"
"1573641872773","285","0.3720703","-0.9394531","-0.0625","-2.34375","6.625","-11.6875"
"1573641872773","286","0.3544922","-0.93066406","-0.09277344","-0.4375","4.0625","-5.625"
"1573641872773","287","0.39648438","-0.91503906","-0.06542969","-7.65625","9.09375","-6.3125"
"1573641872774","288","0.42773438","-0.9345703","-0.087890625","-5.625","6.5","-2.46875"
"1573641872775","289","0.4658203","-0.9169922","-0.09375","-8.1875","1.6875","-6.59375"
"1573641872971","290","0.43652344","-0.91503906","-0.11230469","-7.15625","0.0","-4.71875"
"1573641872971","291","0.42578125","-0.8671875","-0.13964844","-6.53125","-3.8125","-0.1875"
"1573641872972","292","0.42773438","-0.8876953","-0.07421875","-2.875","2.0625","1.625"
"1573641872972","293","0.36523438","-0.90625","-0.119140625","1.5","-2.03125","4.0"
"1573641872972","294","0.39257812","-0.95410156","-0.12792969","-1.25","-2.28125","5.78125"
"1573641872972","295","0.3828125","-0.9111328","-0.059570312","-5.3125","-5.625","3.40625"
"1573641872972","296","0.33398438","-0.89453125","-0.08105469","4.9375","-1.34375","5.34375"
"1573641872973","297","0.32910156","-0.92285156","-0.09472656","5.21875","2.0","8.90625"
"1573641872973","298","0.38476562","-0.9550781","-0.12109375","0.65625","3.46875","3.59375"
"1573641872973","299","0.41992188","-0.9707031","-0.1015625","-7.46875","-0.1875","-3.125"
"1573641873368","300","0.35351562","-0.921875","-0.08300781","-3.25","-1.46875","-2.875"
"1573641873370","301","0.35253906","-0.92871094","-0.125","-3.375","1.3125","2.71875"
"1573641873370","302","0.43066406","-0.91308594","-0.1015625","-6.375","-1.25","1.3125"
"1573641873371","303","0.3779297","-0.9189453","-0.09082031","-3.96875","-2.46875","-1.59375"
"1573641873371","304","0.35742188","-0.90234375","-0.15332031","-1.65625","1.4375","0.78125"
"1573641873371","305","0.38867188","-0.9121094","-0.07324219","0.40625","0.0","0.84375"
"1573641873372","306","0.38183594","-0.9248047","-0.099609375","6.09375","1.15625","1.6875"
"1573641873372","307","0.34277344","-0.9345703","-0.10546875","0.34375","0.65625","2.3125"
"1573641873372","308","0.33789062","-0.9111328","-0.076171875","1.6875","0.0","3.53125"
"1573641873373","309","0.31835938","-0.94140625","-0.12207031","1.5625","4.9375","5.0"
"1573641873765","310","0.36816406","-0.9140625","-0.055664062","-3.0625","3.28125","-0.625"
"1573641873766","311","0.3564453","-0.97558594","-0.13183594","1.6875","5.21875","-0.5"
"1573641873766","312","0.41210938","-0.96191406","-0.08300781","-5.625","4.75","-3.25"
"1573641873767","313","0.3515625","-0.9160156","-0.11816406","-4.59375","3.9375","-2.28125"
"1573641873768","314","0.38085938","-0.9404297","-0.09375","-3.5","5.96875","-3.375"
"1573641873768","315","0.3720703","-0.91796875","-0.091796875","-2.34375","1.3125","-2.53125"
"1573641873768","316","0.37304688","-0.93359375","-0.044921875","1.5625","0.15625","1.8125"
"1573641873768","317","0.3623047","-0.8955078","-0.087890625","8.09375","-1.0625","4.875"
"1573641873769","318","0.34570312","-0.9248047","-0.09277344","4.5","-2.53125","4.9375"
"1573641873769","319","0.35839844","-0.91796875","-0.06640625","3.28125","-3.1875","6.15625"
"1573641874164","320","0.28125","-0.98339844","-0.140625","6.9375","4.0","13.03125"
"1573641874164","321","0.35839844","-0.95214844","-0.051757812","-9.78125","4.375","14.75"
"1573641874165","322","0.30371094","-0.9609375","-0.15820312","2.0","0.78125","16.9375"
"1573641874165","323","0.3310547","-1.0498047","-0.091796875","-23.15625","9.5","19.34375"
"1573641874165","324","0.34570312","-0.8652344","-0.072265625","-13.4375","-1.40625","14.75"
"1573641874167","325","0.20800781","-0.9638672","-0.18945312","-16.1875","13.46875","28.3125"
"1573641874167","326","0.32226562","-0.9169922","-0.029296875","-14.0625","11.875","34.78125"
"1573641874167","327","0.19824219","-0.9921875","-0.15039062","-12.78125","12.0","27.5625"
"1573641874168","328","0.20410156","-1.1054688","-0.1484375","-21.9375","10.96875","38.625"
"1573641874168","329","0.23925781","-1.0488281","-0.080078125","-17.59375","8.96875","33.625"
"1573641874559","330","0.20507812","-0.9189453","-0.14746094","-13.875","2.25","22.125"
"1573641874560","331","0.17285156","-0.984375","-0.10058594","-19.125","4.0","25.9375"
"1573641874560","332","0.10253906","-0.9267578","-0.16796875","-11.0","7.3125","19.875"
"1573641874561","333","0.21386719","-0.9785156","-0.16210938","-14.84375","0.0","19.21875"
"1573641874561","334","0.09082031","-0.9326172","-0.119140625","-4.65625","0.78125","2.1875"
"1573641874561","335","0.029296875","-0.9453125","-0.203125","-4.03125","9.1875","2.65625"
"1573641874561","336","0.125","-1.0332031","-0.20117188","-9.28125","15.0","6.03125"
"1573641874562","337","0.099609375","-1.0009766","-0.23144531","-8.75","15.0","-9.21875"
"1573641874563","338","0.15234375","-1.0136719","-0.20507812","-14.90625","12.1875","-8.9375"
"1573641874563","339","0.16308594","-1.0","-0.24316406","-10.5","8.65625","-6.3125"
"1573641875159","340","0.20605469","-0.9609375","-0.24707031","-8.5","2.4375","-3.25"
"1573641875159","341","0.19042969","-0.9511719","-0.2578125","-5.375","-3.6875","-4.03125"
"1573641875159","342","0.13085938","-0.96191406","-0.2265625","-1.53125","-3.4375","0.40625"
"1573641875160","343","0.14257812","-0.96972656","-0.21777344","-2.28125","-1.34375","1.6875"
"1573641875160","344","0.17675781","-0.95410156","-0.19726562","-1.0","-8.3125","-1.46875"
"1573641875160","345","0.099609375","-0.9863281","-0.16894531","6.625","-6.0625","-2.875"
"1573641875161","346","0.083984375","-1.0185547","-0.20410156","1.21875","0.34375","5.90625"
"1573641875162","347","0.10839844","-0.9980469","-0.16601562","0.53125","4.8125","2.0625"
"1573641875162","348","0.14160156","-0.953125","-0.17773438","-0.375","0.28125","-4.03125"
"1573641875162","349","0.12695312","-1.0224609","-0.20996094","-0.75","7.625","-1.71875"
"1573641875753","350","0.14941406","-0.9707031","-0.19726562","-1.78125","7.4375","-4.53125"
"1573641875754","351","0.17382812","-0.9746094","-0.21386719","-0.625","7.0625","-5.15625"
"1573641875754","352","0.15136719","-0.9980469","-0.24902344","0.46875","4.0","-0.5625"
"1573641875755","353","0.14941406","-0.9794922","-0.2109375","2.375","7.5","-1.125"
"1573641875755","354","0.1484375","-0.97265625","-0.23828125","0.96875","3.53125","1.5625"
"1573641875755","355","0.13671875","-0.9501953","-0.19921875","2.65625","3.78125","-2.46875"
"1573641875755","356","0.1171875","-0.96972656","-0.18652344","3.53125","7.375","-1.1875"
"1573641875756","357","0.12207031","-0.9765625","-0.20800781","1.5625","5.53125","0.34375"
"1573641875756","358","0.12792969","-0.9824219","-0.14453125","-2.03125","7.84375","-3.0"
"1573641875756","359","0.15429688","-0.97558594","-0.17089844","0.40625","6.34375","-2.28125"
"1573641875954","360","0.17382812","-0.9970703","-0.1640625","0.78125","2.375","1.375"
"1573641875955","361","0.15429688","-0.97558594","-0.15234375","1.15625","2.0625","-3.0"
"1573641875956","362","0.125","-0.97558594","-0.19042969","2.1875","2.0","-1.34375"
"1573641875956","363","0.14355469","-1.0175781","-0.15917969","-4.59375","8.21875","-3.25"
"1573641875957","364","0.13867188","-0.9716797","-0.19140625","-3.6875","7.4375","-6.375"
"1573641875957","365","0.18261719","-0.9941406","-0.1875","-4.90625","5.59375","-2.875"
"1573641875957","366","0.17578125","-1.0068359","-0.17089844","-5.625","5.84375","-6.1875"
"1573641875958","367","0.2265625","-0.9824219","-0.20703125","-2.59375","1.6875","1.21875"
"1573641875958","368","0.18261719","-0.96484375","-0.18359375","-7.8125","-0.8125","-4.34375"
"1573641875958","369","0.17871094","-0.9765625","-0.19042969","-3.5","-4.84375","-0.6875"
"1573641876149","370","0.15332031","-0.9404297","-0.19433594","0.65625","-9.46875","1.8125"
"1573641876150","371","0.1171875","-1.0009766","-0.20507812","-1.71875","-2.6875","3.90625"
"1573641876150","372","0.12207031","-0.9863281","-0.21777344","2.1875","-5.5625","6.6875"
"1573641876151","373","0.13671875","-1.0009766","-0.20800781","-2.03125","0.40625","2.96875"
"1573641876152","374","0.15136719","-0.9824219","-0.2109375","2.3125","0.28125","-1.125"
"1573641876152","375","0.16015625","-0.9873047","-0.19335938","3.53125","1.03125","-0.4375"
"1573641876152","376","0.14550781","-0.95996094","-0.16113281","1.15625","0.09375","-2.75"
"1573641876152","377","0.15527344","-0.99121094","-0.16894531","7.3125","-0.4375","-0.875"
"1573641876153","378","0.11035156","-0.9277344","-0.14648438","7.25","0.53125","-5.15625"
"1573641876153","379","0.19238281","-0.9433594","-0.16894531","8.53125","-2.8125","-6.4375"
"1573641877142","380","0.12207031","-0.9394531","-0.11816406","9.75","-2.59375","-20.53125"
"1573641877142","381","0.22753906","-0.9980469","-0.20507812","11.75","-2.03125","-19.1875"
"1573641877143","382","0.26464844","-1.0380859","-0.12792969","10.40625","-3.625","-26.625"
"1573641877143","383","0.19433594","-0.9736328","-0.1328125","17.25","-6.375","-36.34375"
"1573641877143","384","0.20898438","-0.9873047","-0.08105469","22.5625","-2.28125","-21.9375"
"1573641877144","385","0.28027344","-0.97753906","-0.09667969","28.625","-9.46875","-26.625"
"1573641877145","386","0.26660156","-0.94628906","-0.0625","25.9375","-8.6875","-43.46875"
"1573641877145","387","0.25195312","-0.9814453","-0.1015625","20.5625","-3.5625","-37.78125"
"1573641877145","388","0.3330078","-1.0009766","-0.053710938","23.0","-6.53125","-35.84375"
"1573641877146","389","0.24511719","-0.92871094","-0.052734375","6.9375","3.71875","-35.96875"
"1573641877341","390","0.33691406","-0.9511719","-0.068359375","5.34375","7.375","-28.03125"
"1573641877342","391","0.3935547","-0.9326172","-0.03125","-0.6875","5.71875","-22.84375"
"1573641877342","392","0.3984375","-0.88183594","-0.024414062","3.15625","-4.15625","-14.34375"
"1573641877344","393","0.28515625","-0.95214844","-0.03125","-8.375","5.0","-10.5625"
"1573641877344","394","0.421875","-0.90234375","-0.00390625","-8.8125","0.03125","-10.875"
"1573641877344","395","0.4091797","-0.9169922","-0.053710938","-15.40625","-5.625","-5.75"
"1573641877344","396","0.5048828","-0.94628906","-0.08105469","-11.96875","-5.21875","-8.6875"
"1573641877346","397","0.4501953","-0.9082031","-0.068359375","-17.15625","-2.9375","-5.75"
"1573641877347","398","0.43652344","-0.8769531","-0.10644531","-9.65625","-3.5625","1.75"
"1573641877347","399","0.47265625","-0.8613281","-0.078125","-8.25","-2.75","-5.8125"
"1573641877347","400","0.4169922","-0.9169922","-0.14453125","-7.09375","0.15625","3.59375"
"1573641877348","401","0.44335938","-0.8808594","-0.07324219","-11.4375","1.09375","2.65625"
"1573641877348","402","0.4326172","-0.9189453","-0.13085938","-3.90625","0.84375","3.40625"
"1573641877348","403","0.4658203","-0.8798828","0.041015625","-6.4375","-7.46875","-3.25"
"1573641877349","404","0.27246094","-0.9160156","-0.07128906","13.78125","-5.875","9.8125"
"1573641877349","405","0.328125","-1.0117188","-0.19238281","4.75","-1.1875","16.90625"
"1573641877350","406","0.50390625","-0.9042969","-0.08105469","-21.6875","-2.875","-6.96875"
"1573641877350","407","0.36328125","-0.8847656","-0.059570312","-13.03125","-7.875","-6.0"
"1573641877350","408","0.3017578","-0.9296875","-0.19042969","-4.46875","-1.125","1.5"
"1573641877351","409","0.47851562","-0.94140625","-0.11328125","-10.09375","-0.875","0.90625"
"1573641877741","410","0.4873047","-0.9296875","-0.15820312","-9.78125","0.15625","-3.6875"
"1573641877741","411","0.36328125","-0.8330078","-0.123046875","-6.84375","-7.28125","0.0"
"1573641877742","412","0.36523438","-0.8876953","-0.15820312","-2.21875","4.0625","0.71875"
"1573641877742","413","0.42773438","-0.89746094","-0.07714844","-1.1875","4.5","2.1875"
"1573641877742","414","0.3701172","-0.9199219","-0.18652344","2.0625","1.3125","3.59375"
"1573641877742","415","0.4091797","-0.8857422","-0.06542969","0.90625","1.3125","0.40625"
"1573641877743","416","0.32910156","-0.93359375","-0.15820312","1.4375","2.25","6.21875"
"1573641877743","417","0.40039062","-0.92089844","-0.091796875","-0.4375","1.5","2.65625"
"1573641877743","418","0.35351562","-0.9482422","-0.15234375","2.96875","2.3125","4.6875"
"1573641877743","419","0.4111328","-0.91796875","-0.119140625","-4.71875","0.09375","2.71875"
"1573641878337","420","0.34570312","-0.9296875","-0.12988281","0.78125","0.84375","0.78125"
"1573641878339","421","0.3857422","-0.9404297","-0.1328125","-0.8125","4.375","2.0"
"1573641878340","422","0.40625","-0.8925781","-0.15039062","-5.5","5.1875","-2.03125"
"1573641878340","423","0.3935547","-0.9423828","-0.13183594","-6.96875","2.0","-5.3125"
"1573641878340","424","0.39648438","-0.90722656","-0.1171875","0.28125","6.8125","-1.0625"
"1573641878340","425","0.3876953","-0.9082031","-0.13085938","1.3125","6.6875","-0.5"
"1573641878341","426","0.39746094","-0.8886719","-0.08300781","3.90625","3.34375","2.0"
"1573641878341","427","0.3828125","-0.94628906","-0.14941406","6.03125","5.46875","7.90625"
"1573641878341","428","0.4013672","-0.91015625","-0.064453125","2.71875","0.46875","5.0"
"1573641878342","429","0.3154297","-0.9355469","-0.14941406","9.25","2.375","9.375"
"1573641878535","430","0.35546875","-0.9433594","-0.0625","0.90625","11.28125","10.0625"
"1573641878535","431","0.2861328","-0.9296875","-0.13476562","6.34375","8.90625","16.65625"
"1573641878536","432","0.3544922","-0.99121094","-0.11328125","-9.84375","20.5625","21.40625"
"1573641878537","433","0.41503906","-0.94140625","-0.078125","-4.90625","10.125","18.40625"
"1573641878537","434","0.28222656","-0.9716797","-0.18554688","-18.8125","10.65625","19.15625"
"1573641878538","435","0.3095703","-0.88964844","-0.0146484375","-13.75","10.125","29.34375"
"1573641878538","436","0.23046875","-0.94140625","-0.15136719","-3.625","5.1875","28.375"
"1573641878538","437","0.31347656","-1.0888672","-0.087890625","-11.84375","13.59375","33.84375"
"1573641878538","438","0.23925781","-1.0839844","-0.15625","-13.8125","5.96875","32.53125"
"1573641878539","439","0.2265625","-0.9511719","-0.11328125","-13.75","6.5","42.65625"
"1573641878933","440","0.16992188","-0.90234375","-0.038085938","-10.9375","5.34375","26.65625"
"1573641878933","441","0.12207031","-0.90527344","-0.08203125","-10.34375","6.8125","10.0625"
"1573641878933","442","0.15722656","-0.9628906","-0.09472656","-5.5625","1.625","15.96875"
"1573641878934","443","0.14648438","-0.9785156","-0.16015625","-3.75","4.5","2.78125"
"1573641878934","444","0.18066406","-1.0244141","-0.171875","-9.28125","5.71875","-3.125"
"1573641878935","445","0.14355469","-0.9746094","-0.16210938","-5.15625","5.46875","-6.84375"
"1573641878936","446","0.14648438","-0.96875","-0.20800781","-6.59375","5.0","-3.5625"
"1573641878936","447","0.22167969","-1.0029297","-0.171875","-16.3125","2.1875","-2.21875"
"1573641878936","448","0.203125","-0.9824219","-0.23730469","-10.03125","-6.3125","-10.6875"
"1573641878937","449","0.17871094","-0.9951172","-0.22070312","-5.75","-4.34375","1.625"
"1573641879331","450","0.21972656","-0.9902344","-0.22753906","-6.65625","-6.25","2.375"
"1573641879332","451","0.25878906","-0.9511719","-0.23046875","-8.9375","-7.21875","1.21875"
"1573641879332","452","0.15332031","-0.9199219","-0.13671875","-3.1875","-6.3125","-7.53125"
"1573641879332","453","9.765625E-4","-1.0009766","-0.15527344","2.0625","0.0","-0.9375"
"1573641879332","454","0.095703125","-1.0878906","-0.17382812","4.5625","5.46875","11.71875"
"1573641879333","455","0.2578125","-0.98046875","-0.11328125","-1.71875","8.65625","-5.09375"
"1573641879333","456","0.19140625","-0.87890625","-0.16601562","2.5625","2.5","-13.4375"
"1573641879334","457","0.09277344","-0.96875","-0.19433594","-4.53125","5.71875","9.03125"
"1573641879335","458","0.24804688","-1.0458984","-0.20605469","-4.78125","4.1875","-1.1875"
"1573641879335","459","0.21582031","-1.0478516","-0.24121094","-0.75","-0.1875","-11.71875"
"1573641879728","460","0.15332031","-0.9326172","-0.20703125","-4.09375","0.46875","-1.71875"
"1573641879728","461","0.20605469","-0.9716797","-0.20507812","-5.5","3.84375","3.21875"
"1573641879729","462","0.15722656","-0.9580078","-0.19726562","-2.21875","3.59375","-1.125"
"1573641879729","463","0.17285156","-0.95703125","-0.15234375","0.15625","1.21875","-1.53125"
"1573641879729","464","0.16796875","-0.96777344","-0.19726562","0.34375","-1.53125","-0.75"
"1573641879730","465","0.15332031","-0.9707031","-0.16992188","-1.78125","1.625","-0.875"
"1573641879730","466","0.16308594","-0.984375","-0.19140625","-3.0","3.65625","0.71875"
"1573641879730","467","0.18652344","-1.0078125","-0.19433594","-3.90625","5.40625","-0.75"
"1573641879730","468","0.19726562","-0.98046875","-0.1796875","-3.96875","3.34375","-5.75"
"1573641879732","469","0.23046875","-0.9794922","-0.18066406","-5.25","-1.25","-2.53125"
"1573641880124","470","0.18359375","-0.95996094","-0.1875","-0.5625","-3.3125","-2.9375"
"1573641880125","471","0.17675781","-0.96875","-0.19140625","0.03125","-5.09375","1.875"
"1573641880125","472","0.17773438","-0.9628906","-0.12695312","4.5","-6.53125","1.15625"
"1573641880125","473","0.09863281","-0.9736328","-0.20117188","6.40625","-4.96875","6.15625"
"1573641880126","474","0.13964844","-1.0175781","-0.19335938","3.40625","1.75","6.8125"
"1573641880126","475","0.18847656","-0.98828125","-0.19238281","1.03125","2.65625","-1.0"
"1573641880126","476","0.1796875","-0.95703125","-0.19921875","4.75","0.84375","-5.4375"
"1573641880126","477","0.15039062","-1.0146484","-0.20507812","2.125","7.625","-4.40625"
"1573641880127","478","0.18066406","-0.9716797","-0.20117188","6.34375","4.875","-2.34375"
"1573641880127","479","0.17089844","-0.9277344","-0.18261719","10.90625","8.90625","-10.09375"
"1573641880918","480","0.1640625","-0.93652344","-0.15039062","9.03125","9.375","-17.28125"
"1573641880920","481","0.25097656","-0.9628906","-0.140625","15.71875","7.5","-17.40625"
"1573641880920","482","0.21679688","-0.94921875","-0.107421875","13.15625","5.90625","-30.71875"
"1573641880920","483","0.26367188","-1.0107422","-0.091796875","21.90625","0.65625","-32.375"
"1573641880921","484","0.30664062","-1.0341797","-0.076171875","21.65625","-1.65625","-35.71875"
"1573641880921","485","0.26171875","-1.0175781","-0.064453125","23.65625","-4.59375","-42.0"
"1573641880921","486","0.30664062","-0.9453125","-0.030273438","25.4375","2.65625","-36.9375"
"1573641880922","487","0.33496094","-0.9423828","-0.0390625","18.65625","-3.875","-35.0625"
"1573641880922","488","0.3125","-0.9316406","-0.041015625","11.53125","-12.28125","-37.5625"
"1573641880922","489","0.23242188","-0.97753906","-0.00390625","2.25","9.25","-26.8125"
"1573641881115","490","0.39746094","-0.9238281","-0.01953125","6.5625","2.25","-14.125"
"1573641881116","491","0.38867188","-0.9160156","-0.064453125","-5.625","-4.59375","-17.40625"
"1573641881116","492","0.44726562","-0.90722656","-0.05078125","-10.09375","-4.28125","-9.90625"
"1573641881117","493","0.48632812","-0.88964844","-0.017578125","-15.40625","-8.875","-4.21875"
"1573641881117","494","0.40527344","-0.8769531","-0.047851562","-5.375","-8.875","-3.4375"
"1573641881117","495","0.3955078","-0.8671875","-0.0546875","-5.375","-2.625","-0.875"
"1573641881118","496","0.43847656","-0.94921875","-0.03515625","-3.8125","-4.03125","-1.0625"
"1573641881118","497","0.50390625","-0.89746094","-0.061523438","0.03125","-11.0625","2.3125"
"1573641881118","498","0.3408203","-0.8847656","-0.041992188","-9.15625","-6.3125","-6.0"
"1573641881118","499","0.43652344","-0.9355469","-0.15429688","-5.6875","-0.3125","-3.96875"
"1573641881317","500","0.45996094","-0.8984375","-0.07910156","-15.6875","-1.1875","0.53125"
"1573641881317","501","0.43945312","-0.9199219","-0.13964844","-7.28125","-1.0","2.84375"
"1573641881317","502","0.46777344","-0.8701172","0.046875","-8.4375","-7.8125","-2.21875"
"1573641881318","503","0.3095703","-0.93359375","-0.087890625","11.34375","-8.375","10.71875"
"1573641881318","504","0.3515625","-1.0039062","-0.18945312","-3.875","-2.75","14.625"
"1573641881319","505","0.5234375","-0.8935547","-0.0625","-20.875","-3.4375","-8.0625"
"1573641881320","506","0.3388672","-0.8466797","-0.0703125","-13.375","-10.4375","-4.09375"
"1573641881320","507","0.33789062","-0.9082031","-0.16113281","-6.1875","-0.375","0.84375"
"1573641881320","508","0.4736328","-0.91503906","-0.12890625","-6.59375","3.34375","-0.4375"
"1573641881320","509","0.4921875","-0.93066406","-0.13476562","-10.4375","-3.5625","0.71875"
"1573641881715","510","0.36816406","-0.8486328","-0.15625","-0.5625","0.21875","-2.21875"
"1573641881715","511","0.33691406","-0.8408203","-0.1015625","0.65625","2.0625","3.34375"
"1573641881716","512","0.41210938","-0.94628906","-0.15234375","2.84375","6.03125","3.59375"
"1573641881716","513","0.4326172","-0.93652344","-0.0625","0.78125","-1.40625","3.03125"
"1573641881716","514","0.3154297","-0.9082031","-0.15527344","2.90625","-2.34375","6.8125"
"1573641881716","515","0.3876953","-0.89453125","-0.119140625","0.34375","4.9375","4.9375"
"1573641881717","516","0.3798828","-0.94921875","-0.11816406","-2.28125","1.625","3.40625"
"1573641881718","517","0.40722656","-0.9609375","-0.15136719","2.96875","6.09375","2.84375"
"1573641881718","518","0.39257812","-0.8798828","-0.10644531","-3.625","2.59375","-1.0625"
"1573641881718","519","0.3857422","-0.9423828","-0.14160156","-3.6875","7.75","0.03125"
"1573641882508","520","0.4501953","-0.91796875","-0.080078125","-1.34375","5.71875","2.90625"
"1573641882510","521","0.3544922","-0.9013672","-0.1171875","5.34375","3.03125","6.21875"
"1573641882510","522","0.35546875","-0.89941406","-0.0546875","6.03125","9.9375","6.9375"
"1573641882510","523","0.38867188","-0.9238281","-0.1171875","9.6875","9.5","5.40625"
"1573641882511","524","0.3857422","-0.9267578","-0.05078125","7.90625","0.71875","8.46875"
"1573641882511","525","0.33984375","-0.9296875","-0.08691406","8.46875","4.0","14.625"
"1573641882511","526","0.3232422","-0.9511719","-0.099609375","4.3125","4.0","20.0"
"1573641882511","527","0.34472656","-0.9658203","-0.07519531","-3.90625","15.25","22.03125"
"1573641882512","528","0.31835938","-0.9658203","-0.14550781","-9.84375","7.3125","24.34375"
"1573641882513","529","0.33984375","-0.98046875","-0.0703125","-21.5","16.59375","20.125"
"1573641882906","530","0.24023438","-0.9433594","-0.0859375","-14.34375","5.46875","24.59375"
"1573641882906","531","0.20898438","-0.9472656","-0.13671875","-20.28125","22.5","30.125"
"1573641882906","532","0.2890625","-0.9267578","-0.0078125","-15.46875","13.78125","33.6875"
"1573641882906","533","0.15136719","-1.0712891","-0.20410156","-18.5625","19.625","27.875"
"1573641882907","534","0.3017578","-1.1083984","-0.107421875","-19.71875","14.5625","32.03125"
"1573641882907","535","0.18164062","-0.9189453","-0.14550781","-11.4375","-0.0625","26.84375"
"1573641882907","536","0.14941406","-0.94628906","-0.08691406","-10.9375","13.0","27.15625"
"1573641882907","537","0.18261719","-0.97753906","-0.087890625","-18.03125","0.78125","20.5"
"1573641882907","538","0.10449219","-0.9316406","-0.11425781","-7.28125","-3.6875","8.46875"
"1573641882908","539","0.10546875","-0.90234375","-0.15136719","-5.75","-3.90625","4.75"
"1573641883305","540","0.123046875","-0.9980469","-0.1796875","-8.75","0.65625","-1.0625"
"1573641883307","541","0.15234375","-1.0625","-0.22851562","-13.6875","2.5","-2.9375"
"1573641883308","542","0.16894531","-1.0029297","-0.21191406","-16.6875","3.9375","-7.15625"
"1573641883308","543","0.11816406","-0.9736328","-0.21777344","-15.40625","1.8125","-7.28125"
"1573641883308","544","0.16308594","-0.9345703","-0.18554688","-10.15625","1.375","-5.75"
"1573641883308","545","0.17382812","-0.9580078","-0.24511719","-12.09375","-5.625","-9.46875"
"1573641883309","546","0.12890625","-1.0048828","-0.24902344","-6.5","-6.3125","-6.25"
"1573641883309","547","0.15527344","-0.9873047","-0.27929688","-6.96875","2.0","2.25"
"1573641883309","548","0.26953125","-1.0136719","-0.28125","-10.15625","-4.40625","0.53125"
"1573641883310","549","0.21484375","-0.8955078","-0.23535156","-8.125","-0.9375","-11.125"
"1573641883502","550","0.07421875","-0.90625","-0.18066406","2.3125","0.15625","-4.09375"
"1573641883502","551","-0.0029296875","-1.0791016","-0.23535156","0.03125","5.59375","4.6875"
"1573641883502","552","0.20410156","-1.0761719","-0.19726562","3.03125","5.125","9.125"
"1573641883503","553","0.2421875","-0.8642578","-0.12890625","0.90625","8.59375","-14.84375"
"1573641883504","554","0.091796875","-0.9013672","-0.18945312","-0.1875","-3.625","-2.46875"
"1573641883504","555","0.15722656","-1.0224609","-0.25097656","-8.875","7.5","13.53125"
"1573641883504","556","0.22753906","-1.0380859","-0.24023438","0.71875","-2.46875","-12.46875"
"1573641883504","557","0.18652344","-1.0","-0.2626953","-2.21875","-0.0625","-8.1875"
"1573641883505","558","0.15722656","-0.9248047","-0.25585938","-1.90625","3.34375","-1.65625"
"1573641883505","559","0.16796875","-0.9394531","-0.24316406","-0.5625","5.71875","2.96875"
"1573641883702","560","0.18945312","-0.9501953","-0.23046875","3.53125","0.65625","-0.875"
"1573641883702","561","0.15039062","-0.9716797","-0.21289062","0.40625","-0.375","0.03125"
"1573641883703","562","0.14550781","-0.98046875","-0.20019531","3.34375","2.0625","0.46875"
"1573641883703","563","0.16503906","-0.99609375","-0.20898438","1.6875","1.15625","2.0625"
"1573641883703","564","0.140625","-0.9716797","-0.18359375","0.15625","2.0","-1.34375"
"1573641883704","565","0.18164062","-0.9765625","-0.203125","0.53125","3.21875","-1.46875"
"1573641883705","566","0.14160156","-0.9638672","-0.21191406","-0.625","5.28125","-0.9375"
"1573641883705","567","0.20898438","-1.0048828","-0.21191406","-4.28125","3.28125","-1.125"
"1573641883705","568","0.22851562","-0.9980469","-0.23242188","-3.3125","-2.28125","-8.0"
"1573641883705","569","0.19628906","-0.9580078","-0.21777344","1.03125","-7.34375","-4.15625"
"1573641884100","570","0.1328125","-0.9501953","-0.15820312","0.90625","-5.625","1.75"
"1573641884100","571","0.13085938","-0.9716797","-0.20800781","5.0625","-11.25","7.5"
"1573641884100","572","0.12792969","-1.0136719","-0.22167969","-0.4375","-1.40625","3.90625"
"1573641884101","573","0.119140625","-0.97558594","-0.20507812","3.21875","0.03125","3.03125"
"1573641884101","574","0.17285156","-0.9980469","-0.22851562","-0.6875","4.375","-0.4375"
"1573641884101","575","0.12890625","-0.9921875","-0.20800781","1.3125","4.6875","-4.53125"
"1573641884101","576","0.16015625","-0.9453125","-0.20507812","1.5","6.6875","-3.8125"
"1573641884103","577","0.1640625","-1.0097656","-0.21875","2.3125","7.375","-2.15625"
"1573641884103","578","0.140625","-0.94628906","-0.15820312","5.0625","10.25","-8.625"
"1573641884103","579","0.20605469","-0.92089844","-0.19921875","5.46875","6.21875","-0.5"
