"# PR data"
"# Start time: 20191114T112713"
"# Subject: jack"
"# Activity type: Walking"
"# Correctness: Correct"
"# Notes: "
""
"timestamp","seq","accel_x","accel_y","accel_z","gyro_x","gyro_y","gyro_z"
"1573730833325","0","0.265625","-0.9394531","-0.16210938","16.46875","-5.6875","-4.15625"
"1573730833326","1","0.34277344","-0.93652344","-0.13671875","20.1875","-13.0625","-2.8125"
"1573730833326","2","0.33691406","-0.9121094","-0.10253906","31.34375","-17.96875","0.46875"
"1573730833327","3","0.31445312","-0.9589844","-0.057617188","29.09375","-24.0","3.21875"
"1573730833327","4","0.33496094","-0.96191406","-0.10253906","23.59375","-25.03125","0.53125"
"1573730833327","5","0.32128906","-0.9824219","-0.07421875","21.09375","-27.125","2.65625"
"1573730833328","6","0.2783203","-0.9765625","-0.060546875","19.28125","-26.5","2.78125"
"1573730833328","7","0.3232422","-0.9404297","-0.10253906","20.96875","-29.6875","2.25"
"1573730833328","8","0.28808594","-0.9511719","-0.06542969","6.625","-27.65625","6.21875"
"1573730833329","9","0.19824219","-0.9970703","-0.05078125","-0.125","-20.9375","6.8125"
"1573730833724","10","0.13574219","-1.0605469","-0.01953125","6.21875","2.25","18.71875"
"1573730833724","11","0.07519531","-1.0478516","-0.018554688","7.625","17.0","28.90625"
"1573730833724","12","0.1796875","-0.9716797","-0.0703125","7.125","19.625","32.8125"
"1573730833725","13","0.12890625","-0.8359375","-0.08105469","34.96875","14.75","38.0"
"1573730833725","14","0.09277344","-1.0214844","-0.22460938","4.5625","23.4375","29.9375"
"1573730833725","15","0.37890625","-1.0839844","-0.12890625","-9.90625","20.25","4.5625"
"1573730833726","16","0.24121094","-1.0566406","-0.056640625","-0.375","10.3125","7.25"
"1573730833726","17","0.15722656","-0.9326172","-0.119140625","-3.125","-12.28125","-7.78125"
"1573730833726","18","0.18261719","-0.89160156","-0.16015625","-11.625","-12.34375","-8.5"
"1573730833726","19","0.14746094","-0.9501953","-0.18554688","-6.84375","-6.5","-19.375"
"1573730834122","20","0.25585938","-0.94628906","-0.068359375","-7.28125","-0.625","-27.0625"
"1573730834122","21","0.12988281","-0.74121094","0.09082031","12.1875","-24.96875","-13.9375"
"1573730834122","22","0.23632812","-0.93359375","0.045898438","3.21875","5.59375","7.5"
"1573730834123","23","0.025390625","-1.5654297","-0.25195312","-24.75","33.6875","-22.40625"
"1573730834123","24","0.0703125","-1.1171875","-0.13964844","-23.09375","33.0625","3.09375"
"1573730834125","25","0.23730469","-0.65527344","-0.10449219","-4.84375","19.15625","-11.0625"
"1573730834125","26","0.41992188","-0.8496094","-0.09277344","15.5625","14.5","-3.0"
"1573730834125","27","0.31347656","-0.94628906","-0.041015625","-1.71875","13.0","-1.53125"
"1573730834126","28","0.265625","-0.9638672","-0.036132812","-20.78125","12.0","2.4375"
"1573730834126","29","0.26757812","-0.92285156","-0.12109375","-10.5","14.8125","5.78125"
"1573730834717","30","0.30859375","-0.91796875","-0.13867188","-6.3125","11.46875","12.375"
"1573730834718","31","0.27148438","-0.9189453","-0.12402344","-11.0625","20.0","14.5"
"1573730834718","32","0.25976562","-0.8671875","-0.09082031","8.71875","26.46875","18.125"
"1573730834719","33","0.2783203","-0.89160156","-0.08984375","5.90625","21.15625","21.46875"
"1573730834719","34","0.29589844","-0.921875","-0.12890625","7.25","12.875","24.21875"
"1573730834719","35","0.34765625","-1.0458984","-0.13574219","8.84375","14.375","29.03125"
"1573730834719","36","0.2861328","-1.0566406","-0.1640625","4.0625","18.90625","34.90625"
"1573730834721","37","0.29492188","-1.1796875","-0.087890625","6.8125","27.15625","34.65625"
"1573730834721","38","0.22558594","-1.2490234","-0.2861328","-20.09375","-10.03125","48.625"
"1573730834722","39","0.20019531","-1.109375","0.20703125","0.09375","22.125","30.0625"
"1573730834915","40","-0.2841797","-1.1035156","0.12402344","-1.0625","10.3125","24.8125"
"1573730834915","41","-0.034179688","-1.1416016","-0.0107421875","-9.34375","0.71875","16.84375"
"1573730834915","42","-0.30371094","-1.3164062","0.053710938","-14.3125","12.875","9.375"
"1573730834916","43","0.08886719","-0.8574219","-0.07324219","-27.53125","-16.96875","-9.71875"
"1573730834916","44","0.16015625","-0.9267578","0.021484375","-7.40625","-20.15625","-3.96875"
"1573730834916","45","-0.2705078","-0.88964844","-9.765625E-4","3.15625","-19.0","-12.59375"
"1573730834916","46","-0.080078125","-0.84277344","-0.07714844","1.15625","-14.71875","-14.40625"
"1573730834917","47","0.0029296875","-0.75","-0.028320312","-4.84375","-7.65625","-17.53125"
"1573730834917","48","-0.00390625","-0.7626953","-0.08203125","3.65625","-16.0","-15.09375"
"1573730834918","49","-0.01953125","-0.7919922","-0.14355469","1.8125","-20.46875","-16.3125"
"1573730835313","50","0.030273438","-0.78125","-0.17285156","1.6875","-15.875","-16.0625"
"1573730835314","51","0.12792969","-0.8261719","-0.23339844","3.9375","-10.75","-21.625"
"1573730835314","52","0.19238281","-0.8544922","-0.15429688","15.5","-30.78125","-20.59375"
"1573730835314","53","0.1171875","-1.0087891","-0.08203125","21.09375","-20.53125","-19.53125"
"1573730835315","54","0.10644531","-1.2646484","-0.36132812","15.65625","-16.96875","-16.8125"
"1573730835315","55","0.671875","-1.2265625","-0.40820312","22.09375","-52.9375","-41.21875"
"1573730835316","56","0.25878906","-1.3066406","0.00390625","17.375","-21.75","-35.34375"
"1573730835316","57","-0.3544922","-1.3427734","0.22363281","50.78125","-26.0625","-28.46875"
"1573730835316","58","0.22949219","-0.8652344","0.20605469","42.28125","-25.15625","-5.875"
"1573730835316","59","0.19140625","-1.1816406","0.32714844","-55.625","-47.4375","-20.78125"
"1573730835712","60","-0.029296875","-1.5820312","0.08300781","-35.53125","24.03125","0.53125"
"1573730835714","61","-0.013671875","-1.0488281","0.17285156","-2.28125","30.9375","-19.1875"
"1573730835714","62","0.21191406","-0.7636719","0.07421875","-21.8125","18.28125","-11.5625"
"1573730835715","63","0.15527344","-0.82910156","0.028320312","-33.65625","15.78125","-4.46875"
"1573730835715","64","0.10546875","-0.63964844","0.048828125","-19.4375","10.65625","5.78125"
"1573730835715","65","0.13476562","-0.61328125","0.09375","-21.0625","27.75","6.21875"
"1573730835716","66","0.18847656","-0.6542969","0.0234375","2.96875","41.25","11.40625"
"1573730835716","67","0.2783203","-0.61621094","-0.19433594","5.40625","16.21875","13.71875"
"1573730835716","68","0.3330078","-0.765625","-0.2109375","-9.28125","3.84375","5.21875"
"1573730835716","69","0.31054688","-0.9501953","-0.14257812","-29.625","13.0","13.0"
"1573730836107","70","0.21191406","-1.4121094","0.21386719","6.21875","52.34375","38.6875"
"1573730836108","71","0.5292969","-1.3291016","-0.3232422","8.15625","18.90625","-0.5"
"1573730836108","72","0.63378906","-1.53125","-0.3857422","-59.03125","19.9375","11.71875"
"1573730836109","73","-0.39746094","-0.93652344","0.39941406","-20.40625","38.25","40.21875"
"1573730836109","74","-0.37597656","-1.0019531","0.23046875","6.28125","70.65625","0.71875"
"1573730836110","75","0.3310547","-1.4638672","-0.18066406","-36.15625","6.75","-17.53125"
"1573730836110","76","0.14648438","-1.4121094","0.15234375","-35.90625","5.84375","5.34375"
"1573730836110","77","-0.032226562","-0.9003906","-0.06738281","-21.9375","-29.875","-14.65625"
"1573730836110","78","0.16015625","-0.7675781","-0.036132812","12.4375","-24.0","1.75"
"1573730836111","79","0.05078125","-0.6064453","-0.041015625","38.375","-26.03125","-4.84375"
"1573730836505","80","-0.111328125","-0.6015625","-0.0625","20.5625","-9.59375","3.65625"
"1573730836505","81","0.026367188","-0.6357422","-0.09667969","14.5625","-3.625","0.09375"
"1573730836505","82","0.07324219","-0.6269531","-0.15332031","19.75","0.65625","-0.875"
"1573730836506","83","0.07910156","-0.8330078","-0.15722656","16.28125","10.375","-0.5625"
"1573730836506","84","0.20703125","-1.0126953","-0.11230469","12.375","0.34375","-8.125"
"1573730836507","85","0.12597656","-1.1855469","-0.12695312","13.03125","16.34375","-14.0"
"1573730836507","86","0.23828125","-1.703125","-0.328125","-2.6875","10.84375","2.125"
"1573730836507","87","0.7783203","-0.8652344","-0.32226562","-10.625","-42.5625","-53.0"
"1573730836508","88","0.10546875","-1.4042969","0.20703125","41.4375","-24.96875","-22.59375"
"1573730836508","89","0.055664062","-0.8847656","0.3076172","29.03125","-98.84375","-19.84375"
"1573730836904","90","0.09082031","-1.1171875","0.296875","-30.03125","-52.03125","-13.1875"
"1573730836904","91","0.032226562","-1.5566406","0.043945312","-34.75","20.4375","-0.1875"
"1573730836904","92","0.2705078","-1.1318359","0.05859375","7.375","15.65625","-15.8125"
"1573730836905","93","0.23925781","-0.6279297","0.041992188","12.0","-29.1875","-10.625"
"1573730836905","94","0.083984375","-0.60058594","0.07519531","22.4375","-33.53125","-5.5"
"1573730836905","95","0.13378906","-0.625","0.103515625","23.4375","-28.53125","10.84375"
"1573730836905","96","0.15820312","-0.68847656","0.09667969","3.03125","-5.625","10.71875"
"1573730836907","97","0.17480469","-0.75878906","-0.05078125","-4.21875","6.625","11.40625"
"1573730836907","98","0.328125","-0.78027344","-0.17089844","-12.09375","3.28125","13.96875"
"1573730836907","99","0.3095703","-1.0019531","-0.23632812","-3.5","-10.03125","8.84375"
"1573730837301","100","0.25390625","-1.2617188","-0.0087890625","-32.90625","37.9375","21.28125"
"1573730837302","101","0.49902344","-1.25","-0.14746094","0.28125","-2.6875","19.15625"
"1573730837302","102","0.33789062","-1.5439453","-0.06738281","-34.1875","25.0","-1.78125"
"1573730837302","103","-0.07128906","-1.0478516","0.28125","-25.59375","34.90625","19.21875"
"1573730837303","104","-0.20410156","-0.9082031","0.13378906","-4.59375","21.28125","8.34375"
"1573730837303","105","0.3466797","-1.3994141","-0.13671875","-41.46875","39.09375","-15.15625"
"1573730837303","106","0.3828125","-1.0644531","0.029296875","-13.375","7.75","5.65625"
"1573730837303","107","-0.16308594","-0.8828125","0.06933594","11.40625","0.28125","-13.9375"
"1573730837304","108","0.048828125","-0.83203125","-0.044921875","20.96875","-2.15625","0.65625"
"1573730837305","109","0.10644531","-0.61621094","-0.0390625","15.0","-11.25","5.21875"
"1573730837700","110","0.040039062","-0.69140625","-0.041015625","8.09375","-14.3125","6.15625"
"1573730837700","111","0.12597656","-0.74121094","-0.109375","12.4375","-10.4375","-3.0625"
"1573730837700","112","0.17285156","-0.73046875","-0.20214844","6.875","-15.6875","-9.40625"
"1573730837701","113","0.28222656","-0.79589844","-0.18164062","4.3125","-16.75","-18.03125"
"1573730837701","114","0.17285156","-1.0234375","-0.05078125","9.875","-23.4375","-18.4375"
"1573730837701","115","0.0546875","-1.5927734","-0.24414062","-12.84375","20.25","-4.65625"
"1573730837701","116","0.5576172","-1.2802734","-0.29296875","-1.34375","-26.375","-29.125"
"1573730837702","117","0.49023438","-1.0869141","0.15039062","42.65625","-21.9375","-30.84375"
"1573730837702","118","-0.10253906","-0.9238281","0.12695312","57.28125","-67.8125","-5.3125"
"1573730837702","119","0.13574219","-0.8642578","0.24316406","-31.15625","-56.15625","-11.0"
"1573730838095","120","0.21679688","-1.4755859","0.16894531","-58.71875","-10.75","0.90625"
"1573730838095","121","0.0029296875","-1.3203125","0.13476562","-1.34375","47.96875","-9.71875"
"1573730838095","122","0.21582031","-0.85546875","0.053710938","-21.875","6.75","-7.78125"
"1573730838096","123","0.24902344","-0.73535156","-0.05078125","-23.40625","-2.40625","-1.25"
"1573730838096","124","0.17675781","-0.6464844","0.013671875","1.15625","-5.09375","12.0625"
"1573730838096","125","0.14160156","-0.62890625","0.0390625","-11.4375","3.53125","11.9375"
"1573730838096","126","0.15917969","-0.7734375","-0.0625","5.46875","17.875","16.15625"
"1573730838097","127","0.2861328","-0.78027344","-0.15820312","9.25","11.8125","18.78125"
"1573730838097","128","0.30078125","-0.890625","-0.15429688","1.625","8.84375","17.1875"
"1573730838097","129","0.18457031","-1.0517578","-0.08105469","-30.53125","44.90625","27.09375"
"1573730838492","130","0.3876953","-1.2119141","0.045898438","37.53125","24.09375","31.96875"
"1573730838493","131","0.41796875","-1.375","-0.24414062","0.0","6.875","8.84375"
"1573730838493","132","0.30664062","-1.2880859","-0.24707031","-62.40625","41.84375","19.9375"
"1573730838494","133","-0.16699219","-0.8955078","0.23828125","4.9375","55.65625","35.09375"
"1573730838494","134","-0.14453125","-0.9707031","0.08300781","-33.65625","37.53125","8.21875"
"1573730838494","135","0.23339844","-1.6513672","-0.12695312","-22.21875","63.34375","-6.3125"
"1573730838495","136","0.12109375","-1.0585938","0.068359375","-15.9375","23.96875","-5.5625"
"1573730838495","137","0.068359375","-0.7675781","0.0","0.0","1.4375","-1.53125"
"1573730838495","138","0.095703125","-0.7216797","-0.08984375","3.9375","-6.3125","0.40625"
"1573730838495","139","0.0126953125","-0.6484375","-0.053710938","10.0625","3.21875","0.78125"
"1573730838892","140","-0.034179688","-0.71875","-0.08300781","-0.3125","7.84375","1.15625"
"1573730838892","141","0.07910156","-0.8144531","-0.14355469","6.46875","4.9375","-0.9375"
"1573730838893","142","0.13476562","-0.74902344","-0.17773438","-0.75","-0.75","-5.4375"
"1573730838893","143","0.20605469","-0.82128906","-0.23339844","1.5","-6.4375","-12.96875"
"1573730838893","144","0.20898438","-0.9765625","-0.076171875","12.0","-10.40625","-17.15625"
"1573730838895","145","0.059570312","-1.3398438","-0.20410156","-1.84375","7.96875","-15.28125"
"1573730838896","146","0.4169922","-1.4013672","-0.39648438","-8.4375","-26.4375","-30.59375"
"1573730838896","147","0.6201172","-1.1777344","0.15917969","10.78125","-18.5","-34.125"
"1573730838897","148","-0.125","-1.1171875","0.11230469","36.4375","-64.78125","-14.59375"
"1573730838897","149","0.14550781","-0.7783203","0.13769531","21.34375","-69.84375","-8.6875"
"1573730839289","150","0.08691406","-1.3564453","0.17089844","-66.40625","-37.75","-5.09375"
"1573730839289","151","-0.037109375","-1.5615234","0.048828125","6.8125","32.03125","-3.875"
"1573730839290","152","0.3330078","-0.7753906","0.0087890625","33.75","-8.875","-18.8125"
"1573730839290","153","0.20214844","-0.72753906","-9.765625E-4","23.71875","-15.8125","-9.0"
"1573730839290","154","0.107421875","-0.6669922","0.026367188","40.625","-20.71875","2.96875"
"1573730839290","155","0.16308594","-0.58691406","0.038085938","22.125","-11.90625","10.46875"
"1573730839290","156","0.20019531","-0.7607422","0.005859375","6.09375","3.34375","11.59375"
"1573730839292","157","0.20898438","-0.81640625","-0.060546875","4.375","8.34375","14.5"
"1573730839292","158","0.35253906","-0.8964844","-0.09277344","-3.625","9.1875","15.65625"
"1573730839293","159","0.16992188","-1.0605469","-0.033203125","-9.21875","19.9375","22.25"
"1573730839687","160","0.4453125","-1.0400391","0.043945312","13.15625","2.5","22.5"
"1573730839687","161","0.44726562","-1.2314453","-0.07128906","-29.3125","-12.96875","12.25"
"1573730839687","162","0.19335938","-1.4267578","-0.125","-40.71875","14.9375","16.28125"
"1573730839688","163","9.765625E-4","-1.046875","0.09472656","-10.21875","26.0","24.21875"
"1573730839688","164","-0.103515625","-0.84375","0.22363281","-7.53125","13.65625","-1.84375"
"1573730839688","165","-0.18847656","-1.5634766","-0.119140625","-60.0625","69.875","-0.625"
"1573730839688","166","0.4765625","-1.3623047","0.0087890625","-37.96875","29.34375","-11.4375"
"1573730839689","167","0.068359375","-0.82714844","0.020507812","-28.46875","11.09375","-14.65625"
"1573730839689","168","-0.064453125","-0.89941406","-0.038085938","3.46875","6.5625","8.15625"
"1573730839690","169","0.20898438","-0.62597656","-0.07128906","23.4375","-1.71875","-8.8125"
"1573730840283","170","-0.0078125","-0.578125","-0.036132812","13.65625","-4.40625","8.15625"
"1573730840284","171","0.0126953125","-0.71777344","-0.047851562","4.875","-4.53125","2.125"
"1573730840284","172","0.024414062","-0.74902344","-0.11425781","12.1875","-3.4375","0.21875"
"1573730840284","173","0.12011719","-0.78222656","-0.20800781","7.125","1.625","-2.53125"
"1573730840285","174","0.26757812","-0.9169922","-0.20703125","5.28125","-5.375","-11.3125"
"1573730840285","175","0.14648438","-1.1113281","-0.0078125","18.53125","3.09375","-16.9375"
"1573730840285","176","0.09375","-1.5878906","-0.3564453","9.6875","7.0","1.21875"
"1573730840286","177","0.7861328","-1.0908203","-0.27441406","-12.03125","-30.34375","-43.09375"
"1573730840286","178","0.09375","-1.2900391","0.35742188","20.4375","5.0","-30.40625"
"1573730840287","179","0.048828125","-0.7470703","0.15136719","8.40625","-79.0","-6.71875"
"1573730840480","180","0.06933594","-1.1484375","0.23535156","-50.90625","-48.71875","-8.4375"
"1573730840481","181","-0.034179688","-1.7099609","0.10253906","-46.09375","16.03125","-11.375"
"1573730840482","182","0.18847656","-1.0146484","-0.021484375","-11.71875","33.84375","-12.34375"
"1573730840482","183","0.35351562","-0.7792969","-0.04296875","8.40625","-21.0625","-7.28125"
"1573730840482","184","0.19140625","-0.7558594","-0.026367188","16.59375","-19.125","-7.875"
"1573730840482","185","0.061523438","-0.6230469","0.0703125","22.75","-7.40625","6.9375"
"1573730840483","186","0.10839844","-0.6923828","0.08691406","4.5625","16.84375","12.5"
"1573730840483","187","0.15039062","-0.7675781","-0.020507812","17.1875","20.1875","14.3125"
"1573730840484","188","0.32226562","-0.67871094","-0.14746094","15.65625","9.8125","13.15625"
"1573730840484","189","0.39257812","-0.890625","-0.18847656","0.84375","-1.84375","9.25"
"1573730840879","190","0.1640625","-1.1005859","-0.0107421875","-24.96875","30.8125","23.71875"
"1573730840879","191","0.4326172","-1.2949219","0.0078125","27.9375","16.9375","27.28125"
"1573730840880","192","0.390625","-1.2880859","-0.21191406","10.125","-0.75","1.15625"
"1573730840881","193","0.25976562","-1.2597656","-0.14648438","-45.3125","25.875","20.0"
"1573730840881","194","-0.09375","-0.8027344","0.34375","-5.6875","42.78125","22.125"
"1573730840882","195","-0.17871094","-1.0419922","-0.047851562","-39.375","23.53125","-4.09375"
"1573730840882","196","0.115234375","-1.8632812","-0.046875","-44.28125","61.5625","-2.59375"
"1573730840882","197","0.20898438","-0.99316406","0.07714844","-21.75","16.09375","-10.9375"
"1573730840882","198","0.13085938","-0.76464844","-0.0107421875","4.75","-7.59375","-6.3125"
"1573730840883","199","0.020507812","-0.7392578","-0.061523438","17.8125","-10.625","-3.5625"
"1573730841474","200","0.044921875","-0.59472656","-0.038085938","22.75","-10.875","0.0"
"1573730841474","201","0.0048828125","-0.6484375","-0.046875","9.5","-6.4375","2.125"
"1573730841475","202","0.1015625","-0.7910156","-0.09765625","13.59375","-3.125","0.0"
"1573730841475","203","0.13183594","-0.765625","-0.14355469","13.65625","-5.9375","-2.59375"
"1573730841475","204","0.18847656","-0.8173828","-0.19335938","7.1875","-7.65625","-8.8125"
"1573730841476","205","0.203125","-1.0615234","-0.029296875","12.0","-14.59375","-11.375"
"1573730841476","206","0.068359375","-1.3603516","-0.11328125","2.0","11.59375","-9.125"
"1573730841476","207","0.42089844","-1.3339844","-0.32714844","4.875","-29.5","-21.625"
"1573730841476","208","0.59375","-1.1708984","0.19335938","22.375","-5.875","-36.75"
"1573730841477","209","-0.14257812","-1.0097656","0.16796875","44.46875","-54.8125","-6.65625"
"1573730841672","210","0.109375","-0.75390625","0.27441406","16.21875","-49.09375","-4.90625"
"1573730841673","211","0.11328125","-1.4003906","0.27929688","-48.65625","-16.625","-2.9375"
"1573730841673","212","0.009765625","-1.6005859","0.107421875","-9.15625","30.625","1.3125"
"1573730841673","213","0.40820312","-0.75390625","0.021484375","44.46875","-5.09375","-15.9375"
"1573730841673","214","0.14257812","-0.63183594","0.103515625","27.75","-19.96875","-6.71875"
"1573730841674","215","0.078125","-0.67871094","0.111328125","27.15625","-15.21875","5.78125"
"1573730841674","216","0.12792969","-0.61621094","0.14550781","9.25","6.5625","10.59375"
"1573730841675","217","0.20410156","-0.7685547","0.06640625","-2.09375","19.6875","14.8125"
"1573730841676","218","0.29589844","-0.80078125","-0.0546875","-7.21875","16.71875","20.625"
"1573730841676","219","0.34960938","-0.85058594","-0.12109375","-13.03125","9.1875","16.65625"
"1573730842073","220","0.18457031","-1.0107422","0.047851562","-15.40625","15.375","16.21875"
"1573730842073","221","0.42382812","-1.1669922","0.0703125","-24.90625","20.125","20.375"
"1573730842074","222","0.34765625","-1.3955078","-0.020507812","-6.0625","7.1875","9.375"
"1573730842074","223","0.23730469","-1.2558594","-0.0078125","-54.8125","23.84375","11.28125"
"1573730842074","224","0.01953125","-0.8701172","0.28808594","-24.125","42.21875","25.0625"
"1573730842075","225","-0.21289062","-1.0410156","0.036132812","-21.8125","25.8125","4.0"
"1573730842075","226","0.18066406","-1.6357422","0.0068359375","-46.78125","41.78125","-24.0"
"1573730842075","227","0.28320312","-1.0458984","0.068359375","-27.53125","21.90625","-4.21875"
"1573730842075","228","-0.0625","-0.796875","0.068359375","-26.3125","3.53125","-6.84375"
"1573730842076","229","0.056640625","-0.69433594","-0.06933594","11.34375","-4.15625","0.21875"
"1573730842468","230","0.10644531","-0.578125","-0.041992188","11.875","-4.53125","0.96875"
"1573730842468","231","-0.05078125","-0.6699219","-0.064453125","-0.375","-0.25","4.8125"
"1573730842468","232","0.0625","-0.76464844","-0.11230469","3.59375","-2.40625","2.125"
"1573730842468","233","0.19140625","-0.73339844","-0.14746094","10.125","-10.5","-2.40625"
"1573730842469","234","0.20703125","-0.91308594","-0.18359375","11.28125","1.4375","-13.03125"
"1573730842469","235","0.13671875","-1.0761719","-0.0546875","18.84375","-12.28125","-15.75"
"1573730842469","236","0.115234375","-1.4326172","-0.18261719","6.03125","7.5625","-2.15625"
"1573730842469","237","0.58203125","-1.2382812","-0.3251953","-6.90625","-28.9375","-37.75"
"1573730842470","238","0.42871094","-1.3037109","0.29785156","20.625","-19.1875","-34.0625"
"1573730842470","239","-0.1484375","-0.8808594","0.20117188","6.21875","-82.59375","-7.8125"
"1573730842866","240","0.0146484375","-1.0322266","0.2421875","-62.5","-55.3125","-4.84375"
"1573730842868","241","0.13867188","-1.4921875","0.056640625","-52.375","6.8125","-14.46875"
"1573730842868","242","0.15429688","-1.0439453","-0.09667969","2.4375","14.21875","-11.90625"
"1573730842869","243","0.3095703","-0.77246094","-0.036132812","9.1875","-27.40625","-8.4375"
"1573730842869","244","0.15429688","-0.7392578","-0.0107421875","14.8125","-24.75","-7.65625"
"1573730842869","245","0.072265625","-0.64941406","0.0703125","12.6875","-8.9375","4.0"
"1573730842869","246","0.09863281","-0.71191406","-0.0048828125","-1.34375","7.5625","11.15625"
"1573730842870","247","0.16992188","-0.7792969","-0.06933594","-13.6875","26.0","21.03125"
"1573730842870","248","0.34472656","-0.73339844","-0.23925781","-2.40625","15.5","19.625"
"1573730842870","249","0.30566406","-0.92089844","-0.25","4.1875","20.96875","19.34375"
"1573730843264","250","0.2763672","-1.1767578","0.041015625","-9.90625","33.0","24.9375"
"1573730843264","251","0.4765625","-1.2539062","-0.27441406","6.40625","-6.96875","17.875"
"1573730843264","252","0.25878906","-1.5449219","-0.25390625","-16.875","39.40625","4.875"
"1573730843266","253","-0.017578125","-1.0498047","0.13183594","12.25","65.15625","24.21875"
"1573730843266","254","-0.09667969","-0.9423828","0.34570312","-3.96875","79.15625","6.03125"
"1573730843266","255","-0.1328125","-1.4785156","-0.13964844","-19.59375","42.53125","4.5625"
"1573730843267","256","0.22167969","-1.3076172","-0.038085938","-36.625","43.375","-1.3125"
"1573730843267","257","0.21777344","-0.89160156","0.047851562","-19.125","16.71875","-8.5625"
"1573730843267","258","-0.06640625","-0.8017578","-0.0048828125","14.15625","7.125","-2.28125"
"1573730843267","259","0.038085938","-0.6113281","-0.091796875","26.0","0.96875","-4.28125"
"1573730843660","260","-0.0029296875","-0.5810547","-0.048828125","13.71875","12.625","7.5"
"1573730843660","261","0.07324219","-0.6953125","-0.12402344","11.15625","10.375","3.09375"
"1573730843660","262","0.18652344","-0.6923828","-0.16992188","16.21875","1.625","1.5625"
"1573730843661","263","0.20898438","-0.7939453","-0.17773438","15.5625","-5.4375","-6.5"
"1573730843661","264","0.16796875","-1.0761719","-0.026367188","26.03125","-14.0625","-15.875"
"1573730843662","265","0.076171875","-1.2617188","-0.10546875","18.59375","-0.8125","-23.5"
"1573730843663","266","0.453125","-1.5810547","-0.26953125","-12.46875","-18.15625","-18.25"
"1573730843663","267","0.5253906","-1.2041016","0.19628906","18.71875","-24.125","-35.90625"
"1573730843663","268","-0.17285156","-1.1171875","0.23828125","7.0625","-65.5","-0.75"
"1573730843663","269","-0.030273438","-0.9355469","0.25878906","-29.1875","-59.40625","-10.75"
"1573730844057","270","0.2109375","-1.3886719","0.17871094","-22.53125","-19.53125","-8.875"
"1573730844058","271","0.07421875","-1.2177734","-0.032226562","4.0","24.34375","-9.34375"
"1573730844058","272","0.16113281","-0.7558594","-0.0048828125","5.53125","-2.46875","-2.625"
"1573730844058","273","0.20898438","-0.6425781","0.037109375","11.09375","-7.875","0.53125"
"1573730844058","274","0.11230469","-0.6015625","0.08984375","17.5","-7.71875","8.28125"
"1573730844059","275","0.12890625","-0.6669922","0.07910156","4.25","10.375","11.53125"
"1573730844059","276","0.20800781","-0.7919922","-0.020507812","-4.84375","20.4375","16.53125"
"1573730844060","277","0.31054688","-0.77734375","-0.13769531","-1.0625","14.5625","12.75"
"1573730844060","278","0.2861328","-0.9628906","-0.17675781","-23.40625","11.53125","18.78125"
"1573730844061","279","0.09277344","-1.2519531","0.08300781","-11.625","55.03125","32.875"
"1573730844650","280","0.5830078","-1.2451172","-0.2109375","2.1875","13.65625","15.71875"
"1573730844651","281","0.3779297","-1.4121094","-0.10839844","-1.25","33.625","4.0"
"1573730844651","282","-0.27441406","-1.2285156","0.32714844","-24.6875","53.34375","34.65625"
"1573730844651","283","0.026367188","-0.8642578","0.15625","-35.65625","25.0625","5.21875"
"1573730844651","284","0.06347656","-1.4550781","-0.10839844","-34.1875","50.8125","-10.75"
"1573730844652","285","0.07128906","-1.2832031","-0.041992188","-23.09375","21.90625","0.90625"
"1573730844652","286","0.21972656","-0.8671875","0.026367188","6.5625","7.90625","-13.875"
"1573730844652","287","0.05078125","-0.72265625","-0.028320312","29.65625","-12.09375","1.21875"
"1573730844652","288","0.02734375","-0.5283203","-0.048828125","37.875","-22.46875","-1.125"
"1573730844653","289","-0.03125","-0.6064453","-0.04296875","21.34375","-15.40625","5.34375"
"1573730844852","290","0.091796875","-0.7167969","-0.125","16.59375","-22.65625","3.71875"
"1573730844853","291","0.15527344","-0.7470703","-0.11816406","20.3125","-26.5625","-3.25"
"1573730844853","292","0.12792969","-0.8457031","-0.22265625","11.46875","-31.21875","-10.4375"
"1573730844853","293","0.19335938","-1.0712891","-0.043945312","16.84375","-34.4375","-16.5625"
"1573730844853","294","0.044921875","-1.3417969","-0.11816406","2.84375","-14.71875","-12.65625"
"1573730844854","295","0.3203125","-1.4521484","-0.29785156","-5.625","-34.3125","-18.09375"
"1573730844854","296","0.5566406","-1.1298828","0.20605469","33.96875","-20.21875","-41.15625"
"1573730844854","297","-0.23632812","-1.1894531","0.24609375","34.90625","-57.3125","4.4375"
"1573730844854","298","0.12402344","-0.8496094","0.26464844","17.3125","-64.21875","-5.3125"
"1573730844855","299","0.43359375","-1.3623047","0.16601562","-52.9375","-36.625","-22.0"
"1573730845251","300","-0.07714844","-1.4453125","0.08203125","-22.90625","13.90625","-8.6875"
"1573730845252","301","0.21484375","-0.74316406","0.10644531","6.5","-1.84375","-14.1875"
"1573730845252","302","0.1875","-0.62890625","0.01953125","-12.03125","-18.625","-5.15625"
"1573730845252","303","0.0703125","-0.6455078","0.052734375","1.15625","-12.71875","3.65625"
"1573730845253","304","0.12597656","-0.5957031","0.10546875","0.71875","1.5","9.25"
"1573730845253","305","0.17089844","-0.7988281","0.029296875","-11.0","24.59375","13.53125"
"1573730845253","306","0.24023438","-0.69921875","-0.12597656","6.21875","23.78125","12.375"
"1573730845255","307","0.33007812","-0.9296875","-0.23535156","-10.03125","25.625","18.21875"
"1573730845255","308","0.24316406","-1.0351562","0.07519531","-24.3125","43.25","21.65625"
"1573730845255","309","0.37304688","-1.3144531","-0.17871094","-26.125","12.8125","27.6875"
"1573730845648","310","0.20703125","-1.4853516","-0.14550781","-3.90625","64.4375","4.5625"
"1573730845649","311","-0.024414062","-1.0654297","0.19140625","-23.34375","57.46875","33.5625"
"1573730845649","312","-0.1640625","-0.96191406","0.3544922","7.625","81.65625","23.46875"
"1573730845650","313","-0.048828125","-1.3603516","-0.19726562","-24.84375","32.625","-7.59375"
"1573730845651","314","0.32714844","-1.3017578","0.07128906","-29.75","35.625","-1.90625"
"1573730845651","315","0.051757812","-1.015625","0.0859375","-4.71875","13.90625","-10.5"
"1573730845651","316","-0.040039062","-0.8886719","-0.045898438","-3.5","-0.25","-3.0625"
"1573730845652","317","0.103515625","-0.49804688","-0.06542969","15.125","-3.0625","-3.5"
"1573730845652","318","0.015625","-0.58496094","-0.047851562","17.4375","-3.5625","6.9375"
"1573730845652","319","-0.01953125","-0.6621094","-0.0859375","14.4375","-8.4375","3.65625"
"1573730846242","320","0.1328125","-0.65722656","-0.15625","11.21875","-9.78125","-0.3125"
"1573730846243","321","0.28027344","-0.7089844","-0.12597656","18.59375","-16.6875","-10.09375"
"1573730846243","322","0.15527344","-0.984375","-0.12402344","17.375","-15.75","-15.03125"
"1573730846243","323","0.10058594","-1.2529297","-0.07519531","9.875","-14.125","-15.59375"
"1573730846244","324","0.42871094","-1.5947266","-0.36035156","9.1875","-22.71875","-17.71875"
"1573730846245","325","0.6171875","-1.3066406","0.15722656","28.0625","-45.3125","-42.625"
"1573730846246","326","-0.23535156","-1.1914062","0.1640625","77.0625","-80.46875","-11.25"
"1573730846246","327","0.0146484375","-0.69921875","0.2109375","28.0625","-73.125","-5.4375"
"1573730846246","328","0.076171875","-1.3935547","0.2763672","-89.8125","-32.25","-11.5625"
"1573730846246","329","0.043945312","-1.6669922","0.053710938","-2.8125","33.125","-0.3125"
"1573730846442","330","0.36328125","-0.7080078","-0.026367188","24.71875","-21.6875","-24.125"
"1573730846443","331","0.045898438","-0.5546875","0.015625","27.21875","-19.375","-5.5"
"1573730846443","332","0.020507812","-0.7324219","0.107421875","32.8125","-7.15625","4.1875"
"1573730846443","333","0.12988281","-0.5703125","0.12109375","2.25","15.3125","7.5625"
"1573730846443","334","0.13867188","-0.75390625","-0.0048828125","-9.65625","39.0625","13.84375"
"1573730846444","335","0.30371094","-0.7314453","-0.123046875","-7.15625","30.125","13.0"
"1573730846444","336","0.3955078","-0.8955078","-0.12988281","-26.9375","24.65625","15.3125"
"1573730846446","337","0.2626953","-1.1328125","0.19238281","-27.71875","23.96875","17.0625"
"1573730846446","338","0.4140625","-1.3828125","-0.08886719","-9.34375","11.75","22.125"
"1573730846447","339","0.40429688","-1.4003906","-0.10058594","-16.0625","31.28125","-2.75"
"1573730846841","340","0.043945312","-1.1318359","0.32128906","9.125","9.6875","18.65625"
"1573730846842","341","-0.2529297","-0.82910156","0.4169922","11.59375","5.34375","14.3125"
"1573730846842","342","0.05859375","-1.4072266","-0.06640625","-47.6875","55.34375","-15.46875"
"1573730846842","343","0.15722656","-1.5537109","0.020507812","-22.59375","43.4375","14.625"
"1573730846843","344","0.09375","-0.8642578","0.07421875","-2.625","19.625","-25.53125"
"1573730846843","345","0.060546875","-0.72753906","0.009765625","16.90625","2.3125","1.15625"
"1573730846843","346","0.10644531","-0.5439453","-0.046875","28.5625","-2.8125","-6.5"
"1573730846843","347","0.040039062","-0.5107422","-0.009765625","20.25","-8.3125","7.6875"
"1573730846844","348","0.017578125","-0.67871094","-0.036132812","7.375","0.0","3.21875"
"1573730846844","349","0.08984375","-0.76660156","-0.15039062","0.65625","-3.3125","0.96875"
"1573730847239","350","0.23632812","-0.8251953","-0.15429688","6.5","-5.5625","-8.5"
"1573730847239","351","0.2939453","-1.0126953","0.07324219","20.5625","-11.90625","-18.15625"
"1573730847240","352","-0.041992188","-1.5810547","-0.17578125","-10.75","16.34375","-2.9375"
"1573730847240","353","0.5517578","-1.3164062","-0.23632812","-0.875","-34.1875","-33.65625"
"1573730847240","354","0.37597656","-1.1972656","0.3359375","48.4375","-3.96875","-28.21875"
"1573730847241","355","-0.20898438","-0.94628906","0.40429688","13.59375","-64.84375","22.9375"
"1573730847241","356","0.103515625","-1.1005859","0.40722656","-78.8125","-39.8125","-6.90625"
"1573730847241","357","0.265625","-1.6728516","0.10058594","-23.4375","22.25","-6.5"
"1573730847241","358","-0.016601562","-0.9746094","0.033203125","10.46875","17.625","-9.21875"
"1573730847242","359","0.23632812","-0.5410156","-0.047851562","11.65625","-8.875","-9.46875"
"1573730848230","360","0.19042969","-0.6376953","0.056640625","16.9375","-10.75","5.21875"
"1573730848232","361","-0.00390625","-0.5048828","0.115234375","10.65625","-1.46875","9.9375"
"1573730848233","362","0.15625","-0.6455078","0.10546875","-6.71875","22.875","11.9375"
"1573730848233","363","0.17773438","-0.70996094","-0.051757812","6.03125","24.8125","16.65625"
"1573730848233","364","0.41015625","-0.8125","-0.14648438","1.3125","9.25","14.75"
"1573730848234","365","0.22167969","-1.1894531","-0.044921875","-40.40625","30.125","23.0625"
"1573730848234","366","0.33984375","-1.2861328","0.08691406","27.8125","8.71875","29.90625"
"1573730848234","367","0.43945312","-1.3427734","-0.10546875","-2.625","6.625","-2.34375"
"1573730848234","368","0.16113281","-1.3105469","0.11816406","-62.9375","26.71875","12.875"
"1573730848235","369","-0.2763672","-0.8339844","0.32714844","8.59375","11.8125","16.90625"
"1573730848428","370","-0.14355469","-1.234375","-0.16992188","-33.21875","14.5625","-12.09375"
"1573730848428","371","0.31347656","-1.7294922","0.0546875","-34.6875","36.1875","-7.65625"
"1573730848429","372","0.07421875","-0.96777344","0.07519531","-0.875","13.90625","-15.21875"
"1573730848430","373","0.01171875","-0.765625","0.056640625","21.65625","-8.125","-8.0625"
"1573730848430","374","0.052734375","-0.53222656","-0.043945312","33.90625","-5.09375","-3.90625"
"1573730848430","375","0.049804688","-0.4814453","0.001953125","23.90625","-10.40625","6.09375"
"1573730848431","376","-0.06542969","-0.64746094","-0.020507812","15.125","-7.78125","5.59375"
"1573730848431","377","0.13769531","-0.6669922","-0.119140625","3.15625","-4.21875","-1.78125"
"1573730848431","378","0.1875","-0.8095703","-0.107421875","0.15625","-8.5","-3.25"
"1573730848431","379","0.16894531","-1.0546875","-0.0107421875","0.65625","-14.53125","-6.1875"
"1573730848826","380","0.048828125","-1.4111328","-0.15625","-11.0","11.34375","-15.15625"
"1573730848826","381","0.41015625","-1.5263672","-0.23632812","-18.09375","-4.59375","-20.28125"
"1573730848827","382","0.5751953","-1.0332031","0.3203125","48.03125","-3.375","-42.3125"
"1573730848827","383","-0.31640625","-0.9980469","0.421875","7.1875","-63.4375","5.21875"
"1573730848827","384","-0.064453125","-1.1367188","0.3125","-36.03125","-48.28125","8.71875"
"1573730848828","385","0.43359375","-1.4716797","0.087890625","-47.5625","4.625","-26.375"
"1573730848829","386","0.11035156","-1.2763672","0.06347656","3.84375","-8.25","-9.53125"
"1573730848829","387","0.15234375","-0.65234375","0.03515625","31.0625","-6.65625","-18.625"
"1573730848829","388","0.11328125","-0.63183594","0.076171875","25.5","-13.5625","-6.84375"
"1573730848830","389","0.055664062","-0.625","0.12597656","24.40625","-10.21875","4.0625"
"1573730849026","390","0.14453125","-0.6455078","0.12890625","4.0625","11.28125","12.375"
"1573730849026","391","0.19042969","-0.72753906","0.033203125","3.78125","23.84375","17.6875"
"1573730849027","392","0.31835938","-0.6767578","-0.115234375","6.6875","15.84375","14.375"
"1573730849027","393","0.31640625","-0.92578125","-0.15820312","-23.5625","24.71875","13.84375"
"1573730849027","394","0.32714844","-1.0859375","0.23535156","3.53125","13.71875","24.53125"
"1573730849027","395","0.41992188","-1.3886719","0.024414062","-45.5","0.90625","16.65625"
"1573730849028","396","0.45117188","-1.5234375","-0.23046875","-62.75","14.28125","-3.96875"
"1573730849029","397","-0.001953125","-1.0986328","0.27441406","6.8125","5.65625","15.96875"
"1573730849029","398","-0.36914062","-0.8876953","0.2626953","-25.59375","16.59375","4.5625"
"1573730849029","399","-0.0146484375","-1.4726562","-0.047851562","-58.1875","70.65625","-19.3125"
"1573730849425","400","0.32128906","-1.3710938","0.09765625","-22.0","28.0","10.375"
"1573730849425","401","0.14257812","-0.8955078","0.06933594","1.75","1.5625","-16.625"
"1573730849426","402","-0.07714844","-0.8466797","-0.0546875","12.25","0.21875","7.90625"
"1573730849426","403","0.09082031","-0.5625","-0.051757812","19.625","3.34375","-10.15625"
"1573730849426","404","0.076171875","-0.53125","0.0","2.3125","8.15625","5.46875"
"1573730849426","405","-0.01171875","-0.6357422","-0.038085938","-3.8125","10.3125","0.09375"
"1573730849427","406","0.11328125","-0.734375","-0.13183594","-3.0625","4.625","1.625"
"1573730849427","407","0.21679688","-0.77441406","-0.10449219","10.96875","-1.71875","-6.0625"
"1573730849427","408","0.2265625","-0.9794922","-0.12402344","5.28125","-1.53125","-7.59375"
"1573730849428","409","0.078125","-1.2675781","-0.07421875","17.5","6.15625","-18.5"
"1573730849821","410","0.28710938","-1.609375","-0.40527344","-6.0","6.625","-7.53125"
"1573730849822","411","0.7988281","-1.2021484","0.12597656","0.28125","-7.03125","-48.78125"
"1573730849822","412","-0.12597656","-1.1132812","0.1171875","34.21875","-70.5","-4.90625"
"1573730849822","413","-0.20019531","-0.93066406","0.35253906","-19.65625","-60.375","5.65625"
"1573730849822","414","0.1953125","-1.5546875","0.22167969","-47.5625","5.71875","-5.9375"
"1573730849823","415","0.14257812","-1.2822266","0.047851562","-26.375","49.375","-18.8125"
"1573730849823","416","0.21679688","-0.8388672","0.0234375","-11.0625","-0.0625","-7.46875"
"1573730849823","417","0.203125","-0.6689453","-0.013671875","9.875","-22.78125","-9.0625"
"1573730849824","418","0.111328125","-0.6064453","0.08691406","7.0625","-11.84375","4.6875"
"1573730849824","419","0.11816406","-0.5732422","0.09082031","-0.8125","5.34375","11.8125"
"1573730850220","420","0.20605469","-0.7607422","0.036132812","14.375","18.71875","14.75"
"1573730850221","421","0.30859375","-0.7158203","-0.10546875","21.34375","10.375","19.09375"
"1573730850222","422","0.36816406","-0.87402344","-0.13085938","0.34375","3.53125","16.90625"
"1573730850222","423","0.171875","-1.0664062","-0.015625","-16.4375","34.21875","27.5625"
"1573730850222","424","0.45898438","-1.1992188","-0.047851562","22.5625","9.25","31.28125"
"1573730850223","425","0.5078125","-1.3447266","-0.0859375","13.09375","-3.0625","6.03125"
"1573730850223","426","0.09472656","-1.3769531","0.041015625","-58.65625","31.84375","21.46875"
"1573730850223","427","-0.21386719","-0.99316406","0.23730469","-17.34375","44.34375","28.1875"
"1573730850224","428","-0.0048828125","-0.89453125","-0.07714844","-44.6875","5.34375","-7.40625"
"1573730850224","429","0.18554688","-1.6054688","-0.09375","-20.71875","30.625","-6.25"
"1573730850616","430","-0.0107421875","-1.1123047","0.09277344","-15.40625","9.09375","-13.0625"
"1573730850616","431","0.025390625","-0.94921875","0.0087890625","3.84375","-3.90625","-8.0625"
"1573730850617","432","0.046875","-0.6484375","-0.0703125","18.0625","-11.0625","-3.75"
"1573730850618","433","0.09277344","-0.5185547","-0.047851562","26.03125","-20.59375","0.90625"
"1573730850618","434","-0.03125","-0.65722656","-0.051757812","15.90625","-19.59375","9.125"
"1573730850618","435","0.051757812","-0.73535156","-0.15136719","8.65625","-15.34375","1.75"
"1573730850619","436","0.22265625","-0.73535156","-0.18652344","8.09375","-22.0625","-8.0"
"1573730850619","437","0.20996094","-0.84472656","-0.18359375","6.09375","-25.28125","-13.8125"
"1573730850619","438","0.08984375","-1.1171875","-0.034179688","29.15625","-39.625","-13.9375"
"1573730850619","439","0.072265625","-1.4658203","-0.296875","4.5","-3.1875","-10.8125"
"1573730851013","440","0.65234375","-1.3466797","-0.21972656","5.84375","-27.40625","-41.21875"
"1573730851014","441","0.1796875","-1.2978516","0.20019531","41.65625","-43.53125","-20.875"
"1573730851015","442","-0.20507812","-0.9921875","0.21972656","31.71875","-73.9375","3.09375"
"1573730851015","443","0.09863281","-1.0527344","0.30859375","-48.71875","-58.90625","-9.84375"
"1573730851031","444","0.22363281","-1.4580078","0.08886719","-24.75","6.75","-12.59375"
"1573730851032","445","0.016601562","-1.0605469","0.08496094","10.65625","-4.59375","-10.875"
"1573730851033","446","0.23632812","-0.6621094","0.05078125","21.84375","-6.0625","-12.78125"
"1573730851033","447","0.11035156","-0.67871094","0.10449219","33.3125","-8.3125","1.875"
"1573730851033","448","0.06640625","-0.59472656","0.15820312","13.71875","2.5","5.46875"
"1573730851033","449","0.171875","-0.70996094","0.095703125","1.5","23.46875","9.8125"
"1573730851413","450","0.17773438","-0.82128906","-0.0078125","-1.40625","30.625","19.21875"
"1573730851413","451","0.30078125","-0.71972656","-0.095703125","-10.875","22.03125","19.09375"
"1573730851414","452","0.23730469","-1.0175781","-0.045898438","-35.84375","43.9375","17.375"
"1573730851414","453","0.29785156","-1.1894531","0.040039062","-19.84375","28.5","20.4375"
"1573730851414","454","0.58203125","-1.2929688","-0.13671875","-20.78125","16.03125","13.96875"
"1573730851414","455","0.25976562","-1.4257812","-0.09472656","-61.90625","35.25","4.5625"
"1573730851415","456","-0.049804688","-1.1103516","0.12695312","-11.25","38.0","24.03125"
"1573730851416","457","-0.072265625","-0.8671875","0.24511719","-21.4375","20.90625","6.9375"
"1573730851417","458","-0.15429688","-1.6787109","-0.017578125","-33.46875","79.9375","-4.21875"
"1573730851417","459","0.40234375","-1.2080078","0.057617188","-11.5","33.3125","-2.46875"
"1573730851810","460","0.12402344","-0.85058594","0.0625","-11.25","11.65625","-17.09375"
"1573730851811","461","-0.08496094","-0.7138672","-0.0390625","8.84375","-1.71875","-0.25"
"1573730851811","462","0.12207031","-0.54296875","-0.049804688","17.75","0.65625","-4.34375"
"1573730851811","463","-0.03515625","-0.6542969","-0.07714844","2.96875","0.40625","8.15625"
"1573730851811","464","0.015625","-0.71972656","-0.10839844","-10.4375","-0.5625","-1.90625"
"1573730851812","465","0.14941406","-0.71972656","-0.1875","3.46875","-17.15625","-1.34375"
"1573730851812","466","0.25","-0.8232422","-0.11621094","18.1875","-9.46875","-10.75"
"1573730851812","467","0.12402344","-1.0585938","-0.009765625","28.0625","-7.28125","-11.3125"
"1573730851812","468","0.013671875","-1.3642578","-0.17675781","18.21875","6.03125","-7.15625"
"1573730851815","469","0.6425781","-1.4013672","-0.43164062","11.21875","-25.84375","-24.1875"
"1573730852207","470","0.62109375","-1.1806641","0.080078125","5.46875","-34.375","-45.0"
"1573730852207","471","-0.3720703","-1.1279297","0.16894531","61.875","-70.28125","-21.625"
"1573730852208","472","0.09472656","-0.8017578","0.2607422","-13.875","-49.15625","4.9375"
"1573730852208","473","0.020507812","-1.5849609","0.19140625","-49.40625","-15.03125","-12.40625"
"1573730852208","474","0.091796875","-1.2353516","-0.001953125","-22.0625","26.21875","-12.71875"
"1573730852208","475","0.20019531","-0.83691406","0.043945312","0.59375","-6.4375","-1.40625"
"1573730852209","476","0.20117188","-0.6738281","0.05078125","10.3125","-20.21875","-6.0625"
"1573730852209","477","0.11230469","-0.6035156","0.091796875","13.09375","-9.0625","4.5625"
"1573730852209","478","0.099609375","-0.6611328","0.10253906","-0.3125","14.75","12.625"
"1573730852209","479","0.13476562","-0.7705078","0.015625","4.5625","32.15625","18.96875"
"1573730852605","480","0.22265625","-0.7558594","-0.055664062","-7.46875","30.1875","22.375"
"1573730852606","481","0.3251953","-0.8457031","-0.16992188","-4.96875","23.46875","22.09375"
"1573730852606","482","0.21777344","-1.0605469","-0.041992188","-18.625","46.875","25.25"
"1573730852606","483","0.4951172","-1.2871094","-0.047851562","21.28125","3.90625","20.90625"
"1573730852606","484","0.33691406","-1.3417969","-0.13671875","-1.25","8.96875","5.90625"
"1573730852607","485","0.15136719","-1.265625","0.037109375","-51.65625","41.25","14.9375"
"1573730852607","486","-0.23339844","-0.85546875","0.21972656","-10.15625","35.875","22.8125"
"1573730852607","487","-0.140625","-1.2451172","-0.1328125","-33.9375","15.4375","-6.0625"
"1573730852607","488","0.37695312","-1.5605469","0.0078125","-24.25","25.875","-10.875"
"1573730852608","489","0.032226562","-0.9765625","0.051757812","-9.28125","0.84375","-12.46875"
"1573730853002","490","-0.015625","-0.921875","0.01171875","8.84375","-10.09375","-7.46875"
"1573730853003","491","0.08105469","-0.5732422","-0.047851562","33.0","-16.75","-5.25"
"1573730853003","492","-0.01171875","-0.5234375","-0.0029296875","24.9375","-17.53125","6.6875"
"1573730853003","493","-0.057617188","-0.69628906","-0.02734375","27.9375","-17.71875","4.8125"
"1573730853004","494","0.076171875","-0.70410156","-0.14257812","20.0625","-11.84375","1.6875"
"1573730853004","495","0.20410156","-0.765625","-0.061523438","14.3125","-11.3125","-0.5"
"1573730853004","496","0.17089844","-0.99902344","-0.10839844","-8.0","-4.84375","-12.28125"
"1573730853005","497","0.020507812","-1.2373047","-0.05078125","-9.46875","3.28125","-20.40625"
"1573730853005","498","0.18261719","-1.625","-0.3095703","-14.46875","12.8125","-1.125"
"1573730853005","499","0.6982422","-1.140625","-0.11230469","4.875","-19.0625","-49.34375"
"1573730853399","500","-0.001953125","-1.2148438","0.16894531","46.0625","-34.9375","-8.5625"
"1573730853399","501","-0.19335938","-0.8730469","0.29589844","32.09375","-57.4375","5.40625"
"1573730853400","502","0.19140625","-1.1679688","0.2705078","-52.75","-18.3125","-8.375"
"1573730853400","503","0.13769531","-1.5009766","0.026367188","-17.46875","24.28125","-7.71875"
"1573730853400","504","0.18554688","-0.93359375","0.026367188","22.5625","-4.84375","-8.1875"
"1573730853401","505","0.23925781","-0.63183594","0.08496094","13.90625","-13.875","-7.9375"
"1573730853402","506","0.051757812","-0.73046875","0.14453125","15.125","-13.5","3.59375"
"1573730853402","507","0.11328125","-0.63183594","0.12695312","3.46875","6.875","4.5625"
"1573730853402","508","0.20019531","-0.7792969","0.026367188","-3.96875","22.03125","16.40625"
"1573730853402","509","0.24414062","-0.7216797","-0.10644531","-4.15625","13.46875","13.15625"
"1573730853798","510","0.35058594","-0.75390625","-0.107421875","-14.3125","11.53125","14.625"
"1573730853798","511","0.14648438","-1.0644531","-0.001953125","-30.46875","30.25","17.1875"
"1573730853799","512","0.4091797","-1.2919922","0.0078125","-25.53125","33.96875","22.1875"
"1573730853799","513","0.3955078","-1.3232422","-0.087890625","-3.3125","12.0","0.0"
"1573730853799","514","0.09472656","-1.2607422","-0.08984375","-48.0625","16.78125","17.4375"
"1573730853800","515","-0.032226562","-0.8613281","0.3779297","6.09375","51.4375","22.3125"
"1573730853800","516","-0.33496094","-1.0996094","-0.09765625","-5.15625","19.40625","-0.1875"
"1573730853801","517","0.11328125","-1.6435547","-0.07324219","-32.1875","60.96875","-12.03125"
"1573730853802","518","0.23242188","-1.0234375","0.034179688","-25.96875","26.03125","-9.96875"
"1573730853802","519","-0.041992188","-0.8779297","0.055664062","-10.4375","13.59375","-10.9375"
"1573730854194","520","0.05078125","-0.7167969","-0.044921875","23.1875","3.46875","-5.5"
"1573730854194","521","0.043945312","-0.53125","-0.046875","9.5625","2.71875","-0.6875"
"1573730854195","522","-0.048828125","-0.6894531","-0.08203125","0.0","6.03125","7.0"
"1573730854195","523","0.09863281","-0.7158203","-0.14355469","-0.25","1.9375","2.375"
"1573730854195","524","0.17871094","-0.7470703","-0.13867188","17.5","-9.90625","-0.875"
"1573730854195","525","0.20507812","-0.92578125","-0.15722656","5.53125","-4.28125","-11.90625"
"1573730854196","526","0.07519531","-1.1699219","-0.0234375","19.28125","-4.34375","-21.6875"
"1573730854196","527","0.06347656","-1.6494141","-0.30566406","-3.875","7.84375","8.28125"
"1573730854196","528","0.8769531","-1.1689453","-0.15332031","-17.03125","-25.78125","-54.46875"
"1573730854198","529","0.005859375","-1.2324219","0.15234375","27.28125","-58.90625","-12.53125"
"1573730855186","530","-0.2890625","-1.0244141","0.25585938","6.40625","-66.25","0.65625"
"1573730855187","531","0.32421875","-1.1113281","0.2109375","-40.3125","-45.125","-21.25"
"1573730855187","532","0.09472656","-1.3642578","-0.0029296875","-12.40625","1.3125","-14.125"
"1573730855188","533","0.16601562","-0.88964844","-0.025390625","-0.6875","1.15625","-10.34375"
"1573730855188","534","0.21972656","-0.6767578","0.0048828125","7.3125","-30.34375","-1.3125"
"1573730855188","535","0.09863281","-0.6220703","0.07128906","16.46875","-26.5","1.5"
"1573730855188","536","0.11425781","-0.6513672","0.080078125","15.25","-8.6875","11.71875"
"1573730855189","537","0.16796875","-0.7871094","0.0068359375","9.5625","11.40625","14.875"
"1573730855189","538","0.21972656","-0.74316406","-0.08886719","3.21875","12.875","15.65625"
"1573730855189","539","0.31347656","-0.9033203","-0.234375","-13.03125","10.84375","17.5"
"1573730855384","540","0.103515625","-1.1708984","-0.017578125","-25.28125","51.25","28.65625"
"1573730855386","541","0.51660156","-1.0585938","-0.0625","34.46875","-6.96875","15.625"
"1573730855387","542","0.29589844","-1.3427734","-0.10449219","-15.9375","16.9375","11.28125"
"1573730855387","543","-0.072265625","-1.3115234","0.10546875","-48.96875","50.9375","20.125"
"1573730855388","544","-0.043945312","-0.85839844","0.2705078","-23.21875","39.59375","9.5"
"1573730855388","545","-0.05859375","-1.2958984","-0.12207031","-18.5","33.1875","-15.15625"
"1573730855388","546","0.080078125","-1.5615234","-0.09667969","-27.65625","26.71875","-1.96875"
"1573730855388","547","0.27929688","-0.8925781","0.001953125","-4.78125","11.09375","-16.375"
"1573730855389","548","0.053710938","-0.8798828","-0.016601562","16.46875","-9.46875","-3.0"
"1573730855389","549","-0.001953125","-0.56933594","-0.064453125","34.53125","-19.5","-7.71875"
"1573730855582","550","0.013671875","-0.5673828","-0.047851562","10.40625","-7.9375","6.6875"
"1573730855582","551","0.0234375","-0.70214844","-0.040039062","-24.25","16.34375","2.0"
"1573730855582","552","0.10058594","-0.76171875","-0.2265625","-23.8125","8.40625","-2.9375"
"1573730855583","553","0.25390625","-0.71191406","-0.17578125","3.28125","-14.46875","-12.78125"
"1573730855584","554","0.18457031","-0.8847656","-0.2578125","5.0","-17.78125","-14.65625"
"1573730855584","555","0.026367188","-1.1582031","-0.12109375","5.53125","-18.9375","-16.5625"
"1573730855584","556","0.16601562","-1.6074219","-0.4794922","-7.53125","0.65625","-5.15625"
"1573730855584","557","0.78222656","-1.2490234","-0.12988281","11.34375","-3.5625","-40.65625"
"1573730855585","558","0.09765625","-1.1875","-0.022460938","43.9375","-56.0","-8.0"
"1573730855585","559","-0.1171875","-0.8691406","0.15527344","30.0","-73.5625","-5.3125"
"1573730855784","560","0.19042969","-1.171875","0.3564453","-37.0625","-54.21875","-0.25"
"1573730855785","561","0.0048828125","-1.4521484","-0.059570312","-19.375","13.21875","-11.6875"
"1573730855785","562","0.2685547","-0.9121094","-0.10546875","17.6875","-9.15625","-13.75"
"1573730855785","563","0.32421875","-0.6904297","0.028320312","25.1875","-26.5","-6.90625"
"1573730855785","564","0.00390625","-0.7373047","0.07324219","27.4375","-27.65625","1.3125"
"1573730855787","565","0.14746094","-0.57910156","0.053710938","14.21875","-8.8125","1.8125"
"1573730855787","566","0.19726562","-0.7480469","-9.765625E-4","0.34375","1.375","11.59375"
"1573730855787","567","0.24707031","-0.7763672","-0.09277344","-9.34375","8.40625","10.0625"
"1573730855788","568","0.375","-0.7763672","-0.12597656","-1.84375","3.28125","8.90625"
"1573730855788","569","0.16308594","-1.15625","-0.068359375","-28.875","40.28125","20.5"
"1573730856181","570","0.32128906","-1.1298828","0.08984375","37.09375","10.84375","24.34375"
"1573730856181","571","0.6279297","-1.2246094","-0.1875","6.15625","2.65625","2.5"
"1573730856182","572","0.21679688","-1.3837891","-0.15527344","-53.96875","30.125","15.0625"
"1573730856182","573","-0.06347656","-0.9628906","0.18261719","-11.4375","35.1875","24.875"
"1573730856182","574","-0.12011719","-0.9238281","0.08886719","-16.0","17.0","2.3125"
"1573730856182","575","-9.765625E-4","-1.609375","-0.06738281","-21.3125","73.03125","0.0"
"1573730856182","576","0.3544922","-1.2080078","0.13574219","3.90625","19.46875","-6.25"
"1573730856184","577","-0.00390625","-0.8857422","0.052734375","-20.59375","4.6875","-10.5"
"1573730856184","578","-0.047851562","-0.8076172","-0.09472656","5.59375","12.5","-1.1875"
"1573730856184","579","0.12792969","-0.55078125","-0.060546875","12.9375","13.28125","-2.03125"
"1573730856578","580","0.016601562","-0.5800781","-0.08300781","8.28125","5.90625","8.03125"
"1573730856579","581","0.12207031","-0.765625","-0.07421875","12.0625","3.65625","-1.40625"
"1573730856579","582","0.15820312","-0.7949219","-0.19042969","21.09375","-5.21875","-6.71875"
"1573730856579","583","0.22167969","-0.828125","-0.11621094","12.1875","1.3125","-13.9375"
"1573730856580","584","0.22167969","-1.0244141","0.0107421875","23.53125","-0.875","-17.59375"
"1573730856580","585","0.0107421875","-1.2792969","-0.11425781","-2.53125","6.875","-15.6875"
"1573730856580","586","0.49609375","-1.46875","-0.2734375","-3.90625","-10.5625","-22.84375"
"1573730856580","587","0.5605469","-1.1865234","0.23046875","-1.53125","-22.125","-35.59375"
"1573730856580","588","-0.119140625","-0.90234375","0.20996094","-0.625","-67.59375","-3.1875"
"1573730856582","589","0.0029296875","-0.99316406","0.24023438","-54.65625","-50.375","-7.34375"
"1573730856979","590","0.09667969","-1.6445312","0.22753906","-13.0625","-1.3125","-9.0625"
"1573730856979","591","0.13769531","-1.1474609","-9.765625E-4","-7.21875","34.90625","-0.8125"
"1573730856980","592","0.2861328","-0.796875","-0.068359375","-1.78125","-2.9375","-10.34375"
"1573730856980","593","0.21777344","-0.66796875","0.030273438","-12.34375","-16.875","-3.3125"
"1573730856980","594","0.05078125","-0.54296875","0.047851562","5.46875","-3.0625","5.53125"
"1573730856980","595","0.16992188","-0.6748047","0.017578125","0.40625","18.53125","9.5625"
"1573730856981","596","0.21875","-0.7705078","-0.072265625","-1.1875","18.96875","14.375"
"1573730856981","597","0.28710938","-0.7363281","-0.15332031","9.5625","12.5","17.375"
"1573730856981","598","0.25097656","-0.9873047","-0.13574219","-24.375","28.78125","20.96875"
"1573730856981","599","0.37304688","-1.1259766","-0.005859375","13.03125","10.59375","21.59375"
"1573730857375","600","0.4794922","-1.3544922","-0.19628906","3.90625","1.5625","12.375"
"1573730857377","601","0.43066406","-1.3759766","-0.19726562","-35.0","40.75","4.8125"
"1573730857377","602","-0.24707031","-1.0917969","0.203125","-15.6875","55.53125","35.6875"
"1573730857378","603","-0.12695312","-0.8984375","0.18652344","-46.34375","51.5625","6.8125"
"1573730857378","604","0.20117188","-1.4765625","-0.25390625","-8.625","32.875","-11.4375"
"1573730857378","605","0.17578125","-1.2880859","0.09375","-21.0","20.625","-1.78125"
"1573730857378","606","-0.07910156","-0.95410156","0.0107421875","-14.46875","4.5","-15.09375"
"1573730857379","607","0.05859375","-0.7841797","-0.14355469","5.65625","2.84375","-8.4375"
"1573730857379","608","-0.015625","-0.47460938","-0.17285156","37.15625","3.46875","-6.25"
"1573730857379","609","0.09765625","-0.6308594","-0.080078125","2.65625","10.46875","5.40625"
"1573730857772","610","0.14746094","-0.81152344","-0.06933594","8.78125","-0.375","-0.6875"
"1573730857773","611","0.2783203","-0.7441406","-0.111328125","21.21875","-18.09375","-7.09375"
"1573730857773","612","0.29785156","-0.80859375","-0.21777344","18.71875","-32.71875","-15.40625"
"1573730857775","613","0.17480469","-1.0214844","-0.15136719","2.3125","-41.53125","-16.5625"
"1573730857775","614","0.1953125","-1.4003906","-0.28320312","-1.0","-9.40625","-7.09375"
"1573730857775","615","0.45214844","-1.3007812","-0.36914062","7.96875","-45.78125","-21.125"
"1573730857776","616","0.4794922","-1.3300781","0.10253906","-17.59375","-19.78125","-32.125"
"1573730857776","617","0.030273438","-1.03125","0.13574219","32.8125","-93.65625","-18.6875"
"1573730857776","618","-0.005859375","-0.9091797","0.22460938","5.28125","-74.65625","-10.15625"
"1573730857776","619","0.13964844","-1.3544922","0.099609375","-6.53125","-6.78125","-5.03125"
"1573730858170","620","-0.03125","-1.1533203","-0.016601562","15.5625","22.4375","0.28125"
"1573730858171","621","0.37109375","-0.7988281","-0.015625","16.28125","-6.59375","-2.53125"
"1573730858171","622","0.13085938","-0.6044922","0.017578125","32.75","-13.8125","1.875"
"1573730858172","623","0.091796875","-0.59472656","0.08886719","17.0","-4.84375","1.5625"
"1573730858172","624","0.12988281","-0.7529297","0.04296875","8.03125","21.03125","8.71875"
"1573730858173","625","0.16113281","-0.8886719","-0.064453125","-4.21875","45.875","17.0625"
"1573730858173","626","0.3544922","-0.7988281","-0.12792969","-13.6875","32.8125","13.71875"
"1573730858173","627","0.3203125","-0.9316406","-0.15332031","-20.40625","23.125","11.03125"
"1573730858173","628","0.24121094","-1.0576172","0.017578125","-3.375","33.1875","21.40625"
"1573730858174","629","0.53125","-1.2041016","-0.09765625","-4.03125","20.6875","18.28125"
"1573730858566","630","0.3388672","-1.2685547","-0.17382812","2.78125","11.03125","0.21875"
"1573730858567","631","0.1015625","-1.1689453","0.0625","-32.5","23.25","18.78125"
"1573730858567","632","-0.18261719","-0.89160156","0.40039062","-5.625","37.34375","23.53125"
"1573730858567","633","-0.11035156","-1.234375","-0.18457031","-29.875","52.90625","-0.25"
"1573730858567","634","0.40625","-1.5898438","-9.765625E-4","-27.34375","19.34375","-6.65625"
"1573730858568","635","0.10253906","-0.94433594","0.0703125","12.0625","2.375","-2.75"
"1573730858568","636","-0.016601562","-0.8720703","-0.009765625","21.40625","0.46875","2.65625"
"1573730858569","637","0.040039062","-0.6425781","-0.044921875","32.46875","6.6875","3.21875"
"1573730858569","638","0.034179688","-0.58203125","-0.052734375","17.3125","8.59375","9.5625"
"1573730858569","639","0.047851562","-0.70996094","-0.080078125","-3.5","14.875","7.6875"
"1573730858965","640","0.12207031","-0.8066406","-0.09472656","0.0","5.90625","5.0"
"1573730858965","641","0.13574219","-0.8691406","-0.14355469","11.40625","2.1875","-7.71875"
"1573730858966","642","0.20410156","-0.94628906","-0.14257812","-2.40625","15.65625","-18.5"
"1573730858966","643","0.13183594","-1.0058594","0.051757812","-4.34375","-5.21875","-23.21875"
"1573730858966","644","0.12695312","-1.5380859","-0.30664062","10.375","2.0","7.375"
"1573730858966","645","0.7636719","-1.1708984","-0.20117188","-4.59375","-57.03125","-37.90625"
"1573730858967","646","0.10546875","-1.3125","0.30078125","20.25","-18.21875","-28.53125"
"1573730858967","647","-0.07519531","-0.6660156","0.10839844","50.53125","-76.75","1.21875"
"1573730858967","648","0.19140625","-0.9423828","0.30078125","-27.96875","-50.5","-7.34375"
"1573730858968","649","0.10253906","-1.5654297","0.09863281","-30.96875","19.8125","-14.78125"
"1573730859362","650","0.17480469","-1.1191406","0.034179688","-32.65625","5.84375","-15.59375"
"1573730859363","651","0.24902344","-0.79003906","0.068359375","-28.9375","-26.25","-8.75"
"1573730859363","652","0.095703125","-0.71191406","-0.0234375","-3.90625","-22.0625","-9.53125"
"1573730859364","653","0.09472656","-0.6503906","0.05078125","1.03125","-7.875","9.375"
"1573730859364","654","0.15820312","-0.734375","0.064453125","-9.46875","10.125","12.5"
"1573730859365","655","0.21484375","-0.7734375","-0.045898438","-11.78125","18.90625","18.0"
"1573730859365","656","0.28808594","-0.73828125","-0.15625","19.75","18.34375","16.15625"
"1573730859365","657","0.3046875","-0.9326172","-0.17382812","-18.25","23.46875","16.34375"
"1573730859365","658","0.24902344","-1.0498047","0.14257812","3.78125","28.125","22.5625"
"1573730859366","659","0.35839844","-1.3339844","-0.15722656","-21.5","8.15625","21.46875"
"1573730859760","660","0.39648438","-1.4492188","-0.25195312","-34.3125","58.6875","9.125"
"1573730859762","661","0.009765625","-1.1279297","0.12207031","11.28125","57.71875","28.0625"
"1573730859762","662","-0.0546875","-0.93359375","0.38671875","-9.46875","67.25","10.59375"
"1573730859763","663","-0.09667969","-1.2900391","-0.171875","-5.4375","31.25","5.21875"
"1573730859763","664","0.3095703","-1.2783203","-0.05078125","-25.28125","24.34375","-3.125"
"1573730859763","665","0.10253906","-1.0039062","0.068359375","-2.09375","-1.71875","-4.09375"
"1573730859764","666","-0.08105469","-0.9033203","-0.0048828125","15.5625","-1.0625","2.96875"
"1573730859764","667","0.10449219","-0.5703125","-0.059570312","22.5","-10.34375","0.90625"
"1573730859764","668","0.025390625","-0.6230469","-0.009765625","22.5625","-6.5","11.15625"
"1573730859765","669","-0.0068359375","-0.7451172","-0.08300781","22.625","-10.09375","6.8125"
"1573730860156","670","0.068359375","-0.76171875","-0.13378906","13.65625","-8.8125","3.90625"
"1573730860156","671","0.20019531","-0.82714844","-0.15820312","10.96875","-18.4375","-5.5625"
"1573730860157","672","0.1953125","-0.95703125","-0.12890625","11.21875","-14.53125","-13.0625"
"1573730860158","673","-0.001953125","-1.1425781","-0.03125","6.75","-12.28125","-16.8125"
"1573730860158","674","0.06542969","-1.5634766","-0.22363281","-4.90625","-4.15625","0.0"
"1573730860159","675","0.8173828","-1.0234375","-0.31445312","14.5625","-61.21875","-54.15625"
"1573730860159","676","0.13867188","-1.2587891","0.2861328","48.03125","-42.125","-24.1875"
"1573730860159","677","-0.20019531","-0.80078125","0.29101562","40.34375","-92.0","-13.5"
"1573730860159","678","0.12207031","-1.0625","0.29882812","-39.25","-37.6875","-4.96875"
"1573730860160","679","0.13671875","-1.4755859","0.0625","-27.125","12.3125","-4.53125"
"1573730860555","680","0.171875","-1.1103516","0.045898438","5.0625","-2.15625","-10.625"
"1573730860556","681","0.3173828","-0.7421875","0.05859375","27.4375","-26.4375","-3.4375"
"1573730860556","682","9.765625E-4","-0.703125","0.109375","31.71875","-12.40625","0.78125"
"1573730860556","683","0.064453125","-0.6269531","0.107421875","19.09375","-7.09375","9.125"
"1573730860556","684","0.23144531","-0.74609375","0.10253906","1.75","12.5","13.59375"
"1573730860557","685","0.21875","-0.83496094","0.0107421875","0.84375","16.53125","16.78125"
"1573730860558","686","0.3017578","-0.8125","-0.044921875","-0.4375","12.3125","16.65625"
"1573730860558","687","0.1953125","-1.0029297","-0.046875","-28.03125","31.34375","18.28125"
"1573730860558","688","0.19140625","-1.1953125","0.11035156","-12.90625","28.90625","20.6875"
"1573730860559","689","0.55078125","-1.1679688","-0.0859375","-17.46875","21.34375","6.03125"
"1573730860951","690","0.21289062","-1.3574219","-0.061523438","-45.59375","33.75","10.84375"
"1573730860952","691","-0.1484375","-1.1162109","0.13769531","-19.125","43.625","20.25"
"1573730860952","692","-0.0859375","-0.9404297","0.13867188","-20.59375","36.4375","3.40625"
"1573730860952","693","-0.017578125","-1.3603516","-0.034179688","-54.59375","69.0625","-6.78125"
"1573730860953","694","0.16992188","-1.3232422","0.037109375","-17.65625","36.96875","-1.0625"
"1573730860953","695","0.021484375","-1.0214844","0.016601562","0.40625","24.46875","-8.5625"
"1573730860953","696","0.0078125","-0.8310547","-0.05859375","18.53125","19.5625","-3.0"
"1573730860954","697","0.0703125","-0.6015625","-0.06542969","28.78125","16.34375","-8.25"
"1573730860954","698","0.028320312","-0.578125","-0.015625","7.5","26.65625","0.65625"
"1573730860955","699","-0.0126953125","-0.6621094","-0.064453125","-7.53125","22.375","1.4375"
"1573730861548","700","0.15820312","-0.8046875","-0.24902344","-37.0625","11.21875","3.46875"
"1573730861548","701","0.28125","-0.7998047","-0.22265625","-0.375","-3.125","-10.4375"
"1573730861548","702","0.15917969","-0.9628906","-0.00390625","2.71875","0.21875","-12.78125"
"1573730861548","703","-0.025390625","-1.3164062","-0.18554688","-0.8125","8.96875","-10.875"
"1573730861549","704","0.56347656","-1.4238281","-0.3544922","-13.625","-22.84375","-23.8125"
"1573730861549","705","0.5107422","-1.2666016","0.1640625","-30.46875","-32.0","-32.375"
"1573730861549","706","-0.20605469","-1.046875","0.16796875","28.375","-68.8125","-16.1875"
"1573730861550","707","-0.0126953125","-0.9638672","0.16992188","-5.21875","-59.65625","-2.8125"
"1573730861550","708","0.19042969","-1.4599609","0.18457031","-30.03125","-25.71875","-18.4375"
"1573730861550","709","0.0107421875","-1.1992188","-0.099609375","-16.5","16.71875","-10.625"
"1573730861746","710","0.28710938","-0.83203125","-0.017578125","-7.40625","-17.21875","-6.1875"
"1573730861747","711","0.16113281","-0.7011719","-0.03515625","21.84375","-44.5625","-4.03125"
"1573730861747","712","0.061523438","-0.5966797","0.02734375","13.90625","-23.40625","0.0"
"1573730861748","713","0.10449219","-0.6542969","0.026367188","-2.9375","4.5","7.90625"
"1573730861748","714","0.20019531","-0.7597656","-0.028320312","1.6875","15.96875","15.0625"
"1573730861748","715","0.26757812","-0.7998047","-0.12011719","14.9375","10.46875","15.625"
"1573730861748","716","0.29492188","-0.98046875","-0.22558594","-9.78125","11.75","15.71875"
"1573730861749","717","0.15136719","-1.1503906","-0.015625","-25.03125","45.34375","24.53125"
"1573730861749","718","0.453125","-1.1816406","-0.22460938","7.25","1.75","20.3125"
"1573730861749","719","0.30078125","-1.484375","-0.1484375","-15.03125","31.78125","2.1875"
"1573730862143","720","-0.24414062","-1.1494141","0.111328125","-41.03125","74.09375","22.5"
"1573730862145","721","0.061523438","-0.8613281","0.16113281","-26.625","71.09375","13.40625"
"1573730862145","722","0.083984375","-1.2744141","-0.0625","-20.84375","28.0","-8.8125"
"1573730862145","723","0.08105469","-1.4042969","-0.1484375","-59.59375","18.0625","-7.78125"
"1573730862146","724","0.17675781","-0.953125","-0.036132812","-27.25","7.3125","-10.09375"
"1573730862146","725","0.06542969","-0.85546875","-0.016601562","26.71875","-2.28125","-7.78125"
"1573730862146","726","0.03125","-0.57128906","-0.087890625","43.0","-26.875","-6.53125"
"1573730862146","727","0.055664062","-0.6152344","-0.15429688","30.1875","-24.625","1.09375"
"1573730862147","728","0.0859375","-0.7265625","-0.12988281","21.84375","-17.15625","-3.375"
"1573730862147","729","0.0146484375","-0.76953125","-0.18261719","20.8125","-16.5","-3.8125"
"1573730862543","730","0.18945312","-0.78027344","-0.18066406","19.46875","-16.125","-7.71875"
"1573730862544","731","0.28710938","-0.9423828","-0.20996094","20.75","-12.96875","-15.28125"
"1573730862544","732","0.06542969","-1.0976562","-0.036132812","17.4375","-14.3125","-10.09375"
"1573730862544","733","0.11328125","-1.5039062","-0.34277344","-15.21875","-0.8125","-2.8125"
"1573730862545","734","0.78027344","-1.1337891","-0.33007812","-6.90625","-58.125","-48.71875"
"1573730862545","735","0.13964844","-1.2431641","0.18652344","24.65625","-30.09375","-37.0"
"1573730862546","736","-0.053710938","-0.7470703","0.18164062","38.0","-90.65625","-17.40625"
"1573730862546","737","0.06640625","-1.1445312","0.28222656","-33.09375","-55.8125","-0.125"
"1573730862546","738","0.14355469","-1.4130859","0.07128906","-27.25","-3.4375","-15.625"
"1573730862546","739","0.12207031","-1.1611328","-0.10253906","15.71875","5.46875","-3.25"
"1573730862939","740","0.3330078","-0.79589844","0.0068359375","12.0","-29.1875","-2.28125"
"1573730862940","741","0.16503906","-0.72558594","-0.026367188","37.21875","-35.65625","-3.3125"
"1573730862940","742","0.09375","-0.6933594","0.1015625","36.4375","-16.125","3.90625"
"1573730862940","743","0.17285156","-0.7138672","0.10644531","18.0","-1.96875","10.375"
"1573730862940","744","0.25683594","-0.80078125","9.765625E-4","19.53125","6.15625","11.8125"
"1573730862942","745","0.30859375","-0.79296875","-0.041015625","11.71875","4.1875","15.96875"
"1573730862943","746","0.2919922","-0.890625","-0.09082031","1.75","12.0625","14.5"
"1573730862944","747","0.16113281","-1.0136719","-0.017578125","-11.25","40.03125","18.53125"
"1573730862944","748","0.4091797","-1.0507812","-0.041015625","1.4375","7.5","19.09375"
"1573730862944","749","0.3623047","-1.3242188","-0.030273438","-20.9375","17.125","6.8125"
"1573730863338","750","0.24316406","-1.5009766","-0.1015625","-47.9375","67.71875","15.5"
"1573730863338","751","0.11035156","-1.0712891","0.0703125","11.28125","39.59375","26.46875"
"1573730863339","752","0.052734375","-0.73535156","0.4189453","14.625","16.9375","11.15625"
"1573730863339","753","-0.16992188","-1.2753906","-0.13378906","-22.78125","51.75","-8.8125"
"1573730863339","754","0.46777344","-1.2851562","-0.0146484375","-51.15625","49.96875","-5.5"
"1573730863339","755","-0.06347656","-0.8808594","0.16992188","-44.3125","16.46875","-4.53125"
"1573730863339","756","-0.08496094","-0.9580078","-0.005859375","-14.25","14.5625","0.96875"
"1573730863341","757","0.18457031","-0.7265625","-0.1171875","9.25","16.15625","-5.15625"
"1573730863341","758","0.091796875","-0.6777344","-0.1171875","0.96875","11.28125","-1.84375"
"1573730863342","759","-0.0048828125","-0.80371094","-0.0859375","-11.1875","11.875","-6.1875"
"1573730863737","760","0.15332031","-0.7832031","-0.20605469","-17.46875","-11.71875","-16.1875"
"1573730863737","761","0.16113281","-0.91015625","-0.16503906","-13.625","0.46875","-24.5625"
"1573730863738","762","0.045898438","-1.0683594","-0.17382812","-29.625","16.34375","-30.53125"
"1573730863738","763","0.12597656","-1.2177734","-0.25195312","-54.21875","4.375","-28.8125"
"1573730863738","764","0.3076172","-1.2822266","-0.16210938","-53.78125","10.96875","-32.0625"
"1573730863738","765","0.3388672","-1.1875","0.0107421875","-35.40625","5.1875","-31.3125"
"1573730863739","766","-0.34277344","-1.1513672","0.21777344","3.34375","27.9375","-10.8125"
"1573730863739","767","0.072265625","-0.97265625","-0.234375","-12.84375","4.5","-4.15625"
"1573730863739","768","0.38085938","-1.2724609","-0.15039062","-13.4375","42.96875","0.34375"
"1573730863739","769","-0.078125","-0.796875","0.07128906","19.03125","62.25","2.0"
