"# PR data"
"# Start time: 20191114T111746"
"# Subject: jack"
"# Activity type: Heel raises"
"# Correctness: Correct"
"# Notes: "
""
"timestamp","seq","accel_x","accel_y","accel_z","gyro_x","gyro_y","gyro_z"
"1573730266487","0","0.12792969","-0.94433594","-0.20996094","-11.84375","24.9375","17.0"
"1573730266488","1","0.21289062","-0.9736328","-0.16601562","-34.375","19.625","7.375"
"1573730266489","2","0.11035156","-0.9326172","-0.19433594","-9.46875","5.28125","5.59375"
"1573730266489","3","0.1796875","-0.9736328","-0.19335938","1.28125","-3.625","-2.40625"
"1573730266489","4","0.23632812","-0.89746094","-0.18847656","8.09375","-18.3125","-17.78125"
"1573730266489","5","0.24121094","-0.9433594","0.0","16.71875","-26.5625","-31.25"
"1573730266490","6","0.20410156","-0.94921875","0.16210938","39.09375","-55.25","-11.84375"
"1573730266490","7","0.041992188","-1.2470703","0.17578125","7.75","-25.71875","-6.90625"
"1573730266490","8","0.025390625","-1.1855469","-0.12890625","2.65625","-6.1875","-10.34375"
"1573730266490","9","0.25390625","-0.8173828","-0.125","23.78125","4.9375","-7.65625"
"1573730266688","10","0.13671875","-0.9277344","0.13378906","23.4375","0.28125","-4.84375"
"1573730266689","11","0.08691406","-1.0771484","0.16210938","3.65625","27.9375","1.15625"
"1573730266689","12","0.27441406","-0.9814453","0.0087890625","8.59375","24.65625","1.21875"
"1573730266689","13","0.3095703","-0.9277344","-0.009765625","-5.03125","17.375","8.03125"
"1573730266689","14","0.18847656","-1.0185547","0.0087890625","-22.0","23.65625","9.5625"
"1573730266690","15","0.1796875","-1.0410156","-0.017578125","-8.625","24.9375","15.0625"
"1573730266693","16","0.2919922","-0.89160156","0.08300781","-0.125","18.1875","11.53125"
"1573730266694","17","-0.061523438","-0.92285156","0.17578125","-5.09375","44.90625","28.0625"
"1573730266694","18","-0.10644531","-1.1601562","-0.13476562","2.84375","35.09375","18.65625"
"1573730266694","19","0.4326172","-1.0117188","-0.18847656","-32.125","15.25","-0.75"
"1573730267086","20","0.35351562","-0.9121094","-0.076171875","-6.4375","-5.75","-21.625"
"1573730267086","21","0.11328125","-0.9423828","-0.044921875","3.59375","-17.71875","-23.8125"
"1573730267086","22","0.01171875","-1.0107422","-0.07519531","-25.96875","-14.0","-14.96875"
"1573730267086","23","0.11328125","-1.0869141","-0.10253906","-29.0","2.1875","-12.96875"
"1573730267086","24","0.07421875","-0.95996094","-0.05859375","-24.375","0.28125","-14.78125"
"1573730267087","25","0.22070312","-0.8876953","-0.14941406","-2.03125","-9.65625","-16.8125"
"1573730267088","26","0.3310547","-1.0966797","-0.125","-11.71875","-4.78125","-13.25"
"1573730267088","27","0.27734375","-0.94140625","9.765625E-4","-8.0625","-25.28125","-14.90625"
"1573730267088","28","0.1640625","-0.97265625","-0.041015625","-4.03125","-17.09375","-9.78125"
"1573730267088","29","0.09082031","-1.0039062","-0.12792969","6.21875","-5.875","-5.75"
"1573730267485","30","0.25878906","-0.87597656","-0.12011719","-8.0","-8.0625","-7.40625"
"1573730267485","31","0.17285156","-0.91015625","-0.06640625","6.5","-14.34375","-4.46875"
"1573730267486","32","0.17871094","-1.0058594","-0.10058594","6.875","-19.125","-2.53125"
"1573730267486","33","0.30078125","-1.0087891","-0.046875","5.28125","-25.34375","-8.8125"
"1573730267486","34","0.20019531","-0.9628906","-0.072265625","19.625","-33.71875","-6.84375"
"1573730267486","35","0.16210938","-1.0107422","-0.111328125","13.0","-29.8125","-4.15625"
"1573730267487","36","0.19824219","-0.9951172","-0.09375","7.4375","-18.09375","-0.5"
"1573730267488","37","0.203125","-0.9941406","-0.099609375","5.1875","-13.5625","2.65625"
"1573730267488","38","0.19726562","-0.96972656","-0.078125","-0.0625","-2.59375","3.09375"
"1573730267489","39","0.18164062","-0.9707031","-0.11328125","4.1875","3.59375","3.03125"
"1573730267882","40","0.22363281","-0.99902344","-0.14941406","-6.1875","14.4375","1.8125"
"1573730267882","41","0.2421875","-0.9863281","-0.12792969","-11.71875","15.125","-0.1875"
"1573730267883","42","0.265625","-0.9375","-0.12792969","-3.3125","4.3125","-5.625"
"1573730267883","43","0.31933594","-1.0117188","-0.17480469","-3.6875","-5.4375","-11.5625"
"1573730267883","44","0.25097656","-1.0966797","-0.078125","-5.9375","-2.09375","-7.71875"
"1573730267883","45","0.22851562","-1.2617188","-0.061523438","-26.6875","0.96875","-5.5625"
"1573730267884","46","0.3017578","-1.3144531","-0.103515625","-11.0","7.4375","-5.15625"
"1573730267884","47","0.20800781","-1.0673828","-0.049804688","-3.6875","5.53125","2.25"
"1573730267884","48","0.20703125","-0.9003906","-0.09082031","-15.59375","1.09375","0.28125"
"1573730267886","49","0.17773438","-0.71875","-0.12792969","-14.25","0.09375","1.3125"
"1573730268278","50","0.14746094","-0.7919922","-0.08203125","-8.6875","2.71875","-4.28125"
"1573730268279","51","0.20117188","-0.91503906","-0.10839844","-22.40625","12.0","-6.125"
"1573730268279","52","0.19824219","-0.9638672","-0.11035156","-18.09375","8.78125","-5.09375"
"1573730268279","53","0.26953125","-0.94628906","-0.13085938","-9.78125","-2.59375","-3.3125"
"1573730268279","54","0.1796875","-0.91015625","-0.09765625","-11.625","-3.625","2.84375"
"1573730268280","55","0.20898438","-0.8515625","-0.11035156","-10.5625","-0.8125","2.4375"
"1573730268280","56","0.18261719","-0.83691406","-0.14648438","-17.03125","5.59375","6.6875"
"1573730268280","57","0.17871094","-0.8779297","-0.15917969","-16.0625","9.5","0.96875"
"1573730268280","58","0.25390625","-0.984375","-0.18847656","-14.0","9.75","0.53125"
"1573730268281","59","0.16210938","-1.0146484","-0.09765625","-16.125","14.09375","4.375"
"1573730268676","60","0.22753906","-0.89746094","-0.2109375","7.5625","10.375","1.5"
"1573730268677","61","0.20996094","-0.7890625","-0.16992188","5.21875","6.8125","2.125"
"1573730268678","62","0.203125","-0.828125","-0.14355469","5.0625","7.5","-2.875"
"1573730268678","63","0.19726562","-0.91503906","-0.16503906","2.65625","11.15625","-0.3125"
"1573730268678","64","0.12695312","-0.80859375","-0.18066406","6.5625","9.125","2.25"
"1573730268678","65","0.31835938","-0.99121094","-0.17871094","-8.75","3.59375","-10.5625"
"1573730268679","66","0.15625","-1.1162109","-0.11425781","-0.5625","18.65625","-0.375"
"1573730268679","67","0.18066406","-1.0859375","-0.21582031","-13.03125","17.8125","-0.6875"
"1573730268679","68","0.4091797","-1.1474609","-0.21582031","-5.25","13.34375","-5.03125"
"1573730268679","69","0.14257812","-1.0546875","-0.13964844","0.96875","16.84375","2.0625"
"1573730269076","70","0.2890625","-0.9042969","-0.24023438","9.25","4.125","-1.53125"
"1573730269077","71","0.3408203","-1.0078125","-0.21875","1.5","1.8125","-2.34375"
"1573730269077","72","0.2421875","-0.9658203","-0.13867188","7.25","4.6875","-1.46875"
"1573730269078","73","0.21289062","-0.9736328","-0.16308594","-4.59375","-0.75","0.28125"
"1573730269079","74","0.2783203","-0.9638672","-0.21484375","6.8125","-1.59375","-0.3125"
"1573730269079","75","0.23925781","-1.0341797","-0.17773438","-3.375","2.25","-2.34375"
"1573730269079","76","0.29785156","-0.91796875","-0.20214844","5.84375","-7.53125","-3.3125"
"1573730269079","77","0.2578125","-0.9453125","-0.18066406","7.3125","-10.28125","-0.25"
"1573730269080","78","0.24804688","-0.9238281","-0.16894531","2.375","-6.90625","-1.1875"
"1573730269080","79","0.3203125","-0.95410156","-0.19433594","-2.09375","-9.59375","-2.875"
"1573730269473","80","0.23242188","-1.0107422","-0.18945312","-1.59375","-10.625","-1.0625"
"1573730269473","81","0.27441406","-0.9658203","-0.20507812","-0.9375","-11.4375","-3.0"
"1573730269474","82","0.3125","-0.9746094","-0.21191406","-0.0625","-12.65625","-2.75"
"1573730269474","83","0.2919922","-1.0878906","-0.20507812","-4.15625","-11.1875","-4.71875"
"1573730269474","84","0.30859375","-1.2304688","-0.18652344","-11.0625","-3.25","-1.25"
"1573730269476","85","0.28808594","-1.2734375","-0.19042969","-11.84375","1.5","-2.15625"
"1573730269476","86","0.2607422","-1.0996094","-0.19921875","6.40625","-5.9375","-2.15625"
"1573730269476","87","0.22949219","-0.8701172","-0.15234375","16.59375","-8.8125","-1.0625"
"1573730269476","88","0.19433594","-0.6689453","-0.16113281","16.34375","-9.46875","-5.625"
"1573730269477","89","0.21679688","-0.7597656","-0.14941406","4.1875","-9.34375","-1.25"
"1573730269868","90","0.18457031","-0.76953125","-0.091796875","-0.5625","-11.375","0.84375"
"1573730269869","91","0.18652344","-0.8623047","-0.11425781","-2.9375","-8.875","-2.53125"
"1573730269869","92","0.22070312","-0.9658203","-0.12402344","-4.65625","-5.6875","-2.21875"
"1573730269869","93","0.15917969","-0.9873047","-0.11621094","-4.34375","0.59375","3.34375"
"1573730269869","94","0.2548828","-0.9375","-0.13476562","-3.0","1.625","-0.75"
"1573730269870","95","0.20800781","-0.8847656","-0.11230469","6.625","-2.03125","0.96875"
"1573730269870","96","0.23046875","-0.7998047","-0.111328125","8.65625","-0.25","-0.1875"
"1573730269871","97","0.234375","-0.8222656","-0.080078125","9.5","1.15625","3.53125"
"1573730269871","98","0.15820312","-0.76660156","-0.16992188","10.1875","-3.5625","0.03125"
"1573730269871","99","0.3232422","-1.0546875","-0.13671875","-13.625","7.96875","-0.3125"
"1573730270267","100","0.12109375","-0.9667969","-0.13671875","-9.53125","12.125","0.84375"
"1573730270267","101","0.3720703","-1.0957031","-0.2626953","-10.625","9.75","-3.5625"
"1573730270267","102","0.27441406","-1.125","-0.115234375","-10.34375","17.4375","6.6875"
"1573730270268","103","0.16015625","-0.9580078","-0.20507812","0.46875","16.21875","-4.03125"
"1573730270268","104","0.43066406","-1.1123047","-0.1796875","-4.28125","15.78125","-0.5625"
"1573730270268","105","0.095703125","-0.9082031","-0.10546875","11.53125","13.96875","5.59375"
"1573730270268","106","0.3017578","-0.91503906","-0.24316406","2.5625","9.03125","-8.3125"
"1573730270269","107","0.37695312","-1.0175781","-0.13574219","-11.0","15.125","0.28125"
"1573730270269","108","0.115234375","-0.9658203","-0.076171875","3.90625","11.28125","1.15625"
"1573730270270","109","0.24804688","-1.0009766","-0.20703125","1.4375","5.59375","0.46875"
"1573730270665","110","0.32714844","-0.9326172","-0.17675781","1.75","4.8125","1.03125"
"1573730270665","111","0.24609375","-0.9765625","-0.125","1.8125","8.46875","-1.96875"
"1573730270666","112","0.20019531","-1.0927734","-0.18261719","-7.78125","10.65625","-0.9375"
"1573730270666","113","0.32714844","-0.9638672","-0.19628906","-3.96875","11.46875","1.21875"
"1573730270666","114","0.28222656","-0.9238281","-0.16992188","-2.625","3.9375","-0.125"
"1573730270666","115","0.26660156","-1.0800781","-0.1484375","-0.875","8.28125","-2.75"
"1573730270666","116","0.3125","-1.1982422","-0.1640625","-12.96875","15.90625","1.75"
"1573730270667","117","0.33691406","-1.2675781","-0.16210938","-20.28125","10.96875","-0.875"
"1573730270667","118","0.29296875","-1.1367188","-0.15234375","-11.90625","6.40625","2.65625"
"1573730270667","119","0.26171875","-0.9140625","-0.13964844","-2.625","-0.75","4.0"
"1573730271062","120","0.18652344","-0.7373047","-0.15332031","2.96875","-5.03125","1.21875"
"1573730271064","121","0.2265625","-0.76464844","-0.125","-21.75","-7.03125","-2.40625"
"1573730271064","122","0.20898438","-0.85546875","-0.17285156","-18.8125","-4.96875","-2.40625"
"1573730271065","123","0.18164062","-0.91015625","-0.14941406","-26.5","-1.84375","-1.71875"
"1573730271065","124","0.18164062","-0.94628906","-0.16503906","-12.84375","-7.15625","-2.28125"
"1573730271065","125","0.20703125","-0.9248047","-0.1640625","1.28125","-4.90625","-1.90625"
"1573730271065","126","0.18945312","-0.9082031","-0.16699219","13.28125","1.3125","-3.25"
"1573730271066","127","0.20117188","-0.9033203","-0.15722656","9.5","1.15625","-1.90625"
"1573730271066","128","0.20507812","-0.8808594","-0.14257812","6.03125","1.5625","-1.46875"
"1573730271066","129","0.23730469","-0.9091797","-0.13183594","7.125","5.21875","-2.46875"
"1573730271459","130","0.20019531","-0.8876953","-0.13183594","4.5625","1.15625","-0.9375"
"1573730271460","131","0.24414062","-0.8535156","-0.15039062","4.6875","-0.5","-2.75"
"1573730271460","132","0.22753906","-0.89453125","-0.14550781","1.15625","-0.6875","-1.46875"
"1573730271462","133","0.27148438","-0.9746094","-0.18066406","-7.71875","0.28125","-2.09375"
"1573730271462","134","0.24707031","-0.98828125","-0.13769531","-2.8125","4.6875","-1.53125"
"1573730271462","135","0.18945312","-0.89453125","-0.19433594","-4.71875","0.90625","0.0"
"1573730271463","136","0.31835938","-0.9667969","-0.19726562","-8.25","4.5","-2.15625"
"1573730271463","137","0.14746094","-0.9814453","-0.16113281","1.6875","13.71875","1.875"
"1573730271463","138","0.3076172","-1.1181641","-0.20507812","-20.71875","3.84375","-4.40625"
"1573730271464","139","0.32714844","-0.9345703","-0.16699219","-0.0625","2.0625","0.28125"
"1573730271856","140","0.13085938","-1.0107422","-0.14746094","9.375","3.34375","2.25"
"1573730271856","141","0.28710938","-1.0097656","-0.2578125","-9.84375","3.28125","0.15625"
"1573730271856","142","0.36914062","-0.9111328","-0.16796875","-1.25","0.40625","-1.46875"
"1573730271857","143","0.12695312","-0.9980469","-0.15722656","10.25","1.03125","2.65625"
"1573730271857","144","0.21289062","-0.9277344","-0.20800781","3.71875","3.46875","3.71875"
"1573730271858","145","0.36816406","-0.9560547","-0.20703125","-5.6875","0.59375","-0.9375"
"1573730271858","146","0.18554688","-1.0097656","-0.17871094","7.75","-4.09375","-2.40625"
"1573730271859","147","0.27734375","-0.9746094","-0.24707031","2.5","-2.875","2.65625"
"1573730271859","148","0.3701172","-1.0419922","-0.18261719","1.5625","-2.09375","0.96875"
"1573730271859","149","0.22460938","-1.0429688","-0.20117188","3.59375","-6.5","-2.09375"
"1573730272254","150","0.2685547","-1.0214844","-0.22265625","1.6875","-4.46875","1.8125"
"1573730272254","151","0.328125","-1.1679688","-0.19921875","-3.5","0.03125","1.375"
"1573730272255","152","0.32617188","-1.2089844","-0.19921875","-4.28125","0.65625","-2.59375"
"1573730272255","153","0.26367188","-1.1259766","-0.15625","5.0","-2.03125","0.65625"
"1573730272255","154","0.21386719","-0.92578125","-0.13671875","20.25","-10.03125","-0.125"
"1573730272255","155","0.24414062","-0.765625","-0.16308594","20.125","-12.59375","-5.5"
"1573730272256","156","0.171875","-0.73828125","-0.12792969","19.15625","-15.21875","-3.0"
"1573730272257","157","0.22070312","-0.7558594","-0.11230469","1.5625","-13.125","-4.59375"
"1573730272257","158","0.22558594","-0.89453125","-0.12011719","-2.625","-15.46875","-4.53125"
"1573730272257","159","0.2109375","-0.98046875","-0.11230469","-9.59375","-11.25","-6.1875"
"1573730272847","160","0.1953125","-1.0029297","-0.13085938","-3.6875","-11.78125","-3.4375"
"1573730272848","161","0.2265625","-0.96875","-0.13574219","2.375","-8.6875","-1.90625"
"1573730272848","162","0.21191406","-0.9404297","-0.12597656","1.28125","-8.0","-2.59375"
"1573730272848","163","0.20410156","-0.9082031","-0.12011719","5.0625","-3.75","-3.0625"
"1573730272849","164","0.17871094","-0.9267578","-0.10839844","3.03125","-1.40625","-0.375"
"1573730272849","165","0.21972656","-0.8876953","-0.140625","0.40625","1.3125","-3.1875"
"1573730272849","166","0.25878906","-0.9111328","-0.17382812","-0.875","-2.8125","-1.3125"
"1573730272849","167","0.28027344","-0.89941406","-0.11621094","0.59375","-3.5625","-3.25"
"1573730272850","168","0.2109375","-0.8925781","-0.1171875","1.875","0.96875","-0.4375"
"1573730272850","169","0.27929688","-1.0361328","-0.1796875","-14.90625","11.65625","0.90625"
"1573730273048","170","0.21972656","-0.9169922","-0.095703125","6.875","10.0625","1.5"
"1573730273049","171","0.25","-1.0292969","-0.1640625","1.875","9.8125","-0.625"
"1573730273049","172","0.26367188","-0.91796875","-0.13769531","6.5625","13.40625","2.78125"
"1573730273049","173","0.1953125","-0.9482422","-0.072265625","14.09375","16.09375","-3.125"
"1573730273049","174","0.29589844","-1.1396484","-0.171875","-13.5625","23.59375","-3.0"
"1573730273050","175","0.3486328","-0.98535156","-0.08203125","2.78125","17.875","3.71875"
"1573730273050","176","0.19433594","-0.99902344","-0.078125","-8.0625","12.6875","0.84375"
"1573730273050","177","0.2705078","-0.95703125","-0.17675781","-6.53125","5.84375","0.78125"
"1573730273050","178","0.2939453","-0.9482422","-0.12402344","-6.84375","11.34375","4.5625"
"1573730273051","179","0.15722656","-0.95214844","-0.1171875","-5.09375","16.90625","0.09375"
"1573730273447","180","0.33789062","-0.9667969","-0.19140625","-7.8125","9.75","0.90625"
"1573730273449","181","0.28320312","-1.0292969","-0.119140625","-16.625","18.65625","1.3125"
"1573730273449","182","0.1796875","-1.0605469","-0.13085938","-18.03125","12.6875","-3.8125"
"1573730273449","183","0.3701172","-0.9667969","-0.19335938","-3.90625","-0.0625","5.0"
"1573730273450","184","0.2705078","-0.8955078","-0.203125","-7.46875","2.25","-0.375"
"1573730273450","185","0.28710938","-1.0371094","-0.14648438","-13.1875","6.75","-4.28125"
"1573730273450","186","0.2763672","-1.1367188","-0.18164062","-13.5625","11.875","-0.5625"
"1573730273450","187","0.32421875","-1.2246094","-0.17089844","-25.96875","8.65625","-2.8125"
"1573730273451","188","0.29296875","-1.15625","-0.1484375","-11.375","3.9375","0.03125"
"1573730273451","189","0.25878906","-0.9941406","-0.17089844","1.03125","2.71875","1.09375"
"1573730273844","190","0.2685547","-0.8095703","-0.16992188","0.59375","-6.65625","-0.625"
"1573730273844","191","0.18261719","-0.7685547","-0.13085938","7.1875","-5.3125","-2.03125"
"1573730273844","192","0.21191406","-0.7832031","-0.15234375","1.09375","-2.21875","-4.78125"
"1573730273845","193","0.23730469","-0.8535156","-0.14453125","-2.40625","-2.28125","-2.53125"
"1573730273846","194","0.23242188","-0.89453125","-0.1875","0.90625","-4.09375","-5.4375"
"1573730273846","195","0.21484375","-0.9453125","-0.10546875","-8.625","-3.3125","-1.3125"
"1573730273846","196","0.24804688","-0.9785156","-0.171875","-3.6875","1.3125","-2.03125"
"1573730273846","197","0.21875","-0.9042969","-0.171875","-2.6875","-2.34375","0.0"
"1573730273847","198","0.22753906","-0.88378906","-0.15625","-4.21875","-4.71875","-1.3125"
"1573730273847","199","0.23632812","-0.9326172","-0.12792969","-3.0625","1.5","0.21875"
"1573730274243","200","0.17871094","-0.85253906","-0.14160156","-0.9375","2.3125","-1.59375"
"1573730274244","201","0.23632812","-0.8808594","-0.18554688","3.84375","-3.875","-2.6875"
"1573730274244","202","0.2734375","-0.90722656","-0.123046875","0.65625","2.0","-0.125"
"1573730274244","203","0.20507812","-0.8857422","-0.12402344","6.875","-2.59375","1.3125"
"1573730274244","204","0.26757812","-0.96484375","-0.18652344","2.71875","-6.375","-1.25"
"1573730274245","205","0.15625","-1.0585938","-0.12988281","-4.21875","14.4375","6.34375"
"1573730274245","206","0.2265625","-1.0419922","-0.16894531","-10.28125","14.4375","0.40625"
"1573730274245","207","0.30664062","-1.0234375","-0.22265625","-8.75","5.0625","-0.125"
"1573730274246","208","0.33496094","-1.0214844","-0.15332031","-0.6875","6.625","0.03125"
"1573730274246","209","0.18945312","-0.984375","-0.12402344","5.0625","2.0625","0.78125"
"1573730274837","210","0.30664062","-0.9316406","-0.22753906","2.125","-2.8125","2.0625"
"1573730274838","211","0.25585938","-0.9501953","-0.1875","-0.5625","-1.125","2.0"
"1573730274838","212","0.2626953","-0.93652344","-0.18847656","6.75","-10.28125","-3.0625"
"1573730274838","213","0.28515625","-0.99121094","-0.18554688","-2.8125","-8.5625","0.96875"
"1573730274838","214","0.25195312","-1.0224609","-0.19433594","0.34375","-4.28125","-1.90625"
"1573730274839","215","0.24511719","-0.9169922","-0.20703125","4.5","-10.03125","-2.34375"
"1573730274839","216","0.2998047","-0.9580078","-0.2109375","1.28125","-11.1875","-1.78125"
"1573730274840","217","0.22460938","-1.0419922","-0.13769531","-1.53125","-2.09375","-1.96875"
"1573730274840","218","0.22851562","-1.0087891","-0.22949219","-2.8125","-5.21875","-1.96875"
"1573730274841","219","0.35839844","-1.0371094","-0.20703125","-1.0625","-6.4375","-3.0"
"1573730275233","220","0.22167969","-1.0566406","-0.18164062","5.1875","-4.78125","1.09375"
"1573730275234","221","0.31054688","-1.1972656","-0.18457031","-4.59375","2.0625","-1.46875"
"1573730275234","222","0.3095703","-1.1513672","-0.1796875","0.71875","-3.3125","-0.4375"
"1573730275234","223","0.23632812","-1.0634766","-0.14746094","10.78125","-6.125","-1.1875"
"1573730275234","224","0.26367188","-0.921875","-0.140625","17.8125","-8.8125","-1.96875"
"1573730275235","225","0.20214844","-0.80078125","-0.13769531","22.09375","-13.6875","-2.40625"
"1573730275235","226","0.20117188","-0.7109375","-0.15332031","20.0","-14.65625","-3.25"
"1573730275235","227","0.22753906","-0.796875","-0.12792969","4.0625","-13.375","-0.875"
"1573730275235","228","0.21875","-0.8935547","-0.107421875","-3.75","-9.125","-3.4375"
"1573730275237","229","0.19824219","-0.9794922","-0.13183594","-12.09375","-2.34375","-1.34375"
"1573730275433","230","0.22753906","-0.984375","-0.140625","-5.15625","-3.1875","-2.8125"
"1573730275434","231","0.21289062","-0.921875","-0.11425781","3.34375","-0.75","-0.125"
"1573730275434","232","0.18945312","-0.88378906","-0.115234375","-8.125","12.3125","0.03125"
"1573730275434","233","0.18945312","-0.94140625","-0.109375","-12.21875","21.53125","-0.625"
"1573730275434","234","0.22558594","-0.8046875","-0.12402344","4.8125","7.625","-2.53125"
"1573730275435","235","0.265625","-0.8408203","-0.15136719","-6.25","8.84375","-2.40625"
"1573730275435","236","0.26660156","-0.9970703","-0.068359375","-6.90625","20.90625","3.40625"
"1573730275435","237","0.1328125","-0.9580078","-0.11425781","-6.25","17.0","2.96875"
"1573730275435","238","0.26757812","-0.99121094","-0.14648438","-9.28125","16.71875","-2.875"
"1573730275436","239","0.31933594","-1.0722656","-0.16113281","-7.9375","14.21875","3.90625"
"1573730275832","240","0.19140625","-1.0166016","-0.12011719","-8.8125","19.5625","3.03125"
"1573730275833","241","0.296875","-0.97753906","-0.16308594","-1.59375","2.375","-2.625"
"1573730275833","242","0.30078125","-1.0185547","-0.19726562","-3.90625","11.21875","0.84375"
"1573730275833","243","0.20019531","-0.9746094","-0.11621094","-4.28125","11.34375","0.28125"
"1573730275833","244","0.27929688","-0.953125","-0.18554688","-4.84375","4.8125","1.09375"
"1573730275834","245","0.2529297","-0.94628906","-0.1640625","-6.84375","10.96875","2.65625"
"1573730275834","246","0.24121094","-0.86328125","-0.13671875","-0.4375","5.0625","0.09375"
"1573730275834","247","0.21679688","-0.95214844","-0.20214844","-1.40625","5.71875","2.65625"
"1573730275834","248","0.29101562","-1.1064453","-0.20703125","-14.71875","16.34375","-2.875"
"1573730275835","249","0.265625","-1.0927734","-0.13085938","-0.3125","9.75","-1.25"
"1573730276231","250","0.3564453","-1.0566406","-0.23828125","1.375","-5.09375","-2.40625"
"1573730276232","251","0.26757812","-0.9951172","-0.17480469","2.96875","0.0","1.375"
"1573730276232","252","0.24804688","-1.1347656","-0.10546875","-8.5","4.9375","-3.0625"
"1573730276233","253","0.28808594","-1.1259766","-0.13964844","-3.5625","11.34375","2.1875"
"1573730276234","254","0.24609375","-1.0751953","-0.15332031","-4.40625","6.75","2.65625"
"1573730276234","255","0.2939453","-0.9794922","-0.14160156","6.5625","0.0","0.53125"
"1573730276234","256","0.25097656","-0.8701172","-0.1328125","3.28125","-5.15625","0.46875"
"1573730276235","257","0.18359375","-0.8515625","-0.11230469","0.28125","-2.75","-0.875"
"1573730276235","258","0.19335938","-0.8125","-0.11621094","-1.96875","-1.90625","-1.3125"
"1573730276235","259","0.22949219","-0.8486328","-0.16015625","-7.21875","-5.625","-4.46875"
"1573730276627","260","0.21289062","-0.86816406","-0.12109375","-5.75","-2.03125","-3.4375"
"1573730276628","261","0.18554688","-0.9296875","-0.12695312","-8.5","1.75","-4.15625"
"1573730276628","262","0.22070312","-0.9316406","-0.15234375","-8.75","1.3125","-3.625"
"1573730276628","263","0.21484375","-0.93359375","-0.14453125","-7.875","0.84375","-2.09375"
"1573730276628","264","0.24023438","-0.9628906","-0.12597656","-6.78125","2.96875","-2.625"
"1573730276630","265","0.2109375","-0.8779297","-0.14453125","6.28125","3.34375","-1.1875"
"1573730276630","266","0.24121094","-0.8671875","-0.15136719","-4.71875","-2.875","-3.96875"
"1573730276630","267","0.24609375","-0.8955078","-0.15332031","-6.25","0.40625","-2.28125"
"1573730276631","268","0.27929688","-0.9355469","-0.15429688","-4.90625","-0.625","-5.375"
"1573730276631","269","0.19628906","-0.9716797","-0.13183594","-0.9375","2.3125","4.5625"
"1573730277026","270","0.25683594","-0.95996094","-0.1796875","-7.09375","5.59375","0.0"
"1573730277026","271","0.26171875","-1.0214844","-0.203125","-1.34375","5.28125","-0.125"
"1573730277027","272","0.21777344","-0.92871094","-0.16699219","3.59375","1.8125","5.21875"
"1573730277027","273","0.23730469","-0.9501953","-0.16113281","2.5","4.375","-0.875"
"1573730277027","274","0.31933594","-1.0009766","-0.22851562","-2.21875","6.21875","-0.3125"
"1573730277027","275","0.20605469","-0.96972656","-0.13671875","1.03125","4.1875","2.90625"
"1573730277028","276","0.27148438","-0.95410156","-0.2265625","-4.46875","-1.84375","-3.875"
"1573730277029","277","0.33398438","-1.0371094","-0.20507812","-4.65625","0.96875","-0.9375"
"1573730277029","278","0.15136719","-0.953125","-0.12597656","-1.25","1.8125","2.3125"
"1573730277030","279","0.2529297","-0.97753906","-0.24414062","-3.96875","-1.0625","-0.8125"
"1573730277421","280","0.36914062","-0.92285156","-0.20800781","-2.6875","-5.9375","-2.6875"
"1573730277421","281","0.16210938","-0.95996094","-0.14355469","11.875","-3.1875","-1.65625"
"1573730277421","282","0.27734375","-1.0800781","-0.25097656","-13.625","-7.03125","-3.25"
"1573730277422","283","0.37304688","-1.0527344","-0.2529297","-7.8125","-3.0","-4.15625"
"1573730277422","284","0.22363281","-0.96972656","-0.18261719","10.3125","-14.84375","-1.53125"
"1573730277422","285","0.3232422","-1.1298828","-0.22265625","-0.75","-6.71875","0.09375"
"1573730277422","286","0.2763672","-1.1582031","-0.20605469","-4.71875","-1.46875","-2.15625"
"1573730277423","287","0.29785156","-1.1162109","-0.18457031","3.40625","-8.4375","-3.75"
"1573730277423","288","0.25390625","-0.9873047","-0.15527344","18.0625","-8.5625","-1.34375"
"1573730277424","289","0.23339844","-0.81152344","-0.15527344","22.4375","-11.90625","-2.625"
"1573730278015","290","0.23046875","-0.79589844","-0.15625","15.4375","-12.15625","-2.875"
"1573730278016","291","0.20410156","-0.7998047","-0.14160156","7.84375","-9.21875","-1.40625"
"1573730278016","292","0.22753906","-0.86816406","-0.14257812","-0.8125","-8.1875","-3.75"
"1573730278016","293","0.25195312","-0.921875","-0.1640625","-5.4375","-8.625","-6.0625"
"1573730278017","294","0.2421875","-0.93652344","-0.16503906","-4.46875","-7.9375","-4.96875"
"1573730278017","295","0.234375","-0.95214844","-0.14355469","-3.4375","-5.625","-4.28125"
"1573730278017","296","0.22753906","-0.91015625","-0.12597656","1.9375","-6.25","-1.90625"
"1573730278017","297","0.21777344","-0.9453125","-0.12792969","3.84375","-0.125","-1.59375"
"1573730278017","298","0.22949219","-0.9716797","-0.125","-2.40625","2.5","0.15625"
"1573730278018","299","0.23730469","-0.9121094","-0.15527344","-6.5","-1.0625","-1.65625"
"1573730278217","300","0.24023438","-0.9013672","-0.17285156","-2.59375","1.28125","-1.46875"
"1573730278218","301","0.25976562","-0.8847656","-0.1484375","-4.53125","7.0625","-1.59375"
"1573730278218","302","0.17871094","-0.87402344","-0.13964844","2.78125","9.125","-1.40625"
"1573730278218","303","0.3154297","-0.9785156","-0.20117188","0.0","5.78125","-4.78125"
"1573730278218","304","0.30566406","-0.93066406","-0.12402344","11.8125","8.59375","2.375"
"1573730278219","305","0.19238281","-0.9003906","-0.12890625","8.78125","-0.125","2.84375"
"1573730278219","306","0.37109375","-1.0292969","-0.11621094","5.78125","13.03125","1.15625"
"1573730278219","307","0.10449219","-1.0234375","-0.095703125","5.78125","12.25","10.84375"
"1573730278219","308","0.33496094","-0.9550781","-0.15917969","3.34375","9.125","-1.3125"
"1573730278220","309","0.25976562","-1.0361328","-0.111328125","-2.28125","17.375","5.40625"
"1573730278615","310","0.18847656","-0.953125","-0.059570312","4.6875","16.9375","0.03125"
"1573730278615","311","0.3330078","-0.9921875","-0.15722656","-0.6875","13.78125","-2.46875"
"1573730278616","312","0.26953125","-1.0029297","-0.111328125","-7.71875","17.625","3.34375"
"1573730278617","313","0.2421875","-1.0107422","-0.123046875","-1.0","17.8125","-1.78125"
"1573730278617","314","0.2734375","-0.9160156","-0.13476562","1.3125","6.03125","2.71875"
"1573730278618","315","0.2607422","-0.96875","-0.12695312","-12.03125","10.84375","0.21875"
"1573730278618","316","0.27148438","-0.984375","-0.11230469","-2.6875","9.875","-0.125"
"1573730278618","317","0.2548828","-1.0351562","-0.12011719","-2.46875","2.1875","1.4375"
"1573730278618","318","0.296875","-1.0390625","-0.14648438","1.8125","8.03125","-2.8125"
"1573730278619","319","0.2763672","-0.9433594","-0.13574219","6.5","-2.15625","0.46875"
"1573730279012","320","0.26953125","-1.0869141","-0.12402344","-2.28125","2.71875","-2.21875"
"1573730279013","321","0.30859375","-1.1552734","-0.10546875","-9.96875","9.5","-0.5"
"1573730279013","322","0.296875","-1.1533203","-0.0703125","-9.34375","10.1875","1.8125"
"1573730279013","323","0.22753906","-1.0263672","-0.11230469","6.34375","5.78125","3.21875"
"1573730279014","324","0.27539062","-0.91503906","-0.13183594","1.21875","7.375","2.5625"
"1573730279014","325","0.22070312","-0.81933594","-0.08691406","-0.0625","8.15625","-0.75"
"1573730279015","326","0.23535156","-0.8378906","-0.083984375","2.125","4.0","-1.125"
"1573730279015","327","0.21484375","-0.87109375","-0.056640625","-5.375","2.1875","-1.40625"
"1573730279015","328","0.25","-0.92089844","-0.09472656","-5.3125","-2.53125","-1.125"
"1573730279015","329","0.22363281","-0.92089844","-0.11425781","0.59375","-2.6875","-2.6875"
"1573730279410","330","0.22949219","-0.92285156","-0.06933594","-9.21875","-5.09375","-2.09375"
"1573730279410","331","0.20800781","-0.9238281","-0.119140625","-3.375","-3.96875","-1.40625"
"1573730279410","332","0.22265625","-0.9140625","-0.103515625","-2.03125","-4.28125","-0.9375"
"1573730279410","333","0.2265625","-0.9033203","-0.08886719","-4.40625","-2.09375","-0.8125"
"1573730279411","334","0.20996094","-1.0048828","-0.083984375","-9.78125","4.25","-1.34375"
"1573730279411","335","0.22460938","-0.9375","-0.12792969","2.71875","2.4375","0.0"
"1573730279411","336","0.22753906","-0.8730469","-0.11425781","4.625","-2.9375","-0.9375"
"1573730279412","337","0.2919922","-0.9550781","-0.09667969","-3.4375","-0.0625","-2.53125"
"1573730279413","338","0.14550781","-0.81933594","-0.059570312","3.46875","4.375","3.53125"
"1573730279413","339","0.27246094","-0.9951172","-0.13964844","-4.21875","-1.34375","-2.59375"
"1573730279806","340","0.2421875","-0.9667969","-0.095703125","-7.09375","10.65625","3.65625"
"1573730279806","341","0.13085938","-0.9482422","-0.059570312","-3.96875","9.875","2.25"
"1573730279806","342","0.33398438","-1.0517578","-0.16992188","-5.5625","6.625","-2.46875"
"1573730279806","343","0.23144531","-0.9746094","-0.10644531","-3.5","12.3125","3.21875"
"1573730279807","344","0.23339844","-0.95214844","-0.12402344","-1.125","3.71875","-3.25"
"1573730279807","345","0.32226562","-1.1064453","-0.123046875","-4.34375","7.1875","0.40625"
"1573730279807","346","0.23632812","-0.98535156","-0.0703125","-12.40625","3.9375","1.03125"
"1573730279807","347","0.22949219","-0.9824219","-0.14941406","1.03125","-5.8125","-1.71875"
"1573730279808","348","0.2998047","-0.89941406","-0.16015625","0.78125","-8.3125","0.40625"
"1573730279809","349","0.18847656","-0.94628906","-0.09667969","-0.125","-5.03125","-0.75"
"1573730280204","350","0.22851562","-0.9873047","-0.1796875","-5.625","-6.3125","-2.625"
"1573730280204","351","0.3408203","-1.0996094","-0.20605469","-10.5625","-3.625","-3.0625"
"1573730280205","352","0.22558594","-1.0048828","-0.11621094","-2.09375","-6.53125","-3.4375"
"1573730280205","353","0.27734375","-0.9658203","-0.18847656","0.46875","-6.375","-2.15625"
"1573730280205","354","0.28222656","-1.0117188","-0.16210938","-2.53125","-3.3125","-1.125"
"1573730280205","355","0.2998047","-1.1191406","-0.16894531","-8.0625","-0.625","-1.46875"
"1573730280206","356","0.2998047","-1.1982422","-0.14355469","-5.21875","1.28125","-1.1875"
"1573730280206","357","0.25878906","-1.0722656","-0.12792969","8.78125","-5.625","-0.375"
"1573730280206","358","0.24902344","-0.95214844","-0.13769531","12.6875","-7.09375","-1.25"
"1573730280207","359","0.28027344","-0.8671875","-0.12890625","12.6875","-7.9375","-1.84375"
"1573730280602","360","0.234375","-0.8496094","-0.12109375","11.53125","-8.6875","-1.34375"
"1573730280603","361","0.21289062","-0.85839844","-0.11621094","-1.0","-5.9375","-1.34375"
"1573730280603","362","0.24804688","-0.890625","-0.14941406","-6.71875","-6.84375","-3.8125"
"1573730280603","363","0.23046875","-0.9511719","-0.13085938","-6.3125","-8.9375","-2.21875"
"1573730280604","364","0.23535156","-0.9082031","-0.08984375","-1.3125","-7.03125","-3.8125"
"1573730280604","365","0.21875","-0.91503906","-0.11621094","2.59375","-7.875","-1.0"
"1573730280604","366","0.21582031","-0.9277344","-0.13769531","-0.3125","-4.78125","-0.75"
"1573730280605","367","0.23632812","-0.9199219","-0.12207031","-1.1875","-2.40625","0.53125"
"1573730280605","368","0.19628906","-0.9511719","-0.09667969","-3.0625","0.0","0.84375"
"1573730280605","369","0.23339844","-0.984375","-0.11425781","-3.3125","1.5","-0.3125"
"1573730281196","370","0.24609375","-0.97265625","-0.09667969","0.21875","0.65625","-0.1875"
"1573730281197","371","0.22460938","-0.93359375","-0.12402344","5.0","-2.625","0.0"
"1573730281197","372","0.24511719","-0.9121094","-0.13085938","1.8125","-0.5625","-0.625"
"1573730281198","373","0.23046875","-0.8652344","-0.14648438","-1.78125","1.09375","-2.28125"
"1573730281199","374","0.25683594","-0.92089844","-0.14257812","-0.5","3.65625","-3.3125"
"1573730281199","375","0.2890625","-0.99609375","-0.10253906","1.15625","9.125","-1.78125"
"1573730281199","376","0.14746094","-0.8623047","-0.125","9.6875","1.03125","0.28125"
"1573730281200","377","0.3359375","-0.99902344","-0.140625","-3.0","5.71875","-3.375"
"1573730281200","378","0.24609375","-0.99902344","-0.061523438","-10.34375","14.9375","2.90625"
"1573730281200","379","0.14160156","-0.92871094","-0.11621094","5.0625","10.84375","2.5"
