"# PR data"
"# Start time: 20191114T111140"
"# Subject: jack"
"# Activity type: Sit to stand"
"# Correctness: Correct"
"# Notes: "
""
"timestamp","seq","accel_x","accel_y","accel_z","gyro_x","gyro_y","gyro_z"
"1573729900590","0","0.115234375","-1.078125","-0.038085938","-3.0","-20.9375","-13.1875"
"1573729900592","1","0.11621094","-1.0205078","-0.01953125","0.21875","-5.25","-16.625"
"1573729900592","2","0.17480469","-0.9814453","0.038085938","-12.21875","-9.15625","-10.6875"
"1573729900592","3","0.17675781","-0.97753906","0.072265625","8.65625","-15.15625","-12.53125"
"1573729900593","4","0.12207031","-0.91015625","0.025390625","12.5625","-16.125","-12.28125"
"1573729900593","5","0.21484375","-0.9375","-0.017578125","17.25","-17.90625","0.0"
"1573729900593","6","0.15234375","-0.953125","0.009765625","5.84375","-20.03125","-0.1875"
"1573729900593","7","0.13769531","-0.9238281","0.0048828125","11.75","-9.59375","-0.5625"
"1573729900594","8","0.20898438","-0.98828125","-0.041992188","7.5","-3.5","1.875"
"1573729900595","9","0.29492188","-1.0058594","-0.03515625","-5.5","-4.53125","1.75"
"1573729900990","10","0.1796875","-1.0576172","-9.765625E-4","-9.53125","4.375","0.03125"
"1573729900991","11","0.24316406","-0.99316406","-0.0126953125","-13.5625","5.1875","-7.09375"
"1573729900991","12","0.16210938","-0.9951172","-0.0068359375","3.03125","4.0","1.5"
"1573729900991","13","0.16210938","-0.9638672","-0.041992188","7.125","3.34375","6.21875"
"1573729900992","14","0.21484375","-0.9472656","-0.018554688","9.25","8.59375","6.03125"
"1573729900992","15","0.13378906","-1.0107422","-0.0146484375","12.75","4.5625","3.65625"
"1573729900992","16","0.14257812","-1.0126953","0.0068359375","17.3125","3.34375","5.21875"
"1573729900992","17","0.171875","-0.9824219","0.047851562","13.03125","8.03125","11.53125"
"1573729900993","18","0.12695312","-0.9267578","0.055664062","16.78125","7.5","10.0625"
"1573729900993","19","0.16601562","-0.99316406","0.032226562","19.875","9.125","14.75"
"1573729901386","20","0.19726562","-0.9765625","0.068359375","21.15625","8.46875","19.09375"
"1573729901386","21","0.1484375","-0.93066406","0.09472656","22.25","2.65625","15.84375"
"1573729901387","22","0.16894531","-0.99902344","0.078125","30.5","6.03125","25.25"
"1573729901387","23","0.12890625","-0.9736328","0.12695312","39.34375","10.59375","29.46875"
"1573729901388","24","0.049804688","-0.98046875","0.140625","46.25","16.53125","29.90625"
"1573729901389","25","0.059570312","-0.9658203","0.14453125","49.71875","13.03125","34.21875"
"1573729901389","26","0.061523438","-1.0166016","0.16894531","57.59375","8.46875","36.78125"
"1573729901389","27","0.07421875","-0.88378906","0.30078125","52.71875","5.78125","38.0625"
"1573729901390","28","-0.04296875","-0.99609375","0.27734375","57.71875","0.96875","32.40625"
"1573729901390","29","-0.025390625","-1.015625","0.3828125","46.96875","1.875","32.625"
"1573729901785","30","-0.0546875","-0.9433594","0.43359375","52.09375","-5.6875","33.375"
"1573729901786","31","-0.09863281","-0.96875","0.4658203","54.0625","-11.5","30.625"
"1573729901786","32","-0.12109375","-0.9199219","0.546875","54.5","-15.625","31.40625"
"1573729901786","33","-0.2861328","-0.9355469","0.61816406","42.90625","-6.125","28.0625"
"1573729901787","34","-0.22558594","-0.9472656","0.57714844","33.3125","9.6875","28.84375"
"1573729901787","35","-0.109375","-0.9238281","0.6035156","21.28125","8.28125","26.46875"
"1573729901787","36","-0.25976562","-0.88183594","0.6328125","18.53125","9.6875","25.1875"
"1573729901788","37","-0.2607422","-0.9033203","0.6875","11.40625","20.3125","19.9375"
"1573729901789","38","-0.23339844","-0.8466797","0.6669922","18.21875","9.375","21.78125"
"1573729901789","39","-0.30371094","-0.7949219","0.6308594","14.375","16.84375","19.34375"
"1573729902182","40","-0.19335938","-0.82714844","0.6220703","7.375","9.5","12.625"
"1573729902182","41","-0.2841797","-0.75878906","0.61035156","2.1875","3.65625","8.03125"
"1573729902183","42","-0.24316406","-0.7529297","0.5917969","-0.375","4.75","2.0625"
"1573729902183","43","-0.29492188","-0.76660156","0.6269531","-15.15625","2.78125","-5.09375"
"1573729902183","44","-0.32226562","-0.8154297","0.5527344","-16.0625","3.71875","-12.65625"
"1573729902183","45","-0.2919922","-0.76171875","0.5205078","-26.375","9.625","-18.875"
"1573729902184","46","-0.17480469","-0.71484375","0.5","-12.40625","-0.625","-14.96875"
"1573729902184","47","-0.29882812","-0.8671875","0.45703125","-30.96875","-17.34375","-17.21875"
"1573729902184","48","-0.27734375","-0.9814453","0.45996094","-48.28125","-18.6875","-28.9375"
"1573729902186","49","-0.11425781","-0.8779297","0.44140625","-38.53125","-19.65625","-39.5"
"1573729902581","50","-0.07324219","-0.8544922","0.3984375","-52.8125","-29.5625","-42.125"
"1573729902581","51","-0.030273438","-0.8359375","0.36816406","-56.71875","-36.8125","-45.96875"
"1573729902582","52","-0.00390625","-0.78125","0.35351562","-90.53125","-32.1875","-47.875"
"1573729902582","53","-0.020507812","-0.8144531","0.3564453","-88.28125","-40.25","-51.78125"
"1573729902582","54","0.01953125","-0.7246094","0.30371094","-65.5625","-47.8125","-52.1875"
"1573729902582","55","0.016601562","-0.7529297","0.29785156","-67.15625","-36.28125","-43.53125"
"1573729902583","56","0.115234375","-0.79785156","0.25976562","-45.5625","-29.0","-40.25"
"1573729902583","57","0.09472656","-0.7988281","0.20898438","-36.21875","-17.65625","-31.9375"
"1573729902583","58","0.125","-0.80859375","0.203125","-59.71875","-1.84375","-29.96875"
"1573729902584","59","0.2626953","-0.91796875","0.1875","-34.5","-2.28125","-24.75"
"1573729902976","60","0.29785156","-0.8574219","0.18261719","-32.96875","-11.5625","-17.15625"
"1573729902977","61","0.27441406","-0.9580078","0.13867188","-39.3125","-1.84375","-7.71875"
"1573729902978","62","0.3642578","-0.99121094","0.09472656","-48.96875","-6.375","-2.46875"
"1573729902978","63","0.19335938","-1.0097656","0.10644531","-43.59375","-7.9375","4.25"
"1573729902978","64","0.07519531","-0.84277344","0.07714844","-36.03125","-11.5625","0.46875"
"1573729902978","65","0.19140625","-0.8535156","0.087890625","-21.5625","-9.40625","-0.8125"
"1573729902979","66","-0.076171875","-1.0039062","0.06347656","-9.90625","15.4375","9.5"
"1573729902979","67","-0.013671875","-1.0410156","-0.0048828125","-5.5625","27.21875","13.15625"
"1573729902979","68","0.18554688","-0.96875","-0.06738281","-3.0625","30.625","15.84375"
"1573729902980","69","0.20214844","-1.0634766","-0.18066406","-10.15625","14.3125","15.625"
"1573729903373","70","0.22851562","-1.0292969","-0.18164062","-19.4375","2.0","11.28125"
"1573729903373","71","0.19726562","-0.88671875","-0.15625","-24.96875","-20.34375","1.8125"
"1573729903373","72","0.005859375","-0.9091797","-0.12890625","-23.625","-18.6875","-0.625"
"1573729903375","73","-0.0859375","-0.99902344","-0.15429688","-22.65625","-4.21875","-4.34375"
"1573729903375","74","-0.017578125","-1.0810547","-0.091796875","-17.03125","17.125","-1.78125"
"1573729903375","75","0.115234375","-1.0205078","-0.01953125","-3.5","23.3125","-0.8125"
"1573729903375","76","0.1640625","-0.8935547","-0.060546875","8.34375","10.84375","-1.1875"
"1573729903375","77","0.038085938","-0.91308594","-0.09375","1.75","6.15625","2.1875"
"1573729903376","78","0.061523438","-1.0537109","-0.0390625","2.1875","25.0625","1.4375"
"1573729903376","79","0.14160156","-1.0146484","-0.03125","20.0625","18.71875","-0.25"
"1573729903966","80","0.18359375","-0.9003906","-0.020507812","31.40625","6.875","-5.4375"
"1573729903967","81","0.1875","-0.99121094","-0.055664062","33.25","15.4375","-0.9375"
"1573729903967","82","0.1328125","-1.0097656","0.0087890625","25.1875","17.3125","5.34375"
"1573729903968","83","0.11035156","-0.9824219","0.0390625","26.71875","17.0625","5.46875"
"1573729903968","84","0.17480469","-0.9482422","0.05859375","30.4375","18.96875","7.125"
"1573729903969","85","0.15527344","-0.95703125","0.095703125","37.40625","12.375","11.53125"
"1573729903970","86","0.076171875","-0.91796875","0.13671875","49.71875","8.46875","17.875"
"1573729903970","87","0.07714844","-0.9316406","0.16210938","53.375","16.84375","25.6875"
"1573729903970","88","0.09765625","-0.8984375","0.15234375","60.84375","13.53125","33.25"
"1573729903971","89","0.03125","-0.87890625","0.20703125","58.03125","16.09375","35.5"
"1573729904169","90","-0.020507812","-0.8652344","0.20214844","60.21875","19.9375","39.0625"
"1573729904170","91","-0.08203125","-0.87597656","0.27441406","62.53125","16.40625","41.125"
"1573729904170","92","-0.021484375","-0.77441406","0.33496094","52.46875","16.40625","37.75"
"1573729904170","93","-0.109375","-0.91308594","0.3125","59.0","25.0","42.09375"
"1573729904171","94","-0.11621094","-0.78125","0.34765625","58.6875","17.625","42.21875"
"1573729904171","95","-0.14453125","-0.8222656","0.40722656","49.71875","23.90625","37.75"
"1573729904171","96","-0.11328125","-0.8574219","0.42578125","54.84375","24.34375","37.75"
"1573729904173","97","-0.14941406","-0.8388672","0.47558594","52.21875","18.90625","34.40625"
"1573729904173","98","-0.19824219","-0.7675781","0.43066406","55.59375","14.5","35.5625"
"1573729904174","99","-0.12890625","-0.7519531","0.41992188","52.71875","6.5625","37.28125"
"1573729904566","100","-0.25","-0.7246094","0.5361328","44.65625","-1.3125","27.4375"
"1573729904567","101","-0.37304688","-0.8222656","0.5058594","28.84375","10.1875","30.9375"
"1573729904567","102","-0.24023438","-0.7470703","0.5517578","25.4375","-1.0625","14.625"
"1573729904567","103","-0.32714844","-0.7324219","0.56152344","23.125","1.03125","14.375"
"1573729904567","104","-0.22265625","-0.67089844","0.5878906","18.71875","-3.0625","2.5"
"1573729904568","105","-0.25683594","-0.67089844","0.57910156","7.0625","-5.5","1.21875"
"1573729904568","106","-0.26367188","-0.6064453","0.7001953","6.15625","-17.65625","-5.09375"
"1573729904568","107","-0.3720703","-0.70703125","0.75683594","-3.90625","-10.28125","-4.71875"
"1573729904568","108","-0.31152344","-0.70410156","0.7626953","-11.625","-15.03125","-13.4375"
"1573729904569","109","-0.23828125","-0.65234375","0.7734375","-14.125","-21.75","-13.6875"
"1573729904965","110","-0.36914062","-0.74316406","0.78515625","-18.15625","-22.59375","-14.46875"
"1573729904966","111","-0.32226562","-0.70214844","0.7558594","-25.28125","-14.53125","-15.21875"
"1573729904966","112","-0.23242188","-0.7392578","0.7265625","-36.21875","-13.03125","-20.875"
"1573729904966","113","-0.2578125","-0.7626953","0.72558594","-45.0","-14.0","-22.90625"
"1573729904967","114","-0.25195312","-0.7451172","0.6044922","-48.21875","-13.5","-29.1875"
"1573729904967","115","-0.0859375","-0.7167969","0.56933594","-70.625","-13.25","-37.25"
"1573729904967","116","-0.21386719","-0.9277344","0.7636719","-90.09375","-5.6875","-34.75"
"1573729904967","117","-0.2685547","-1.2734375","0.61816406","-82.0","-1.40625","-34.5"
"1573729904968","118","0.06347656","-1.0800781","0.50878906","-59.34375","-0.8125","-40.53125"
"1573729904968","119","-0.013671875","-1.0576172","0.3046875","-56.46875","5.46875","-45.1875"
"1573729905560","120","0.12597656","-0.8613281","0.25585938","-57.15625","3.15625","-32.0"
"1573729905562","121","-0.0126953125","-0.8154297","0.3095703","-54.53125","7.0625","-27.90625"
"1573729905562","122","-0.015625","-0.8515625","0.203125","-36.625","5.96875","-18.625"
"1573729905563","123","0.19140625","-0.93652344","0.14160156","-34.9375","2.1875","-17.46875"
"1573729905563","124","0.08300781","-1.0302734","0.17578125","-35.96875","6.5","-13.125"
"1573729905563","125","0.049804688","-1.0410156","0.17480469","-50.5625","16.9375","-13.9375"
"1573729905564","126","0.099609375","-1.0507812","0.099609375","-39.375","19.03125","-10.6875"
"1573729905567","127","0.14257812","-0.9902344","0.06542969","-24.4375","16.78125","-4.65625"
"1573729905568","128","0.064453125","-0.9404297","0.043945312","-21.875","24.46875","-0.1875"
"1573729905568","129","0.18164062","-1.0097656","0.041992188","-33.875","22.09375","6.03125"
"1573729905759","130","0.07519531","-0.98046875","0.091796875","-6.84375","18.1875","5.78125"
"1573729905759","131","0.0146484375","-0.94140625","0.08105469","6.8125","23.78125","4.125"
"1573729905760","132","0.052734375","-0.9746094","0.047851562","18.1875","24.15625","10.46875"
"1573729905761","133","0.0234375","-0.96972656","0.09375","31.46875","15.65625","19.40625"
"1573729905761","134","0.037109375","-0.9433594","0.11816406","28.65625","14.375","30.375"
"1573729905762","135","0.0","-0.98828125","0.15429688","25.0625","17.4375","39.0625"
"1573729905762","136","-0.0390625","-0.9628906","0.20019531","28.78125","21.46875","40.5625"
"1573729905762","137","-0.072265625","-0.9667969","0.22363281","30.375","21.09375","44.0"
"1573729905762","138","-0.11035156","-0.9394531","0.234375","43.1875","16.34375","45.40625"
"1573729905763","139","-0.140625","-0.9326172","0.2841797","51.3125","11.59375","44.25"
"1573729906156","140","-0.23144531","-0.9160156","0.32421875","53.09375","15.3125","42.59375"
"1573729906156","141","-0.26953125","-0.89746094","0.35253906","51.0","14.5","39.40625"
"1573729906157","142","-0.2734375","-0.83496094","0.38867188","46.625","6.46875","38.0"
"1573729906157","143","-0.3251953","-0.8486328","0.40429688","55.90625","4.9375","37.34375"
"1573729906157","144","-0.34179688","-0.7939453","0.41601562","44.78125","4.5625","34.59375"
"1573729906158","145","-0.3857422","-0.7890625","0.46484375","30.625","6.875","33.90625"
"1573729906159","146","-0.3544922","-0.7714844","0.49023438","27.9375","7.375","31.0"
"1573729906159","147","-0.39941406","-0.7558594","0.54003906","26.90625","0.28125","25.5"
"1573729906159","148","-0.46484375","-0.7548828","0.5800781","16.09375","0.84375","20.8125"
"1573729906159","149","-0.3876953","-0.7138672","0.54589844","21.71875","0.71875","13.71875"
"1573729906553","150","-0.43554688","-0.71777344","0.58203125","22.4375","0.71875","12.9375"
"1573729906554","151","-0.4267578","-0.7207031","0.61035156","16.53125","5.59375","12.875"
"1573729906554","152","-0.40527344","-0.70214844","0.6230469","2.0","9.03125","10.46875"
"1573729906554","153","-0.45507812","-0.66796875","0.5703125","-3.5","9.09375","0.0"
"1573729906555","154","-0.39941406","-0.6748047","0.5751953","-4.09375","8.09375","-4.96875"
"1573729906555","155","-0.45996094","-0.7158203","0.5800781","-0.1875","7.5","-7.78125"
"1573729906555","156","-0.41210938","-0.703125","0.55371094","-12.78125","3.84375","-6.25"
"1573729906556","157","-0.4013672","-0.71484375","0.54003906","-13.75","4.0","-1.3125"
"1573729906556","158","-0.4248047","-0.7363281","0.49902344","-17.03125","2.78125","-3.96875"
"1573729906556","159","-0.41796875","-0.7626953","0.5078125","-16.625","3.84375","-6.3125"
"1573729906951","160","-0.4267578","-0.7685547","0.52441406","-6.90625","3.34375","-10.875"
"1573729906951","161","-0.4326172","-0.7626953","0.5263672","-12.34375","-3.1875","-11.71875"
"1573729906952","162","-0.39746094","-0.7363281","0.53027344","-12.71875","-5.375","-10.5625"
"1573729906952","163","-0.3623047","-0.7470703","0.5292969","-7.46875","-8.875","-9.125"
"1573729906952","164","-0.3857422","-0.7597656","0.5234375","-14.96875","-7.09375","-10.5625"
"1573729906953","165","-0.36816406","-0.7939453","0.515625","-19.3125","-8.0","-17.09375"
"1573729906953","166","-0.39941406","-0.82128906","0.5371094","-23.28125","-4.21875","-20.78125"
"1573729906953","167","-0.3876953","-0.79296875","0.51171875","-23.75","-7.09375","-27.1875"
"1573729906954","168","-0.34277344","-0.78808594","0.4794922","-17.09375","-10.9375","-28.15625"
"1573729906957","169","-0.33691406","-0.7675781","0.47753906","-19.53125","-7.53125","-29.6875"
"1573729907349","170","-0.30371094","-0.8027344","0.4609375","-29.96875","-9.40625","-30.09375"
"1573729907350","171","-0.27441406","-0.8154297","0.43945312","-29.875","-11.78125","-28.8125"
"1573729907350","172","-0.2421875","-0.83691406","0.4267578","-28.09375","-16.0625","-27.3125"
"1573729907350","173","-0.23535156","-0.8613281","0.3935547","-26.1875","-14.84375","-23.8125"
"1573729907351","174","-0.16796875","-0.86816406","0.39648438","-29.3125","-14.0625","-24.375"
"1573729907351","175","-0.15722656","-0.8925781","0.3486328","-27.53125","-17.40625","-22.125"
"1573729907351","176","-0.11328125","-0.90527344","0.29882812","-24.25","-16.96875","-20.875"
"1573729907351","177","-0.0234375","-0.92089844","0.29003906","-22.78125","-22.53125","-19.71875"
"1573729907352","178","-0.064453125","-0.87597656","0.2734375","-9.78125","-21.25","-11.6875"
"1573729907352","179","-0.028320312","-0.93359375","0.24707031","-18.625","-8.25","-1.71875"
"1573729907747","180","-0.009765625","-1.0078125","0.21777344","13.59375","-10.34375","5.78125"
"1573729907747","181","-0.095703125","-0.9628906","0.3154297","11.21875","-5.625","13.40625"
"1573729907748","182","-0.10839844","-0.92871094","0.2919922","26.90625","0.53125","23.4375"
"1573729907748","183","-0.05078125","-0.89160156","0.24609375","43.3125","4.6875","20.96875"
"1573729907748","184","-0.11621094","-0.9091797","0.31445312","43.75","4.5625","29.53125"
"1573729907748","185","-0.14355469","-0.9980469","0.3623047","47.59375","6.03125","27.09375"
"1573729907748","186","-0.18652344","-1.0654297","0.4609375","20.8125","14.625","22.375"
"1573729907749","187","-0.3125","-1.1015625","0.5839844","15.65625","12.25","23.25"
"1573729907749","188","-0.3486328","-1.171875","0.65234375","-10.875","17.0","24.59375"
"1573729907749","189","-0.2734375","-1.0830078","0.57910156","6.46875","10.59375","12.5"
"1573729908143","190","-0.34179688","-1.0302734","0.5908203","-4.71875","22.1875","1.875"
"1573729908143","191","-0.3486328","-0.97558594","0.62597656","-28.09375","29.46875","-5.4375"
"1573729908144","192","-0.3642578","-0.99902344","0.578125","-21.125","22.8125","-3.25"
"1573729908144","193","-0.3232422","-0.95410156","0.5175781","0.09375","9.125","-2.53125"
"1573729908144","194","-0.2421875","-0.859375","0.41992188","6.09375","1.15625","-7.875"
"1573729908145","195","-0.265625","-0.80371094","0.4033203","-2.46875","5.1875","-8.4375"
"1573729908145","196","-0.25683594","-0.7441406","0.34960938","-2.46875","3.9375","-13.5625"
"1573729908145","197","-0.17382812","-0.7529297","0.3564453","-14.34375","-4.09375","-16.0625"
"1573729908146","198","-0.21679688","-0.77734375","0.36523438","-30.84375","2.84375","-23.4375"
"1573729908146","199","-0.21972656","-0.8125","0.34277344","-21.625","2.4375","-24.78125"
"1573729908541","200","-0.13574219","-0.8144531","0.3095703","-33.84375","-0.9375","-23.9375"
"1573729908542","201","-0.19335938","-0.86035156","0.30273438","-42.75","2.4375","-27.78125"
"1573729908542","202","-0.15722656","-0.8652344","0.3125","-39.125","-2.15625","-28.03125"
"1573729908542","203","-0.109375","-0.8466797","0.2734375","-41.8125","-11.96875","-29.3125"
"1573729908543","204","-0.13671875","-0.7949219","0.25585938","-44.5","-13.1875","-28.53125"
"1573729908544","205","-0.1171875","-0.8613281","0.19335938","-57.625","-13.25","-29.96875"
"1573729908544","206","-0.08105469","-0.8886719","0.19335938","-51.21875","-15.15625","-34.0625"
"1573729908544","207","-0.0703125","-0.8808594","0.17285156","-51.34375","-20.875","-37.125"
"1573729908545","208","-0.05859375","-0.9042969","0.15234375","-53.0","-19.1875","-43.84375"
"1573729908545","209","-0.048828125","-0.9003906","0.16113281","-52.375","-22.125","-41.6875"
"1573729908938","210","0.043945312","-0.8828125","0.08300781","-53.59375","-23.40625","-43.96875"
"1573729908939","211","0.076171875","-0.95214844","0.10839844","-57.875","-24.78125","-46.46875"
"1573729908939","212","0.0068359375","-0.9111328","0.099609375","-59.9375","-24.375","-42.4375"
"1573729908939","213","-0.040039062","-0.91015625","0.064453125","-54.875","-16.1875","-38.15625"
"1573729908940","214","0.013671875","-0.8730469","0.0234375","-39.25","-11.4375","-32.0625"
"1573729908940","215","0.053710938","-0.8828125","-0.061523438","-28.03125","-6.71875","-30.03125"
"1573729908940","216","0.17675781","-0.9873047","-0.055664062","-14.0625","-1.84375","-29.9375"
"1573729908942","217","0.22460938","-1.0517578","-0.013671875","1.625","-4.96875","-17.21875"
"1573729908942","218","0.171875","-0.97753906","-0.0107421875","5.34375","0.15625","-2.28125"
"1573729908943","219","0.24511719","-1.0146484","-0.0703125","-2.21875","-2.8125","-2.625"
"1573729909338","220","0.17285156","-0.9667969","-0.06933594","-3.3125","-2.03125","2.96875"
"1573729909339","221","0.09277344","-0.96191406","-0.076171875","-2.03125","8.78125","6.21875"
"1573729909339","222","0.26660156","-0.98046875","-0.10058594","1.5625","5.34375","2.78125"
"1573729909339","223","0.1953125","-0.9560547","-0.068359375","6.21875","1.15625","4.375"
"1573729909340","224","0.16992188","-0.9736328","-0.060546875","9.5625","4.1875","5.21875"
"1573729909340","225","0.21289062","-0.97558594","-0.051757812","14.5","3.71875","7.5"
"1573729909340","226","0.14648438","-0.96875","-0.0107421875","18.78125","5.53125","11.9375"
"1573729909340","227","0.14453125","-0.9794922","-0.016601562","26.34375","5.90625","15.3125"
"1573729909341","228","0.18261719","-0.9453125","-0.029296875","26.15625","5.59375","19.46875"
"1573729909342","229","0.11816406","-0.90625","0.0107421875","22.625","14.8125","18.125"
"1573729909734","230","0.08203125","-0.9667969","0.036132812","12.375","18.125","29.65625"
"1573729909735","231","0.11230469","-0.98046875","0.009765625","20.3125","12.25","35.15625"
"1573729909735","232","0.049804688","-0.9091797","0.048828125","31.78125","16.65625","30.75"
"1573729909735","233","-0.025390625","-0.87597656","0.08496094","54.4375","23.25","37.28125"
"1573729909736","234","0.0","-0.7939453","0.10546875","65.90625","24.46875","40.28125"
"1573729909736","235","0.0068359375","-0.9160156","0.10644531","58.15625","10.46875","37.03125"
"1573729909736","236","-0.041015625","-0.9248047","0.19433594","68.71875","22.25","39.09375"
"1573729909737","237","-0.09863281","-0.890625","0.25390625","61.09375","26.59375","36.90625"
"1573729909737","238","-0.055664062","-0.9355469","0.22753906","56.3125","21.90625","36.25"
"1573729909737","239","-0.12109375","-0.87109375","0.2919922","54.4375","27.5625","38.4375"
"1573729910131","240","-0.16992188","-0.8828125","0.28515625","54.84375","25.6875","34.59375"
"1573729910132","241","-0.072265625","-0.82128906","0.28808594","49.375","19.6875","30.375"
"1573729910132","242","-0.23535156","-0.875","0.35839844","21.28125","27.15625","25.625"
"1573729910132","243","-0.20800781","-0.8857422","0.34179688","17.0","26.09375","22.125"
"1573729910132","244","-0.19433594","-0.8671875","0.29882812","11.59375","5.125","16.34375"
"1573729910133","245","-0.21582031","-0.7441406","0.3359375","15.84375","5.90625","10.71875"
"1573729910133","246","-0.23828125","-0.7841797","0.3798828","-7.71875","9.625","8.59375"
"1573729910133","247","-0.21191406","-0.80566406","0.33007812","-11.125","3.84375","0.53125"
"1573729910134","248","-0.28320312","-0.77734375","0.4248047","-18.5625","8.40625","2.1875"
"1573729910134","249","-0.3671875","-0.8876953","0.3779297","-37.375","8.40625","0.21875"
"1573729910530","250","-0.19824219","-0.8574219","0.35058594","-27.46875","-9.34375","-11.0"
"1573729910530","251","-0.25195312","-0.8671875","0.43554688","-30.46875","-15.34375","-10.75"
"1573729910530","252","-0.31152344","-0.9716797","0.4716797","-41.15625","-1.59375","-13.75"
"1573729910531","253","-0.31152344","-1.0371094","0.4501953","-40.78125","-3.75","-18.625"
"1573729910532","254","-0.2919922","-1.0263672","0.40429688","-38.78125","-14.71875","-22.46875"
"1573729910532","255","-0.31933594","-1.0673828","0.41601562","-41.40625","1.9375","-29.0625"
"1573729910532","256","-0.33007812","-1.1298828","0.39746094","-61.90625","6.875","-26.4375"
"1573729910532","257","-0.27148438","-1.2832031","0.38183594","-61.53125","5.28125","-31.21875"
"1573729910533","258","-0.19628906","-1.234375","0.1875","-38.40625","2.65625","-33.59375"
"1573729910533","259","-0.047851562","-1.1367188","0.028320312","-30.40625","6.40625","-35.53125"
"1573729910927","260","-0.03125","-1.0400391","0.05859375","-5.4375","6.8125","-27.90625"
"1573729910928","261","0.0068359375","-0.93652344","0.03125","5.28125","-6.71875","-26.03125"
"1573729910928","262","0.0","-0.9560547","0.040039062","1.28125","-7.15625","-19.4375"
"1573729910928","263","0.017578125","-0.9970703","0.064453125","-20.15625","0.65625","-17.59375"
"1573729910929","264","0.06640625","-0.9921875","0.05859375","-20.71875","-4.46875","-14.84375"
"1573729910930","265","-0.03515625","-1.0039062","0.10644531","-13.5625","11.53125","-8.625"
"1573729910931","266","0.10253906","-0.9970703","0.0703125","-21.1875","18.96875","-5.5"
"1573729910931","267","0.13769531","-1.0292969","0.028320312","6.5625","0.84375","-1.0625"
"1573729910931","268","-0.015625","-0.99902344","0.05078125","22.8125","6.46875","5.0"
"1573729910932","269","0.005859375","-0.98046875","0.045898438","1.75","15.0","9.03125"
"1573729911324","270","0.045898438","-0.9765625","0.049804688","-0.0625","9.625","14.3125"
"1573729911325","271","-0.072265625","-0.9716797","0.09667969","18.0","13.40625","18.40625"
"1573729911325","272","-0.0546875","-0.984375","0.0859375","19.09375","9.25","21.03125"
"1573729911326","273","-0.0546875","-0.9785156","0.10546875","17.0625","8.59375","23.46875"
"1573729911326","274","-0.13769531","-0.9736328","0.13085938","27.28125","8.03125","27.21875"
"1573729911326","275","-0.12890625","-0.95703125","0.16210938","28.3125","9.8125","28.5"
"1573729911326","276","-0.123046875","-0.9560547","0.15039062","32.21875","4.0","29.9375"
"1573729911328","277","-0.16308594","-0.9472656","0.171875","30.5","2.96875","29.34375"
"1573729911328","278","-0.19921875","-0.9326172","0.21582031","29.15625","4.75","31.96875"
"1573729911329","279","-0.23632812","-0.92285156","0.26757812","35.625","7.8125","32.28125"
"1573729911722","280","-0.26367188","-0.91015625","0.29296875","48.375","6.9375","30.5"
"1573729911722","281","-0.24902344","-0.88964844","0.3203125","45.46875","-0.125","30.375"
"1573729911723","282","-0.2919922","-0.84765625","0.375","50.9375","5.0625","29.84375"
"1573729911723","283","-0.34375","-0.8496094","0.4189453","52.90625","5.78125","30.0625"
"1573729911723","284","-0.32226562","-0.8232422","0.44628906","44.125","-0.875","28.625"
"1573729911723","285","-0.35058594","-0.7939453","0.48339844","46.375","2.65625","30.5625"
"1573729911724","286","-0.38867188","-0.7734375","0.51953125","41.78125","4.125","29.03125"
"1573729911724","287","-0.39648438","-0.73339844","0.5175781","39.90625","0.71875","23.4375"
"1573729911724","288","-0.47265625","-0.75097656","0.5419922","32.6875","8.28125","15.0"
"1573729911726","289","-0.42382812","-0.74316406","0.5234375","27.21875","8.28125","7.90625"
"1573729912119","290","-0.36132812","-0.7324219","0.5654297","13.71875","5.78125","15.5625"
"1573729912120","291","-0.4423828","-0.73339844","0.63964844","-6.59375","15.78125","17.1875"
"1573729912120","292","-0.40039062","-0.7285156","0.59375","-8.9375","12.4375","13.96875"
"1573729912120","293","-0.3671875","-0.71972656","0.5800781","-15.59375","9.1875","13.03125"
"1573729912121","294","-0.40820312","-0.65722656","0.59277344","-20.71875","8.96875","11.28125"
"1573729912121","295","-0.4453125","-0.703125","0.5390625","-14.71875","2.84375","7.25"
"1573729912121","296","-0.4765625","-0.67285156","0.47558594","5.84375","-0.5","1.5"
"1573729912121","297","-0.49414062","-0.69433594","0.44921875","20.0","-3.6875","-0.25"
"1573729912121","298","-0.5136719","-0.71191406","0.46777344","19.34375","0.84375","-0.9375"
"1573729912122","299","-0.49609375","-0.7246094","0.4609375","18.65625","0.0","0.28125"
"1573729912517","300","-0.42382812","-0.69921875","0.4716797","17.0","-3.0625","8.46875"
"1573729912518","301","-0.41308594","-0.72558594","0.53125","6.15625","-2.40625","16.53125"
"1573729912518","302","-0.39648438","-0.7607422","0.53222656","11.09375","-5.21875","17.875"
"1573729912518","303","-0.40820312","-0.7861328","0.6044922","17.25","-4.28125","20.75"
"1573729912519","304","-0.5488281","-0.81640625","0.7529297","35.03125","-2.53125","19.875"
"1573729912519","305","-0.6425781","-0.8574219","0.78222656","31.84375","3.78125","7.5"
"1573729912519","306","-0.5625","-0.7675781","0.7919922","17.875","1.8125","-4.53125"
"1573729912520","307","-0.609375","-0.7402344","0.7607422","7.84375","-0.875","-4.03125"
"1573729912520","308","-0.5488281","-0.70996094","0.73828125","-0.75","1.375","-11.5625"
"1573729912520","309","-0.5332031","-0.68847656","0.69140625","-17.65625","0.03125","-12.34375"
"1573729913112","310","-0.47558594","-0.71191406","0.68359375","-20.875","2.96875","-17.46875"
"1573729913112","311","-0.50390625","-0.69921875","0.6591797","-21.4375","6.21875","-20.84375"
"1573729913113","312","-0.5078125","-0.6982422","0.65234375","-23.8125","4.75","-21.5625"
"1573729913114","313","-0.48632812","-0.73339844","0.6113281","-26.6875","6.40625","-23.5"
"1573729913114","314","-0.42285156","-0.72753906","0.5654297","-24.0625","1.9375","-27.25"
"1573729913115","315","-0.3798828","-0.703125","0.5332031","-29.0","-2.6875","-30.65625"
"1573729913115","316","-0.38085938","-0.7207031","0.49316406","-41.28125","-1.65625","-34.5"
"1573729913115","317","-0.36523438","-0.7792969","0.44628906","-56.71875","-0.5625","-37.0"
"1573729913115","318","-0.35253906","-0.76660156","0.40234375","-71.25","1.3125","-38.90625"
"1573729913116","319","-0.29492188","-0.7939453","0.3935547","-77.96875","2.125","-39.03125"
"1573729913312","320","-0.26953125","-0.7988281","0.35351562","-77.03125","1.28125","-43.65625"
"1573729913312","321","-0.23632812","-0.81933594","0.2763672","-58.375","-3.375","-46.03125"
"1573729913313","322","-0.23828125","-0.828125","0.26367188","-63.5625","-8.5","-49.09375"
"1573729913313","323","-0.23339844","-0.8388672","0.22851562","-57.03125","-10.5","-53.125"
"1573729913313","324","-0.17480469","-0.8310547","0.19140625","-41.65625","-20.34375","-62.625"
"1573729913315","325","-0.14257812","-0.8857422","0.14648438","-41.09375","-21.125","-69.65625"
"1573729913315","326","-0.091796875","-0.9169922","0.14550781","-45.5","-26.3125","-70.5"
"1573729913316","327","0.05859375","-0.88378906","0.16796875","-55.5625","-32.84375","-68.6875"
"1573729913317","328","0.14941406","-0.82128906","0.22167969","-68.25","-38.09375","-57.03125"
"1573729913317","329","0.0048828125","-0.7919922","0.20117188","-57.09375","-40.0625","-50.375"
"1573729913708","330","0.0087890625","-0.83691406","0.07910156","-59.28125","-38.53125","-44.4375"
"1573729913709","331","0.046875","-0.8769531","0.051757812","-69.84375","-30.84375","-33.28125"
"1573729913709","332","0.05078125","-0.9248047","0.01953125","-59.84375","-22.40625","-30.71875"
"1573729913709","333","0.09667969","-0.94921875","-0.0087890625","-47.6875","-18.4375","-23.15625"
"1573729913709","334","0.171875","-1.0205078","-0.06347656","-44.28125","-15.40625","-20.59375"
"1573729913710","335","0.18164062","-0.9003906","-0.076171875","-23.8125","-24.1875","-23.21875"
"1573729913710","336","0.0087890625","-0.9267578","-0.10839844","-5.15625","-11.6875","-12.09375"
"1573729913711","337","0.13183594","-1.0263672","-0.18457031","-2.875","4.9375","-14.34375"
"1573729913712","338","0.27148438","-0.9423828","-0.09277344","-0.375","-3.125","-12.46875"
"1573729913712","339","0.20214844","-1.015625","-0.08300781","5.34375","1.625","0.53125"
"1573729914105","340","0.24609375","-1.0166016","-0.14648438","2.90625","2.65625","2.0625"
"1573729914106","341","0.21582031","-0.9453125","-0.14550781","0.65625","-13.125","2.96875"
"1573729914106","342","0.11816406","-0.9863281","-0.078125","8.59375","1.75","9.9375"
"1573729914106","343","0.12207031","-0.9628906","-0.115234375","13.40625","10.84375","9.5"
"1573729914107","344","0.2265625","-0.9785156","-0.109375","16.40625","4.25","9.9375"
"1573729914107","345","0.15136719","-0.94628906","-0.045898438","17.6875","7.5","9.9375"
"1573729914108","346","0.13671875","-0.97753906","-0.06640625","22.25","10.1875","10.0625"
"1573729914108","347","0.16503906","-0.9355469","-0.03125","24.03125","9.25","10.90625"
"1573729914109","348","0.119140625","-0.8955078","0.022460938","30.0625","11.15625","13.96875"
"1573729914109","349","0.045898438","-0.9511719","0.041992188","40.34375","18.0625","23.25"
"1573729914702","350","0.1484375","-0.91015625","9.765625E-4","50.34375","17.625","23.25"
"1573729914702","351","0.09082031","-0.9140625","0.08496094","49.53125","22.6875","37.40625"
"1573729914702","352","-0.009765625","-0.7890625","0.06347656","64.6875","14.375","32.9375"
"1573729914703","353","0.13671875","-0.83203125","-0.00390625","66.875","8.71875","34.96875"
"1573729914703","354","0.015625","-0.8457031","0.11035156","72.625","5.90625","40.75"
"1573729914703","355","0.03125","-0.671875","0.18066406","78.96875","-2.59375","42.28125"
"1573729914704","356","-0.0546875","-0.70214844","0.18554688","87.3125","-7.59375","36.3125"
"1573729914704","357","-0.080078125","-0.82128906","0.24316406","67.1875","17.6875","46.0"
"1573729914704","358","0.0126953125","-0.8339844","0.24609375","65.0","5.21875","36.25"
"1573729914705","359","-0.001953125","-0.7080078","0.2939453","64.3125","-9.84375","28.96875"
"1573729915099","360","-0.14648438","-0.7607422","0.36035156","31.25","1.625","19.09375"
"1573729915100","361","-0.1640625","-0.9169922","0.39648438","22.5625","6.28125","21.09375"
"1573729915100","362","-0.001953125","-0.77246094","0.45117188","27.4375","-2.03125","10.59375"
"1573729915100","363","-0.21972656","-0.91796875","0.5722656","10.0625","0.34375","3.71875"
"1573729915100","364","-0.30566406","-1.0878906","0.62109375","14.625","9.6875","9.375"
"1573729915101","365","-0.09667969","-0.9160156","0.58203125","5.78125","8.46875","-5.5"
"1573729915101","366","-0.09765625","-1.0371094","0.6689453","-18.3125","0.78125","-12.09375"
"1573729915101","367","-0.2919922","-0.96777344","0.66308594","-13.75","0.34375","-13.0625"
"1573729915101","368","-0.047851562","-0.9111328","0.6347656","-28.09375","4.3125","-23.9375"
"1573729915102","369","-0.20117188","-1.0507812","0.6894531","-48.71875","4.3125","-12.59375"
"1573729915498","370","-0.16894531","-1.2880859","0.6171875","-51.21875","10.53125","-19.0"
"1573729915499","371","0.009765625","-1.3085938","0.4658203","-53.90625","5.0","-27.0625"
"1573729915499","372","-0.119140625","-1.1582031","0.36035156","-53.71875","10.84375","-19.71875"
"1573729915500","373","-0.046875","-0.9042969","0.3173828","-28.59375","4.0","-14.34375"
"1573729915501","374","0.047851562","-0.8154297","0.21679688","-17.59375","-3.0625","-16.9375"
"1573729915501","375","-0.029296875","-0.8203125","0.23535156","-18.25","2.65625","-9.84375"
"1573729915501","376","-0.0107421875","-0.91308594","0.23925781","-23.5","8.28125","-15.28125"
"1573729915501","377","0.043945312","-0.96875","0.23632812","-23.03125","10.65625","-13.25"
"1573729915502","378","0.045898438","-1.015625","0.25195312","-11.78125","12.9375","-5.4375"
"1573729915502","379","0.01953125","-1.0585938","0.27148438","-24.3125","6.21875","3.34375"
"1573729915897","380","-0.041992188","-1.0107422","0.24804688","-35.59375","5.0625","3.21875"
"1573729915897","381","0.0078125","-0.9433594","0.16992188","-30.46875","13.21875","-2.875"
"1573729915897","382","0.0234375","-0.9140625","0.15820312","-26.03125","20.8125","-4.65625"
"1573729915898","383","0.0029296875","-0.91308594","0.1484375","-25.96875","25.125","-0.625"
"1573729915898","384","-0.051757812","-0.9609375","0.12109375","-23.75","32.09375","6.875"
"1573729915900","385","-0.051757812","-0.99121094","0.13867188","-24.78125","38.3125","8.15625"
"1573729915900","386","-0.08105469","-0.9941406","0.099609375","-11.84375","29.65625","12.375"
"1573729915901","387","-0.059570312","-0.984375","0.09375","13.15625","16.09375","18.90625"
"1573729915901","388","-0.12109375","-0.9609375","0.087890625","14.375","13.65625","21.34375"
"1573729915901","389","-0.13183594","-0.9746094","0.119140625","29.90625","13.59375","24.46875"
"1573729916293","390","-0.1328125","-0.9658203","0.15722656","19.9375","9.375","27.03125"
"1573729916294","391","-0.17675781","-0.9589844","0.15820312","31.0625","7.8125","29.65625"
"1573729916294","392","-0.16308594","-0.93652344","0.20019531","42.21875","7.8125","30.75"
"1573729916295","393","-0.18359375","-0.91308594","0.25","33.4375","3.21875","31.90625"
"1573729916295","394","-0.21679688","-0.9277344","0.29003906","45.75","7.0","34.15625"
"1573729916295","395","-0.21777344","-0.9140625","0.32910156","38.8125","7.25","36.65625"
"1573729916295","396","-0.2734375","-0.9589844","0.36328125","21.65625","10.84375","34.65625"
"1573729916296","397","-0.3046875","-0.94433594","0.41503906","2.0","10.0625","31.96875"
"1573729916296","398","-0.3359375","-0.87109375","0.3828125","12.5","4.75","24.875"
"1573729916297","399","-0.36816406","-0.84472656","0.3486328","28.375","2.0","20.8125"
"1573729916690","400","-0.375","-0.8017578","0.39160156","32.28125","-1.1875","19.625"
"1573729916691","401","-0.37402344","-0.78808594","0.4169922","32.8125","-0.125","22.03125"
"1573729916691","402","-0.39453125","-0.7910156","0.41210938","37.53125","-2.8125","24.46875"
"1573729916691","403","-0.39257812","-0.7636719","0.4267578","42.90625","-3.3125","26.53125"
"1573729916691","404","-0.42285156","-0.79785156","0.44726562","32.09375","-0.8125","25.4375"
"1573729916692","405","-0.4345703","-0.7705078","0.47460938","27.21875","3.90625","22.03125"
"1573729916692","406","-0.43066406","-0.7470703","0.47460938","25.1875","-0.875","18.28125"
"1573729916692","407","-0.4248047","-0.75683594","0.49804688","33.0","-0.125","20.625"
"1573729916692","408","-0.42578125","-0.7246094","0.53222656","36.46875","-2.34375","22.875"
"1573729916694","409","-0.4140625","-0.7246094","0.5722656","29.53125","-0.25","25.5625"
"1573729917087","410","-0.39648438","-0.72753906","0.5625","23.71875","-1.84375","26.21875"
"1573729917087","411","-0.5","-0.7451172","0.69433594","31.25","3.09375","29.34375"
"1573729917087","412","-0.6455078","-0.8466797","0.78222656","34.78125","13.96875","20.1875"
"1573729917087","413","-0.67089844","-0.8203125","0.8310547","20.0","13.28125","2.84375"
"1573729917088","414","-0.62109375","-0.76953125","0.7832031","-6.375","7.1875","-3.8125"
"1573729917088","415","-0.65234375","-0.74902344","0.74609375","2.1875","5.90625","-11.125"
"1573729917088","416","-0.5878906","-0.7216797","0.7080078","-2.625","-5.25","-14.65625"
"1573729917088","417","-0.5830078","-0.73535156","0.7236328","18.28125","-15.15625","-19.375"
"1573729917089","418","-0.5576172","-0.7363281","0.7216797","11.09375","-13.1875","-24.375"
"1573729917089","419","-0.53808594","-0.71875","0.7060547","5.28125","-16.96875","-25.78125"
"1573729917486","420","-0.43164062","-0.67578125","0.6513672","-8.875","-22.90625","-23.40625"
"1573729917486","421","-0.36523438","-0.6953125","0.64746094","-23.40625","-19.0","-24.5"
"1573729917487","422","-0.39257812","-0.6875","0.5878906","-39.8125","-19.1875","-29.75"
"1573729917487","423","-0.29589844","-0.6855469","0.52441406","-46.28125","-18.09375","-35.84375"
"1573729917487","424","-0.2919922","-0.7128906","0.49023438","-59.65625","-14.40625","-39.6875"
"1573729917488","425","-0.2861328","-0.68847656","0.484375","-61.21875","-12.78125","-44.21875"
"1573729917488","426","-0.24316406","-0.6972656","0.4345703","-77.21875","-7.40625","-43.53125"
"1573729917488","427","-0.22167969","-0.7011719","0.38964844","-78.625","-6.59375","-47.4375"
"1573729917488","428","-0.17871094","-0.70996094","0.3408203","-79.71875","-4.46875","-51.53125"
"1573729917489","429","-0.17089844","-0.7207031","0.2890625","-75.5625","-7.46875","-52.9375"
"1573729917883","430","-0.09667969","-0.7714844","0.26953125","-64.59375","-16.0625","-53.1875"
"1573729917884","431","-0.11328125","-0.79589844","0.2685547","-69.71875","-14.0","-50.78125"
"1573729917884","432","-0.060546875","-0.83691406","0.22753906","-59.90625","-13.625","-45.1875"
"1573729917884","433","0.022460938","-0.8925781","0.21582031","-66.0625","-21.75","-41.34375"
"1573729917885","434","-0.0234375","-0.8066406","0.1953125","-64.21875","-31.3125","-44.3125"
"1573729917885","435","-0.033203125","-0.8691406","0.13671875","-57.8125","-25.21875","-40.25"
"1573729917885","436","0.041992188","-0.9404297","0.111328125","-53.25","-22.90625","-36.5625"
"1573729917886","437","0.047851562","-0.9824219","0.11328125","-51.59375","-22.0","-35.15625"
"1573729917886","438","0.057617188","-0.953125","0.0625","-53.65625","-19.5","-30.40625"
"1573729917886","439","0.1875","-0.9482422","0.03515625","-64.15625","-24.1875","-26.3125"
"1573729918281","440","0.08886719","-0.8466797","0.040039062","-68.125","-21.0625","-17.21875"
"1573729918281","441","-0.032226562","-0.93847656","0.022460938","-58.4375","-16.5","-10.28125"
"1573729918281","442","0.06640625","-1.0722656","-0.10644531","-48.78125","0.03125","-16.0"
"1573729918282","443","0.11816406","-0.9169922","-0.1484375","-13.03125","-6.4375","-27.96875"
"1573729918282","444","0.06933594","-1.0078125","-0.13183594","7.4375","-0.6875","-21.125"
"1573729918284","445","0.13476562","-0.9765625","-0.06738281","13.28125","7.375","-18.875"
"1573729918284","446","0.22558594","-0.9082031","-0.095703125","19.40625","-1.71875","-18.6875"
"1573729918284","447","0.3017578","-0.9667969","-0.10058594","26.21875","-0.9375","-8.0"
"1573729918285","448","0.28027344","-0.99609375","-0.076171875","7.5","-3.5","3.21875"
"1573729918285","449","0.2529297","-1.015625","-0.1015625","-7.65625","-8.5","0.40625"
"1573729918677","450","0.13574219","-0.98828125","-0.107421875","-9.90625","-6.84375","5.40625"
"1573729918677","451","0.13867188","-0.9550781","-0.1328125","-7.875","1.6875","2.125"
"1573729918677","452","0.19238281","-0.9863281","-0.13378906","3.53125","4.3125","-0.8125"
"1573729918678","453","0.22851562","-0.9765625","-0.095703125","11.71875","0.90625","1.21875"
"1573729918678","454","0.22949219","-0.9824219","-0.061523438","20.75","-2.875","3.59375"
"1573729918678","455","0.1796875","-0.9511719","-0.026367188","24.21875","-5.9375","9.5625"
"1573729918678","456","0.14355469","-0.9394531","-0.0087890625","27.28125","-0.375","13.84375"
"1573729918680","457","0.078125","-0.9453125","0.029296875","41.84375","5.46875","20.1875"
"1573729918680","458","0.12792969","-0.9394531","0.061523438","53.75","8.03125","25.9375"
"1573729918680","459","0.1015625","-0.9482422","0.06640625","62.71875","12.0625","30.3125"
"1573729919075","460","0.09472656","-0.9140625","0.0859375","66.4375","15.0","36.4375"
"1573729919076","461","0.13085938","-0.87402344","0.11035156","70.78125","9.9375","35.15625"
"1573729919076","462","-0.05078125","-0.80371094","0.17089844","79.6875","20.0","38.5"
"1573729919076","463","-0.07910156","-0.6894531","0.1875","83.71875","24.34375","37.21875"
"1573729919077","464","0.026367188","-0.75097656","0.21191406","57.46875","43.1875","30.3125"
"1573729919077","465","-0.0078125","-0.8935547","0.23535156","46.5","41.96875","23.71875"
"1573729919077","466","0.020507812","-0.6484375","0.21972656","61.5","11.8125","18.71875"
"1573729919077","467","0.005859375","-0.77441406","0.33398438","27.28125","25.4375","21.40625"
"1573729919077","468","-0.09765625","-0.97753906","0.3359375","35.625","25.625","14.9375"
"1573729919079","469","-0.08886719","-0.83203125","0.42871094","38.0","16.9375","32.53125"
"1573729919474","470","-0.119140625","-0.80371094","0.40429688","20.84375","18.0625","21.09375"
"1573729919475","471","-0.18261719","-0.9326172","0.4736328","12.625","29.34375","29.90625"
"1573729919475","472","-0.203125","-0.8847656","0.4267578","7.8125","25.6875","19.625"
"1573729919475","473","-0.16015625","-0.9355469","0.38085938","-33.46875","19.03125","11.03125"
"1573729919475","474","-0.15039062","-0.8828125","0.45898438","-42.875","18.1875","10.375"
"1573729919476","475","-0.28320312","-1.0107422","0.4267578","-32.3125","17.4375","3.46875"
"1573729919476","476","-0.2578125","-0.9941406","0.38378906","-37.3125","18.46875","0.46875"
"1573729919476","477","-0.15527344","-0.9140625","0.3798828","-40.65625","5.40625","-0.6875"
"1573729919476","478","-0.23242188","-1.0117188","0.3798828","-46.46875","5.0","-4.78125"
"1573729919477","479","-0.375","-0.9628906","0.36523438","-29.4375","4.1875","-9.53125"
"1573729919871","480","-0.20898438","-0.93066406","0.3388672","-32.25","1.03125","-14.71875"
"1573729919872","481","-0.20507812","-0.9423828","0.32714844","-36.28125","-3.875","-13.5"
"1573729919872","482","-0.44726562","-1.1318359","0.34472656","-42.125","-1.90625","-8.375"
"1573729919872","483","-0.14746094","-1.5820312","0.27148438","-26.0625","2.25","-28.46875"
"1573729919872","484","-0.06738281","-1.3701172","0.24316406","-29.625","-10.03125","-28.15625"
"1573729919873","485","-0.15136719","-1.2167969","0.15136719","-24.375","-6.84375","-35.46875"
"1573729919873","486","-0.099609375","-0.9892578","0.07714844","-2.59375","-5.3125","-27.59375"
"1573729919873","487","0.0048828125","-0.7421875","0.09667969","8.96875","-13.8125","-26.4375"
"1573729919875","488","0.001953125","-0.79003906","0.10546875","-1.0","-13.3125","-19.125"
"1573729919875","489","-0.087890625","-0.92871094","0.15820312","3.84375","-9.125","-12.96875"
"1573729920267","490","-0.1328125","-1.0146484","0.1875","-1.96875","-3.125","-6.90625"
"1573729920268","491","0.025390625","-1.0029297","0.14257812","5.96875","-1.3125","-7.53125"
"1573729920268","492","0.05078125","-1.0048828","0.17382812","11.875","-6.53125","2.1875"
"1573729920270","493","-0.055664062","-1.0146484","0.15917969","18.84375","-5.5625","4.6875"
"1573729920270","494","0.0126953125","-0.96972656","0.14941406","12.3125","-2.53125","7.90625"
"1573729920270","495","0.01953125","-0.94433594","0.15039062","14.21875","-1.96875","6.6875"
"1573729920271","496","-0.047851562","-0.9707031","0.17480469","19.8125","1.375","8.59375"
"1573729920271","497","-0.04296875","-0.9277344","0.19140625","14.9375","2.65625","7.25"
"1573729920271","498","-0.051757812","-0.95996094","0.25683594","23.0","5.46875","13.28125"
"1573729920271","499","-0.11328125","-0.9560547","0.2705078","31.125","8.34375","17.75"
"1573729920664","500","-0.08886719","-0.9082031","0.26464844","31.71875","8.28125","20.75"
"1573729920665","501","-0.0859375","-0.91015625","0.2861328","22.25","11.71875","24.15625"
"1573729920665","502","-0.14160156","-0.9140625","0.29589844","22.4375","13.28125","23.84375"
"1573729920665","503","-0.13085938","-0.9453125","0.33203125","13.28125","15.84375","24.9375"
"1573729920665","504","-0.16894531","-0.93847656","0.33398438","-2.59375","17.25","25.9375"
"1573729920667","505","-0.18945312","-0.8847656","0.2998047","-19.84375","21.03125","23.25"
"1573729920667","506","-0.24121094","-0.9238281","0.3076172","-9.0625","25.625","25.625"
"1573729920668","507","-0.3251953","-0.88378906","0.38476562","-8.1875","31.65625","25.125"
"1573729920668","508","-0.2861328","-0.86328125","0.33789062","8.34375","22.1875","24.03125"
"1573729920668","509","-0.3515625","-0.859375","0.3515625","31.90625","18.90625","27.5"
"1573729921062","510","-0.32617188","-0.8173828","0.3408203","25.0","15.0625","26.84375"
"1573729921063","511","-0.3359375","-0.8330078","0.39453125","28.4375","15.71875","28.375"
"1573729921063","512","-0.39648438","-0.8027344","0.4111328","33.5","14.5","25.3125"
"1573729921063","513","-0.36035156","-0.81640625","0.42773438","33.90625","17.0625","26.34375"
"1573729921064","514","-0.45703125","-0.7939453","0.45117188","40.15625","14.5","24.75"
"1573729921064","515","-0.42773438","-0.81347656","0.42285156","40.875","11.59375","22.125"
"1573729921064","516","-0.41308594","-0.80859375","0.43847656","29.59375","3.21875","17.75"
"1573729921065","517","-0.48828125","-0.8076172","0.47460938","40.8125","8.71875","13.71875"
"1573729921065","518","-0.45996094","-0.78222656","0.484375","23.59375","1.03125","8.03125"
"1573729921065","519","-0.45996094","-0.7392578","0.5390625","16.34375","1.3125","9.5"
"1573729921461","520","-0.4638672","-0.7392578","0.5332031","15.4375","2.0","7.5625"
"1573729921461","521","-0.42382812","-0.6669922","0.54589844","8.28125","-0.3125","5.53125"
"1573729921461","522","-0.49023438","-0.6669922","0.5722656","5.125","3.59375","5.0625"
"1573729921462","523","-0.44726562","-0.67578125","0.52734375","2.0","6.34375","3.71875"
"1573729921462","524","-0.4658203","-0.69628906","0.54003906","6.46875","4.9375","2.90625"
"1573729921462","525","-0.46777344","-0.7216797","0.515625","2.125","6.46875","3.03125"
"1573729921462","526","-0.453125","-0.7138672","0.5253906","-2.03125","4.25","3.46875"
"1573729921463","527","-0.4375","-0.70996094","0.52246094","-0.6875","0.96875","2.78125"
"1573729921463","528","-0.46679688","-0.68847656","0.5371094","-2.34375","0.15625","3.90625"
"1573729921464","529","-0.45410156","-0.6953125","0.53222656","-0.375","1.5","4.125"
"1573729921858","530","-0.46289062","-0.71191406","0.5126953","2.90625","-1.40625","5.0"
"1573729921859","531","-0.4765625","-0.74316406","0.546875","-3.0625","-2.625","6.5625"
"1573729921859","532","-0.5292969","-0.7890625","0.5732422","5.28125","-2.59375","8.15625"
"1573729921859","533","-0.58984375","-0.8017578","0.61816406","5.34375","0.21875","5.21875"
"1573729921860","534","-0.57714844","-0.8261719","0.63183594","0.96875","-2.34375","0.53125"
"1573729921860","535","-0.5576172","-0.81933594","0.63183594","-6.96875","-0.9375","-4.96875"
"1573729921860","536","-0.54296875","-0.8027344","0.6113281","-5.6875","-8.0","-9.90625"
"1573729921860","537","-0.5253906","-0.7714844","0.6201172","-2.03125","-7.9375","-13.03125"
"1573729921861","538","-0.5107422","-0.7832031","0.60839844","-1.96875","-11.1875","-18.21875"
"1573729921861","539","-0.5419922","-0.80371094","0.6455078","-4.84375","-5.875","-19.96875"
"1573729922255","540","-0.5078125","-0.78027344","0.63964844","7.96875","-8.4375","-20.34375"
"1573729922256","541","-0.42382812","-0.7861328","0.6035156","4.75","-12.46875","-18.8125"
"1573729922256","542","-0.4111328","-0.7578125","0.58984375","-4.09375","-10.28125","-21.125"
"1573729922257","543","-0.3798828","-0.71777344","0.5605469","-11.0625","-6.25","-22.65625"
"1573729922257","544","-0.36328125","-0.7373047","0.53515625","-8.625","-6.125","-23.40625"
"1573729922257","545","-0.32128906","-0.7421875","0.5253906","-24.75","-6.96875","-27.78125"
"1573729922257","546","-0.31445312","-0.74121094","0.515625","-33.78125","-4.90625","-28.59375"
"1573729922258","547","-0.30078125","-0.77734375","0.48632812","-32.59375","-3.25","-27.84375"
"1573729922258","548","-0.265625","-0.81152344","0.4501953","-37.90625","-7.78125","-29.8125"
"1573729922258","549","-0.23730469","-0.8173828","0.4560547","-43.34375","-5.03125","-30.34375"
"1573729922652","550","-0.2265625","-0.84375","0.4169922","-40.96875","-12.84375","-34.875"
"1573729922652","551","-0.21679688","-0.82714844","0.38867188","-38.53125","-14.0","-34.75"
"1573729922652","552","-0.16699219","-0.81347656","0.3466797","-40.96875","-12.28125","-35.40625"
"1573729922653","553","-0.15820312","-0.8330078","0.3232422","-53.40625","-11.0625","-39.625"
"1573729922654","554","-0.14648438","-0.8183594","0.29492188","-62.09375","-11.71875","-40.90625"
"1573729922654","555","-0.111328125","-0.78515625","0.24316406","-60.0","-16.25","-45.71875"
"1573729922654","556","-0.10449219","-0.83691406","0.234375","-73.25","-9.46875","-44.5625"
"1573729922655","557","-0.07421875","-0.8408203","0.19824219","-68.3125","-14.25","-50.0"
"1573729922655","558","-0.032226562","-0.8574219","0.16015625","-67.09375","-18.75","-48.46875"
"1573729922655","559","-0.021484375","-0.7998047","0.14453125","-65.75","-20.09375","-49.625"
"1573729923051","560","-0.018554688","-0.7910156","0.13964844","-61.46875","-17.15625","-42.4375"
"1573729923051","561","0.048828125","-0.86621094","0.08886719","-47.125","-16.96875","-39.75"
"1573729923051","562","0.025390625","-0.9375","0.064453125","-46.34375","-7.46875","-33.09375"
"1573729923052","563","0.11816406","-0.96875","0.025390625","-44.5625","-10.5","-28.59375"
"1573729923052","564","0.20605469","-0.9785156","0.026367188","-32.3125","-14.1875","-24.96875"
"1573729923052","565","0.07128906","-0.9902344","0.038085938","-20.46875","-16.9375","-16.0625"
"1573729923052","566","0.125","-1.0117188","-0.028320312","-20.59375","-7.78125","-10.875"
"1573729923053","567","0.15136719","-0.9501953","-0.041015625","-12.90625","-6.0","-9.53125"
"1573729923053","568","0.111328125","-0.9814453","-0.026367188","-10.15625","-3.625","-3.125"
"1573729923053","569","0.16210938","-0.9746094","-0.034179688","-7.15625","0.96875","-5.625"
"1573729923448","570","0.20214844","-0.94921875","-0.043945312","-1.25","-7.09375","-3.1875"
"1573729923448","571","0.14257812","-1.0019531","-0.0234375","0.03125","-3.90625","1.4375"
"1573729923448","572","0.1328125","-0.9707031","-0.036132812","3.40625","-1.84375","2.5"
"1573729923449","573","0.18359375","-0.98339844","-0.043945312","6.625","-7.65625","3.71875"
"1573729923449","574","0.14257812","-0.9794922","-0.0126953125","14.4375","-3.6875","6.5625"
"1573729923449","575","0.13769531","-1.0048828","-0.0048828125","13.96875","0.96875","8.46875"
"1573729923449","576","0.16308594","-0.9785156","-0.0068359375","17.8125","-2.59375","9.03125"
"1573729923451","577","0.13769531","-0.95996094","0.021484375","23.65625","-1.0","12.0625"
"1573729923451","578","0.09472656","-0.953125","0.049804688","29.65625","1.5625","15.3125"
"1573729923451","579","0.08203125","-0.9472656","0.0625","29.71875","6.15625","20.4375"
"1573729923845","580","0.08203125","-0.95214844","0.091796875","41.84375","9.8125","23.125"
"1573729923845","581","0.045898438","-0.85546875","0.09667969","45.6875","6.9375","25.3125"
"1573729923846","582","0.025390625","-0.84277344","0.1328125","56.1875","15.5625","30.5"
"1573729923846","583","-0.0146484375","-0.8017578","0.14550781","56.5625","17.5625","29.78125"
"1573729923846","584","0.05078125","-0.8720703","0.14257812","51.8125","17.875","28.0625"
"1573729923846","585","-0.030273438","-0.94628906","0.203125","45.28125","22.875","28.1875"
"1573729923847","586","0.03515625","-0.8564453","0.15429688","54.78125","10.71875","18.96875"
"1573729923847","587","-0.0146484375","-0.86621094","0.26757812","47.28125","18.28125","24.34375"
"1573729923847","588","-0.05078125","-0.8564453","0.16992188","50.28125","9.125","16.84375"
"1573729923848","589","0.022460938","-0.81347656","0.3173828","42.96875","10.375","23.90625"
"1573729924442","590","-0.12109375","-0.8125","0.3173828","36.96875","14.5","19.8125"
"1573729924443","591","-0.040039062","-0.8378906","0.31347656","25.75","15.3125","16.21875"
"1573729924443","592","-0.08496094","-0.79296875","0.33398438","20.84375","7.90625","17.75"
"1573729924444","593","-0.123046875","-0.86035156","0.30859375","14.8125","2.0625","10.1875"
"1573729924444","594","-0.053710938","-0.89453125","0.4169922","8.96875","-2.03125","10.46875"
"1573729924444","595","-0.15429688","-0.8154297","0.43164062","10.96875","-1.78125","5.34375"
"1573729924444","596","-0.12792969","-0.953125","0.4580078","-0.375","3.9375","2.65625"
"1573729924445","597","-0.14257812","-0.9355469","0.46679688","-3.625","-5.4375","0.0"
"1573729924445","598","-0.10546875","-0.89160156","0.4580078","-20.65625","-8.125","-9.34375"
"1573729924445","599","-0.13085938","-0.95703125","0.47460938","-38.34375","-0.6875","-8.1875"
"1573729924640","600","-0.16699219","-0.9433594","0.48339844","-25.65625","-5.375","-11.625"
"1573729924642","601","-0.13183594","-0.921875","0.46972656","-32.0","-9.84375","-10.34375"
"1573729924642","602","-0.1484375","-0.9189453","0.4921875","-42.3125","-2.09375","-9.15625"
"1573729924643","603","-0.23730469","-1.1230469","0.5","-63.6875","6.75","-6.71875"
"1573729924643","604","-0.16210938","-1.5292969","0.40527344","-76.25","12.6875","-18.3125"
"1573729924643","605","0.0107421875","-1.4501953","0.28808594","-46.71875","8.78125","-21.4375"
"1573729924643","606","-0.10058594","-1.1455078","0.12011719","-27.65625","16.71875","-17.28125"
"1573729924644","607","0.23828125","-0.9873047","0.06640625","-39.5625","7.84375","-14.34375"
"1573729924644","608","-0.07128906","-0.93359375","0.12207031","-41.28125","8.40625","-17.53125"
"1573729924644","609","-0.051757812","-0.87890625","0.09472656","-40.78125","18.84375","-14.40625"
"1573729925038","610","0.12011719","-0.93066406","0.0625","-32.125","9.4375","-12.53125"
"1573729925039","611","0.0068359375","-0.96484375","0.09667969","-28.21875","0.90625","-7.34375"
"1573729925039","612","-9.765625E-4","-1.0146484","0.08105469","-8.875","11.34375","1.15625"
"1573729925040","613","0.08203125","-0.99121094","0.078125","-1.96875","13.34375","2.125"
"1573729925041","614","-0.0068359375","-0.9550781","0.03125","6.03125","10.1875","12.25"
"1573729925041","615","0.055664062","-1.0048828","0.025390625","7.125","10.59375","15.0"
"1573729925041","616","-0.0126953125","-0.984375","0.053710938","10.1875","16.65625","15.0625"
"1573729925041","617","-0.052734375","-0.96972656","0.053710938","25.25","24.75","18.65625"
"1573729925042","618","-0.020507812","-0.9296875","0.08886719","18.0625","18.84375","23.65625"
"1573729925042","619","-0.08496094","-0.9169922","0.09765625","29.53125","14.625","32.8125"
"1573729925436","620","-0.099609375","-0.9560547","0.11816406","35.3125","17.6875","37.34375"
"1573729925436","621","-0.111328125","-0.9970703","0.109375","38.5","9.125","45.15625"
"1573729925437","622","-0.18457031","-1.0058594","0.1796875","48.8125","9.5","48.875"
"1573729925437","623","-0.20019531","-0.98339844","0.20605469","37.75","5.21875","43.4375"
"1573729925437","624","-0.23242188","-0.92871094","0.23828125","44.25","5.21875","38.875"
"1573729925439","625","-0.30273438","-0.9003906","0.2998047","45.03125","6.6875","37.28125"
"1573729925439","626","-0.35742188","-0.8730469","0.3642578","45.03125","8.15625","35.9375"
"1573729925439","627","-0.36328125","-0.82128906","0.39453125","46.4375","3.90625","33.90625"
"1573729925440","628","-0.38476562","-0.79785156","0.42285156","46.625","0.84375","35.15625"
"1573729925440","629","-0.41503906","-0.7841797","0.4765625","43.0625","8.03125","33.625"
"1573729925833","630","-0.43359375","-0.7734375","0.47265625","36.59375","7.375","33.1875"
"1573729925834","631","-0.46875","-0.7529297","0.5058594","27.03125","6.09375","29.46875"
"1573729925834","632","-0.4658203","-0.7558594","0.49902344","26.59375","3.59375","24.75"
"1573729925834","633","-0.4716797","-0.7324219","0.53222656","20.4375","6.5625","19.21875"
"1573729925835","634","-0.49609375","-0.7216797","0.52246094","18.71875","4.4375","15.0"
"1573729925835","635","-0.48828125","-0.69140625","0.54003906","12.9375","5.0625","10.84375"
"1573729925835","636","-0.48046875","-0.68652344","0.52734375","13.65625","5.90625","8.71875"
"1573729925837","637","-0.49121094","-0.6933594","0.5234375","7.90625","4.0625","6.34375"
"1573729925837","638","-0.5029297","-0.7001953","0.5205078","4.875","4.375","5.125"
"1573729925837","639","-0.47851562","-0.68652344","0.5078125","3.40625","4.0","4.5625"
"1573729926229","640","-0.47265625","-0.69921875","0.5175781","2.5625","6.03125","3.34375"
"1573729926230","641","-0.47265625","-0.6904297","0.5234375","1.875","3.90625","3.03125"
"1573729926230","642","-0.48339844","-0.6953125","0.5078125","7.90625","2.65625","2.90625"
"1573729926230","643","-0.4814453","-0.69921875","0.50878906","4.6875","1.625","4.3125"
"1573729926230","644","-0.46972656","-0.69628906","0.5283203","3.59375","-1.0625","4.8125"
"1573729926231","645","-0.49804688","-0.7294922","0.54003906","5.53125","-4.40625","4.875"
"1573729926231","646","-0.4873047","-0.74902344","0.5527344","8.53125","-9.40625","4.8125"
"1573729926231","647","-0.5058594","-0.7558594","0.6035156","18.1875","-10.4375","3.78125"
"1573729926231","648","-0.5625","-0.77441406","0.65527344","15.25","-7.53125","2.4375"
"1573729926232","649","-0.56640625","-0.7734375","0.7080078","13.65625","-1.71875","-2.875"
"1573729926627","650","-0.5527344","-0.7548828","0.7216797","11.53125","-8.75","-8.8125"
"1573729926627","651","-0.5341797","-0.7294922","0.70410156","15.65625","-13.875","-12.03125"
"1573729926628","652","-0.5410156","-0.7216797","0.70996094","19.46875","-13.8125","-15.875"
"1573729926628","653","-0.5214844","-0.7314453","0.7128906","8.78125","-14.0","-18.375"
"1573729926628","654","-0.48632812","-0.7529297","0.74316406","2.59375","-10.15625","-23.09375"
"1573729926628","655","-0.48535156","-0.7236328","0.7324219","3.28125","-10.5625","-22.15625"
"1573729926629","656","-0.4345703","-0.7548828","0.7050781","-1.53125","-10.15625","-19.78125"
"1573729926629","657","-0.375","-0.7246094","0.6796875","-9.96875","-11.125","-22.71875"
"1573729926629","658","-0.32617188","-0.6826172","0.6308594","-8.75","-16.4375","-23.9375"
"1573729926629","659","-0.328125","-0.6904297","0.5908203","-20.09375","-14.46875","-23.6875"
"1573729927026","660","-0.30273438","-0.6982422","0.5810547","-32.25","-12.53125","-24.78125"
"1573729927027","661","-0.29296875","-0.7109375","0.55566406","-40.90625","-14.90625","-27.0"
"1573729927027","662","-0.2763672","-0.7480469","0.5361328","-40.53125","-14.40625","-29.6875"
"1573729927028","663","-0.2421875","-0.75","0.51464844","-41.75","-14.34375","-29.25"
"1573729927028","664","-0.18945312","-0.7470703","0.48535156","-46.09375","-19.96875","-29.96875"
"1573729927029","665","-0.20605469","-0.7636719","0.45898438","-51.90625","-18.6875","-29.3125"
"1573729927029","666","-0.16113281","-0.77246094","0.4169922","-46.53125","-19.90625","-30.65625"
"1573729927029","667","-0.1640625","-0.76464844","0.3955078","-54.15625","-23.5625","-32.65625"
"1573729927030","668","-0.12695312","-0.8046875","0.3623047","-56.84375","-16.875","-33.78125"
"1573729927030","669","-0.07519531","-0.7558594","0.34375","-65.125","-19.375","-36.09375"
"1573729927423","670","-0.09277344","-0.8076172","0.3017578","-66.0625","-19.96875","-37.0"
"1573729927424","671","-0.0625","-0.82714844","0.30371094","-64.09375","-14.53125","-39.3125"
"1573729927424","672","-0.032226562","-0.8222656","0.25390625","-60.375","-19.53125","-40.0625"
"1573729927425","673","-0.00390625","-0.87109375","0.22070312","-56.90625","-21.375","-38.21875"
"1573729927425","674","0.020507812","-0.82714844","0.20703125","-55.9375","-19.375","-35.0625"
"1573729927425","675","0.07324219","-0.8339844","0.19238281","-48.71875","-20.40625","-35.96875"
"1573729927426","676","0.045898438","-0.8642578","0.19140625","-50.375","-18.9375","-32.125"
"1573729927426","677","0.0107421875","-0.89746094","0.17480469","-46.875","-10.625","-27.90625"
"1573729927426","678","0.12109375","-0.9511719","0.15527344","-48.0","-2.03125","-24.375"
"1573729927427","679","0.19042969","-1.0244141","0.11035156","-40.125","-11.0625","-23.875"
"1573729927821","680","0.140625","-0.87597656","0.1015625","-21.8125","-24.0625","-21.3125"
"1573729927821","681","0.14746094","-0.98339844","0.064453125","-15.21875","-11.6875","-9.40625"
"1573729927821","682","0.12988281","-0.9404297","0.08886719","-8.4375","-11.375","-5.875"
"1573729927822","683","0.140625","-0.9638672","0.041992188","-6.25","-2.625","-1.78125"
"1573729927822","684","0.18359375","-1.0097656","0.043945312","-2.34375","-3.0625","-0.1875"
"1573729927823","685","0.08984375","-1.0097656","0.08300781","-1.71875","-0.5","2.65625"
"1573729927824","686","0.16503906","-0.98535156","0.041015625","7.375","5.125","1.875"
"1573729927824","687","0.16894531","-0.96191406","0.037109375","5.53125","3.21875","2.90625"
"1573729927825","688","0.15429688","-0.97265625","0.08300781","4.0","1.875","4.6875"
"1573729927825","689","0.103515625","-0.94433594","0.076171875","13.0","2.3125","7.25"
"1573729928217","690","0.18359375","-0.99902344","0.06933594","13.0","7.25","9.03125"
"1573729928217","691","0.12890625","-0.96875","0.12695312","18.40625","5.21875","12.0625"
"1573729928217","692","0.061523438","-0.9013672","0.123046875","30.25","3.21875","15.1875"
"1573729928218","693","0.06347656","-0.93847656","0.14648438","37.65625","18.65625","20.1875"
"1573729928218","694","0.053710938","-0.86328125","0.14257812","45.34375","19.21875","18.0625"
"1573729928218","695","0.0625","-0.78808594","0.17773438","50.46875","20.8125","24.59375"
"1573729928218","696","-0.036132812","-0.79296875","0.20703125","55.96875","33.625","26.28125"
"1573729928219","697","0.0859375","-0.8730469","0.140625","49.4375","30.6875","25.5625"
"1573729928220","698","0.0546875","-0.9013672","0.20898438","43.9375","26.96875","26.40625"
"1573729928220","699","-0.07421875","-0.7402344","0.30078125","54.1875","22.5625","28.125"
"1573729928614","700","0.047851562","-0.9404297","0.20410156","35.875","30.3125","19.625"
"1573729928615","701","0.005859375","-0.8125","0.2685547","43.0625","14.15625","24.15625"
"1573729928615","702","-0.029296875","-0.78515625","0.3154297","28.65625","13.40625","18.28125"
"1573729928615","703","-0.078125","-0.9296875","0.35351562","24.8125","22.25","17.5"
"1573729928615","704","-0.0234375","-0.7832031","0.24511719","39.53125","-2.6875","13.0"
"1573729928616","705","-0.0087890625","-0.75","0.35058594","-1.46875","5.0","10.375"
"1573729928616","706","-0.22265625","-0.86621094","0.40527344","-11.90625","14.5625","12.0625"
"1573729928616","707","-0.0234375","-0.8378906","0.32421875","6.9375","-1.90625","2.1875"
"1573729928617","708","-0.07519531","-0.8457031","0.3828125","-12.46875","-10.9375","-0.125"
"1573729928618","709","-0.20996094","-0.9326172","0.4248047","-17.46875","4.375","-0.6875"
"1573729929210","710","-0.109375","-0.9013672","0.4345703","-6.0625","-11.25","-2.40625"
"1573729929211","711","-0.046875","-0.9707031","0.48046875","-23.875","-11.375","-8.625"
"1573729929211","712","-0.30859375","-1.0175781","0.51464844","-21.0625","-2.28125","-4.84375"
"1573729929211","713","-0.047851562","-0.9560547","0.5234375","-15.53125","-6.53125","-5.9375"
"1573729929212","714","-0.08691406","-1.0175781","0.5058594","-22.46875","-5.375","-15.53125"
"1573729929212","715","-0.2841797","-1.1904297","0.56933594","-36.46875","10.78125","-1.78125"
"1573729929212","716","0.018554688","-1.4609375","0.3876953","-29.375","8.21875","-19.96875"
"1573729929212","717","0.034179688","-1.2734375","0.30078125","-29.6875","-4.96875","-16.0625"
"1573729929213","718","-0.030273438","-1.125","0.2421875","-11.0","-5.6875","-11.71875"
"1573729929213","719","0.12402344","-0.9794922","0.17382812","-10.09375","-9.84375","-2.625"
"1573729929409","720","-0.018554688","-0.89453125","0.18164062","-12.59375","-8.25","-3.5625"
"1573729929410","721","0.08105469","-0.875","0.20507812","-10.6875","-6.0625","1.3125"
"1573729929410","722","0.01953125","-0.8964844","0.25585938","10.65625","-3.1875","7.8125"
"1573729929411","723","0.072265625","-0.9785156","0.25097656","6.8125","-4.21875","7.25"
"1573729929411","724","0.034179688","-0.984375","0.23046875","27.875","-2.625","4.5625"
"1573729929411","725","-0.017578125","-1.0058594","0.23828125","23.1875","7.90625","11.8125"
"1573729929411","726","0.056640625","-0.9511719","0.27539062","31.84375","4.5625","8.15625"
"1573729929412","727","-0.12109375","-0.91503906","0.2734375","42.28125","10.59375","18.0"
"1573729929412","728","0.0","-0.90625","0.3154297","30.375","12.5","16.84375"
"1573729929412","729","-0.14160156","-0.8886719","0.33398438","48.3125","14.625","24.875"
"1573729929807","730","-0.103515625","-0.8925781","0.38476562","35.875","21.28125","24.34375"
"1573729929808","731","-0.15527344","-0.8886719","0.40820312","39.34375","31.28125","26.78125"
"1573729929808","732","-0.15136719","-0.8701172","0.4111328","31.46875","29.9375","26.46875"
"1573729929810","733","-0.17285156","-0.85058594","0.4423828","22.5","26.65625","24.8125"
"1573729929810","734","-0.29003906","-0.8886719","0.4326172","-16.0625","40.34375","22.875"
"1573729929810","735","-0.2109375","-0.8496094","0.39257812","-41.03125","41.65625","18.40625"
"1573729929811","736","-0.23242188","-0.8144531","0.421875","-37.78125","52.96875","24.34375"
"1573729929811","737","-0.3515625","-0.81152344","0.46191406","-6.375","40.375","26.15625"
"1573729929811","738","-0.34277344","-0.8046875","0.43554688","9.125","24.65625","26.96875"
"1573729929811","739","-0.3544922","-0.80078125","0.47753906","33.84375","13.40625","29.84375"
"1573729930205","740","-0.421875","-0.79003906","0.4765625","27.9375","11.59375","27.15625"
"1573729930205","741","-0.390625","-0.76660156","0.4482422","34.53125","8.59375","24.8125"
"1573729930205","742","-0.42578125","-0.7441406","0.51464844","37.03125","12.5","24.46875"
"1573729930206","743","-0.4375","-0.7294922","0.5214844","28.90625","11.15625","22.75"
"1573729930206","744","-0.45996094","-0.7314453","0.5390625","25.0625","9.25","22.3125"
"1573729930207","745","-0.45898438","-0.70703125","0.53222656","29.84375","3.90625","20.25"
"1573729930208","746","-0.5136719","-0.7060547","0.57714844","24.34375","10.1875","19.53125"
"1573729930208","747","-0.5019531","-0.69921875","0.55566406","15.84375","6.28125","15.0"
"1573729930209","748","-0.4873047","-0.66503906","0.5546875","18.28125","3.90625","13.28125"
"1573729930209","749","-0.49804688","-0.6533203","0.5625","16.40625","0.84375","11.71875"
"1573729930602","750","-0.5126953","-0.6328125","0.5800781","12.9375","3.34375","9.5625"
"1573729930602","751","-0.49609375","-0.62402344","0.56640625","8.84375","3.09375","8.03125"
"1573729930602","752","-0.5107422","-0.6298828","0.57128906","9.5625","0.65625","7.90625"
"1573729930603","753","-0.48632812","-0.6503906","0.5722656","10.84375","3.09375","7.5"
"1573729930603","754","-0.4892578","-0.68066406","0.5673828","5.59375","3.40625","10.0625"
"1573729930603","755","-0.55371094","-0.71972656","0.61035156","10.65625","-2.6875","13.84375"
"1573729930603","756","-0.58984375","-0.76464844","0.68359375","10.1875","4.4375","12.75"
"1573729930604","757","-0.64941406","-0.75878906","0.7089844","3.21875","5.90625","7.25"
"1573729930605","758","-0.6347656","-0.73046875","0.73535156","-6.78125","10.0","0.90625"
"1573729930605","759","-0.6503906","-0.7451172","0.7167969","-12.53125","5.1875","-3.75"
"1573729931000","760","-0.6386719","-0.72558594","0.703125","-18.09375","1.28125","-8.5625"
"1573729931000","761","-0.62597656","-0.7607422","0.6923828","-14.53125","1.8125","-15.03125"
"1573729931000","762","-0.6201172","-0.7597656","0.69628906","-10.5","1.28125","-22.21875"
"1573729931001","763","-0.6074219","-0.7636719","0.65234375","-7.65625","-1.46875","-26.0625"
"1573729931001","764","-0.50683594","-0.74316406","0.6230469","9.1875","-9.71875","-28.65625"
"1573729931001","765","-0.50390625","-0.70996094","0.61035156","3.53125","-5.6875","-29.625"
"1573729931001","766","-0.45996094","-0.68847656","0.5576172","-6.90625","-8.6875","-31.6875"
"1573729931002","767","-0.39746094","-0.63378906","0.51464844","-8.3125","-15.75","-35.125"
"1573729931002","768","-0.3486328","-0.65722656","0.4814453","-26.5","-9.53125","-39.0625"
"1573729931004","769","-0.3720703","-0.6845703","0.49121094","-48.65625","-6.5","-43.40625"
"1573729931398","770","-0.31835938","-0.7050781","0.4638672","-44.375","-4.84375","-45.1875"
"1573729931398","771","-0.3251953","-0.77734375","0.47558594","-61.0625","-8.0","-43.59375"
"1573729931398","772","-0.2685547","-0.8095703","0.42089844","-61.53125","-7.9375","-48.65625"
"1573729931399","773","-0.24316406","-0.79589844","0.38964844","-54.75","-7.28125","-48.71875"
"1573729931399","774","-0.21777344","-0.8017578","0.32910156","-65.4375","-7.65625","-49.9375"
"1573729931399","775","-0.1875","-0.7792969","0.30078125","-67.28125","-10.34375","-53.3125"
"1573729931399","776","-0.17382812","-0.81640625","0.26464844","-80.9375","-5.25","-56.0"
"1573729931400","777","-0.12207031","-0.8173828","0.22363281","-79.59375","-13.125","-59.53125"
"1573729931400","778","-0.12011719","-0.76953125","0.17480469","-81.25","-20.65625","-56.46875"
"1573729931400","779","-0.049804688","-0.84472656","0.14453125","-77.40625","-22.84375","-57.5"
"1573729931795","780","-0.048828125","-0.8779297","0.14257812","-59.59375","-22.96875","-58.59375"
"1573729931797","781","-0.078125","-0.8847656","0.123046875","-51.59375","-18.875","-49.9375"
"1573729931798","782","0.06347656","-0.8232422","0.059570312","-49.5625","-25.03125","-47.5"
"1573729931798","783","0.034179688","-0.8310547","0.0703125","-54.34375","-21.4375","-41.46875"
"1573729931798","784","0.034179688","-0.96191406","0.041992188","-57.8125","-7.53125","-33.40625"
"1573729931799","785","0.19433594","-1.0410156","0.0126953125","-45.4375","-14.71875","-26.375"
"1573729931799","786","0.19335938","-0.8964844","-0.048828125","-25.34375","-31.03125","-29.0"
"1573729931799","787","0.09277344","-1.0146484","-0.041015625","-19.25","-21.0","-14.34375"
"1573729931800","788","0.09375","-0.9716797","-0.037109375","-22.71875","-2.9375","-6.5"
"1573729931800","789","0.17089844","-0.9511719","-0.103515625","-11.25","-5.25","-6.0625"
"1573729932193","790","0.20898438","-0.97265625","-0.08691406","-4.59375","-8.625","-3.5625"
"1573729932193","791","0.12988281","-0.984375","-0.08300781","-1.34375","-3.96875","1.09375"
"1573729932194","792","0.14746094","-0.97753906","-0.072265625","6.6875","4.8125","0.65625"
"1573729932195","793","0.22265625","-0.96191406","-0.083984375","15.25","-5.5","3.34375"
"1573729932195","794","0.1015625","-0.9785156","-0.056640625","18.0","3.09375","7.625"
"1573729932195","795","0.10644531","-1.0","-0.029296875","20.75","9.6875","11.28125"
"1573729932196","796","0.15722656","-0.98046875","-0.05078125","22.6875","3.59375","13.84375"
"1573729932196","797","0.091796875","-0.93847656","-0.013671875","29.84375","6.8125","18.40625"
"1573729932196","798","0.052734375","-0.9560547","0.022460938","37.03125","14.09375","20.375"
"1573729932197","799","0.083984375","-0.93359375","0.0078125","39.34375","13.03125","21.78125"
"1573729932590","800","0.125","-0.90625","0.041015625","45.6875","8.90625","26.65625"
"1573729932591","801","0.052734375","-0.96191406","0.0703125","39.78125","11.15625","25.125"
"1573729932592","802","-0.0146484375","-0.8984375","0.091796875","54.625","12.625","28.71875"
"1573729932592","803","0.061523438","-0.8144531","0.068359375","60.84375","9.9375","29.90625"
"1573729932592","804","0.020507812","-0.8730469","0.16601562","59.4375","11.59375","28.71875"
"1573729932592","805","-0.048828125","-0.80078125","0.17382812","63.09375","8.15625","25.0625"
"1573729932593","806","0.005859375","-0.7753906","0.18164062","59.0","8.46875","26.78125"
"1573729932593","807","0.009765625","-0.8154297","0.2109375","55.40625","5.21875","24.8125"
"1573729932593","808","-0.016601562","-0.7734375","0.2705078","51.5","2.65625","21.59375"
"1573729932594","809","-0.083984375","-0.86621094","0.29785156","38.375","7.375","22.3125"
"1573729933184","810","-0.12109375","-0.95996094","0.359375","39.0625","10.46875","26.71875"
"1573729933184","811","-0.016601562","-0.8125","0.29492188","48.9375","-4.59375","16.53125"
"1573729933185","812","0.029296875","-0.8095703","0.3701172","20.125","-6.0625","14.15625"
"1573729933185","813","-0.2265625","-0.9736328","0.47070312","13.21875","-6.0","19.09375"
"1573729933185","814","-0.08496094","-0.84765625","0.40234375","27.625","-13.75","10.71875"
"1573729933185","815","-0.08105469","-0.8515625","0.48632812","6.5","-11.125","8.84375"
"1573729933186","816","-0.23242188","-0.92285156","0.45898438","7.3125","-11.6875","9.125"
"1573729933186","817","0.041992188","-0.8183594","0.49316406","-0.375","-20.34375","-3.0"
"1573729933187","818","-0.234375","-0.9003906","0.5703125","-4.59375","-13.625","3.65625"
"1573729933187","819","-0.16601562","-0.92089844","0.5576172","-9.71875","-3.8125","-6.0625"
"1573729933384","820","-0.041015625","-0.91503906","0.58496094","-12.40625","-11.84375","-9.28125"
"1573729933385","821","-0.29101562","-0.9873047","0.6503906","-18.9375","-2.40625","-5.15625"
"1573729933385","822","-0.115234375","-1.0380859","0.66308594","-46.78125","10.96875","-10.5"
"1573729933385","823","-0.08691406","-1.3681641","0.5908203","-44.6875","7.84375","-15.28125"
"1573729933386","824","-0.13085938","-1.2617188","0.53808594","-32.71875","4.5","-14.59375"
"1573729933386","825","0.0234375","-1.0322266","0.3173828","-30.53125","-3.75","-24.375"
"1573729933386","826","0.05859375","-0.96972656","0.29296875","-34.0","-1.3125","-22.65625"
"1573729933386","827","-0.10449219","-0.87109375","0.32421875","-30.28125","-12.71875","-22.53125"
"1573729933387","828","-0.033203125","-0.83496094","0.296875","-34.4375","-0.9375","-25.09375"
"1573729933388","829","-0.024414062","-0.85839844","0.27734375","-27.90625","0.34375","-24.125"
"1573729933782","830","-0.083984375","-0.87402344","0.25585938","-6.4375","12.0","-25.96875"
"1573729933782","831","0.040039062","-0.9277344","0.22460938","5.125","14.875","-27.0625"
"1573729933782","832","0.10449219","-1.0214844","0.24609375","4.875","18.53125","-18.3125"
"1573729933783","833","0.1953125","-1.0146484","0.2841797","-7.875","13.34375","-13.875"
"1573729933783","834","0.14746094","-1.0205078","0.2783203","-26.8125","8.65625","-1.96875"
"1573729933783","835","0.12890625","-0.99316406","0.27929688","-40.65625","15.25","-0.625"
"1573729933783","836","0.080078125","-0.9707031","0.23046875","-49.5625","13.09375","-4.90625"
"1573729933784","837","0.20214844","-0.96191406","0.13085938","-56.0","13.34375","-5.75"
"1573729933784","838","0.140625","-0.953125","0.15527344","-57.625","17.9375","-8.9375"
"1573729933784","839","0.103515625","-1.0078125","0.068359375","-65.03125","21.09375","-9.34375"
"1573729934179","840","0.140625","-1.0048828","0.047851562","-43.21875","22.09375","-5.375"
"1573729934180","841","0.053710938","-0.9501953","0.020507812","-19.84375","17.8125","1.09375"
"1573729934180","842","0.10253906","-0.97753906","-0.0107421875","-10.625","17.3125","8.15625"
"1573729934180","843","0.026367188","-0.96777344","0.005859375","4.5625","25.0625","15.0625"
"1573729934180","844","-0.001953125","-0.94628906","0.016601562","4.8125","30.8125","22.6875"
"1573729934181","845","0.0146484375","-0.9628906","0.0048828125","-5.4375","32.46875","28.71875"
"1573729934181","846","0.009765625","-0.9667969","-0.0068359375","7.375","27.03125","33.1875"
"1573729934181","847","-0.015625","-0.96972656","0.0234375","10.375","25.1875","39.65625"
"1573729934182","848","-0.068359375","-1.0048828","0.047851562","25.1875","21.65625","43.625"
"1573729934182","849","-0.0625","-0.9707031","0.045898438","33.6875","13.28125","44.0"
"1573729934579","850","-0.045898438","-0.94921875","0.08203125","40.09375","0.71875","47.53125"
"1573729934580","851","-0.22851562","-0.98339844","0.16113281","44.1875","9.375","46.375"
"1573729934580","852","-0.23144531","-0.96972656","0.16210938","42.28125","9.03125","40.5625"
"1573729934581","853","-0.22558594","-0.9042969","0.19238281","40.09375","3.40625","43.9375"
"1573729934582","854","-0.32128906","-0.9003906","0.26464844","48.8125","3.34375","45.5625"
"1573729934582","855","-0.328125","-0.86816406","0.3125","36.0625","1.09375","43.4375"
"1573729934582","856","-0.31933594","-0.84375","0.32714844","52.34375","-0.875","45.40625"
"1573729934583","857","-0.40625","-0.8378906","0.38476562","53.34375","0.09375","42.15625"
"1573729934583","858","-0.36816406","-0.8339844","0.40527344","44.71875","0.84375","39.21875"
"1573729934583","859","-0.39941406","-0.78222656","0.43066406","41.90625","-1.46875","36.0625"
"1573729934977","860","-0.4453125","-0.79296875","0.45507812","49.125","-0.1875","32.21875"
"1573729934977","861","-0.43066406","-0.7871094","0.49804688","40.375","-1.46875","31.28125"
"1573729934977","862","-0.4638672","-0.7363281","0.52734375","39.09375","-5.15625","27.03125"
"1573729934978","863","-0.51660156","-0.72753906","0.5410156","33.125","-2.03125","23.96875"
"1573729934978","864","-0.4736328","-0.68359375","0.54589844","27.5625","-1.34375","19.8125"
"1573729934979","865","-0.50097656","-0.6640625","0.5722656","20.96875","-1.0625","17.0"
"1573729934980","866","-0.5449219","-0.6689453","0.60253906","18.53125","2.4375","14.28125"
"1573729934980","867","-0.4814453","-0.63964844","0.5800781","12.0625","1.6875","10.375"
"1573729934981","868","-0.54003906","-0.6611328","0.6015625","9.125","4.6875","6.46875"
"1573729934981","869","-0.50683594","-0.65527344","0.58496094","2.84375","2.5625","2.84375"
"1573729935373","870","-0.5019531","-0.6796875","0.5810547","-3.3125","2.5","1.375"
"1573729935374","871","-0.4970703","-0.6894531","0.57128906","-1.34375","-1.59375","1.6875"
"1573729935374","872","-0.51953125","-0.7167969","0.6123047","1.28125","-5.8125","3.90625"
"1573729935374","873","-0.5917969","-0.7753906","0.6982422","8.78125","-3.25","3.59375"
"1573729935375","874","-0.60058594","-0.7988281","0.7128906","-3.4375","-0.8125","0.40625"
"1573729935375","875","-0.59277344","-0.796875","0.69140625","-10.5","2.4375","-4.78125"
"1573729935375","876","-0.6171875","-0.78027344","0.6933594","-20.84375","1.375","-8.8125"
"1573729935376","877","-0.55566406","-0.796875","0.625","-9.84375","-2.9375","-14.84375"
"1573729935377","878","-0.53808594","-0.8144531","0.6591797","-10.28125","-0.9375","-19.1875"
"1573729935377","879","-0.52734375","-0.828125","0.67871094","-0.125","-0.3125","-23.09375"
"1573729935770","880","-0.5263672","-0.84472656","0.6582031","-4.65625","-1.78125","-26.75"
"1573729935771","881","-0.4765625","-0.83203125","0.5957031","-10.6875","-5.9375","-26.6875"
"1573729935771","882","-0.39746094","-0.8232422","0.5332031","-18.4375","-6.25","-32.3125"
"1573729935772","883","-0.34472656","-0.7578125","0.4970703","-28.03125","-7.875","-35.78125"
"1573729935772","884","-0.31933594","-0.75390625","0.4609375","-35.125","-6.96875","-37.4375"
"1573729935772","885","-0.3544922","-0.7685547","0.45996094","-50.125","-6.4375","-42.9375"
"1573729935773","886","-0.31054688","-0.7685547","0.43066406","-55.6875","-5.6875","-42.875"
"1573729935773","887","-0.2861328","-0.7890625","0.3984375","-56.78125","-3.5625","-44.28125"
"1573729935773","888","-0.2626953","-0.79589844","0.3642578","-55.6875","-5.09375","-47.25"
"1573729935775","889","-0.23535156","-0.80566406","0.3076172","-61.46875","-6.96875","-50.625"
"1573729936167","890","-0.17773438","-0.8222656","0.27734375","-62.28125","-6.71875","-52.8125"
"1573729936167","891","-0.16015625","-0.8173828","0.24707031","-66.78125","-7.65625","-55.6875"
"1573729936167","892","-0.13574219","-0.79003906","0.19238281","-70.09375","-12.65625","-54.59375"
"1573729936167","893","-0.06933594","-0.76464844","0.14941406","-73.875","-15.75","-57.03125"
"1573729936168","894","-0.09667969","-0.79003906","0.13671875","-67.75","-14.84375","-55.25"
"1573729936168","895","-0.06640625","-0.8066406","0.08691406","-57.4375","-15.6875","-58.71875"
"1573729936168","896","0.016601562","-0.8232422","0.06933594","-56.28125","-16.125","-57.28125"
"1573729936168","897","-0.017578125","-0.890625","0.028320312","-41.53125","-17.84375","-55.6875"
"1573729936169","898","0.07714844","-0.9121094","0.049804688","-28.75","-21.125","-50.84375"
"1573729936169","899","0.11621094","-0.83496094","0.049804688","-21.9375","-28.03125","-46.21875"
"1573729936565","900","0.049804688","-1.0380859","0.051757812","-27.84375","-14.46875","-33.03125"
"1573729936566","901","0.22460938","-1.0009766","0.047851562","-37.0","-16.5625","-32.78125"
"1573729936567","902","0.27441406","-0.92578125","0.026367188","-8.75","-29.75","-23.28125"
"1573729936567","903","0.14746094","-0.9785156","0.0","-10.34375","-18.875","-9.0"
"1573729936567","904","0.1953125","-0.93066406","-0.0048828125","-16.5625","-9.96875","-8.875"
"1573729936567","905","0.21191406","-0.94921875","-0.015625","-19.1875","-7.78125","-3.625"
"1573729936568","906","0.19628906","-1.0078125","-0.034179688","-9.96875","-0.5","-3.375"
"1573729936568","907","0.20117188","-0.95410156","-0.051757812","-11.84375","-3.5625","-2.15625"
"1573729936568","908","0.23046875","-0.9941406","-0.06542969","-9.96875","-0.5625","-2.625"
"1573729936568","909","0.22949219","-0.9404297","-0.051757812","-3.625","-1.53125","-3.3125"
"1573729936963","910","0.19628906","-0.9511719","-0.078125","-6.65625","-3.25","-3.125"
"1573729936964","911","0.26757812","-0.9501953","-0.08203125","-4.28125","0.46875","-3.6875"
"1573729936964","912","0.24804688","-0.9404297","-0.057617188","0.09375","-6.375","-2.59375"
"1573729936965","913","0.16308594","-0.9638672","-0.041992188","3.59375","-0.125","0.96875"
"1573729936966","914","0.28027344","-0.9560547","-0.111328125","5.96875","-4.71875","4.375"
"1573729936966","915","0.2861328","-0.9550781","-0.057617188","7.5625","-6.65625","2.65625"
"1573729936966","916","0.107421875","-1.0195312","-0.057617188","22.09375","0.65625","7.5625"
"1573729936967","917","0.1953125","-0.94628906","-0.061523438","17.75","4.125","10.46875"
"1573729936967","918","0.30371094","-0.9248047","-0.08300781","22.8125","-4.78125","12.625"
"1573729936967","919","0.11230469","-0.9785156","9.765625E-4","26.15625","2.0","13.15625"
"1573729937360","920","0.115234375","-0.97265625","-0.08203125","37.28125","10.25","14.75"
"1573729937361","921","0.30371094","-0.87890625","-0.10253906","42.28125","0.09375","18.1875"
"1573729937361","922","0.107421875","-0.88964844","0.005859375","46.5625","4.875","18.84375"
"1573729937361","923","0.07910156","-0.8642578","-0.0107421875","53.75","5.125","21.09375"
"1573729937362","924","0.16308594","-0.8261719","0.0068359375","56.625","-3.96875","22.9375"
"1573729937363","925","0.076171875","-0.7890625","0.0546875","54.0","-7.46875","30.5625"
"1573729937364","926","0.09277344","-0.8857422","0.13378906","52.84375","0.0","23.0"
"1573729937366","927","0.045898438","-0.8076172","0.21777344","67.84375","-10.34375","31.53125"
"1573729937366","928","-0.060546875","-0.96191406","0.21289062","48.9375","4.8125","32.875"
"1573729937367","929","0.083984375","-0.8847656","0.2529297","36.71875","13.53125","28.71875"
"1573729937758","930","0.07421875","-0.7675781","0.25683594","43.1875","3.46875","24.8125"
"1573729937758","931","0.015625","-0.8642578","0.28515625","29.59375","10.59375","19.21875"
"1573729937759","932","-0.036132812","-0.8564453","0.37597656","12.625","14.375","26.15625"
"1573729937759","933","-0.017578125","-0.78222656","0.33789062","28.4375","7.5","17.3125"
"1573729937759","934","-0.10253906","-0.9091797","0.3779297","15.625","12.5","19.9375"
"1573729937759","935","-0.040039062","-0.81640625","0.35351562","26.71875","2.65625","15.1875"
"1573729937760","936","-0.03515625","-0.85058594","0.4248047","20.375","1.6875","17.625"
"1573729937761","937","-0.19824219","-0.93066406","0.48828125","10.71875","16.09375","16.65625"
"1573729937761","938","-0.09765625","-0.93652344","0.4482422","15.65625","9.9375","11.28125"
"1573729937762","939","-0.053710938","-0.9404297","0.51171875","4.875","6.34375","6.6875"
"1573729938154","940","-0.21777344","-0.9609375","0.5996094","2.84375","6.21875","4.3125"
"1573729938155","941","-0.18847656","-1.0126953","0.5341797","2.84375","5.78125","-5.09375"
"1573729938155","942","-0.09765625","-0.9589844","0.52734375","-9.28125","8.40625","-10.875"
"1573729938155","943","-0.10546875","-0.9375","0.5800781","-27.59375","14.5625","-16.75"
"1573729938155","944","-0.18554688","-1.1904297","0.56640625","-42.6875","17.5625","-18.8125"
"1573729938156","945","-0.10449219","-1.3017578","0.5185547","-39.0625","18.1875","-19.0"
"1573729938156","946","-0.06347656","-1.1591797","0.42871094","-36.5","12.0","-10.5"
"1573729938156","947","0.09667969","-0.9921875","0.328125","-21.3125","1.5","-16.3125"
"1573729938157","948","-0.059570312","-0.921875","0.29101562","-21.9375","-7.875","-11.5"
"1573729938158","949","-0.04296875","-0.91796875","0.20214844","-37.4375","7.1875","-24.5"
"1573729938553","950","0.10546875","-0.92089844","0.22363281","-70.9375","25.6875","-26.6875"
"1573729938553","951","0.0048828125","-0.9326172","0.21777344","-67.09375","13.34375","-24.6875"
"1573729938553","952","0.03125","-0.97265625","0.14257812","-69.28125","6.5","-29.125"
"1573729938554","953","-0.026367188","-0.9794922","0.064453125","-67.71875","26.46875","-20.46875"
"1573729938554","954","0.044921875","-1.0605469","0.001953125","-71.625","46.90625","-13.6875"
"1573729938554","955","0.11621094","-1.0361328","-0.0107421875","-54.03125","27.34375","-9.28125"
"1573729938554","956","0.005859375","-0.9951172","-0.02734375","-14.125","18.59375","-1.125"
"1573729938555","957","0.11425781","-0.99316406","-0.061523438","-4.15625","15.25","-1.59375"
"1573729938555","958","0.08496094","-0.9863281","-0.080078125","-0.5","8.84375","4.375"
"1573729938555","959","0.0859375","-0.96484375","-0.040039062","6.8125","12.1875","11.9375"
"1573729938951","960","0.0546875","-0.98828125","-0.041992188","8.59375","5.125","16.78125"
"1573729938952","961","0.015625","-0.9785156","-0.018554688","10.84375","10.46875","22.03125"
"1573729938953","962","0.016601562","-0.9814453","-0.0146484375","21.65625","10.59375","31.59375"
"1573729938953","963","-0.037109375","-0.95410156","0.029296875","23.96875","12.875","37.03125"
"1573729938954","964","-0.052734375","-0.9638672","0.06933594","35.9375","12.0625","40.8125"
"1573729938954","965","-0.08886719","-0.99609375","0.09082031","28.78125","12.5","46.25"
"1573729938954","966","-0.12597656","-0.9589844","0.119140625","38.0625","13.96875","43.875"
"1573729938954","967","-0.18066406","-0.97265625","0.15429688","27.875","20.625","46.125"
"1573729938955","968","-0.14257812","-0.9404297","0.16992188","31.25","13.28125","39.46875"
"1573729938955","969","-0.34277344","-0.93652344","0.20996094","47.71875","16.53125","37.03125"
"1573729939548","970","-0.29003906","-0.94433594","0.18359375","51.875","10.84375","36.0625"
"1573729939548","971","-0.30859375","-0.8808594","0.29101562","31.0","7.90625","41.5"
"1573729939548","972","-0.3876953","-0.8876953","0.30273438","43.75","7.375","42.28125"
"1573729939550","973","-0.3720703","-0.84277344","0.3330078","38.625","4.75","41.90625"
"1573729939550","974","-0.40722656","-0.82421875","0.36816406","42.59375","4.25","40.03125"
"1573729939550","975","-0.46875","-0.8095703","0.39453125","39.40625","3.90625","36.71875"
"1573729939551","976","-0.43945312","-0.78125","0.40722656","31.84375","0.96875","30.8125"
"1573729939551","977","-0.46875","-0.7919922","0.45996094","30.875","3.90625","27.375"
"1573729939551","978","-0.49316406","-0.76953125","0.46679688","27.28125","2.71875","21.96875"
"1573729939552","979","-0.5019531","-0.76953125","0.4638672","20.375","0.53125","17.5625"
"1573729939744","980","-0.49902344","-0.7363281","0.47070312","19.8125","1.21875","15.0625"
"1573729939745","981","-0.4970703","-0.70410156","0.4736328","15.1875","0.03125","13.40625"
"1573729939745","982","-0.5078125","-0.70996094","0.48046875","17.75","1.8125","10.84375"
"1573729939746","983","-0.51171875","-0.71191406","0.4873047","16.40625","2.84375","9.8125"
"1573729939746","984","-0.4951172","-0.70703125","0.46972656","15.84375","0.34375","8.84375"
"1573729939747","985","-0.515625","-0.71484375","0.49609375","12.5","1.09375","8.15625"
"1573729939748","986","-0.51171875","-0.7089844","0.49316406","10.84375","1.875","8.59375"
"1573729939748","987","-0.50390625","-0.6953125","0.484375","11.71875","2.375","9.03125"
"1573729939749","988","-0.4736328","-0.7060547","0.49121094","12.1875","-0.6875","8.84375"
"1573729939749","989","-0.49902344","-0.72753906","0.5126953","11.34375","-4.34375","10.46875"
"1573729940142","990","-0.53222656","-0.74902344","0.5488281","19.40625","-14.34375","13.59375"
"1573729940143","991","-0.62402344","-0.79589844","0.6347656","42.21875","-9.125","13.40625"
"1573729940143","992","-0.578125","-0.70410156","0.6503906","47.65625","-14.1875","9.8125"
"1573729940143","993","-0.6191406","-0.6777344","0.7167969","54.375","-11.71875","6.28125"
"1573729940143","994","-0.55078125","-0.6435547","0.70996094","41.78125","-17.90625","5.46875"
"1573729940144","995","-0.5449219","-0.5986328","0.7392578","30.0","-15.6875","1.875"
"1573729940144","996","-0.5673828","-0.5908203","0.71875","20.0","-15.09375","-4.96875"
"1573729940144","997","-0.5488281","-0.58984375","0.765625","2.25","-10.75","-10.09375"
"1573729940145","998","-0.5292969","-0.59765625","0.7861328","1.09375","-6.1875","-14.34375"
"1573729940145","999","-0.5449219","-0.60253906","0.77734375","2.125","-6.71875","-16.875"
"1573729940540","1000","-0.5029297","-0.62402344","0.7578125","-7.59375","-4.78125","-18.4375"
"1573729940540","1001","-0.47558594","-0.609375","0.74902344","-6.0625","-3.5625","-20.9375"
"1573729940540","1002","-0.4658203","-0.60839844","0.6972656","-8.125","-5.3125","-24.5"
"1573729940541","1003","-0.41210938","-0.59277344","0.6591797","-16.75","-5.75","-26.25"
"1573729940541","1004","-0.36523438","-0.59765625","0.63183594","-28.6875","-6.78125","-30.96875"
"1573729940541","1005","-0.390625","-0.63671875","0.61328125","-35.78125","-5.09375","-32.65625"
"1573729940541","1006","-0.37695312","-0.64941406","0.57421875","-43.96875","-6.53125","-34.75"
"1573729940542","1007","-0.3310547","-0.6933594","0.57714844","-57.3125","-6.3125","-34.3125"
"1573729940542","1008","-0.34765625","-0.69921875","0.54785156","-59.34375","-5.8125","-35.46875"
"1573729940544","1009","-0.3017578","-0.765625","0.5019531","-54.8125","-5.15625","-36.5"
"1573729940938","1010","-0.27539062","-0.7451172","0.48828125","-57.4375","-6.5","-34.125"
"1573729940939","1011","-0.22851562","-0.7392578","0.453125","-55.25","-7.46875","-35.46875"
"1573729940939","1012","-0.22851562","-0.76953125","0.41992188","-52.5","-10.34375","-33.875"
"1573729940939","1013","-0.17382812","-0.7988281","0.39648438","-50.375","-12.65625","-37.625"
"1573729940939","1014","-0.19824219","-0.8095703","0.39160156","-62.5","-9.0","-35.15625"
"1573729940940","1015","-0.13964844","-0.84277344","0.34570312","-59.65625","-13.3125","-36.8125"
"1573729940940","1016","-0.095703125","-0.87402344","0.33984375","-52.75","-15.8125","-42.375"
"1573729940940","1017","-0.17773438","-0.88183594","0.31347656","-49.875","-17.90625","-44.03125"
"1573729940940","1018","-0.041015625","-0.87597656","0.28125","-50.125","-19.59375","-45.1875"
"1573729940941","1019","-0.03515625","-0.9160156","0.23144531","-56.28125","-24.75","-50.78125"
"1573729941336","1020","-0.029296875","-0.8671875","0.21875","-56.28125","-25.84375","-46.71875"
"1573729941337","1021","0.038085938","-0.83203125","0.22070312","-64.71875","-23.21875","-46.40625"
"1573729941337","1022","0.036132812","-0.8808594","0.15527344","-55.25","-23.4375","-45.0"
"1573729941338","1023","-0.016601562","-0.84375","0.15136719","-61.125","-20.03125","-39.5625"
"1573729941338","1024","0.06347656","-0.8535156","0.10253906","-53.71875","-19.84375","-37.78125"
"1573729941338","1025","0.13574219","-0.9628906","0.06347656","-42.625","-13.75","-32.0"
"1573729941338","1026","0.16015625","-0.9736328","0.047851562","-41.6875","-16.125","-24.75"
"1573729941339","1027","0.20507812","-0.95410156","0.005859375","-34.375","-18.25","-23.75"
"1573729941339","1028","0.19433594","-0.96484375","0.015625","-19.53125","-15.40625","-16.375"
"1573729941339","1029","0.140625","-0.9707031","-0.0126953125","-12.96875","-8.4375","-11.0625"
"1573729941732","1030","0.1875","-0.94921875","-0.01171875","-11.84375","-4.03125","-5.25"
"1573729941732","1031","0.20703125","-0.96777344","-0.029296875","-2.6875","-6.3125","-3.90625"
"1573729941732","1032","0.19921875","-0.984375","-0.0048828125","2.59375","-5.5625","-1.25"
"1573729941733","1033","0.18457031","-0.9824219","9.765625E-4","10.125","-6.375","3.03125"
"1573729941734","1034","0.18457031","-0.93847656","0.017578125","19.46875","-7.21875","6.875"
"1573729941734","1035","0.14355469","-0.9404297","0.0146484375","21.21875","-2.75","8.71875"
"1573729941734","1036","0.20117188","-0.96484375","-0.01953125","27.03125","-1.46875","8.84375"
"1573729941734","1037","0.20410156","-0.9199219","0.0390625","21.96875","-3.875","11.28125"
"1573729941735","1038","0.10839844","-0.98339844","0.076171875","23.90625","-1.78125","11.9375"
"1573729941735","1039","0.095703125","-1.0","0.09375","30.625","7.5","14.28125"
"1573729942131","1040","0.13769531","-0.859375","0.08496094","54.6875","-1.25","19.09375"
"1573729942131","1041","0.119140625","-0.78808594","0.18652344","56.875","4.125","23.53125"
"1573729942131","1042","0.06738281","-0.8886719","0.17773438","64.75","14.5","25.1875"
"1573729942132","1043","0.0234375","-0.83984375","0.19726562","75.1875","15.65625","27.5"
"1573729942132","1044","0.0703125","-0.8642578","0.19824219","68.65625","22.4375","29.9375"
"1573729942132","1045","0.13574219","-0.9316406","0.2705078","61.875","21.53125","22.25"
"1573729942133","1046","-0.032226562","-0.80566406","0.2734375","83.46875","9.8125","28.125"
"1573729942133","1047","0.1015625","-0.71875","0.171875","75.71875","-1.96875","19.40625"
"1573729942133","1048","0.11425781","-0.88378906","0.32617188","44.59375","2.375","17.1875"
"1573729942134","1049","-0.103515625","-0.77441406","0.35351562","55.46875","-9.90625","20.5"
"1573729942527","1050","-0.0029296875","-0.7832031","0.36523438","34.21875","-2.53125","14.21875"
"1573729942527","1051","0.01171875","-0.8125","0.39453125","17.25","-0.25","12.0625"
"1573729942528","1052","-0.021484375","-0.79589844","0.4375","16.59375","-9.34375","10.59375"
"1573729942528","1053","-0.0625","-0.8574219","0.515625","7.75","-3.96875","13.65625"
"1573729942528","1054","-0.0390625","-0.8515625","0.5058594","5.71875","-0.5625","15.0"
"1573729942529","1055","-0.041015625","-0.86816406","0.5019531","-1.1875","-8.5","13.40625"
"1573729942529","1056","-0.12207031","-0.9140625","0.5576172","-9.59375","-3.8125","13.15625"
"1573729942529","1057","-0.0390625","-0.86816406","0.5449219","-15.34375","-2.75","6.21875"
"1573729942530","1058","-0.05078125","-0.90722656","0.5595703","-20.28125","-10.6875","1.3125"
"1573729942530","1059","-0.12792969","-0.8886719","0.5654297","-24.3125","-0.375","-1.46875"
"1573729942925","1060","-0.03515625","-0.875","0.5761719","-38.34375","-0.5","-10.5625"
"1573729942926","1061","-0.11425781","-0.8964844","0.5673828","-36.21875","-8.3125","-15.34375"
"1573729942926","1062","-0.10253906","-0.92089844","0.56933594","-44.5","5.59375","-16.25"
"1573729942926","1063","-0.061523438","-1.1181641","0.6171875","-49.75","17.625","-16.625"
"1573729942926","1064","0.0390625","-1.3183594","0.5371094","-40.65625","19.40625","-14.65625"
"1573729942927","1065","-0.0048828125","-1.2255859","0.3701172","-11.6875","13.34375","-7.71875"
"1573729942927","1066","0.1953125","-1.03125","0.171875","-40.59375","11.09375","-10.9375"
"1573729942927","1067","0.23535156","-0.9433594","0.29492188","-11.5","12.8125","-14.96875"
"1573729942928","1068","-0.06542969","-0.9658203","0.2109375","-12.90625","-3.90625","-8.3125"
"1573729942929","1069","0.20703125","-0.9501953","0.15820312","-19.3125","11.34375","-3.6875"
"1573729943323","1070","0.16210938","-0.9814453","0.22753906","-10.625","5.84375","-1.46875"
"1573729943324","1071","0.0234375","-0.95214844","0.20117188","-6.65625","6.09375","-1.90625"
"1573729943324","1072","0.12011719","-1.0195312","0.18261719","-13.25","12.9375","3.90625"
"1573729943324","1073","0.13867188","-0.9980469","0.19335938","-20.21875","9.3125","3.09375"
"1573729943324","1074","0.009765625","-0.96484375","0.1875","0.46875","12.1875","2.65625"
"1573729943325","1075","0.09765625","-0.9609375","0.16308594","8.15625","14.21875","7.25"
"1573729943325","1076","0.040039062","-0.93652344","0.21679688","-3.5","22.3125","9.5"
"1573729943325","1077","-0.020507812","-0.9277344","0.23242188","-3.375","30.3125","15.0625"
"1573729943325","1078","0.0048828125","-0.9814453","0.21875","-6.96875","26.0","19.9375"
"1573729943326","1079","-0.068359375","-0.9423828","0.18945312","-2.40625","28.625","21.71875"
"1573729943719","1080","-0.10546875","-0.94140625","0.23730469","5.46875","42.09375","27.28125"
"1573729943720","1081","-0.091796875","-0.953125","0.21972656","4.4375","33.0625","28.96875"
"1573729943720","1082","-0.123046875","-0.9638672","0.21875","1.5625","30.25","33.8125"
"1573729943720","1083","-0.18164062","-0.93847656","0.2705078","12.1875","40.15625","28.25"
"1573729943720","1084","-0.22460938","-0.9033203","0.28320312","20.6875","37.53125","28.1875"
"1573729943721","1085","-0.21777344","-0.88671875","0.2890625","20.25","28.625","29.78125"
"1573729943721","1086","-0.30273438","-0.8808594","0.3466797","27.09375","22.625","36.1875"
"1573729943721","1087","-0.3017578","-0.8671875","0.34179688","35.3125","19.625","36.71875"
"1573729943721","1088","-0.29882812","-0.8642578","0.3623047","36.125","11.28125","37.09375"
"1573729943722","1089","-0.3955078","-0.8515625","0.40625","29.15625","18.53125","35.1875"
"1573729944118","1090","-0.38085938","-0.82714844","0.41796875","35.8125","15.625","31.90625"
"1573729944119","1091","-0.40722656","-0.8105469","0.4140625","33.8125","12.9375","30.375"
"1573729944119","1092","-0.4169922","-0.79003906","0.4296875","29.59375","6.8125","26.46875"
"1573729944120","1093","-0.45898438","-0.7939453","0.47753906","17.875","10.90625","24.28125"
"1573729944121","1094","-0.484375","-0.78515625","0.46679688","20.125","13.40625","20.4375"
"1573729944121","1095","-0.45507812","-0.8251953","0.5214844","-10.625","15.25","15.1875"
"1573729944121","1096","-0.49902344","-0.7939453","0.47753906","-5.9375","15.78125","10.0625"
"1573729944122","1097","-0.5625","-0.7421875","0.40625","-14.71875","16.21875","6.03125"
"1573729944122","1098","-0.45507812","-0.7207031","0.36816406","2.78125","16.90625","2.84375"
"1573729944122","1099","-0.4736328","-0.7783203","0.4111328","10.375","18.40625","4.375"
"1573729944515","1100","-0.5371094","-0.81640625","0.44921875","14.21875","6.6875","-1.65625"
"1573729944516","1101","-0.5527344","-0.7714844","0.4609375","0.78125","2.25","-10.15625"
"1573729944516","1102","-0.5058594","-0.69921875","0.37597656","1.5","0.03125","-14.59375"
"1573729944516","1103","-0.49902344","-0.7470703","0.41503906","-5.25","9.3125","-13.3125"
"1573729944517","1104","-0.5361328","-0.79003906","0.5292969","-36.5625","27.28125","-14.90625"
"1573729944518","1105","-0.5732422","-0.79589844","0.38476562","-26.875","24.65625","-19.96875"
"1573729944518","1106","-0.5761719","-0.8310547","0.34277344","-34.4375","24.75","-20.875"
"1573729944519","1107","-0.30566406","-0.7216797","0.3779297","-76.75","26.40625","-16.4375"
"1573729944519","1108","-0.33691406","-0.8486328","0.35058594","-35.53125","32.21875","-11.0"
"1573729944519","1109","-0.3779297","-0.8535156","0.26464844","-22.65625","24.34375","-17.46875"
"1573729944913","1110","-0.35546875","-0.84472656","0.2578125","-31.8125","13.34375","-16.9375"
"1573729944914","1111","-0.39453125","-0.8984375","0.13769531","-16.625","-0.6875","-16.3125"
"1573729944914","1112","-0.421875","-0.87890625","0.08203125","3.03125","1.5","-15.46875"
"1573729944914","1113","-0.4951172","-0.91015625","0.13964844","-10.03125","6.40625","-10.5625"
"1573729944915","1114","-0.41796875","-0.8886719","0.16699219","-12.09375","4.625","-10.9375"
"1573729944915","1115","-0.3720703","-0.8623047","0.16796875","-7.59375","-1.71875","-10.625"
"1573729944915","1116","-0.40820312","-0.8720703","0.16210938","5.90625","3.09375","-5.6875"
"1573729944916","1117","-0.3857422","-0.9121094","0.18457031","-7.46875","8.09375","-1.65625"
"1573729944916","1118","-0.3642578","-0.8642578","0.15332031","5.28125","-0.375","-4.71875"
"1573729944916","1119","-0.37890625","-0.9316406","0.23730469","-0.8125","-3.0","1.625"
"1573729945310","1120","-0.41210938","-0.87890625","0.20996094","12.1875","-2.59375","-5.15625"
"1573729945310","1121","-0.375","-0.91308594","0.23339844","2.125","2.65625","-1.71875"
"1573729945311","1122","-0.34472656","-0.88378906","0.19140625","4.8125","-10.9375","-1.96875"
"1573729945311","1123","-0.35742188","-0.89160156","0.21386719","15.78125","-13.4375","3.34375"
"1573729945311","1124","-0.3076172","-0.84472656","0.30664062","16.03125","-6.5","15.71875"
"1573729945311","1125","-0.28125","-0.921875","0.171875","60.34375","-40.375","24.875"
"1573729945312","1126","-0.24707031","-1.0722656","0.30566406","46.1875","-52.375","35.75"
"1573729945312","1127","-0.7285156","-1.3427734","0.78027344","86.28125","-11.71875","44.90625"
"1573729945312","1128","-0.6582031","-1.2910156","0.5625","96.96875","-30.84375","1.625"
"1573729945313","1129","-0.49804688","-1.0908203","0.7529297","40.75","-26.6875","-11.78125"
"1573729945907","1130","-0.7558594","-1.0830078","0.71777344","34.96875","-16.125","-18.3125"
"1573729945907","1131","-0.5722656","-0.91503906","0.6591797","18.0","-29.25","-23.15625"
"1573729945907","1132","-0.40527344","-0.89453125","0.58984375","11.21875","-19.84375","-26.8125"
"1573729945908","1133","-0.26171875","-0.734375","0.4794922","-3.375","-22.28125","-35.0625"
"1573729945908","1134","-0.23632812","-0.64160156","0.46679688","-3.90625","-20.9375","-35.125"
"1573729945908","1135","-0.24316406","-0.7050781","0.4345703","-31.03125","-12.71875","-38.65625"
"1573729945908","1136","-0.14550781","-0.71777344","0.34472656","-66.84375","-13.375","-53.71875"
"1573729945909","1137","-0.16113281","-0.6953125","0.3095703","-89.90625","-18.5625","-57.3125"
"1573729945909","1138","-0.15527344","-0.69140625","0.30371094","-89.1875","-14.90625","-58.65625"
"1573729945909","1139","-0.14648438","-0.82910156","0.24316406","-76.0","-18.75","-59.46875"
"1573729946106","1140","-0.06347656","-0.8408203","0.20703125","-65.625","-25.96875","-70.03125"
"1573729946106","1141","-0.02734375","-0.78515625","0.22851562","-44.375","-26.8125","-70.4375"
"1573729946107","1142","0.0068359375","-0.8125","0.23730469","-35.78125","-42.75","-65.875"
"1573729946107","1143","0.13378906","-0.75390625","0.19238281","-31.03125","-57.28125","-52.3125"
"1573729946107","1144","0.17382812","-0.8017578","0.25585938","-36.5625","-58.0","-44.6875"
"1573729946107","1145","0.043945312","-0.81933594","0.24609375","-36.09375","-66.375","-32.1875"
"1573729946108","1146","0.13867188","-0.8261719","0.21289062","-44.21875","-62.28125","-26.875"
"1573729946108","1147","0.15429688","-0.87402344","0.18945312","-33.59375","-60.1875","-18.5625"
"1573729946108","1148","0.1171875","-0.8798828","0.14257812","-40.46875","-52.25","-12.28125"
"1573729946108","1149","0.22460938","-0.91308594","0.08300781","-43.71875","-49.75","-12.34375"
"1573729946503","1150","0.19921875","-0.93066406","0.060546875","-41.34375","-44.21875","-7.53125"
"1573729946504","1151","0.1953125","-0.96875","0.018554688","-36.6875","-39.03125","-5.875"
"1573729946504","1152","0.20507812","-0.95703125","0.02734375","-31.5625","-32.25","-3.75"
"1573729946505","1153","0.1875","-0.9267578","-0.043945312","-20.875","-23.875","-3.75"
"1573729946506","1154","0.19433594","-0.95214844","-0.03515625","-18.4375","-9.21875","-3.5"
"1573729946506","1155","0.12792969","-0.9667969","-0.037109375","-4.15625","8.40625","-16.96875"
"1573729946507","1156","0.25390625","-0.96972656","-0.041992188","-4.34375","17.3125","-16.6875"
"1573729946507","1157","0.3955078","-0.9267578","-0.018554688","-1.46875","3.65625","-13.875"
"1573729946507","1158","0.3408203","-0.91796875","-0.037109375","5.28125","-5.21875","-7.59375"
"1573729946508","1159","0.35546875","-0.96777344","-0.03515625","-6.53125","-10.03125","-2.875"
"1573729946901","1160","0.23730469","-0.953125","-0.03515625","-4.59375","-14.59375","-4.21875"
"1573729946901","1161","0.25878906","-0.9746094","-0.072265625","-1.1875","-7.8125","0.09375"
"1573729946901","1162","0.29003906","-0.9707031","-0.080078125","1.5625","-1.25","0.53125"
"1573729946902","1163","0.26660156","-0.95214844","-0.07128906","5.34375","5.78125","2.78125"
"1573729946902","1164","0.28125","-0.96484375","-0.01953125","9.5","8.71875","2.90625"
"1573729946903","1165","0.20507812","-0.93359375","0.018554688","11.71875","6.28125","7.0"
"1573729946904","1166","0.23828125","-0.9482422","-0.009765625","16.40625","11.03125","11.59375"
"1573729946904","1167","0.234375","-0.92285156","0.0048828125","22.4375","17.0","12.25"
"1573729946904","1168","0.25683594","-0.93652344","0.0234375","31.90625","17.5625","15.84375"
"1573729946905","1169","0.27539062","-0.91503906","0.0126953125","35.625","20.6875","16.40625"
"1573729947297","1170","0.20605469","-0.9560547","0.0390625","31.96875","23.0","16.53125"
"1573729947297","1171","0.22558594","-0.9609375","0.041015625","36.78125","24.65625","17.0625"
"1573729947297","1172","0.19824219","-0.94140625","0.06347656","34.78125","27.625","18.0625"
"1573729947298","1173","0.18066406","-0.96972656","0.099609375","39.09375","26.96875","18.0"
"1573729947298","1174","0.16503906","-0.92578125","0.12792969","45.53125","29.28125","19.625"
"1573729947298","1175","0.12890625","-0.91503906","0.14941406","43.5625","34.84375","18.96875"
"1573729947298","1176","0.17480469","-0.9042969","0.17871094","38.625","32.875","24.03125"
"1573729947299","1177","0.13769531","-0.875","0.22265625","45.40625","32.8125","26.65625"
"1573729947300","1178","0.046875","-0.8125","0.24414062","43.75","31.90625","27.5625"
"1573729947300","1179","0.0546875","-0.80566406","0.23144531","48.09375","30.6875","30.9375"
"1573729947694","1180","-0.0126953125","-0.67578125","0.2890625","61.375","29.40625","36.375"
"1573729947695","1181","-0.026367188","-0.74902344","0.3251953","70.0625","40.03125","35.15625"
"1573729947695","1182","-0.046875","-0.74902344","0.3388672","55.46875","25.0","31.1875"
"1573729947695","1183","-0.19726562","-0.78515625","0.41210938","41.84375","43.9375","41.5"
"1573729947695","1184","-0.16601562","-0.7783203","0.42285156","54.84375","38.875","32.09375"
"1573729947696","1185","0.043945312","-0.6767578","0.45703125","54.71875","20.6875","28.90625"
"1573729947696","1186","-0.29101562","-0.8046875","0.5058594","26.03125","33.0625","21.46875"
"1573729947696","1187","-0.12890625","-0.8310547","0.4794922","25.875","11.15625","22.8125"
"1573729947696","1188","0.034179688","-0.6894531","0.5605469","19.75","-1.0625","21.21875"
"1573729947698","1189","-0.4091797","-0.8486328","0.58496094","4.0","19.34375","11.15625"
"1573729948093","1190","-0.24316406","-0.85253906","0.625","12.0625","0.34375","19.5625"
"1573729948094","1191","-0.17578125","-0.7392578","0.64160156","-2.59375","-4.65625","6.875"
"1573729948094","1192","-0.39453125","-0.8925781","0.6191406","-8.5","4.8125","6.09375"
"1573729948094","1193","-0.13671875","-0.8251953","0.6591797","-26.03125","-7.40625","-4.59375"
"1573729948094","1194","-0.21875","-0.828125","0.61816406","-29.5625","-19.125","-10.5625"
"1573729948095","1195","-0.31445312","-0.82128906","0.6347656","-42.0625","-6.25","-10.4375"
"1573729948095","1196","-0.21484375","-0.7792969","0.6464844","-53.125","-3.5625","-16.5625"
"1573729948095","1197","-0.30566406","-0.7783203","0.5810547","-59.09375","-12.90625","-8.9375"
"1573729948095","1198","-0.42382812","-1.0185547","0.7128906","-74.59375","21.78125","0.0"
"1573729948096","1199","-0.10449219","-1.6757812","0.55566406","-94.1875","17.9375","-29.5625"
"1573729948491","1200","-0.15820312","-1.2861328","0.5566406","-27.53125","0.15625","-29.125"
"1573729948492","1201","-0.09863281","-0.99316406","0.2548828","-21.5","-1.65625","-37.3125"
"1573729948492","1202","0.09765625","-0.8496094","0.07910156","8.84375","-20.84375","-27.34375"
"1573729948493","1203","0.064453125","-0.6533203","0.19824219","9.4375","-10.40625","-19.3125"
"1573729948493","1204","-0.13671875","-0.8671875","0.25195312","8.53125","-1.78125","-2.46875"
"1573729948493","1205","-0.013671875","-0.9716797","0.24316406","0.84375","-8.375","1.3125"
"1573729948494","1206","0.0078125","-0.9638672","0.30078125","3.15625","-7.59375","3.34375"
"1573729948494","1207","-0.059570312","-1.0214844","0.33984375","4.0","1.75","4.0"
"1573729948494","1208","-0.043945312","-1.0009766","0.32617188","20.0","2.84375","6.875"
"1573729948495","1209","-0.043945312","-0.90722656","0.31347656","28.65625","-1.84375","8.71875"
"1573729948888","1210","-0.07324219","-0.8808594","0.34472656","31.53125","9.125","11.28125"
"1573729948889","1211","-0.057617188","-0.83203125","0.36914062","31.96875","8.46875","13.59375"
"1573729948889","1212","-0.08105469","-0.85839844","0.42382812","37.875","10.71875","17.1875"
"1573729948890","1213","-0.140625","-0.86816406","0.4580078","27.8125","20.4375","13.03125"
"1573729948891","1214","-0.08886719","-0.92285156","0.4091797","3.53125","25.0","13.15625"
"1573729948891","1215","-0.10058594","-0.9160156","0.39941406","-46.65625","39.53125","7.125"
"1573729948891","1216","-0.29492188","-0.83203125","0.3544922","-27.3125","53.875","-7.9375"
"1573729948892","1217","-0.28027344","-0.8720703","0.3330078","-11.84375","58.875","-2.53125"
"1573729948892","1218","-0.15136719","-0.95703125","0.43164062","-27.1875","39.0","21.15625"
"1573729948892","1219","-0.2919922","-0.8222656","0.5048828","-20.15625","24.59375","33.3125"
