"# PR data"
"# Start time: 20191114T111425"
"# Subject: jack"
"# Activity type: Knee extension"
"# Correctness: Correct"
"# Notes: "
""
"timestamp","seq","accel_x","accel_y","accel_z","gyro_x","gyro_y","gyro_z"
"1573730066151","0","0.22265625","-0.9628906","0.0029296875","3.03125","-2.53125","0.40625"
"1573730066152","1","0.22949219","-0.9707031","0.037109375","4.75","-3.5","0.15625"
"1573730066152","2","0.20507812","-0.9628906","0.049804688","-6.4375","-2.09375","-2.53125"
"1573730066152","3","0.22558594","-0.9794922","0.03515625","4.5","-4.40625","-2.9375"
"1573730066153","4","0.23046875","-0.9609375","0.048828125","1.9375","-5.875","-1.90625"
"1573730066153","5","0.21777344","-0.9765625","0.041992188","1.75","-1.1875","-3.8125"
"1573730066153","6","0.23730469","-0.953125","0.04296875","-0.6875","-0.1875","-2.46875"
"1573730066154","7","0.23925781","-0.95996094","0.041015625","8.09375","-1.71875","-2.09375"
"1573730066154","8","0.23242188","-0.9707031","0.038085938","7.0625","-0.625","-2.03125"
"1573730066154","9","0.234375","-0.9746094","0.051757812","7.84375","-0.3125","-1.25"
"1573730066548","10","0.25195312","-0.95996094","0.0546875","8.96875","-3.125","-1.25"
"1573730066549","11","0.25878906","-0.95996094","0.07324219","10.0","-2.15625","-1.65625"
"1573730066549","12","0.22460938","-0.96191406","0.07324219","8.53125","-2.59375","-1.65625"
"1573730066550","13","0.23828125","-0.97753906","0.06933594","4.3125","-1.0","-2.53125"
"1573730066552","14","0.23632812","-0.9921875","0.060546875","-5.625","4.0","-4.09375"
"1573730066552","15","0.23730469","-0.984375","0.05859375","-21.5625","7.1875","-5.21875"
"1573730066553","16","0.2529297","-0.9628906","0.0390625","-30.46875","10.40625","-5.625"
"1573730066553","17","0.27539062","-0.9453125","0.03515625","-36.34375","7.5625","-5.6875"
"1573730066553","18","0.265625","-1.0029297","-0.01171875","-20.34375","3.71875","-6.4375"
"1573730066554","19","0.3408203","-0.9863281","-0.029296875","-37.78125","6.8125","-10.4375"
"1573730066944","20","0.23535156","-0.98046875","-0.016601562","-50.5","9.75","-10.28125"
"1573730066945","21","0.20117188","-0.9316406","-0.029296875","-38.34375","20.6875","-7.875"
"1573730066945","22","0.3017578","-0.92089844","-0.1328125","-22.46875","5.71875","-4.96875"
"1573730066945","23","0.28808594","-0.9326172","-0.08886719","-24.125","-2.28125","-4.90625"
"1573730066945","24","0.23828125","-1.0048828","-0.060546875","-28.65625","5.28125","-5.6875"
"1573730066946","25","0.31640625","-0.9609375","-0.14648438","-11.375","-0.4375","-8.0"
"1573730066946","26","0.32714844","-0.9345703","-0.11816406","-12.40625","-8.8125","-2.40625"
"1573730066947","27","0.24316406","-0.9394531","-0.107421875","-1.3125","-3.4375","-2.75"
"1573730066947","28","0.27539062","-0.92871094","-0.11425781","3.84375","-4.09375","-1.53125"
"1573730066947","29","0.33984375","-0.9560547","-0.13867188","5.84375","-6.96875","-2.03125"
"1573730067343","30","0.2763672","-0.94433594","-0.12402344","3.84375","-4.59375","-1.46875"
"1573730067344","31","0.2890625","-0.9394531","-0.14648438","-3.0625","-4.78125","-1.25"
"1573730067344","32","0.28808594","-0.9658203","-0.13378906","-0.375","-0.25","-1.25"
"1573730067344","33","0.26367188","-0.95214844","-0.10546875","0.09375","3.53125","-1.78125"
"1573730067345","34","0.26464844","-0.92578125","-0.11425781","-0.9375","3.03125","0.15625"
"1573730067345","35","0.28125","-0.96484375","-0.10644531","-0.3125","4.1875","1.6875"
"1573730067345","36","0.28320312","-0.95703125","-0.11035156","-4.28125","-0.6875","0.21875"
"1573730067347","37","0.25683594","-0.9453125","-0.10644531","-6.375","0.71875","2.0625"
"1573730067347","38","0.2763672","-0.9902344","-0.14355469","-6.125","3.71875","0.0"
"1573730067347","39","0.29101562","-0.921875","-0.16992188","-1.0","0.03125","-1.96875"
"1573730067741","40","0.2919922","-0.9667969","-0.12988281","-3.75","2.3125","-0.9375"
"1573730067741","41","0.3310547","-0.9560547","-0.18652344","-0.875","0.28125","-5.4375"
"1573730067742","42","0.3173828","-0.95996094","-0.13671875","-7.65625","-0.625","-2.28125"
"1573730067742","43","0.29003906","-0.96191406","-0.10644531","1.625","5.34375","-1.0625"
"1573730067742","44","0.27441406","-0.9082031","-0.119140625","-3.4375","1.28125","2.5625"
"1573730067742","45","0.33789062","-0.9296875","-0.14257812","-8.25","-2.09375","0.78125"
"1573730067743","46","0.24609375","-0.9589844","-0.1171875","-3.25","3.71875","0.96875"
"1573730067743","47","0.24414062","-0.96484375","-0.123046875","-10.34375","2.4375","1.625"
"1573730067743","48","0.30371094","-0.95214844","-0.15136719","-3.5","0.46875","1.4375"
"1573730067745","49","0.23828125","-0.95996094","-0.14453125","-9.59375","7.1875","2.84375"
"1573730068137","50","0.28027344","-0.9892578","-0.18164062","-4.28125","3.71875","-0.6875"
"1573730068140","51","0.30371094","-0.93847656","-0.12109375","-4.59375","5.28125","-0.6875"
"1573730068141","52","0.26171875","-0.97753906","-0.15625","-6.78125","5.1875","-1.53125"
"1573730068141","53","0.32910156","-0.92578125","-0.16894531","3.53125","0.46875","-3.75"
"1573730068141","54","0.2841797","-0.9433594","-0.12890625","-1.46875","5.59375","0.53125"
"1573730068141","55","0.26757812","-0.96777344","-0.15234375","-1.3125","0.09375","-5.8125"
"1573730068142","56","0.31152344","-0.9091797","-0.14648438","9.75","-2.8125","-0.9375"
"1573730068142","57","0.27246094","-0.9785156","-0.115234375","1.3125","3.59375","0.65625"
"1573730068142","58","0.26660156","-0.97753906","-0.15234375","5.71875","-2.6875","-3.3125"
"1573730068142","59","0.26660156","-0.9160156","-0.11621094","20.125","2.1875","0.28125"
"1573730068534","60","0.30859375","-0.9472656","-0.119140625","14.09375","1.3125","0.78125"
"1573730068536","61","0.2998047","-0.95214844","-0.12792969","16.34375","-4.59375","-2.21875"
"1573730068536","62","0.25878906","-0.95410156","-0.0859375","8.34375","0.0","0.96875"
"1573730068536","63","0.3173828","-0.98046875","-0.111328125","16.15625","-0.5625","0.34375"
"1573730068537","64","0.3046875","-0.9394531","-0.06933594","1.8125","-7.59375","2.78125"
"1573730068537","65","0.24609375","-0.9560547","-0.05859375","14.8125","-3.5","4.0"
"1573730068537","66","0.31347656","-0.9404297","-0.1015625","20.0625","-10.21875","0.34375"
"1573730068537","67","0.28808594","-0.9628906","-0.07128906","6.21875","-9.40625","4.5625"
"1573730068538","68","0.22265625","-1.0","-0.03125","16.84375","1.3125","4.5625"
"1573730068542","69","0.23339844","-0.95410156","-0.10449219","20.625","-6.5","2.4375"
"1573730068933","70","0.35839844","-0.9121094","-0.057617188","-4.46875","-9.71875","1.4375"
"1573730068934","71","0.16601562","-1.0244141","0.034179688","13.59375","9.6875","3.65625"
"1573730068934","72","0.15332031","-0.99121094","-0.078125","21.03125","7.125","2.125"
"1573730068935","73","0.3876953","-0.89746094","-0.041015625","8.28125","1.5","2.65625"
"1573730068935","74","0.17675781","-0.9921875","0.087890625","32.6875","9.6875","17.375"
"1573730068935","75","0.24414062","-0.9785156","0.025390625","40.375","3.59375","7.375"
"1573730068936","76","0.3671875","-0.9345703","0.052734375","8.65625","-5.375","13.40625"
"1573730068936","77","0.19335938","-0.9638672","0.13183594","11.40625","10.59375","6.8125"
"1573730068936","78","0.22363281","-0.9746094","0.05078125","3.21875","1.15625","6.875"
"1573730068937","79","0.30566406","-0.9580078","0.061523438","-1.96875","-3.0625","9.5625"
"1573730069331","80","0.11328125","-1.0195312","0.06738281","-7.09375","17.9375","4.8125"
"1573730069331","81","0.24023438","-0.9794922","0.025390625","-13.4375","4.5","2.90625"
"1573730069332","82","0.2705078","-0.95410156","0.053710938","-17.46875","4.5","0.46875"
"1573730069332","83","0.140625","-1.0048828","0.051757812","-16.5","19.5625","-5.3125"
"1573730069332","84","0.23046875","-0.96875","0.001953125","-24.0625","15.5625","-5.75"
"1573730069333","85","0.20800781","-0.9658203","0.020507812","-27.0625","19.75","-7.46875"
"1573730069333","86","0.20898438","-0.96875","0.0048828125","-25.96875","25.4375","-10.34375"
"1573730069333","87","0.27539062","-0.9951172","-0.05078125","-27.96875","20.0","-12.28125"
"1573730069333","88","0.25976562","-0.96777344","-0.04296875","-24.90625","19.625","-10.09375"
"1573730069335","89","0.2548828","-0.9707031","-0.06933594","-28.21875","25.6875","-10.34375"
"1573730069728","90","0.3232422","-0.94433594","-0.041992188","-29.9375","25.3125","-11.90625"
"1573730069728","91","0.22949219","-0.93847656","-0.08300781","-29.4375","23.125","-7.8125"
"1573730069728","92","0.16308594","-0.9628906","-0.076171875","-39.625","23.53125","-3.5"
"1573730069729","93","0.2626953","-0.97753906","-0.06933594","-24.3125","15.125","-0.3125"
"1573730069729","94","0.2626953","-0.9765625","-0.07128906","-7.78125","10.96875","-2.34375"
"1573730069729","95","0.23535156","-0.94140625","-0.10058594","-5.4375","11.53125","-3.0625"
"1573730069729","96","0.2705078","-0.96875","-0.09765625","-7.875","11.46875","-2.8125"
"1573730069731","97","0.2734375","-0.9589844","-0.10839844","-9.40625","4.3125","-1.65625"
"1573730069731","98","0.265625","-0.9550781","-0.14453125","-9.21875","1.8125","-2.75"
"1573730069731","99","0.2919922","-0.9794922","-0.15527344","-7.46875","9.5","-4.09375"
"1573730070126","100","0.27441406","-0.9736328","-0.14746094","-9.65625","7.84375","-2.6875"
"1573730070126","101","0.24804688","-0.9394531","-0.14257812","-13.6875","6.15625","-0.375"
"1573730070126","102","0.26464844","-0.94921875","-0.15234375","-7.8125","8.53125","-0.5"
"1573730070126","103","0.27734375","-0.9345703","-0.12695312","1.75","4.0","0.65625"
"1573730070127","104","0.22460938","-0.9824219","-0.11230469","-4.65625","10.78125","2.84375"
"1573730070127","105","0.26171875","-0.93066406","-0.15625","-5.21875","7.3125","-3.6875"
"1573730070127","106","0.28027344","-0.95214844","-0.10839844","-11.5","3.9375","1.03125"
"1573730070127","107","0.26464844","-0.94921875","-0.13183594","-5.8125","4.875","-3.1875"
"1573730070128","108","0.29589844","-0.9707031","-0.14941406","-8.875","2.375","-2.34375"
"1573730070129","109","0.27539062","-0.9902344","-0.140625","-6.4375","4.0","-2.8125"
"1573730070522","110","0.3017578","-0.8779297","-0.17871094","1.09375","-1.59375","-3.875"
"1573730070522","111","0.32128906","-1.0097656","-0.16601562","-1.46875","3.34375","-1.0"
"1573730070522","112","0.26953125","-0.9609375","-0.14355469","4.6875","1.21875","-6.78125"
"1573730070523","113","0.26757812","-0.89941406","-0.13769531","-2.21875","-3.96875","1.09375"
"1573730070523","114","0.2109375","-0.9970703","-0.19140625","-0.125","6.625","2.96875"
"1573730070523","115","0.28125","-0.9238281","-0.171875","-5.625","2.1875","1.5"
"1573730070523","116","0.23242188","-0.9589844","-0.13964844","-14.59375","7.75","4.8125"
"1573730070524","117","0.3017578","-0.9394531","-0.16796875","0.21875","5.40625","-2.03125"
"1573730070524","118","0.24707031","-0.97753906","-0.12890625","-9.65625","9.75","1.6875"
"1573730070524","119","0.31933594","-0.953125","-0.16210938","-2.6875","2.375","-3.8125"
"1573730070920","120","0.27734375","-0.9375","-0.11230469","-0.6875","1.75","1.5625"
"1573730070921","121","0.19433594","-0.9824219","-0.171875","1.625","11.59375","-0.75"
"1573730070922","122","0.40527344","-0.91796875","-0.21777344","-0.0625","-8.125","-3.625"
"1573730070922","123","0.25390625","-0.9824219","-0.09375","-10.40625","2.59375","3.40625"
"1573730070922","124","0.23339844","-0.9707031","-0.19140625","11.53125","5.125","-4.21875"
"1573730070923","125","0.375","-0.9189453","-0.16015625","-3.3125","-12.03125","-2.21875"
"1573730070923","126","0.20605469","-0.9746094","-0.11621094","-4.34375","2.59375","3.09375"
"1573730070923","127","0.25683594","-0.9501953","-0.1796875","22.25","-7.34375","-3.125"
"1573730070924","128","0.328125","-0.92578125","-0.13867188","17.3125","-17.96875","3.09375"
"1573730070924","129","0.21582031","-0.96777344","-0.119140625","27.75","-4.09375","1.375"
"1573730071318","130","0.3486328","-0.95703125","-0.20019531","21.09375","-20.28125","-5.09375"
"1573730071319","131","0.36523438","-0.9716797","-0.07910156","17.125","-12.90625","-6.78125"
"1573730071319","132","0.21289062","-0.98828125","-0.016601562","39.15625","-7.46875","-7.59375"
"1573730071320","133","0.2607422","-0.9267578","-0.115234375","29.40625","-31.625","-3.6875"
"1573730071321","134","0.31152344","-0.9794922","-0.021484375","22.4375","-16.0625","2.1875"
"1573730071321","135","0.18261719","-0.9667969","-0.040039062","29.78125","-17.34375","3.59375"
"1573730071321","136","0.31445312","-0.9404297","-0.037109375","11.875","-27.3125","2.1875"
"1573730071322","137","0.24121094","-1.0078125","0.0068359375","16.46875","-16.1875","4.75"
"1573730071322","138","0.26464844","-0.96777344","-0.033203125","25.0625","-15.75","0.65625"
"1573730071322","139","0.27539062","-0.94140625","-0.015625","13.34375","-18.625","1.75"
"1573730071716","140","0.2265625","-0.95214844","0.03515625","21.46875","-13.8125","3.09375"
"1573730071716","141","0.2734375","-0.9716797","-0.0048828125","13.21875","-12.53125","0.40625"
"1573730071717","142","0.30273438","-0.9658203","-0.0078125","9.3125","-12.84375","0.34375"
"1573730071717","143","0.24902344","-0.9453125","0.0078125","4.5","-13.25","0.09375"
"1573730071717","144","0.2861328","-0.98339844","-0.001953125","12.0","-11.5625","0.0"
"1573730071718","145","0.2861328","-0.94433594","0.03515625","6.625","-12.40625","-0.5"
"1573730071719","146","0.23535156","-0.96484375","0.0546875","8.28125","-9.90625","2.25"
"1573730071719","147","0.25097656","-0.9667969","0.060546875","8.96875","-4.34375","1.875"
"1573730071719","148","0.25390625","-0.94921875","0.060546875","8.09375","-5.375","3.59375"
"1573730071720","149","0.23632812","-0.9472656","0.09667969","7.96875","-3.90625","4.3125"
"1573730072113","150","0.2109375","-0.9560547","0.076171875","7.5625","0.53125","6.5625"
"1573730072114","151","0.2861328","-0.9511719","0.076171875","0.84375","-2.9375","5.46875"
"1573730072114","152","0.234375","-0.9863281","0.072265625","0.34375","0.28125","1.21875"
"1573730072114","153","0.24414062","-0.9736328","0.030273438","-1.3125","-0.875","0.65625"
"1573730072114","154","0.28515625","-0.9628906","0.045898438","-4.65625","0.09375","-1.1875"
"1573730072115","155","0.2578125","-0.9863281","0.024414062","-0.4375","1.4375","-1.0"
"1573730072115","156","0.30664062","-0.9375","0.052734375","-0.8125","-3.625","-2.46875"
"1573730072116","157","0.22460938","-0.9716797","0.10546875","2.84375","1.5","2.4375"
"1573730072116","158","0.24121094","-0.9248047","0.041015625","3.21875","2.5","-0.5625"
"1573730072117","159","0.2607422","-0.9277344","0.08691406","-5.875","2.25","1.75"
"1573730072509","160","0.16503906","-1.015625","0.03125","-10.15625","13.0","-1.59375"
"1573730072510","161","0.3173828","-0.9941406","0.0","-33.78125","20.3125","-6.59375"
"1573730072510","162","0.18554688","-0.94921875","0.103515625","-42.875","17.125","0.15625"
"1573730072510","163","0.2685547","-0.9814453","0.060546875","-4.40625","8.65625","-5.09375"
"1573730072510","164","0.3173828","-0.9501953","-0.01953125","-18.03125","3.15625","-0.625"
"1573730072510","165","0.25878906","-0.9716797","0.0029296875","-28.75","16.21875","-2.40625"
"1573730072511","166","0.23925781","-0.9707031","-0.047851562","-35.21875","5.71875","-5.5625"
"1573730072511","167","0.25683594","-0.9628906","-0.06542969","-37.125","11.09375","-2.8125"
"1573730072511","168","0.2529297","-0.97558594","-0.09667969","-45.96875","18.84375","-6.125"
"1573730072512","169","0.22558594","-0.9472656","-0.0625","-42.8125","24.21875","-4.84375"
"1573730072908","170","0.24511719","-0.9638672","-0.09863281","-42.75","22.625","-0.625"
"1573730072909","171","0.2783203","-0.94140625","-0.14355469","-23.15625","14.75","-3.0"
"1573730072909","172","0.2421875","-0.96191406","-0.12109375","-23.625","13.65625","0.46875"
"1573730072909","173","0.29296875","-0.96191406","-0.16015625","-15.75","9.4375","-1.84375"
"1573730072909","174","0.2685547","-0.9716797","-0.16601562","-10.40625","4.625","0.40625"
"1573730072910","175","0.25097656","-0.9404297","-0.1640625","-9.90625","0.96875","1.3125"
"1573730072910","176","0.2607422","-0.93652344","-0.18652344","-7.40625","-2.28125","1.03125"
"1573730072910","177","0.2861328","-0.9580078","-0.20410156","-9.84375","-3.5625","-0.3125"
"1573730072910","178","0.27441406","-0.9707031","-0.19335938","-10.03125","1.6875","-3.5625"
"1573730072911","179","0.20214844","-0.95703125","-0.1953125","-11.1875","4.5","0.90625"
"1573730073306","180","0.25878906","-0.9394531","-0.21875","-6.3125","5.0625","2.25"
"1573730073307","181","0.28125","-0.9375","-0.20605469","-8.25","2.375","-0.125"
"1573730073308","182","0.22558594","-0.98339844","-0.18261719","-20.78125","10.40625","1.625"
"1573730073308","183","0.2529297","-0.93359375","-0.21777344","-1.1875","15.65625","-6.71875"
"1573730073308","184","0.26757812","-0.95703125","-0.1875","-18.75","15.125","-1.59375"
"1573730073309","185","0.22558594","-1.0039062","-0.23242188","-37.6875","21.28125","4.25"
"1573730073309","186","0.33496094","-0.9189453","-0.27539062","12.1875","17.4375","-0.9375"
"1573730073309","187","0.28027344","-0.9042969","-0.19824219","15.0625","18.0625","4.5625"
"1573730073309","188","0.23632812","-0.95703125","-0.17382812","8.15625","20.5625","0.65625"
"1573730073309","189","0.3017578","-0.921875","-0.21679688","14.09375","9.125","-2.59375"
"1573730073702","190","0.2607422","-0.9550781","-0.16015625","15.3125","13.0","2.65625"
"1573730073703","191","0.22558594","-0.9824219","-0.16992188","10.1875","16.09375","0.96875"
"1573730073703","192","0.29589844","-0.97753906","-0.13964844","21.96875","10.375","1.3125"
"1573730073704","193","0.2529297","-0.9121094","-0.09472656","19.625","2.65625","3.46875"
"1573730073705","194","0.296875","-0.9472656","-0.14550781","25.75","-0.5","2.5625"
"1573730073705","195","0.3330078","-0.9511719","-0.11035156","23.53125","5.40625","1.09375"
"1573730073705","196","0.28027344","-0.97265625","-0.111328125","8.21875","4.0","-1.125"
"1573730073705","197","0.30566406","-0.95703125","-0.12207031","9.4375","-3.75","-4.09375"
"1573730073706","198","0.2841797","-0.9589844","-0.10253906","3.53125","-3.625","-0.75"
"1573730073706","199","0.25683594","-0.9609375","-0.07128906","7.3125","-0.25","-1.96875"
"1573730074100","200","0.24609375","-0.9667969","-0.053710938","2.25","-2.6875","0.90625"
"1573730074100","201","0.20019531","-0.9658203","-0.045898438","5.21875","3.59375","0.53125"
"1573730074101","202","0.23046875","-0.96191406","-0.059570312","9.5","3.46875","0.34375"
"1573730074101","203","0.23925781","-0.9716797","-0.0390625","2.84375","3.21875","0.78125"
"1573730074101","204","0.26171875","-0.9892578","-0.060546875","9.5","4.25","-1.0"
"1573730074102","205","0.29101562","-0.9628906","-0.026367188","11.71875","6.03125","-2.46875"
"1573730074103","206","0.3095703","-0.9355469","-0.043945312","9.03125","1.875","-4.21875"
"1573730074103","207","0.32714844","-0.9785156","-0.055664062","-0.1875","-1.3125","-2.40625"
"1573730074103","208","0.28710938","-0.9824219","-0.041015625","4.875","4.0","-3.4375"
"1573730074103","209","0.28320312","-0.9296875","-0.040039062","1.375","0.21875","-2.09375"
"1573730074498","210","0.2734375","-0.9511719","-0.033203125","-4.21875","-3.1875","-0.1875"
"1573730074499","211","0.2626953","-0.93359375","-0.0234375","3.15625","-3.4375","-0.1875"
"1573730074499","212","0.2578125","-0.9580078","-0.01171875","1.625","-6.65625","3.03125"
"1573730074499","213","0.24316406","-0.9785156","-0.017578125","1.625","-8.4375","1.875"
"1573730074499","214","0.28222656","-0.9248047","-0.009765625","4.9375","-9.40625","0.96875"
"1573730074500","215","0.2783203","-0.9814453","-0.015625","2.0625","-4.21875","0.21875"
"1573730074500","216","0.2841797","-0.98046875","-0.017578125","5.84375","-6.96875","-1.78125"
"1573730074501","217","0.2998047","-0.9042969","-0.024414062","6.8125","-9.78125","0.0"
"1573730074501","218","0.2783203","-0.98828125","-0.051757812","0.21875","-6.0","0.65625"
"1573730074501","219","0.27246094","-0.99316406","-0.021484375","-1.65625","-9.0","-1.84375"
"1573730074896","220","0.27148438","-0.9433594","0.01953125","-1.0625","-10.8125","2.0625"
"1573730074896","221","0.18457031","-0.9716797","0.015625","-2.46875","-7.8125","4.1875"
"1573730074896","222","0.20019531","-0.96191406","-0.024414062","6.625","-4.09375","4.375"
"1573730074897","223","0.265625","-0.95214844","-0.04296875","5.0","-2.75","5.78125"
"1573730074897","224","0.24511719","-0.96777344","-0.037109375","3.15625","-1.78125","5.0625"
"1573730074897","225","0.26953125","-0.9814453","-0.030273438","1.5","0.0","-0.125"
"1573730074897","226","0.26953125","-0.9638672","0.00390625","-2.34375","0.15625","-1.0"
"1573730074898","227","0.24707031","-0.96484375","0.0107421875","2.0","3.46875","-2.6875"
"1573730074898","228","0.2607422","-0.94921875","0.01953125","0.46875","1.6875","-1.3125"
"1573730074900","229","0.25683594","-0.9628906","0.009765625","3.90625","2.84375","-1.125"
"1573730075293","230","0.25585938","-0.9765625","0.0087890625","1.75","3.21875","-1.0"
"1573730075293","231","0.2705078","-0.97265625","-0.017578125","0.15625","2.3125","-0.6875"
"1573730075293","232","0.33007812","-0.98828125","-0.021484375","-5.21875","1.9375","-1.125"
"1573730075294","233","0.23925781","-0.94921875","0.0068359375","-5.3125","2.59375","-1.40625"
"1573730075294","234","0.26464844","-0.96484375","-0.02734375","-4.71875","3.03125","-0.5"
"1573730075294","235","0.29101562","-0.95996094","-0.038085938","-5.8125","-2.40625","0.96875"
"1573730075294","236","0.21875","-0.9746094","-0.009765625","-7.03125","1.4375","-2.6875"
"1573730075295","237","0.23339844","-0.9482422","-0.015625","-18.75","0.84375","-2.46875"
"1573730075295","238","0.27148438","-0.9746094","-0.07714844","-26.5625","2.375","-4.78125"
"1573730075295","239","0.24414062","-0.9970703","-0.009765625","-15.8125","11.53125","-7.15625"
"1573730075691","240","0.25976562","-0.9238281","-0.036132812","-37.25","5.0625","-8.875"
"1573730075693","241","0.31640625","-0.9824219","-0.12695312","-47.5","7.5","-4.78125"
"1573730075693","242","0.29003906","-0.99121094","-0.12109375","-33.65625","18.78125","-7.78125"
"1573730075694","243","0.27929688","-0.88964844","-0.15429688","-32.5","10.78125","-5.75"
"1573730075694","244","0.3671875","-0.97265625","-0.15429688","-24.84375","-1.53125","-7.78125"
"1573730075694","245","0.21386719","-1.0087891","-0.0625","0.15625","15.4375","-5.75"
"1573730075695","246","0.26171875","-0.8935547","-0.18457031","-7.28125","-11.6875","-4.90625"
"1573730075695","247","0.328125","-0.91796875","-0.17285156","-10.5","-6.4375","-1.3125"
"1573730075695","248","0.2578125","-0.9550781","-0.14257812","4.5","-2.75","-4.03125"
"1573730075696","249","0.23339844","-0.9375","-0.13964844","-2.75","-5.6875","-1.125"
"1573730076087","250","0.28027344","-0.9628906","-0.17480469","-4.46875","-9.15625","-1.0625"
"1573730076087","251","0.2939453","-0.953125","-0.18652344","-13.25","-5.4375","-1.78125"
"1573730076088","252","0.30078125","-0.9482422","-0.21972656","-8.1875","-4.46875","-2.625"
"1573730076089","253","0.31933594","-0.9511719","-0.21679688","-4.65625","-2.75","-3.75"
"1573730076089","254","0.31835938","-0.9482422","-0.21386719","-5.9375","-2.21875","-4.15625"
"1573730076089","255","0.30273438","-0.93847656","-0.17871094","-5.75","0.90625","-2.46875"
"1573730076090","256","0.25976562","-0.9267578","-0.17675781","-3.96875","2.65625","-2.09375"
"1573730076090","257","0.29589844","-0.92871094","-0.17382812","0.03125","2.125","-1.0"
"1573730076090","258","0.3125","-0.93652344","-0.16308594","-11.125","4.1875","-1.71875"
"1573730076091","259","0.29589844","-0.953125","-0.16992188","-13.25","6.21875","-3.1875"
"1573730076484","260","0.2548828","-0.9628906","-0.22460938","-12.78125","7.4375","-1.65625"
"1573730076485","261","0.3203125","-0.9375","-0.2421875","-11.125","3.28125","-2.03125"
"1573730076485","262","0.3046875","-0.9453125","-0.21289062","-3.25","2.59375","-2.34375"
"1573730076485","263","0.29492188","-0.9140625","-0.22558594","-2.03125","1.9375","-2.53125"
"1573730076485","264","0.3203125","-0.9667969","-0.25878906","-0.875","4.5","-1.78125"
"1573730076486","265","0.36621094","-0.9189453","-0.23339844","-2.40625","0.09375","-2.59375"
"1573730076486","266","0.27441406","-0.92578125","-0.18652344","3.09375","4.125","-0.1875"
"1573730076486","267","0.32226562","-0.9160156","-0.20898438","1.5625","4.0","-2.53125"
"1573730076486","268","0.328125","-0.9355469","-0.20117188","2.65625","0.71875","-1.25"
"1573730076487","269","0.2626953","-0.9326172","-0.19335938","0.0","4.1875","-2.03125"
"1573730076884","270","0.3203125","-0.93359375","-0.22558594","-3.875","1.15625","-1.65625"
"1573730076884","271","0.3251953","-0.98828125","-0.21679688","-5.15625","1.6875","-0.3125"
"1573730076884","272","0.29003906","-0.9082031","-0.21191406","5.34375","2.1875","-1.0625"
"1573730076885","273","0.31347656","-0.9433594","-0.20605469","-4.09375","2.0","1.3125"
"1573730076885","274","0.32617188","-0.9169922","-0.22070312","7.6875","1.6875","-1.96875"
"1573730076885","275","0.328125","-0.8955078","-0.18359375","-0.8125","-3.1875","-0.6875"
"1573730076886","276","0.30273438","-0.98339844","-0.19433594","-5.09375","3.15625","-1.84375"
"1573730076886","277","0.33691406","-0.9345703","-0.23242188","6.875","-3.75","-5.5"
"1573730076886","278","0.30273438","-0.9248047","-0.19433594","9.3125","-3.6875","1.21875"
"1573730076887","279","0.28320312","-0.97558594","-0.17871094","5.40625","1.5625","0.65625"
"1573730077281","280","0.31054688","-0.8935547","-0.203125","9.875","-2.9375","0.90625"
"1573730077282","281","0.31445312","-0.92871094","-0.16601562","14.4375","-6.4375","3.21875"
"1573730077282","282","0.32226562","-0.9433594","-0.17285156","7.3125","-2.59375","-0.75"
"1573730077282","283","0.3173828","-0.94433594","-0.16699219","17.9375","-6.0","-0.3125"
"1573730077283","284","0.28125","-0.95703125","-0.14160156","20.0625","-5.4375","0.40625"
"1573730077283","285","0.33007812","-0.9169922","-0.15820312","18.34375","-9.40625","-1.53125"
"1573730077283","286","0.296875","-0.9560547","-0.10253906","22.625","-10.21875","3.53125"
"1573730077284","287","0.28222656","-0.97558594","-0.109375","23.84375","-8.1875","3.65625"
"1573730077284","288","0.29101562","-0.9453125","-0.12109375","26.03125","-11.71875","3.34375"
"1573730077285","289","0.29589844","-0.9423828","-0.09472656","18.0625","-12.21875","6.34375"
"1573730077678","290","0.265625","-0.9902344","-0.08203125","25.5625","-3.5","5.46875"
"1573730077678","291","0.27246094","-0.9394531","-0.080078125","26.15625","-10.8125","1.625"
"1573730077679","292","0.27539062","-0.9238281","-0.051757812","10.53125","-1.71875","6.8125"
"1573730077679","293","0.24414062","-1.0263672","-0.034179688","12.5","8.15625","6.6875"
"1573730077679","294","0.30859375","-0.94433594","-0.080078125","3.34375","2.65625","-1.25"
"1573730077679","295","0.3203125","-0.93359375","0.028320312","13.96875","3.46875","2.5"
"1573730077680","296","0.21875","-0.99316406","-9.765625E-4","17.0","4.3125","5.78125"
"1573730077680","297","0.3076172","-0.94628906","-0.03125","12.1875","-3.0625","2.0"
"1573730077680","298","0.24121094","-0.9707031","0.0703125","12.25","3.34375","9.9375"
"1573730077680","299","0.24121094","-0.9824219","0.0126953125","17.1875","4.0","6.34375"
"1573730078074","300","0.3017578","-0.9482422","0.021484375","6.8125","-2.15625","6.5625"
"1573730078075","301","0.22753906","-0.96875","0.048828125","3.78125","2.84375","7.0"
"1573730078075","302","0.27148438","-0.9873047","0.0107421875","5.34375","5.0","2.125"
"1573730078075","303","0.26660156","-0.9941406","0.02734375","-1.34375","0.78125","5.65625"
"1573730078076","304","0.23046875","-0.97265625","0.040039062","-3.5","7.96875","1.6875"
"1573730078076","305","0.21386719","-0.9716797","0.03125","-5.6875","16.46875","0.03125"
"1573730078076","306","0.28222656","-0.98046875","-0.0068359375","-18.25","13.34375","-2.6875"
"1573730078076","307","0.22949219","-0.9902344","0.056640625","-32.59375","25.8125","-5.9375"
"1573730078076","308","0.22363281","-0.9404297","0.005859375","-39.75","14.09375","-7.40625"
"1573730078077","309","0.25878906","-0.95410156","-0.038085938","-35.0625","13.0","-5.4375"
"1573730078474","310","0.23632812","-0.9873047","-0.037109375","-31.5625","27.5625","-9.96875"
"1573730078474","311","0.30371094","-0.9550781","-0.064453125","-26.8125","25.0","-11.0625"
"1573730078475","312","0.25585938","-0.9550781","-0.07519531","-27.65625","21.53125","-7.53125"
"1573730078475","313","0.28710938","-0.9482422","-0.07324219","-10.03125","23.59375","-8.8125"
"1573730078475","314","0.30371094","-0.9472656","-0.07714844","-18.375","16.59375","-5.8125"
"1573730078476","315","0.2763672","-0.9707031","-0.09082031","-6.375","9.3125","-3.625"
"1573730078476","316","0.26953125","-0.9628906","-0.08691406","-9.78125","10.65625","-2.9375"
"1573730078476","317","0.265625","-0.93847656","-0.095703125","-9.96875","10.0","-2.28125"
"1573730078476","318","0.26757812","-0.94921875","-0.076171875","-9.65625","6.75","1.03125"
"1573730078477","319","0.2265625","-0.96191406","-0.091796875","-6.4375","12.4375","-0.875"
"1573730078871","320","0.2734375","-0.9638672","-0.07714844","-2.46875","14.4375","-2.8125"
"1573730078872","321","0.27148438","-0.9746094","-0.080078125","-8.625","10.3125","1.03125"
"1573730078872","322","0.27441406","-0.9609375","-0.09765625","-3.375","10.53125","-1.3125"
"1573730078872","323","0.3076172","-0.9345703","-0.09667969","-2.46875","8.78125","-1.90625"
"1573730078872","324","0.31054688","-0.9482422","-0.083984375","-2.15625","6.28125","-3.1875"
"1573730078874","325","0.28515625","-0.97558594","-0.11425781","-6.3125","5.1875","-1.84375"
"1573730078875","326","0.3017578","-0.9580078","-0.11621094","-6.78125","2.5","-1.59375"
"1573730078875","327","0.29003906","-0.9472656","-0.11425781","-4.40625","3.9375","-1.53125"
"1573730078875","328","0.29003906","-0.9511719","-0.09667969","-3.875","4.875","-0.4375"
"1573730078875","329","0.27441406","-0.9589844","-0.099609375","-5.5625","2.90625","-0.3125"
"1573730079268","330","0.2919922","-0.9482422","-0.107421875","-7.59375","0.65625","0.34375"
"1573730079269","331","0.265625","-0.95996094","-0.10839844","-8.3125","4.375","-1.40625"
"1573730079269","332","0.29101562","-0.9501953","-0.1171875","-6.5","3.03125","-2.40625"
"1573730079269","333","0.31347656","-0.95996094","-0.10546875","-11.1875","1.28125","-1.90625"
"1573730079270","334","0.2763672","-0.9609375","-0.12792969","3.21875","2.125","-3.125"
"1573730079270","335","0.33496094","-0.9189453","-0.12109375","-4.46875","-5.21875","-2.75"
"1573730079270","336","0.27929688","-0.98828125","-0.10253906","-3.90625","-0.3125","-2.53125"
"1573730079271","337","0.2578125","-0.9550781","-0.11425781","-2.625","-0.8125","-2.6875"
"1573730079272","338","0.23925781","-0.96191406","-0.14941406","0.09375","0.15625","2.71875"
"1573730079272","339","0.27734375","-0.94140625","-0.15722656","1.625","1.21875","1.21875"
"1573730079664","340","0.29101562","-0.9394531","-0.12597656","-3.375","3.71875","1.3125"
"1573730079665","341","0.2841797","-0.96875","-0.15429688","2.4375","5.40625","-0.1875"
"1573730079665","342","0.31835938","-0.9453125","-0.125","-1.65625","2.84375","-1.65625"
"1573730079665","343","0.2763672","-0.96484375","-0.09277344","-1.90625","4.9375","-0.75"
"1573730079665","344","0.28710938","-0.93652344","-0.12402344","2.4375","1.5625","-2.46875"
"1573730079666","345","0.3251953","-0.94628906","-0.09472656","4.375","-0.3125","0.96875"
"1573730079666","346","0.21777344","-0.9824219","-0.09863281","1.5","4.5625","0.53125"
"1573730079666","347","0.3203125","-0.94140625","-0.15136719","5.40625","-4.59375","-2.53125"
"1573730079666","348","0.375","-0.94628906","-0.09082031","5.59375","-8.75","2.4375"
"1573730079668","349","0.21582031","-0.9560547","-0.0859375","6.28125","-1.40625","-0.25"
"1573730080063","350","0.29492188","-0.9550781","-0.119140625","9.1875","-11.5","-2.40625"
"1573730080064","351","0.3486328","-0.9316406","-0.09375","5.53125","-16.3125","2.3125"
"1573730080064","352","0.234375","-0.9951172","-0.09277344","19.6875","-8.9375","0.78125"
"1573730080064","353","0.27148438","-0.95410156","-0.09472656","12.9375","-10.8125","-0.375"
"1573730080064","354","0.28027344","-0.94433594","-0.09277344","7.75","-13.1875","3.09375"
"1573730080065","355","0.296875","-0.9638672","-0.09667969","12.0","-13.1875","1.75"
"1573730080065","356","0.27539062","-0.9560547","-0.068359375","12.1875","-12.09375","2.78125"
"1573730080065","357","0.23144531","-0.9658203","-0.037109375","25.3125","-12.71875","1.5625"
"1573730080065","358","0.26757812","-0.9667969","-0.053710938","17.625","-14.90625","1.5625"
"1573730080066","359","0.2783203","-0.94433594","-0.0234375","21.15625","-11.625","-0.3125"
"1573730080461","360","0.29589844","-0.98339844","-0.053710938","12.9375","-18.09375","-0.625"
"1573730080461","361","0.3408203","-0.99316406","-0.024414062","12.3125","-14.125","-4.71875"
"1573730080462","362","0.18066406","-1.0009766","0.04296875","27.9375","-5.8125","-3.125"
"1573730080462","363","0.31347656","-0.9199219","-0.029296875","20.125","-17.71875","-2.75"
"1573730080462","364","0.28320312","-0.92089844","0.03515625","19.8125","-3.6875","1.4375"
"1573730080463","365","0.22363281","-0.9736328","0.020507812","17.5","-9.46875","0.84375"
"1573730080463","366","0.30371094","-0.94433594","0.045898438","9.1875","-8.75","1.5"
"1573730080463","367","0.23046875","-0.98535156","0.05859375","14.09375","-6.3125","5.125"
"1573730080463","368","0.30273438","-0.953125","0.022460938","8.09375","-10.4375","0.71875"
"1573730080465","369","0.2626953","-0.97558594","0.057617188","7.1875","-6.90625","2.84375"
"1573730081053","370","0.2783203","-0.94921875","0.032226562","1.09375","-6.4375","-1.34375"
"1573730081053","371","0.3095703","-0.96484375","0.021484375","0.84375","-8.5","-0.9375"
"1573730081053","372","0.26953125","-0.97265625","0.047851562","0.03125","-4.21875","0.03125"
"1573730081054","373","0.2734375","-0.9638672","0.048828125","1.09375","-4.15625","-0.5625"
"1573730081054","374","0.2578125","-0.9394531","0.07910156","3.71875","-2.875","1.15625"
"1573730081055","375","0.2421875","-0.9501953","0.083984375","2.84375","1.5","0.65625"
"1573730081055","376","0.26660156","-0.9453125","0.068359375","-3.5625","4.1875","-0.375"
"1573730081055","377","0.26464844","-0.9628906","0.06640625","-9.90625","5.1875","1.09375"
"1573730081055","378","0.25878906","-0.9902344","0.04296875","-9.78125","6.21875","-2.15625"
"1573730081056","379","0.28125","-0.98046875","0.033203125","-16.5625","4.25","-2.46875"
"1573730081455","380","0.26953125","-0.9794922","0.001953125","-21.1875","10.1875","-5.375"
"1573730081455","381","0.29589844","-0.95214844","0.0029296875","-24.1875","15.0","-7.65625"
"1573730081455","382","0.2861328","-0.94433594","-0.001953125","-22.21875","9.1875","-4.96875"
"1573730081456","383","0.2705078","-0.9423828","0.0078125","-25.53125","9.625","-6.25"
"1573730081456","384","0.3046875","-0.9580078","-0.009765625","-24.78125","13.09375","-6.84375"
"1573730081457","385","0.26757812","-0.9580078","-0.01953125","-18.4375","6.03125","-2.9375"
"1573730081458","386","0.24902344","-0.9433594","-0.040039062","-25.78125","8.40625","-2.40625"
"1573730081458","387","0.3154297","-0.99121094","-0.052734375","-33.59375","13.21875","-3.6875"
"1573730081458","388","0.27246094","-0.9345703","-0.087890625","-31.25","9.09375","-3.625"
"1573730081459","389","0.3017578","-0.9511719","-0.06347656","-30.59375","14.3125","-1.71875"
"1573730081652","390","0.30566406","-0.97265625","-0.12890625","-24.1875","12.6875","-4.90625"
"1573730081652","391","0.31640625","-0.92089844","-0.12988281","-14.90625","10.53125","-2.34375"
"1573730081652","392","0.2890625","-0.9609375","-0.1171875","-23.6875","16.15625","-1.71875"
"1573730081653","393","0.28027344","-0.9628906","-0.13867188","-13.5","8.09375","-3.4375"
"1573730081653","394","0.29882812","-0.9277344","-0.13183594","-3.96875","5.96875","-1.34375"
"1573730081653","395","0.30664062","-0.94628906","-0.13769531","-5.8125","8.28125","1.09375"
"1573730081653","396","0.296875","-0.9433594","-0.14257812","-10.6875","6.15625","0.21875"
"1573730081655","397","0.32226562","-0.94433594","-0.15820312","-12.71875","4.25","-0.75"
"1573730081655","398","0.3076172","-0.9580078","-0.14355469","-15.53125","6.40625","0.65625"
"1573730081655","399","0.296875","-0.9404297","-0.15722656","-8.5","2.4375","2.25"
"1573730082050","400","0.3046875","-0.9404297","-0.17089844","-1.125","-1.59375","0.46875"
"1573730082050","401","0.2841797","-0.9394531","-0.1796875","-8.875","-0.4375","1.5625"
"1573730082051","402","0.31445312","-0.96484375","-0.16796875","-8.5","2.1875","0.53125"
"1573730082051","403","0.2890625","-0.9248047","-0.20898438","-7.65625","-2.40625","-2.875"
"1573730082051","404","0.2607422","-0.93359375","-0.19824219","-16.8125","5.28125","1.4375"
"1573730082051","405","0.2607422","-0.9794922","-0.18847656","-5.375","13.90625","1.375"
"1573730082051","406","0.30273438","-0.8925781","-0.1953125","-6.84375","1.9375","-2.03125"
"1573730082052","407","0.23632812","-0.9423828","-0.17382812","2.3125","12.625","2.125"
"1573730082052","408","0.2763672","-1.0205078","-0.20898438","-11.6875","13.46875","3.09375"
"1573730082053","409","0.3955078","-0.87597656","-0.19042969","1.21875","3.34375","-3.8125"
"1573730082448","410","0.2529297","-0.92871094","-0.14550781","13.03125","6.8125","6.46875"
"1573730082449","411","0.26171875","-1.0097656","-0.16796875","4.1875","15.4375","3.78125"
"1573730082449","412","0.35742188","-0.9140625","-0.21484375","14.3125","-3.90625","-3.6875"
"1573730082449","413","0.27441406","-0.93847656","-0.140625","16.15625","4.75","7.5625"
"1573730082449","414","0.2109375","-1.0488281","-0.12011719","24.15625","12.75","5.65625"
"1573730082450","415","0.3486328","-0.93652344","-0.16113281","22.875","0.40625","-0.125"
"1573730082450","416","0.3076172","-0.8984375","-0.07519531","14.625","2.5625","6.09375"
"1573730082450","417","0.23339844","-0.9941406","-0.076171875","11.9375","3.71875","4.0625"
"1573730082450","418","0.31054688","-0.9453125","-0.119140625","7.3125","-2.34375","-0.375"
"1573730082451","419","0.29882812","-0.95996094","-0.06347656","7.25","0.46875","3.59375"
"1573730082846","420","0.21875","-1.0039062","-0.07519531","9.8125","2.65625","0.65625"
"1573730082847","421","0.31640625","-0.93066406","-0.064453125","9.09375","-1.34375","-0.625"
"1573730082848","422","0.25878906","-0.96191406","-0.0703125","11.15625","0.84375","1.5625"
"1573730082848","423","0.31054688","-0.9511719","-0.091796875","9.75","-2.03125","-2.15625"
"1573730082848","424","0.3076172","-0.9580078","-0.07324219","5.34375","-4.34375","0.0"
"1573730082849","425","0.24902344","-0.984375","-0.044921875","2.78125","-1.53125","-0.6875"
"1573730082849","426","0.30273438","-0.9345703","-0.06640625","13.78125","-4.96875","0.40625"
"1573730082849","427","0.23730469","-0.9638672","-0.020507812","3.53125","-1.46875","1.6875"
"1573730082849","428","0.234375","-0.95410156","-0.0146484375","4.9375","1.03125","0.21875"
"1573730082850","429","0.3125","-0.8613281","0.021484375","13.90625","-35.65625","2.5"
"1573730083244","430","0.14355469","-0.9560547","-0.07128906","1.15625","7.125","3.40625"
"1573730083244","431","0.21582031","-0.99609375","-0.041992188","2.1875","7.375","-12.09375"
"1573730083245","432","0.31835938","-0.9736328","-0.00390625","9.09375","-0.1875","4.25"
"1573730083245","433","0.2705078","-1.0029297","-0.024414062","11.59375","13.71875","1.3125"
"1573730083245","434","0.30664062","-0.9707031","0.009765625","11.71875","13.71875","0.15625"
"1573730083246","435","0.2861328","-0.9316406","0.018554688","7.625","9.5","-0.25"
"1573730083246","436","0.28125","-0.9667969","0.03125","3.40625","8.15625","1.3125"
"1573730083247","437","0.24902344","-0.9628906","0.036132812","0.65625","3.71875","3.90625"
"1573730083247","438","0.26757812","-0.96777344","0.051757812","4.75","4.6875","2.0"
"1573730083247","439","0.22363281","-0.9863281","0.053710938","2.96875","3.78125","2.3125"
"1573730083640","440","0.2626953","-0.93359375","0.034179688","4.5625","1.03125","2.25"
"1573730083640","441","0.26660156","-0.9511719","0.06542969","0.46875","3.34375","1.21875"
"1573730083641","442","0.23144531","-0.97558594","0.048828125","3.71875","3.78125","-1.0"
"1573730083641","443","0.2919922","-0.95214844","0.048828125","-2.15625","-0.625","1.03125"
"1573730083641","444","0.21875","-0.98828125","0.06542969","-1.71875","7.3125","-2.03125"
"1573730083642","445","0.29589844","-0.9394531","0.03125","-6.0","1.15625","-2.15625"
"1573730083643","446","0.2607422","-0.9638672","0.03515625","-7.875","9.75","-3.625"
"1573730083643","447","0.26660156","-0.984375","0.0234375","-14.3125","11.09375","-7.46875"
"1573730083645","448","0.3173828","-0.9160156","0.024414062","-21.875","9.75","-9.65625"
"1573730083645","449","0.25683594","-1.0351562","0.0068359375","-27.0625","25.1875","-13.5"
"1573730084037","450","0.31445312","-0.94628906","0.021484375","-27.71875","25.25","-15.8125"
"1573730084038","451","0.28808594","-0.875","-0.020507812","-34.5625","18.65625","-8.25"
"1573730084038","452","0.24316406","-1.0097656","-0.032226562","-31.5625","25.3125","-4.28125"
"1573730084038","453","0.26367188","-0.9453125","-0.06640625","-14.40625","13.0","-4.09375"
"1573730084039","454","0.2578125","-0.9707031","-0.041992188","-22.125","15.125","-0.5"
"1573730084039","455","0.27441406","-0.9638672","-0.057617188","-15.625","12.4375","-3.1875"
"1573730084039","456","0.29101562","-0.953125","-0.043945312","-12.84375","10.40625","-0.5625"
"1573730084040","457","0.28125","-0.94140625","-0.053710938","-7.71875","8.15625","0.03125"
"1573730084040","458","0.3203125","-0.9404297","-0.07421875","-5.15625","1.8125","0.34375"
"1573730084041","459","0.28027344","-0.9580078","-0.06542969","-7.59375","5.59375","-0.3125"
"1573730084436","460","0.29589844","-0.96191406","-0.076171875","-9.34375","3.53125","-2.53125"
"1573730084436","461","0.3330078","-0.9580078","-0.08496094","-8.3125","1.09375","-2.625"
"1573730084436","462","0.31054688","-0.94433594","-0.080078125","-12.71875","-1.34375","-1.46875"
"1573730084437","463","0.2607422","-0.9482422","-0.076171875","-8.4375","-0.375","-0.5"
"1573730084437","464","0.31054688","-0.9296875","-0.12597656","-7.09375","-6.53125","0.0"
"1573730084437","465","0.3173828","-0.95703125","-0.08105469","-13.5","-5.9375","1.3125"
"1573730084437","466","0.24609375","-0.9980469","-0.10449219","-6.0","-2.9375","0.28125"
"1573730084438","467","0.3076172","-0.92578125","-0.15136719","-5.375","-14.1875","-4.65625"
"1573730084438","468","0.42089844","-0.9199219","-0.14746094","-4.03125","-20.9375","-3.625"
"1573730084439","469","0.28125","-1.0097656","-0.025390625","2.96875","-7.21875","-4.90625"
"1573730084832","470","0.16601562","-0.94628906","-0.12011719","-12.15625","-13.8125","-3.75"
"1573730084833","471","0.37109375","-0.9248047","-0.18554688","-9.59375","-16.4375","-1.65625"
"1573730084833","472","0.2529297","-0.9501953","-0.11328125","-0.1875","-4.03125","0.28125"
"1573730084833","473","0.26660156","-0.92871094","-0.14160156","2.84375","-6.96875","-1.125"
"1573730084833","474","0.29101562","-0.96972656","-0.13867188","5.28125","-4.59375","-0.8125"
"1573730084834","475","0.2919922","-0.9560547","-0.14550781","5.1875","-6.71875","-3.375"
"1573730084834","476","0.30078125","-0.9453125","-0.13085938","-1.78125","-6.25","-3.5625"
"1573730084834","477","0.2685547","-0.9501953","-0.14453125","3.65625","-5.875","-3.375"
"1573730084834","478","0.2919922","-0.97265625","-0.15917969","3.15625","-5.25","-3.5"
"1573730084835","479","0.29785156","-0.9453125","-0.15136719","0.71875","-5.6875","-4.34375"
"1573730085230","480","0.2998047","-0.9423828","-0.15722656","-0.6875","-5.5625","-3.90625"
"1573730085231","481","0.30566406","-0.9501953","-0.16308594","-1.34375","-3.875","-3.6875"
"1573730085231","482","0.33691406","-0.953125","-0.15429688","1.28125","-4.34375","-4.71875"
"1573730085231","483","0.26953125","-0.9433594","-0.15625","-0.875","-2.9375","-3.90625"
"1573730085231","484","0.33691406","-0.9345703","-0.12695312","0.34375","-3.3125","-4.34375"
"1573730085232","485","0.2685547","-0.95996094","-0.10449219","-0.3125","-0.5625","-2.46875"
"1573730085232","486","0.29882812","-0.92871094","-0.12695312","2.25","-0.875","-1.59375"
"1573730085232","487","0.29101562","-0.95214844","-0.11816406","4.5625","0.84375","1.5"
"1573730085232","488","0.31054688","-0.9453125","-0.15234375","6.75","-4.21875","-0.375"
"1573730085232","489","0.31933594","-0.9326172","-0.13476562","1.28125","-3.0625","0.03125"
"1573730085628","490","0.3251953","-0.9765625","-0.15234375","-0.8125","1.8125","-2.03125"
"1573730085628","491","0.34375","-0.9160156","-0.15625","7.75","-4.15625","-4.59375"
"1573730085629","492","0.3095703","-0.95996094","-0.12792969","-6.96875","-0.9375","-1.125"
"1573730085630","493","0.30566406","-0.953125","-0.13476562","6.28125","2.84375","-3.875"
"1573730085630","494","0.31640625","-0.921875","-0.1171875","-0.0625","-1.3125","-0.1875"
"1573730085630","495","0.28710938","-0.96875","-0.11425781","5.1875","-0.6875","-0.5625"
"1573730085631","496","0.32128906","-0.9160156","-0.13867188","8.96875","-3.75","-2.09375"
"1573730085631","497","0.30273438","-0.9589844","-0.09667969","1.4375","0.21875","2.65625"
"1573730085631","498","0.2841797","-0.9472656","-0.123046875","11.34375","-2.625","-2.625"
"1573730085631","499","0.36621094","-0.9199219","-0.12109375","5.96875","-9.28125","-1.59375"
"1573730086024","500","0.29785156","-0.9863281","-0.078125","14.9375","-1.53125","2.90625"
"1573730086026","501","0.31054688","-0.9296875","-0.12695312","11.75","-5.375","-3.5"
"1573730086026","502","0.33496094","-0.94628906","-0.0859375","16.34375","-9.65625","1.3125"
"1573730086026","503","0.29101562","-0.9199219","-0.057617188","15.375","-6.3125","1.09375"
"1573730086027","504","0.31640625","-0.984375","-0.0859375","7.96875","-6.65625","0.53125"
"1573730086027","505","0.31054688","-0.9355469","-0.072265625","22.09375","-9.34375","-0.4375"
"1573730086027","506","0.30078125","-0.9375","-0.043945312","17.0","-4.40625","4.9375"
"1573730086028","507","0.2919922","-0.9941406","-0.044921875","11.875","-4.21875","2.3125"
"1573730086028","508","0.31835938","-0.9111328","-0.036132812","14.3125","-4.53125","0.78125"
"1573730086028","509","0.28125","-0.953125","-0.020507812","13.53125","0.28125","5.59375"
"1573730086423","510","0.31347656","-0.94628906","-0.0078125","6.625","-0.8125","1.15625"
"1573730086424","511","0.296875","-0.96875","-0.026367188","10.125","-3.5625","2.84375"
"1573730086424","512","0.3125","-0.95214844","0.015625","7.0625","-0.5625","1.03125"
"1573730086424","513","0.2783203","-0.95410156","-0.016601562","8.09375","-4.09375","2.65625"
"1573730086425","514","0.2939453","-0.9638672","0.0078125","10.125","-0.375","2.84375"
"1573730086425","515","0.28125","-0.9638672","0.0048828125","7.25","0.28125","2.96875"
"1573730086425","516","0.28222656","-0.93066406","0.0078125","4.9375","-5.21875","2.375"
"1573730086425","517","0.25097656","-0.9707031","0.0390625","1.625","6.46875","3.90625"
"1573730086426","518","0.234375","-0.9765625","0.022460938","6.8125","9.8125","-0.125"
"1573730086426","519","0.28808594","-0.9169922","-0.015625","-0.9375","5.40625","-1.0625"
"1573730086822","520","0.26171875","-0.9863281","0.022460938","-8.25","22.09375","1.5"
"1573730086823","521","0.22363281","-1.0361328","-0.0126953125","-20.15625","28.90625","-2.03125"
"1573730086823","522","0.44921875","-0.8671875","-0.021484375","-29.8125","14.28125","-12.96875"
"1573730086823","523","0.3076172","-0.9814453","0.08300781","-45.4375","22.4375","-3.875"
"1573730086823","524","0.22363281","-0.99609375","-0.048828125","-48.84375","16.84375","-9.78125"
"1573730086824","525","0.4326172","-0.9169922","-0.06933594","-52.875","12.5625","-7.875"
"1573730086824","526","0.2705078","-0.93652344","-0.064453125","-56.03125","24.875","-1.90625"
"1573730086824","527","0.28027344","-0.9638672","-0.13769531","-41.875","26.03125","-5.875"
"1573730086824","528","0.34277344","-0.9580078","-0.12207031","-26.9375","17.6875","-0.875"
"1573730086826","529","0.28027344","-0.9345703","-0.12597656","-15.03125","14.03125","1.15625"
"1573730087218","530","0.29003906","-0.93652344","-0.125","-16.875","10.3125","0.96875"
"1573730087218","531","0.3095703","-0.94628906","-0.16503906","-8.0625","4.875","1.3125"
"1573730087218","532","0.29785156","-0.9501953","-0.14453125","-4.96875","4.625","0.46875"
"1573730087219","533","0.3017578","-0.93359375","-0.16796875","-5.5","1.75","0.0"
"1573730087219","534","0.31152344","-0.94921875","-0.1484375","-3.625","1.3125","0.03125"
"1573730087219","535","0.29492188","-0.9501953","-0.16308594","-4.71875","0.03125","-0.625"
"1573730087219","536","0.28808594","-0.9423828","-0.17871094","-6.25","0.90625","0.03125"
"1573730087220","537","0.31152344","-0.9453125","-0.17675781","-5.25","0.09375","0.40625"
"1573730087220","538","0.30078125","-0.9453125","-0.15722656","-1.0625","1.15625","0.53125"
"1573730087220","539","0.2861328","-0.9482422","-0.16308594","-2.28125","1.3125","0.09375"
"1573730087614","540","0.30566406","-0.9433594","-0.16992188","-8.125","1.28125","-0.4375"
"1573730087615","541","0.29003906","-0.94433594","-0.1640625","-7.40625","1.9375","3.03125"
"1573730087615","542","0.2763672","-0.9560547","-0.19726562","-2.46875","1.03125","2.3125"
"1573730087616","543","0.29589844","-0.9609375","-0.18261719","-16.5625","5.46875","0.34375"
"1573730087616","544","0.31152344","-0.9169922","-0.16894531","-16.96875","8.96875","-0.125"
"1573730087616","545","0.29589844","-0.9472656","-0.18554688","-2.46875","10.53125","1.375"
"1573730087617","546","0.29785156","-0.93066406","-0.18554688","-5.4375","10.0","1.875"
"1573730087617","547","0.28125","-0.9316406","-0.18847656","-1.65625","12.0","1.5625"
"1573730087617","548","0.29101562","-0.9550781","-0.19335938","-0.3125","13.34375","0.15625"
"1573730087617","549","0.28710938","-0.9609375","-0.20507812","2.0625","13.53125","0.09375"
"1573730088014","550","0.29101562","-0.9501953","-0.18847656","-0.6875","12.4375","-0.1875"
"1573730088015","551","0.3017578","-0.93847656","-0.19140625","-3.96875","11.75","-0.5625"
"1573730088015","552","0.30859375","-0.9316406","-0.17089844","-1.40625","11.875","0.34375"
"1573730088015","553","0.29296875","-0.9326172","-0.1875","0.09375","8.59375","0.21875"
"1573730088016","554","0.30273438","-0.9453125","-0.16992188","5.0","6.46875","0.21875"
"1573730088016","555","0.2861328","-0.9433594","-0.17480469","9.375","4.0","-1.0"
"1573730088016","556","0.27929688","-0.94140625","-0.17382812","14.21875","0.09375","-1.3125"
"1573730088016","557","0.29101562","-1.0244141","-0.21582031","23.3125","5.34375","7.5"
"1573730088017","558","0.31347656","-1.0810547","-0.10058594","23.1875","17.75","12.625"
"1573730088017","559","0.30859375","-0.86621094","-0.1171875","23.96875","13.84375","2.4375"
"1573730088411","560","0.17675781","-0.8769531","-0.056640625","18.40625","10.71875","9.03125"
"1573730088411","561","0.27539062","-0.9482422","-0.09082031","10.0625","5.0625","6.21875"
"1573730088411","562","0.32421875","-0.92285156","-0.08203125","18.53125","1.03125","6.46875"
"1573730088412","563","0.2578125","-1.0146484","-0.09082031","9.4375","-1.65625","3.59375"
"1573730088412","564","0.40820312","-0.9873047","-0.103515625","17.8125","-2.75","-5.9375"
"1573730088414","565","0.3388672","-0.9423828","-0.0234375","18.28125","-1.65625","-6.0625"
"1573730088414","566","0.26367188","-0.93066406","-0.022460938","14.875","-5.5","-6.1875"
"1573730088414","567","0.24804688","-0.9785156","0.0126953125","17.4375","-6.25","-2.59375"
"1573730088415","568","0.16210938","-0.98828125","0.056640625","26.03125","-0.3125","2.25"
"1573730088415","569","0.20019531","-0.9580078","0.056640625","27.34375","-4.96875","7.625"
"1573730088808","570","0.1875","-0.94628906","0.09472656","17.0625","4.75","3.03125"
"1573730088809","571","0.24414062","-0.97558594","0.043945312","13.15625","6.09375","1.15625"
"1573730088809","572","0.32617188","-0.9921875","0.03125","2.65625","-1.65625","0.46875"
"1573730088809","573","0.31152344","-0.9355469","0.038085938","0.53125","2.78125","-1.34375"
"1573730088809","574","0.3154297","-0.9453125","0.026367188","0.09375","-3.5625","1.4375"
"1573730088810","575","0.29101562","-0.95703125","0.030273438","-4.71875","-6.59375","-1.78125"
"1573730088810","576","0.30859375","-0.9394531","-0.01171875","-4.09375","-10.8125","-0.6875"
"1573730088811","577","0.27246094","-0.9794922","0.08496094","-3.25","-0.75","-1.125"
"1573730088812","578","0.22851562","-0.9550781","0.048828125","-3.3125","-3.8125","-0.25"
"1573730088812","579","0.29785156","-0.93066406","0.06347656","1.5625","0.0","3.78125"
"1573730089206","580","0.21386719","-0.9921875","0.076171875","2.25","4.6875","3.21875"
"1573730089206","581","0.27246094","-0.94140625","0.0390625","2.125","1.21875","0.65625"
"1573730089207","582","0.2734375","-0.95410156","0.026367188","-7.15625","10.125","-1.65625"
"1573730089207","583","0.29589844","-1.0146484","0.017578125","-22.53125","21.90625","-6.5"
"1573730089207","584","0.28808594","-0.9609375","0.03125","-32.4375","16.59375","-13.125"
"1573730089207","585","0.27246094","-0.9433594","0.0234375","-28.40625","19.875","-8.1875"
"1573730089208","586","0.3017578","-0.96484375","0.0087890625","-22.53125","14.28125","-6.3125"
"1573730089208","587","0.28027344","-0.9394531","0.02734375","-19.84375","10.0","-1.90625"
"1573730089208","588","0.24316406","-0.9716797","9.765625E-4","-12.78125","7.96875","-2.28125"
"1573730089209","589","0.27246094","-0.9404297","-0.043945312","-14.0625","2.84375","-1.46875"
"1573730089602","590","0.2626953","-0.9736328","-0.005859375","-8.5625","5.84375","2.375"
"1573730089602","591","0.23925781","-0.9511719","-0.03515625","-2.625","-1.34375","-1.71875"
"1573730089602","592","0.31640625","-0.93847656","-0.016601562","6.5","-19.0","0.40625"
"1573730089603","593","0.25097656","-0.93652344","0.024414062","18.21875","-22.46875","2.25"
"1573730089603","594","0.23632812","-0.9736328","-0.02734375","22.03125","-35.0625","4.0"
"1573730089603","595","0.32910156","-0.91796875","-0.0146484375","18.78125","-43.78125","6.21875"
"1573730089603","596","0.19140625","-0.92089844","0.001953125","8.28125","-26.6875","5.125"
"1573730089604","597","0.3388672","-1.0185547","-0.064453125","14.4375","-29.75","1.3125"
"1573730089604","598","0.24804688","-0.9160156","-0.0546875","17.8125","-15.40625","3.46875"
"1573730089604","599","0.28125","-1.0693359","9.765625E-4","7.1875","-4.03125","1.875"
