"# PR data"
"# Start time: 20191114T113524"
"# Subject: zoe"
"# Activity type: Knee extension"
"# Correctness: Correct"
"# Notes: "
""
"timestamp","seq","accel_x","accel_y","accel_z","gyro_x","gyro_y","gyro_z"
"1573731325244","0","-0.12109375","-0.9140625","-0.109375","8.40625","-3.375","14.28125"
"1573731325245","1","-0.14941406","-1.1005859","-0.10449219","-9.0","-1.0","18.1875"
"1573731325246","2","-0.1875","-1.0244141","-0.055664062","15.96875","14.5","9.25"
"1573731325246","3","-0.12988281","-1.0126953","-0.08886719","11.28125","1.375","1.5"
"1573731325247","4","-0.16894531","-1.0048828","0.016601562","17.75","6.8125","-4.21875"
"1573731325247","5","-0.19238281","-0.96191406","-0.03125","17.5","8.84375","-3.96875"
"1573731325247","6","-0.15722656","-1.0019531","0.028320312","5.90625","9.6875","0.09375"
"1573731325250","7","-0.14257812","-1.0263672","-0.0107421875","-1.25","10.40625","-1.59375"
"1573731325251","8","-0.19238281","-0.9892578","-0.0107421875","0.03125","3.65625","1.4375"
"1573731325251","9","-0.15917969","-1.0019531","-0.033203125","0.15625","-1.96875","3.03125"
"1573731325442","10","-0.19824219","-0.9638672","0.0029296875","2.125","4.1875","9.9375"
"1573731325442","11","-0.18066406","-0.96777344","0.0048828125","-5.6875","1.6875","12.75"
"1573731325443","12","-0.17480469","-0.9501953","0.005859375","-18.625","-3.75","17.75"
"1573731325444","13","-0.16015625","-0.99121094","0.001953125","-28.21875","-5.03125","12.25"
"1573731325444","14","-0.20117188","-1.0361328","-0.02734375","-22.59375","-8.0","4.6875"
"1573731325444","15","-0.23632812","-0.9716797","-0.017578125","-2.9375","-7.15625","0.71875"
"1573731325445","16","-0.23535156","-0.9746094","-0.0234375","-6.0","-4.90625","-0.6875"
"1573731325445","17","-0.2421875","-1.0058594","-0.024414062","-13.8125","-5.09375","2.125"
"1573731325445","18","-0.23925781","-1.0078125","-0.02734375","-15.6875","-8.8125","0.46875"
"1573731325445","19","-0.21191406","-0.9794922","-0.03125","-26.1875","-11.6875","-3.5625"
"1573731325840","20","-0.22167969","-1.0078125","-0.059570312","-27.71875","-9.0625","-2.03125"
"1573731325840","21","-0.21679688","-0.9433594","-0.06347656","-25.53125","1.28125","-6.375"
"1573731325841","22","-0.21484375","-0.98828125","-0.109375","-25.96875","10.40625","-9.46875"
"1573731325841","23","-0.22460938","-0.99316406","-0.140625","-25.46875","21.03125","-18.03125"
"1573731325841","24","-0.24316406","-0.9716797","-0.1953125","-32.1875","39.65625","-14.71875"
"1573731325842","25","-0.17578125","-0.9921875","-0.19335938","-29.0","48.3125","-14.34375"
"1573731325843","26","-0.11816406","-0.99902344","-0.2265625","-8.25","21.03125","-19.65625"
"1573731325843","27","-0.09667969","-0.9814453","-0.23925781","-11.90625","4.875","-9.96875"
"1573731325843","28","-0.19726562","-0.9814453","-0.11621094","-12.59375","9.75","-0.75"
"1573731325844","29","-0.15917969","-0.921875","-0.19726562","-10.5","5.46875","-5.6875"
"1573731326239","30","-0.11425781","-0.9394531","-0.21386719","0.65625","1.5625","-9.78125"
"1573731326239","31","-0.125","-0.94921875","-0.19921875","-0.75","4.25","-9.28125"
"1573731326239","32","-0.22753906","-1.0068359","-0.21875","8.34375","19.03125","-0.625"
"1573731326240","33","-0.08984375","-1.0244141","-0.27734375","-13.5625","27.09375","-5.6875"
"1573731326240","34","-0.041992188","-1.0048828","-0.27734375","-1.3125","2.4375","-13.75"
"1573731326240","35","-0.12792969","-0.9746094","-0.20996094","10.90625","4.5625","-4.71875"
"1573731326240","36","-0.087890625","-1.0","-0.24511719","-2.15625","8.40625","-3.6875"
"1573731326242","37","-0.0625","-0.95703125","-0.24609375","1.3125","8.15625","-6.3125"
"1573731326242","38","-0.1328125","-0.98339844","-0.16503906","0.65625","4.75","2.1875"
"1573731326243","39","-0.12890625","-0.9746094","-0.18457031","5.90625","1.75","7.375"
"1573731326437","40","-0.09375","-0.9716797","-0.22070312","1.9375","-2.03125","6.6875"
"1573731326437","41","-0.15136719","-1.0","-0.16601562","-3.96875","2.0625","10.1875"
"1573731326438","42","-0.13183594","-0.98339844","-0.22851562","-1.71875","0.71875","3.34375"
"1573731326438","43","-0.12597656","-0.99902344","-0.19140625","-5.21875","-1.90625","2.65625"
"1573731326438","44","-0.13476562","-1.0039062","-0.20507812","1.09375","3.09375","1.875"
"1573731326438","45","-0.119140625","-1.0048828","-0.20507812","-10.5625","0.15625","-3.875"
"1573731326439","46","-0.1484375","-0.99902344","-0.18066406","-1.78125","10.65625","-6.375"
"1573731326439","47","-0.078125","-0.94140625","-0.23925781","-12.03125","9.09375","-14.0625"
"1573731326439","48","-0.09667969","-0.9580078","-0.20410156","-5.6875","5.28125","-14.1875"
"1573731326441","49","-0.11425781","-1.0048828","-0.19628906","-9.71875","-0.1875","-10.6875"
"1573731327034","50","-0.14453125","-1.0175781","-0.22265625","-19.4375","2.0","-5.03125"
"1573731327035","51","-0.03125","-0.9824219","-0.28125","-28.28125","0.40625","-10.28125"
"1573731327035","52","-0.056640625","-0.9746094","-0.28710938","-16.4375","-25.03125","-8.6875"
"1573731327035","53","-0.11035156","-0.9658203","-0.2529297","-10.8125","-24.90625","0.03125"
"1573731327036","54","-0.12792969","-1.0019531","-0.3076172","-31.09375","-21.8125","5.0625"
"1573731327036","55","-0.10449219","-0.9091797","-0.31152344","-11.5","-6.90625","4.75"
"1573731327036","56","-0.09277344","-0.9746094","-0.33007812","-9.71875","-9.78125","4.4375"
"1573731327036","57","-0.09667969","-0.9423828","-0.28027344","13.40625","6.9375","-3.1875"
"1573731327036","58","-0.1171875","-0.9511719","-0.32226562","19.75","-9.40625","-2.75"
"1573731327037","59","-0.099609375","-0.9482422","-0.2919922","19.875","6.21875","6.09375"
"1573731327233","60","-0.083984375","-0.96191406","-0.25","61.75","5.34375","-1.125"
"1573731327235","61","-0.034179688","-1.0117188","-0.22167969","77.5","5.46875","1.8125"
"1573731327235","62","-0.14550781","-1.0107422","-0.17089844","-14.40625","-1.34375","11.40625"
"1573731327236","63","-0.057617188","-0.953125","-0.19921875","1.75","-1.125","11.59375"
"1573731327236","64","-0.12792969","-1.0039062","-0.16992188","4.9375","-11.90625","15.3125"
"1573731327236","65","-0.21484375","-0.9765625","-0.140625","8.03125","3.34375","10.46875"
"1573731327237","66","-0.18945312","-1.0117188","-0.14550781","1.375","14.9375","6.09375"
"1573731327237","67","-0.14746094","-1.0029297","-0.14257812","5.90625","2.25","2.71875"
"1573731327237","68","-0.1953125","-0.9863281","-0.14746094","10.1875","15.71875","1.3125"
"1573731327238","69","-0.18457031","-0.984375","-0.15234375","9.375","24.59375","-2.9375"
"1573731328026","70","-0.14941406","-1.078125","-0.26757812","-3.0625","36.65625","-9.84375"
"1573731328026","71","-0.08886719","-0.98046875","-0.107421875","6.15625","15.1875","-2.21875"
"1573731328026","72","-0.15722656","-0.98535156","-0.076171875","17.1875","1.3125","-1.53125"
"1573731328027","73","-0.16601562","-0.9140625","-0.040039062","12.0625","8.46875","6.09375"
"1573731328027","74","-0.13574219","-0.99316406","-0.095703125","-4.40625","-0.0625","7.5625"
"1573731328027","75","-0.08984375","-0.9765625","-0.09863281","-12.21875","5.1875","1.875"
"1573731328028","76","-0.13085938","-1.0009766","-0.12695312","-13.9375","0.65625","1.75"
"1573731328028","77","-0.1171875","-1.0322266","-0.13574219","-15.6875","5.40625","-1.0"
"1573731328029","78","-0.14746094","-0.9951172","-0.15332031","-1.90625","-2.28125","-1.84375"
"1573731328029","79","-0.115234375","-1.0068359","-0.1953125","9.6875","3.46875","-4.15625"
"1573731328422","80","-0.13769531","-0.9560547","-0.21289062","19.28125","-9.84375","0.0"
"1573731328422","81","-0.15039062","-0.98339844","-0.05078125","0.71875","-4.53125","-0.8125"
"1573731328422","82","-0.16894531","-0.9667969","-0.11816406","-1.71875","-2.6875","0.03125"
"1573731328423","83","-0.18359375","-0.99316406","-0.095703125","-9.0625","7.75","5.0"
"1573731328423","84","-0.13476562","-0.9921875","-0.10253906","-1.84375","-0.9375","3.90625"
"1573731328424","85","-0.16015625","-1.0380859","-0.11328125","-2.28125","-2.59375","5.0"
"1573731328424","86","-0.16308594","-0.98339844","-0.12792969","-7.09375","5.0625","1.3125"
"1573731328425","87","-0.14550781","-0.9785156","-0.13867188","-2.75","-4.28125","1.4375"
"1573731328425","88","-0.17480469","-0.96777344","-0.111328125","-3.8125","3.15625","-1.46875"
"1573731328426","89","-0.18066406","-0.97558594","-0.1484375","-5.5625","2.4375","-4.40625"
"1573731328821","90","-0.22363281","-0.9658203","-0.119140625","-8.4375","2.59375","1.3125"
"1573731328822","91","-0.19042969","-0.9658203","-0.13183594","7.0625","-1.90625","2.125"
"1573731328822","92","-0.19921875","-1.0898438","-0.15234375","-5.03125","3.84375","3.34375"
"1573731328823","93","-0.11425781","-0.92285156","-0.095703125","-3.1875","-5.875","1.375"
"1573731328824","94","-0.12890625","-0.98046875","-0.140625","1.15625","-9.59375","3.46875"
"1573731328824","95","-0.14453125","-1.0097656","-0.14648438","-12.96875","7.96875","-4.71875"
"1573731328824","96","-0.1328125","-0.9746094","-0.14550781","-11.375","-5.625","-3.4375"
"1573731328826","97","-0.20117188","-1.0253906","-0.13769531","-12.15625","0.28125","-1.0"
"1573731328826","98","-0.19628906","-1.0009766","-0.14550781","-6.71875","-3.625","0.0"
"1573731328826","99","-0.17089844","-0.98535156","-0.13378906","-8.9375","-10.28125","-2.15625"
"1573731328827","100","-0.140625","-1.0039062","-0.16113281","1.3125","-25.28125","0.78125"
"1573731328827","101","-0.19726562","-0.9941406","-0.18847656","-0.5","-7.65625","4.1875"
"1573731328828","102","-0.14550781","-0.94140625","-0.19433594","-11.1875","-5.6875","5.46875"
"1573731328828","103","-0.11621094","-0.9873047","-0.19238281","-24.75","-11.3125","3.46875"
"1573731328828","104","-0.09082031","-0.92285156","-0.17480469","-30.34375","-37.90625","-1.3125"
"1573731328828","105","-0.203125","-0.99609375","-0.20214844","-0.875","-11.3125","2.3125"
"1573731328829","106","-0.29101562","-0.9765625","-0.16699219","4.0","3.53125","-2.28125"
"1573731328829","107","-0.2421875","-0.96972656","-0.14941406","1.28125","-10.03125","-3.25"
"1573731328829","108","-0.2548828","-0.9736328","-0.15429688","3.46875","0.09375","-1.25"
"1573731328829","109","-0.23046875","-0.9765625","-0.18066406","-2.53125","3.34375","-2.8125"
"1573731329418","110","-0.1953125","-0.9824219","-0.18554688","-1.3125","-2.875","-3.3125"
"1573731329418","111","-0.1953125","-0.98339844","-0.16210938","-10.40625","-5.6875","-6.65625"
"1573731329418","112","-0.13476562","-1.0585938","-0.27441406","-15.9375","5.59375","-15.34375"
"1573731329419","113","-0.09472656","-1.0224609","-0.12695312","7.5","3.34375","-18.3125"
"1573731329419","114","-0.21679688","-1.0449219","-0.17871094","-12.78125","-0.0625","-3.125"
"1573731329419","115","-0.15332031","-0.9199219","-0.16992188","-14.34375","16.15625","-12.09375"
"1573731329419","116","-0.20117188","-0.8876953","-0.19042969","-2.40625","-11.84375","-3.75"
"1573731329420","117","-0.16699219","-0.94140625","-0.20507812","3.78125","4.5625","-7.03125"
"1573731329420","118","-0.17382812","-0.9716797","-0.21484375","13.90625","-9.46875","-4.71875"
"1573731329420","119","-0.12988281","-0.98828125","-0.25683594","-0.25","-6.53125","-7.40625"
"1573731329619","120","-0.12597656","-1.0214844","-0.2607422","6.75","-2.59375","-4.96875"
"1573731329620","121","-0.15039062","-1.015625","-0.15917969","4.8125","5.46875","-5.875"
"1573731329621","122","-0.10253906","-0.9824219","-0.22753906","-0.6875","8.28125","-8.4375"
"1573731329621","123","-0.09863281","-0.9921875","-0.1640625","2.375","5.40625","-6.1875"
"1573731329621","124","-0.11230469","-0.9941406","-0.15429688","8.84375","7.5","-6.0"
"1573731329622","125","-0.15039062","-1.0097656","-0.15429688","15.5625","3.09375","-1.65625"
"1573731329622","126","-0.11230469","-0.9824219","-0.17382812","15.625","3.78125","0.78125"
"1573731329622","127","-0.095703125","-0.9873047","-0.13183594","30.625","-9.34375","0.84375"
"1573731329622","128","-0.09863281","-0.98339844","-0.123046875","40.625","-4.84375","6.15625"
"1573731329623","129","-0.13671875","-1.0253906","-0.123046875","24.28125","3.59375","7.125"
"1573731330412","130","-0.12402344","-1.0","-0.09863281","11.53125","19.875","1.875"
"1573731330412","131","-0.140625","-0.9902344","-0.041015625","-12.84375","25.0625","4.1875"
"1573731330413","132","-0.15917969","-0.9873047","-0.0048828125","-27.53125","2.125","-7.21875"
"1573731330413","133","-0.115234375","-0.99316406","-0.13964844","-21.4375","1.3125","-10.28125"
"1573731330413","134","-0.1796875","-1.0","-0.068359375","-23.21875","8.78125","-1.53125"
"1573731330414","135","-0.10058594","-0.98828125","-0.16992188","-23.28125","6.75","-11.0"
"1573731330414","136","-0.095703125","-1.0166016","-0.12207031","-14.40625","4.75","-5.875"
"1573731330414","137","-0.11425781","-1.0097656","-0.17773438","-13.875","6.40625","-6.4375"
"1573731330414","138","-0.12792969","-0.984375","-0.16015625","-13.9375","5.71875","-2.875"
"1573731330415","139","-0.14648438","-0.984375","-0.15527344","0.46875","4.375","1.5"
"1573731330609","140","-0.10449219","-0.98046875","-0.19628906","-5.625","5.1875","0.65625"
"1573731330609","141","-0.10253906","-0.9951172","-0.17480469","1.75","0.03125","2.5"
"1573731330610","142","-0.10253906","-0.9785156","-0.15136719","-1.25","8.15625","-0.125"
"1573731330610","143","-0.09082031","-0.9736328","-0.203125","3.21875","2.4375","4.0625"
"1573731330610","144","-0.13476562","-0.9814453","-0.14648438","-0.0625","17.6875","8.84375"
"1573731330612","145","-0.13476562","-0.9501953","-0.19140625","-0.125","20.75","2.5625"
"1573731330612","146","-0.1015625","-1.0263672","-0.21582031","4.8125","13.15625","6.5625"
"1573731330612","147","-0.13867188","-1.0185547","-0.11328125","15.3125","14.3125","8.15625"
"1573731330613","148","-0.083984375","-0.97558594","-0.14355469","17.0625","10.84375","-0.375"
"1573731330613","149","-0.14355469","-1.0263672","-0.12402344","-0.0625","10.96875","2.0625"
"1573731330811","150","-0.171875","-0.9736328","-0.12695312","-0.5","17.6875","2.96875"
"1573731330811","151","-0.13671875","-0.99902344","-0.12207031","-9.0625","6.75","0.53125"
"1573731330811","152","-0.16992188","-0.9980469","-0.12011719","-6.1875","10.53125","1.4375"
"1573731330812","153","-0.17578125","-1.0146484","-0.13574219","0.96875","5.21875","0.90625"
"1573731330812","154","-0.16015625","-1.0195312","-0.1640625","-1.90625","5.84375","-2.28125"
"1573731330812","155","-0.16992188","-1.0029297","-0.10253906","4.3125","5.53125","0.53125"
"1573731330812","156","-0.15136719","-0.9970703","-0.15039062","30.75","-0.75","-3.1875"
"1573731330814","157","-0.12109375","-0.96777344","-0.099609375","-2.09375","-0.625","-1.1875"
"1573731330814","158","-0.12207031","-0.9550781","-0.13085938","7.625","-12.46875","10.46875"
"1573731330814","159","-0.14257812","-0.984375","-0.08691406","-19.96875","14.5625","6.34375"
"1573731331406","160","-0.095703125","-0.9873047","-0.13867188","-14.53125","-3.0","1.03125"
"1573731331406","161","-0.115234375","-1.0380859","-0.14648438","-16.625","2.0","2.5625"
"1573731331406","162","-0.10546875","-0.9921875","-0.13769531","-9.90625","-4.84375","-2.21875"
"1573731331407","163","-0.12890625","-1.0117188","-0.17382812","-7.65625","-1.96875","-0.4375"
"1573731331407","164","-0.099609375","-0.9658203","-0.16601562","-6.71875","-1.0625","-1.1875"
"1573731331407","165","-0.10449219","-0.9863281","-0.17285156","-1.1875","-9.96875","-2.03125"
"1573731331408","166","-0.16308594","-0.9638672","-0.12695312","8.65625","-11.78125","-1.65625"
"1573731331408","167","-0.1953125","-1.0039062","-0.15625","9.875","-1.59375","1.09375"
"1573731331409","168","-0.16601562","-0.9667969","-0.115234375","14.21875","-7.46875","1.21875"
"1573731331410","169","-0.18847656","-0.99121094","-0.13183594","16.9375","8.21875","-3.375"
"1573731331802","170","-0.14550781","-1.0166016","-0.12792969","12.375","7.6875","-4.53125"
"1573731331802","171","-0.14257812","-0.984375","-0.10253906","-4.15625","8.65625","-2.625"
"1573731331803","172","-0.13867188","-0.9921875","-0.12695312","-17.40625","5.28125","-4.65625"
"1573731331803","173","-0.13769531","-0.97753906","-0.10644531","-14.34375","6.8125","-1.40625"
"1573731331803","174","-0.14355469","-0.9472656","-0.140625","-12.71875","4.25","1.03125"
"1573731331803","175","-0.140625","-1.0703125","-0.15332031","-8.5625","2.78125","-3.4375"
"1573731331804","176","-0.1171875","-0.9423828","-0.14160156","-9.78125","-2.15625","0.0"
"1573731331804","177","-0.107421875","-1.0195312","-0.16699219","-10.875","3.46875","-1.40625"
"1573731331805","178","-0.16308594","-1.0146484","-0.14941406","-2.28125","-5.3125","-0.3125"
"1573731331805","179","-0.13574219","-0.95703125","-0.1640625","-5.75","6.5","0.90625"
"1573731332004","180","-0.12109375","-0.9941406","-0.15820312","-7.875","0.21875","3.09375"
"1573731332006","181","-0.15722656","-0.9921875","-0.16113281","0.0","12.875","4.125"
"1573731332006","182","-0.12988281","-1.0078125","-0.18359375","-2.59375","7.84375","-0.1875"
"1573731332006","183","-0.20214844","-1.0214844","-0.18652344","-1.90625","10.125","5.40625"
"1573731332007","184","-0.14550781","-0.8964844","-0.23339844","-8.4375","23.90625","-1.125"
"1573731332007","185","-0.125","-1.0136719","-0.19921875","-11.25","4.25","9.9375"
"1573731332007","186","-0.20117188","-1.0371094","-0.19335938","-15.40625","66.5625","5.65625"
"1573731332008","187","-0.06542969","-0.984375","-0.16601562","-5.9375","19.8125","-7.8125"
"1573731332008","188","-0.07128906","-1.0039062","-0.171875","5.96875","-3.6875","-3.625"
"1573731332008","189","-0.19433594","-0.9746094","-0.15820312","7.5","10.375","-5.15625"
"1573731332400","190","-0.15722656","-0.99316406","-0.1484375","-5.9375","8.40625","-4.21875"
"1573731332401","191","-0.12695312","-0.94140625","-0.17773438","-6.90625","-5.375","-0.9375"
"1573731332401","192","-0.18554688","-0.9765625","-0.1953125","-6.125","-1.84375","2.65625"
"1573731332401","193","-0.17285156","-1.0","-0.20996094","-5.5","-3.25","2.71875"
"1573731332402","194","-0.15527344","-1.0078125","-0.21191406","-7.8125","-6.84375","-1.1875"
"1573731332402","195","-0.1171875","-1.0224609","-0.21972656","-9.0","-15.03125","-11.0625"
"1573731332402","196","-0.052734375","-1.0205078","-0.19042969","-5.5","-24.1875","-26.8125"
"1573731332403","197","-0.083984375","-0.9873047","-0.24121094","-8.125","-40.71875","-26.9375"
"1573731332403","198","-0.1796875","-1.0527344","-0.20214844","-12.78125","-20.15625","-27.0"
"1573731332403","199","-0.10449219","-0.92285156","-0.2607422","-4.84375","-25.71875","-22.84375"
"1573731332992","200","-0.13574219","-0.9375","-0.17578125","-24.75","-22.15625","-10.6875"
"1573731332993","201","-0.119140625","-0.91015625","-0.16308594","-14.1875","-6.90625","-8.0"
"1573731332993","202","-0.08886719","-0.9375","-0.25878906","-11.25","-13.375","-5.3125"
"1573731332993","203","-0.045898438","-1.0107422","-0.2607422","3.03125","-2.625","-4.59375"
"1573731332994","204","-0.064453125","-0.9794922","-0.24707031","0.03125","0.0","-4.65625"
"1573731332995","205","-0.09667969","-1.0058594","-0.25976562","4.875","9.5625","2.125"
"1573731332995","206","-0.0859375","-1.0048828","-0.25","-11.6875","12.0","2.5"
"1573731332995","207","-0.0859375","-0.9375","-0.29492188","-0.1875","18.0","4.125"
"1573731332996","208","-0.07519531","-0.98046875","-0.24707031","-26.625","16.71875","1.4375"
"1573731332996","209","-0.09863281","-1.0078125","-0.28125","6.5625","6.03125","3.65625"
"1573731333195","210","-0.068359375","-1.0068359","-0.30078125","-6.125","0.40625","2.1875"
"1573731333196","211","-0.0859375","-0.9628906","-0.22363281","-4.65625","-5.6875","4.375"
"1573731333196","212","-0.08496094","-0.94921875","-0.26953125","-9.59375","-2.15625","4.0"
"1573731333196","213","-0.060546875","-0.9482422","-0.3046875","-11.90625","-6.3125","0.34375"
"1573731333196","214","-0.0859375","-0.9951172","-0.29882812","-6.65625","-3.0625","-1.40625"
"1573731333197","215","-0.123046875","-0.97558594","-0.2578125","-29.9375","8.84375","-7.28125"
"1573731333197","216","-0.140625","-0.9824219","-0.3310547","-14.71875","5.59375","-11.1875"
"1573731333199","217","-0.025390625","-0.9277344","-0.35058594","-0.5","1.8125","-15.8125"
"1573731333199","218","-0.09863281","-1.0009766","-0.28125","-2.15625","-2.625","-5.21875"
"1573731333199","219","-0.038085938","-0.9482422","-0.32128906","-9.46875","0.34375","-13.125"
"1573731333988","220","-0.033203125","-0.9746094","-0.31445312","-4.34375","-13.375","-2.03125"
"1573731333989","221","-0.057617188","-0.97558594","-0.3076172","-18.09375","0.40625","-1.40625"
"1573731333989","222","-0.06738281","-0.9355469","-0.3203125","-10.8125","-3.0625","-5.3125"
"1573731333989","223","-0.021484375","-0.93847656","-0.39746094","-5.9375","-8.625","-3.875"
"1573731333990","224","-0.09863281","-1.0195312","-0.34277344","-5.5","-6.1875","9.25"
"1573731333990","225","-0.06542969","-0.91796875","-0.39941406","-10.6875","-7.40625","1.5625"
"1573731333990","226","-0.052734375","-0.9785156","-0.40039062","-3.3125","-5.15625","10.59375"
"1573731333991","227","-0.08886719","-0.9433594","-0.32226562","12.3125","-0.625","7.375"
"1573731333991","228","-0.07324219","-0.9433594","-0.32226562","18.125","-15.15625","7.5"
"1573731333992","229","-0.10546875","-0.96777344","-0.28320312","21.59375","-4.53125","7.8125"
"1573731334188","230","-0.09082031","-0.88183594","-0.3720703","26.78125","-3.3125","2.71875"
"1573731334188","231","-0.08984375","-0.9892578","-0.35351562","15.84375","18.0625","20.5"
"1573731334188","232","-0.22070312","-1.0146484","-0.2265625","-4.53125","24.59375","16.53125"
"1573731334189","233","-0.10058594","-0.9345703","-0.26953125","15.96875","14.21875","-0.75"
"1573731334189","234","-0.111328125","-0.9658203","-0.30566406","22.8125","23.46875","2.5"
"1573731334189","235","-0.15722656","-0.97558594","-0.20703125","24.8125","28.96875","10.0625"
"1573731334190","236","-0.09863281","-0.9951172","-0.24316406","21.65625","22.875","6.9375"
"1573731334190","237","-0.12109375","-1.0039062","-0.21875","36.0","16.15625","7.375"
"1573731334190","238","-0.15625","-1.0009766","-0.20898438","27.375","15.625","9.125"
"1573731334190","239","-0.1796875","-1.0556641","-0.17382812","13.15625","14.375","1.5"
"1573731334586","240","-0.14453125","-1.0087891","-0.1640625","29.03125","3.71875","-14.78125"
"1573731334587","241","-0.16015625","-1.0302734","-0.17871094","46.0625","3.71875","-11.0625"
"1573731334588","242","-0.11816406","-0.9707031","-0.10058594","-11.25","15.0","-6.96875"
"1573731334588","243","-0.12109375","-0.94628906","-0.10449219","8.84375","0.84375","10.1875"
"1573731334588","244","-0.06738281","-0.95410156","-0.10546875","-2.75","3.46875","10.59375"
"1573731334589","245","-0.08984375","-0.98828125","-0.115234375","-19.125","13.09375","8.90625"
"1573731334589","246","-0.09375","-1.0283203","-0.11425781","-28.53125","11.53125","-0.5"
"1573731334589","247","-0.10546875","-0.99609375","-0.15527344","-16.75","-2.625","-9.0625"
"1573731334589","248","-0.12109375","-1.0009766","-0.22167969","-15.09375","-6.3125","-12.40625"
"1573731334590","249","-0.103515625","-0.9707031","-0.21972656","-8.6875","-3.96875","-6.84375"
"1573731334983","250","-0.08105469","-0.9707031","-0.21484375","-5.03125","-2.75","-5.5"
"1573731334983","251","-0.119140625","-1.0097656","-0.18847656","-4.53125","-8.75","0.0"
"1573731334984","252","-0.16503906","-1.0048828","-0.15917969","-5.15625","2.78125","3.90625"
"1573731334985","253","-0.12207031","-0.9560547","-0.17675781","4.25","0.40625","6.6875"
"1573731334985","254","-0.13769531","-1.0","-0.16308594","7.1875","-0.4375","6.34375"
"1573731334985","255","-0.14746094","-0.9785156","-0.15917969","19.53125","2.84375","1.21875"
"1573731334986","256","-0.13574219","-1.0136719","-0.17578125","20.96875","-8.875","4.0"
"1573731334986","257","-0.15234375","-1.0019531","-0.11230469","4.0","11.03125","2.96875"
"1573731334986","258","-0.12597656","-0.98535156","-0.14355469","-10.4375","5.0625","-1.46875"
"1573731334987","259","-0.12792969","-0.9785156","-0.10839844","-7.78125","7.0625","-0.6875"
"1573731335382","260","-0.13085938","-0.98046875","-0.15722656","-8.1875","7.4375","-2.40625"
"1573731335382","261","-0.13769531","-1.0498047","-0.14355469","-11.6875","6.09375","-4.03125"
"1573731335383","262","-0.12988281","-0.94628906","-0.15820312","-10.15625","6.09375","-5.9375"
"1573731335383","263","-0.04296875","-1.0019531","-0.20800781","-13.25","-13.5","-11.375"
"1573731335383","264","-0.16699219","-1.0185547","-0.18847656","-1.46875","-11.125","-9.0625"
"1573731335384","265","-0.09667969","-0.93066406","-0.16210938","-10.75","-0.75","-7.03125"
"1573731335385","266","-0.125","-1.0136719","-0.18847656","-11.375","-7.9375","3.71875"
"1573731335385","267","-0.12597656","-0.9980469","-0.18359375","-4.34375","-4.90625","7.25"
"1573731335385","268","-0.1328125","-1.0175781","-0.18554688","-8.4375","-10.40625","8.46875"
"1573731335386","269","-0.109375","-0.96875","-0.20214844","-3.96875","-7.15625","4.0625"
"1573731335780","270","-0.08886719","-1.0039062","-0.18847656","-17.53125","-24.3125","-1.34375"
"1573731335780","271","-0.08300781","-0.95703125","-0.17578125","-15.40625","-29.75","-12.78125"
"1573731335781","272","-0.12890625","-0.96484375","-0.25","1.28125","-7.15625","-11.0625"
"1573731335781","273","-0.119140625","-1.0107422","-0.27246094","-17.59375","-16.0","-9.40625"
"1573731335781","274","-0.15429688","-0.96972656","-0.18457031","-5.6875","-16.25","-6.53125"
"1573731335781","275","-0.16503906","-0.984375","-0.25976562","-11.625","-3.3125","-3.0"
"1573731335782","276","-0.13378906","-0.9667969","-0.23730469","-12.84375","-5.03125","-3.5625"
"1573731335783","277","-0.13085938","-0.97265625","-0.24609375","-10.625","-4.09375","-4.59375"
"1573731335784","278","-0.11816406","-0.9980469","-0.22070312","-21.125","-1.53125","-7.15625"
"1573731335784","279","-0.09472656","-1.0214844","-0.22460938","-12.53125","-4.53125","-1.65625"
"1573731336177","280","-0.07421875","-0.98046875","-0.2705078","-16.8125","-30.46875","3.71875"
"1573731336178","281","-0.11621094","-1.0175781","-0.25585938","0.71875","-18.75","2.65625"
"1573731336178","282","-0.12207031","-1.0019531","-0.27734375","-20.21875","-17.09375","0.78125"
"1573731336178","283","-0.10839844","-0.89941406","-0.296875","-5.9375","-17.96875","-2.75"
"1573731336178","284","-0.140625","-0.9394531","-0.31445312","-2.09375","-7.78125","1.5625"
"1573731336179","285","-0.16601562","-0.96972656","-0.29003906","-6.25","9.4375","-3.75"
"1573731336179","286","-0.12988281","-0.9326172","-0.30371094","-5.4375","16.28125","-11.1875"
"1573731336179","287","-0.12207031","-0.98339844","-0.3203125","-2.28125","27.34375","-10.625"
"1573731336179","288","-0.119140625","-0.9160156","-0.2841797","16.53125","26.34375","-9.34375"
"1573731336181","289","-0.10253906","-1.0449219","-0.24707031","28.5","15.71875","0.65625"
"1573731336575","290","-0.05078125","-0.9550781","-0.26757812","1.6875","33.75","-0.375"
"1573731336575","291","-0.119140625","-1.0253906","-0.30273438","-10.625","23.71875","1.03125"
"1573731336575","292","-0.109375","-0.96875","-0.26171875","4.4375","10.1875","-1.25"
"1573731336576","293","-0.13964844","-0.984375","-0.20507812","10.90625","15.1875","-2.15625"
"1573731336576","294","-0.12597656","-0.953125","-0.25390625","4.75","15.96875","1.03125"
"1573731336576","295","-0.08691406","-0.95996094","-0.265625","6.6875","16.21875","3.09375"
"1573731336576","296","-0.07128906","-1.0224609","-0.12695312","16.28125","3.53125","6.9375"
"1573731336577","297","-0.115234375","-0.9814453","-0.26367188","-4.34375","-31.4375","17.75"
"1573731336577","298","-0.049804688","-0.9765625","-0.27148438","-18.4375","-11.4375","13.53125"
"1573731336577","299","-0.11035156","-0.9746094","-0.2734375","-1.3125","-10.09375","11.15625"
"1573731337370","300","-0.13671875","-0.99121094","-0.24707031","0.03125","-3.96875","0.71875"
"1573731337371","301","-0.15429688","-0.9824219","-0.27929688","0.40625","12.0625","-7.40625"
"1573731337372","302","-0.14550781","-0.9814453","-0.21777344","-3.0625","22.3125","-6.125"
"1573731337372","303","-0.14648438","-0.9863281","-0.2548828","-4.09375","8.78125","-3.1875"
"1573731337373","304","-0.12890625","-0.9716797","-0.25","-7.28125","16.71875","-5.21875"
"1573731337373","305","-0.09863281","-0.9765625","-0.26660156","-19.71875","13.09375","-9.59375"
"1573731337373","306","-0.14550781","-0.9736328","-0.23535156","-44.4375","21.59375","-14.84375"
"1573731337374","307","-0.07714844","-0.9863281","-0.31054688","-42.125","11.21875","-15.46875"
"1573731337374","308","-0.030273438","-0.9892578","-0.34179688","-19.25","1.5625","-11.125"
"1573731337374","309","-0.103515625","-0.9111328","-0.06738281","41.5","-43.34375","0.0"
"1573731337567","310","-0.15820312","-1.0302734","-0.38867188","35.5","-85.46875","16.65625"
"1573731337567","311","-0.08984375","-0.9716797","-0.32714844","3.15625","-25.96875","10.71875"
"1573731337567","312","-0.09765625","-0.97558594","-0.39160156","12.6875","-30.28125","8.59375"
"1573731337568","313","-0.18847656","-1.0166016","-0.26953125","2.59375","-6.1875","10.59375"
"1573731337568","314","-0.13769531","-0.9277344","-0.3173828","2.59375","-2.59375","4.5625"
"1573731337568","315","-0.15039062","-0.98046875","-0.19824219","2.78125","5.125","3.03125"
"1573731337569","316","-0.13183594","-0.83984375","-0.25683594","18.21875","15.0625","-9.84375"
"1573731337569","317","-0.1171875","-1.0244141","-0.28710938","-3.3125","13.65625","3.40625"
"1573731337569","318","-0.19238281","-1.0166016","-0.20019531","22.1875","39.78125","14.875"
"1573731337569","319","-0.049804688","-0.98339844","-0.24804688","-9.96875","20.4375","-10.6875"
"1573731337964","320","-0.11328125","-1.0019531","-0.22460938","-6.0","10.3125","3.59375"
"1573731337965","321","-0.16113281","-0.9863281","-0.19726562","-8.25","15.65625","2.4375"
"1573731337965","322","-0.12792969","-1.0068359","-0.23046875","-3.875","12.3125","-2.46875"
"1573731337965","323","-0.125","-0.97265625","-0.22753906","-3.25","10.3125","-7.28125"
"1573731337966","324","-0.16015625","-0.95703125","-0.2548828","-4.78125","4.875","-3.5625"
"1573731337967","325","-0.15039062","-0.9355469","-0.28710938","6.6875","32.28125","-6.5"
"1573731337967","326","-0.18554688","-1.0458984","-0.3388672","17.0625","26.46875","10.84375"
"1573731337967","327","-0.17675781","-1.0117188","-0.17773438","9.03125","31.53125","4.0"
"1573731337968","328","-0.12890625","-0.9003906","-0.20410156","21.28125","7.125","4.9375"
"1573731337968","329","-0.11425781","-0.921875","-0.22558594","4.0","11.9375","3.65625"
"1573731338166","330","-0.10546875","-0.95214844","-0.19433594","-4.09375","7.4375","-0.6875"
"1573731338166","331","-0.09082031","-1.0166016","-0.24609375","-11.0","6.5","-8.5625"
"1573731338166","332","-0.045898438","-1.0214844","-0.24804688","-11.625","0.03125","-15.6875"
"1573731338167","333","-0.041015625","-0.9902344","-0.23339844","-16.625","-6.59375","-9.15625"
"1573731338167","334","-0.08105469","-1.0410156","-0.25585938","1.28125","-5.875","-2.21875"
"1573731338167","335","-0.013671875","-0.9345703","-0.26464844","-4.15625","-18.5625","-5.5625"
"1573731338167","336","-0.09082031","-0.9658203","-0.2763672","0.21875","-18.625","-3.5625"
"1573731338169","337","-0.15234375","-0.984375","-0.22460938","1.9375","-10.15625","-1.53125"
"1573731338170","338","-0.16992188","-0.9941406","-0.21191406","-0.6875","4.3125","3.09375"
"1573731338170","339","-0.1171875","-0.97558594","-0.24804688","4.5625","5.59375","2.25"
"1573731338562","340","-0.11621094","-0.98828125","-0.22558594","5.34375","3.03125","1.3125"
"1573731338563","341","-0.13671875","-0.95996094","-0.18847656","14.21875","3.03125","0.65625"
"1573731338563","342","-0.12109375","-1.0068359","-0.21484375","9.9375","6.8125","3.90625"
"1573731338563","343","-0.10839844","-0.95214844","-0.21484375","-11.78125","17.0","1.21875"
"1573731338563","344","-0.09765625","-1.0097656","-0.23535156","-11.625","9.09375","6.8125"
"1573731338564","345","-0.115234375","-0.98535156","-0.19042969","-7.03125","24.09375","-1.53125"
"1573731338564","346","-0.11230469","-1.0380859","-0.2734375","3.65625","9.5625","-5.09375"
"1573731338564","347","-0.06542969","-1.0009766","-0.22753906","2.71875","19.9375","-7.78125"
"1573731338564","348","-0.119140625","-0.9316406","-0.23242188","0.96875","-11.84375","6.03125"
"1573731338566","349","-0.099609375","-0.99316406","-0.25195312","2.0","0.78125","9.375"
"1573731338959","350","-0.123046875","-0.99121094","-0.20800781","4.25","-7.9375","8.46875"
"1573731338960","351","-0.12109375","-0.9267578","-0.24414062","-1.53125","1.28125","2.3125"
"1573731338960","352","-0.12207031","-0.9873047","-0.22949219","4.5625","7.5625","3.09375"
"1573731338960","353","-0.16699219","-1.0214844","-0.13183594","15.71875","20.0625","4.3125"
"1573731338961","354","-0.13378906","-0.9902344","-0.20898438","6.8125","4.0","7.6875"
"1573731338961","355","-0.16796875","-0.9873047","-0.18359375","9.5","9.5625","11.03125"
"1573731338962","356","-0.115234375","-0.94140625","-0.19042969","15.4375","16.21875","5.90625"
"1573731338962","357","-0.123046875","-1.0185547","-0.203125","-13.125","10.125","-2.15625"
"1573731338962","358","-0.08105469","-1.0283203","-0.14941406","-3.5","11.21875","-14.125"
"1573731338963","359","-0.09082031","-0.90527344","-0.14160156","2.5","9.375","-14.53125"
"1573731339356","360","-0.15527344","-1.0341797","-0.20605469","-13.9375","9.1875","-4.96875"
"1573731339357","361","-0.11230469","-1.0029297","-0.1796875","-12.28125","19.9375","-6.53125"
"1573731339357","362","-0.13574219","-0.98339844","-0.20898438","-16.125","3.9375","-8.8125"
"1573731339358","363","-0.15429688","-0.98535156","-0.20898438","-11.78125","5.53125","-4.21875"
"1573731339358","364","-0.14648438","-1.0039062","-0.23925781","-10.28125","2.5","-6.0"
"1573731339358","365","-0.0859375","-1.0078125","-0.2763672","-19.59375","-5.5","-14.71875"
"1573731339359","366","-0.0146484375","-1.0136719","-0.2685547","-8.875","-17.78125","-16.8125"
"1573731339359","367","-0.0625","-1.0048828","-0.22558594","0.28125","-15.46875","-9.21875"
"1573731339359","368","-0.13671875","-1.0253906","-0.13378906","-13.1875","-9.0625","-7.71875"
"1573731339360","369","-0.07910156","-0.8808594","-0.24121094","5.0625","-9.15625","-11.78125"
"1573731339755","370","-0.09472656","-0.9375","-0.21875","-21.5","-9.15625","-9.65625"
"1573731339756","371","-0.060546875","-0.9794922","-0.26367188","-2.9375","2.90625","-2.03125"
"1573731339756","372","-0.059570312","-1.0517578","-0.30078125","-23.5","1.28125","-5.8125"
"1573731339757","373","-0.0146484375","-0.98339844","-0.2841797","-15.21875","1.9375","-11.1875"
"1573731339758","374","-0.04296875","-0.9941406","-0.265625","-10.5","-3.5","-9.0625"
"1573731339758","375","-0.030273438","-0.93652344","-0.2939453","5.28125","-9.15625","-8.75"
"1573731339758","376","-0.059570312","-0.9394531","-0.2705078","-3.0","-11.3125","-9.53125"
"1573731339758","377","-0.048828125","-0.9472656","-0.29492188","-6.0","-2.53125","-7.34375"
"1573731339759","378","-0.09082031","-1.0205078","-0.2919922","-10.625","-2.40625","-3.375"
"1573731339759","379","-0.049804688","-0.9873047","-0.31445312","-6.0","-5.4375","-3.5625"
"1573731340153","380","-0.087890625","-1.0048828","-0.28222656","-4.71875","-10.03125","2.65625"
"1573731340153","381","-0.047851562","-0.9375","-0.3154297","-3.125","-8.4375","3.21875"
"1573731340154","382","-0.04296875","-0.9765625","-0.30371094","-1.59375","-7.34375","5.34375"
"1573731340154","383","-0.024414062","-0.94628906","-0.31445312","-1.53125","-7.78125","-2.40625"
"1573731340154","384","-0.034179688","-0.98828125","-0.3095703","0.59375","-5.875","1.8125"
"1573731340156","385","-0.041015625","-0.9814453","-0.28808594","-3.4375","4.875","-2.6875"
"1573731340156","386","-0.03125","-0.9628906","-0.3203125","-0.625","-6.96875","-3.375"
"1573731340156","387","-0.068359375","-0.984375","-0.26660156","-0.75","3.84375","1.625"
"1573731340157","388","-0.060546875","-0.9482422","-0.2861328","-9.71875","0.0","-3.25"
"1573731340157","389","-0.03125","-0.9658203","-0.3046875","-4.40625","-1.96875","-2.625"
"1573731340548","390","-0.07128906","-1.0078125","-0.26464844","-16.96875","-0.25","-0.5625"
"1573731340548","391","-0.040039062","-0.9765625","-0.35253906","-28.28125","4.25","-6.1875"
"1573731340549","392","-0.03515625","-0.9628906","-0.34472656","-14.46875","-0.75","-2.03125"
"1573731340549","393","-0.07324219","-0.9580078","-0.29003906","-7.09375","-1.78125","5.21875"
"1573731340549","394","-0.08691406","-0.95214844","-0.3544922","-1.0","2.59375","11.15625"
"1573731340549","395","-0.06347656","-0.97558594","-0.38964844","15.5","7.90625","14.9375"
"1573731340550","396","-0.061523438","-0.9658203","-0.35742188","20.375","7.625","10.71875"
"1573731340551","397","-0.06542969","-0.9433594","-0.32226562","21.78125","11.15625","9.8125"
"1573731340551","398","-0.09863281","-0.99609375","-0.27539062","18.28125","19.46875","3.40625"
"1573731340551","399","-0.06347656","-0.90722656","-0.3564453","18.53125","28.84375","-2.03125"
"1573731340946","400","-0.061523438","-0.96777344","-0.31152344","-0.875","30.3125","5.21875"
"1573731340947","401","-0.11328125","-1.0097656","-0.21679688","9.5","37.75","4.8125"
"1573731340947","402","-0.07128906","-0.9873047","-0.23046875","24.9375","22.3125","1.5625"
"1573731340948","403","-0.091796875","-1.0068359","-0.20800781","8.34375","15.3125","3.21875"
"1573731340948","404","-0.12207031","-0.9951172","-0.20410156","-4.96875","23.4375","4.0"
"1573731340948","405","-0.10449219","-0.9980469","-0.20996094","7.5","15.65625","4.4375"
"1573731340948","406","-0.06738281","-1.0234375","-0.22070312","28.5","6.8125","6.03125"
"1573731340949","407","-0.05859375","-1.0585938","-0.23925781","22.5","-1.1875","1.8125"
"1573731340949","408","-0.06542969","-0.96777344","-0.26464844","27.4375","2.4375","-4.03125"
"1573731340949","409","-0.07128906","-1.0029297","-0.1953125","31.71875","-8.9375","4.3125"
"1573731341539","410","-0.072265625","-0.91015625","-0.14453125","1.28125","-2.34375","1.15625"
"1573731341539","411","-0.07324219","-0.9394531","-0.21777344","-9.0","-2.34375","5.125"
"1573731341539","412","-0.078125","-0.96875","-0.1640625","-20.34375","3.9375","2.96875"
"1573731341539","413","-0.09277344","-1.0107422","-0.16601562","-19.1875","-5.09375","-1.65625"
"1573731341540","414","-0.09863281","-1.0185547","-0.1796875","-14.125","2.3125","-5.09375"
"1573731341540","415","-0.08300781","-1.0078125","-0.20214844","-5.9375","-1.3125","-4.90625"
"1573731341540","416","-0.07324219","-0.9921875","-0.17675781","-1.78125","3.71875","-4.84375"
"1573731341540","417","-0.061523438","-0.98339844","-0.20214844","0.0","-7.59375","-6.4375"
"1573731341541","418","-0.06640625","-1.0078125","-0.20410156","1.5625","0.65625","-6.1875"
"1573731341541","419","-0.047851562","-0.96875","-0.18652344","4.8125","-2.46875","-3.125"
"1573731341742","420","-0.0703125","-1.0166016","-0.20800781","7.84375","-9.71875","3.46875"
"1573731341744","421","-0.08691406","-0.9892578","-0.19921875","0.78125","8.03125","0.65625"
"1573731341744","422","-0.06347656","-0.95996094","-0.22460938","-0.375","-5.03125","2.71875"
"1573731341745","423","-0.13183594","-1.0126953","-0.20703125","-2.03125","2.59375","2.0"
"1573731341745","424","-0.057617188","-0.9423828","-0.19628906","-6.125","-9.96875","-1.78125"
"1573731341745","425","-0.052734375","-1.0332031","-0.19726562","-6.65625","7.75","-0.6875"
"1573731341746","426","-0.046875","-1.0185547","-0.21875","-17.28125","-8.875","-1.90625"
"1573731341746","427","-0.078125","-0.9941406","-0.1796875","-15.625","1.9375","0.34375"
"1573731341746","428","-0.0625","-0.98828125","-0.25878906","-1.25","-11.78125","-0.1875"
"1573731341747","429","-0.07324219","-0.9794922","-0.21972656","-4.53125","-15.40625","-0.8125"
