"# PR data"
"# Start time: 20191114T115154"
"# Subject: zoe"
"# Activity type: Walking"
"# Correctness: Correct"
"# Notes: "
""
"timestamp","seq","accel_x","accel_y","accel_z","gyro_x","gyro_y","gyro_z"
"1573732315059","0","-0.08105469","-1.0869141","-0.45996094","21.34375","36.0625","14.375"
"1573732315059","1","-0.09082031","-0.9980469","-0.36621094","20.0","14.8125","12.0625"
"1573732315059","2","-0.25097656","-0.9560547","-0.34570312","23.125","14.375","20.4375"
"1573732315060","3","-0.28027344","-0.91503906","-0.34472656","19.6875","23.4375","24.71875"
"1573732315060","4","-0.22070312","-0.9394531","-0.34179688","15.1875","27.6875","18.53125"
"1573732315060","5","-0.22558594","-0.9589844","-0.3232422","19.53125","29.40625","9.5625"
"1573732315060","6","-0.19726562","-0.921875","-0.29882812","20.125","32.6875","4.3125"
"1573732315061","7","-0.21484375","-0.94433594","-0.31347656","16.34375","26.78125","-0.4375"
"1573732315061","8","-0.24023438","-0.92285156","-0.28710938","21.78125","21.34375","0.71875"
"1573732315061","9","-0.24316406","-0.9511719","-0.2607422","22.6875","28.0625","3.34375"
"1573732315653","10","-0.24804688","-0.92285156","-0.265625","20.90625","20.8125","0.03125"
"1573732315654","11","-0.36035156","-0.9560547","-0.23144531","36.25","22.125","3.71875"
"1573732315654","12","-0.34375","-0.9628906","-0.17480469","29.15625","37.03125","2.96875"
"1573732315655","13","-0.31445312","-0.9628906","-0.16210938","20.0625","43.5625","-0.25"
"1573732315655","14","-0.2734375","-0.9550781","-0.13769531","19.875","43.875","-4.34375"
"1573732315656","15","-0.19433594","-0.9814453","-0.13574219","8.03125","40.9375","-7.53125"
"1573732315656","16","-0.12402344","-1.0302734","-0.18261719","5.21875","35.5","-9.21875"
"1573732315656","17","-0.15820312","-1.0224609","-0.12109375","4.6875","35.03125","-6.78125"
"1573732315656","18","-0.21875","-0.9550781","-0.12695312","9.25","36.3125","-1.0"
"1573732315656","19","-0.24023438","-0.9511719","-0.10839844","5.34375","40.5","2.78125"
"1573732315852","20","-0.2265625","-0.9892578","-0.11816406","1.8125","33.3125","2.71875"
"1573732315853","21","-0.20507812","-0.97753906","-0.1015625","3.65625","28.5625","-1.0625"
"1573732315853","22","-0.17382812","-0.97265625","-0.115234375","0.34375","22.6875","-1.90625"
"1573732315853","23","-0.19433594","-0.9765625","-0.13574219","-0.0625","18.90625","-0.8125"
"1573732315853","24","-0.19921875","-0.9814453","-0.125","-0.4375","18.90625","1.375"
"1573732315855","25","-0.21972656","-0.9785156","-0.12890625","1.21875","18.21875","2.4375"
"1573732315856","26","-0.21972656","-0.9794922","-0.12792969","0.53125","22.4375","3.65625"
"1573732315856","27","-0.23925781","-0.9765625","-0.14550781","13.40625","24.9375","4.4375"
"1573732315856","28","-0.22949219","-0.9628906","-0.12890625","4.3125","33.96875","4.0"
"1573732315857","29","-0.22265625","-0.98828125","-0.15917969","8.59375","38.625","7.375"
"1573732316251","30","-0.2529297","-0.9589844","-0.15722656","14.8125","48.09375","8.46875"
"1573732316252","31","-0.27539062","-0.96191406","-0.13769531","16.09375","54.78125","9.6875"
"1573732316252","32","-0.2890625","-0.9580078","-0.15136719","17.875","61.09375","9.6875"
"1573732316252","33","-0.26757812","-0.9707031","-0.12109375","15.3125","65.96875","11.03125"
"1573732316253","34","-0.23632812","-0.9746094","-0.11230469","12.75","66.03125","8.71875"
"1573732316253","35","-0.17285156","-0.9970703","-0.07519531","2.5625","55.59375","5.59375"
"1573732316253","36","-0.14453125","-0.9951172","-0.030273438","0.0","31.65625","2.0"
"1573732316255","37","-0.16601562","-1.0429688","-0.07128906","-7.78125","22.875","-5.15625"
"1573732316255","38","-0.13378906","-1.0087891","-0.09667969","-11.0","13.65625","-12.34375"
"1573732316256","39","-0.20898438","-0.9404297","-0.10449219","-2.625","6.03125","-9.0"
"1573732316647","40","-0.19140625","-0.96972656","-0.14355469","-13.625","4.625","-5.21875"
"1573732316648","41","-0.17480469","-0.96484375","-0.1640625","-14.0","5.1875","-4.65625"
"1573732316648","42","-0.140625","-0.9951172","-0.18066406","-8.9375","7.96875","-1.96875"
"1573732316648","43","-0.23632812","-0.9785156","-0.1796875","4.5625","16.28125","6.03125"
"1573732316648","44","-0.1796875","-1.0498047","-0.171875","6.03125","21.21875","9.5"
"1573732316649","45","-0.18261719","-0.95214844","-0.20898438","10.25","29.15625","6.28125"
"1573732316649","46","-0.16308594","-0.9472656","-0.25390625","17.375","39.78125","10.1875"
"1573732316649","47","-0.1328125","-0.9345703","-0.2607422","10.46875","41.90625","9.9375"
"1573732316649","48","-0.13476562","-0.9560547","-0.296875","4.75","41.90625","8.84375"
"1573732316651","49","-0.09082031","-0.9638672","-0.3310547","-4.15625","39.84375","6.9375"
"1573732317242","50","-0.10546875","-0.9189453","-0.35253906","3.03125","32.03125","6.8125"
"1573732317242","51","-0.14453125","-0.9472656","-0.31445312","3.78125","33.90625","6.03125"
"1573732317243","52","-0.1484375","-0.88183594","-0.33984375","2.96875","36.96875","12.9375"
"1573732317245","53","-0.13183594","-0.9326172","-0.28515625","5.125","31.71875","12.625"
"1573732317246","54","-0.09765625","-0.96191406","-0.3330078","1.4375","28.71875","7.90625"
"1573732317246","55","-0.14355469","-1.0380859","-0.34179688","-2.875","22.125","1.625"
"1573732317246","56","-0.20800781","-1.0839844","-0.4482422","9.5625","30.125","4.6875"
"1573732317246","57","-0.053710938","-1.2636719","-0.4375","10.59375","24.75","0.40625"
"1573732317249","58","-0.07324219","-1.2509766","-0.22753906","-10.03125","9.09375","-10.34375"
"1573732317249","59","-0.33789062","-1.1416016","-0.01171875","2.84375","7.0","-14.0625"
"1573732317839","60","-0.3984375","-0.8027344","0.083984375","27.9375","22.75","-16.5625"
"1573732317840","61","-0.45214844","-0.9091797","-0.11035156","17.75","25.5625","0.53125"
"1573732317841","62","-0.1484375","-1.0244141","-0.0390625","-2.75","31.65625","-6.96875"
"1573732317841","63","-0.12890625","-1.0400391","-0.12792969","-6.53125","15.0","-12.21875"
"1573732317841","64","-0.1484375","-1.0029297","-0.15429688","-2.6875","0.59375","-12.34375"
"1573732317842","65","-0.25878906","-0.8486328","-0.17480469","-9.90625","-0.3125","-9.15625"
"1573732317842","66","-0.21875","-0.7578125","-0.18359375","-9.0","-3.375","-5.625"
"1573732317843","67","-0.16992188","-0.7626953","-0.22167969","2.90625","8.21875","-3.4375"
"1573732317843","68","-0.16796875","-0.7392578","-0.296875","6.03125","7.25","-5.5625"
"1573732317843","69","-0.068359375","-0.81933594","-0.31933594","-4.09375","-7.28125","-3.4375"
"1573732318038","70","-0.22851562","-0.92578125","-0.35351562","-11.71875","10.96875","2.125"
"1573732318038","71","-0.11816406","-1.1269531","-0.40820312","-24.25","-12.09375","-10.15625"
"1573732318039","72","-0.06542969","-1.2216797","-0.5576172","4.5","-8.9375","-0.25"
"1573732318040","73","0.029296875","-1.2753906","-0.5029297","-33.34375","-22.34375","-3.625"
"1573732318041","74","-0.4013672","-1.3232422","-0.04296875","-8.6875","-3.6875","25.75"
"1573732318041","75","-0.5361328","-0.91503906","0.20019531","-9.46875","6.15625","26.40625"
"1573732318041","76","-0.057617188","-0.9355469","-0.08886719","-46.9375","-33.9375","18.125"
"1573732318041","77","-0.24902344","-1.0869141","0.041015625","-1.53125","-45.59375","1.21875"
"1573732318042","78","-0.50683594","-0.9189453","-0.018554688","12.75","13.0","9.375"
"1573732318042","79","-0.35253906","-0.8652344","-0.23242188","29.21875","34.28125","0.15625"
"1573732318237","80","-0.26367188","-0.8408203","-0.21191406","18.0","29.46875","1.8125"
"1573732318237","81","-0.15527344","-0.71875","-0.15136719","18.53125","48.75","3.78125"
"1573732318237","82","-0.053710938","-0.78515625","-0.15039062","14.375","49.59375","7.25"
"1573732318238","83","-0.026367188","-0.85253906","-0.15136719","5.125","23.59375","15.0"
"1573732318238","84","-0.056640625","-0.94628906","-0.21289062","-3.8125","13.59375","11.03125"
"1573732318239","85","-0.23828125","-0.96875","-0.32617188","-8.0","20.96875","11.40625"
"1573732318239","86","-0.021484375","-1.1464844","-0.3798828","-23.875","13.0","-3.90625"
"1573732318240","87","0.047851562","-1.1289062","-0.42285156","8.28125","-11.625","-14.125"
"1573732318240","88","-0.19042969","-1.3535156","-0.41992188","7.625","26.09375","-12.03125"
"1573732318240","89","-0.3544922","-0.9970703","0.19726562","4.9375","-19.90625","-20.78125"
"1573732318636","90","-0.625","-0.99316406","0.19628906","32.46875","-24.78125","-37.0625"
"1573732318637","91","-0.5654297","-0.95703125","-0.0078125","14.21875","40.75","-1.59375"
"1573732318637","92","-0.040039062","-1.1503906","-0.09277344","-3.0","5.84375","-0.6875"
"1573732318637","93","-0.08300781","-1.0390625","-0.053710938","-10.5625","-12.71875","-6.78125"
"1573732318637","94","-0.20214844","-0.90722656","-0.078125","-17.21875","-35.96875","-2.59375"
"1573732318637","95","-0.22167969","-0.8076172","-0.16015625","-16.0625","-26.125","-0.5625"
"1573732318638","96","-0.18359375","-0.8183594","-0.20605469","-19.375","-34.5625","0.65625"
"1573732318639","97","-0.21679688","-0.76464844","-0.20410156","-8.0","-32.3125","2.3125"
"1573732318639","98","-0.16992188","-0.8222656","-0.28027344","-10.875","-25.71875","0.34375"
"1573732318640","99","-0.16308594","-0.8886719","-0.36132812","-14.65625","-21.625","-9.71875"
"1573732319032","100","-0.18652344","-0.9160156","-0.31152344","-13.5","-23.9375","-8.625"
"1573732319032","101","-0.20898438","-1.09375","-0.45410156","-9.40625","-28.875","-5.375"
"1573732319033","102","0.14453125","-1.1826172","-0.4404297","-31.75","-27.84375","-17.59375"
"1573732319033","103","-0.40527344","-1.5410156","-0.24902344","-49.15625","-25.40625","15.5"
"1573732319033","104","-0.5722656","-0.9716797","0.25390625","-12.21875","-7.15625","47.53125"
"1573732319033","105","-0.05078125","-0.9296875","-0.07910156","-42.6875","-50.0625","11.28125"
"1573732319034","106","-0.39160156","-0.9667969","0.056640625","10.78125","-55.25","0.84375"
"1573732319034","107","-0.6171875","-0.8378906","-0.13476562","24.46875","14.375","3.90625"
"1573732319034","108","-0.32128906","-0.90527344","-0.1875","28.0625","21.28125","-3.96875"
"1573732319036","109","-0.26660156","-0.81640625","-0.15625","37.9375","34.96875","2.4375"
"1573732319431","110","-0.12792969","-0.7753906","-0.14355469","28.96875","37.9375","7.90625"
"1573732319431","111","-0.057617188","-0.7763672","-0.18652344","13.71875","38.375","5.78125"
"1573732319431","112","-0.01953125","-0.8515625","-0.23339844","3.40625","20.0","4.0"
"1573732319432","113","-0.13867188","-0.9863281","-0.2705078","11.8125","21.28125","0.40625"
"1573732319432","114","-0.21679688","-1.0068359","-0.24316406","9.5","33.96875","4.5625"
"1573732319432","115","-0.099609375","-1.1640625","-0.46777344","-4.84375","0.15625","0.53125"
"1573732319432","116","0.08300781","-1.1865234","-0.37402344","23.4375","4.5625","-20.28125"
"1573732319433","117","-0.45898438","-1.4121094","-0.15820312","33.25","-6.65625","-32.3125"
"1573732319433","118","-0.3486328","-0.99902344","0.26464844","19.75","-15.09375","-47.125"
"1573732319433","119","-0.6855469","-0.79003906","0.22167969","30.3125","28.125","-20.65625"
"1573732319829","120","-0.2919922","-1.1181641","-0.08300781","6.03125","41.96875","9.25"
"1573732319830","121","-9.765625E-4","-1.0966797","-0.060546875","-12.65625","30.5625","2.375"
"1573732319830","122","-0.1484375","-0.9746094","-0.083984375","-15.6875","0.65625","7.125"
"1573732319831","123","-0.099609375","-0.8017578","-0.18847656","-11.84375","3.9375","-0.1875"
"1573732319831","124","-0.1171875","-0.7216797","-0.1015625","22.6875","-0.8125","2.96875"
"1573732319832","125","-0.2734375","-0.7109375","-0.22070312","65.15625","-17.78125","2.25"
"1573732319832","126","-0.21777344","-0.74316406","-0.14941406","26.09375","1.875","-1.96875"
"1573732319832","127","-0.12597656","-0.87109375","-0.15429688","8.03125","9.03125","-6.90625"
"1573732319832","128","-0.07421875","-1.0517578","-0.24121094","-25.40625","-13.1875","-9.40625"
"1573732319833","129","-0.068359375","-1.3476562","-0.31054688","-40.65625","-36.75","-9.78125"
"1573732320226","130","-0.09863281","-1.328125","-0.53808594","-63.375","-17.65625","-1.40625"
"1573732320226","131","-0.4267578","-1.6904297","-0.0703125","-47.0625","16.71875","25.5"
"1573732320226","132","-0.5136719","-0.7080078","0.41503906","-22.40625","-8.9375","27.5625"
"1573732320228","133","-0.046875","-1.1445312","0.0107421875","-64.84375","-63.4375","20.0"
"1573732320228","134","-0.49804688","-0.90527344","0.14648438","20.0625","-28.03125","6.5625"
"1573732320228","135","-0.4638672","-0.8876953","0.0068359375","-12.21875","20.75","-0.8125"
"1573732320229","136","-0.29785156","-0.875","-0.0703125","5.59375","22.09375","-9.46875"
"1573732320229","137","-0.28710938","-0.71191406","-0.119140625","0.09375","36.0625","1.875"
"1573732320229","138","-0.1328125","-0.7314453","-0.11328125","3.78125","39.84375","13.03125"
"1573732320229","139","-0.068359375","-0.77441406","-0.140625","-1.34375","39.59375","9.9375"
"1573732320822","140","-0.0107421875","-0.85253906","-0.25683594","-5.15625","29.9375","11.28125"
"1573732320822","141","-0.14941406","-0.9736328","-0.28222656","8.21875","40.875","10.46875"
"1573732320823","142","-0.1796875","-1.0791016","-0.3017578","-3.90625","48.5625","19.9375"
"1573732320823","143","0.057617188","-1.1025391","-0.38867188","-1.59375","5.96875","2.78125"
"1573732320823","144","-0.0390625","-1.1601562","-0.46777344","-2.75","8.09375","-24.78125"
"1573732320825","145","-0.484375","-1.3320312","0.013671875","-8.5","1.28125","-39.8125"
"1573732320825","146","-0.58203125","-0.94433594","0.1484375","53.6875","-3.25","-57.8125"
"1573732320826","147","-0.7763672","-1.0517578","-0.06933594","13.03125","64.6875","-2.75"
"1573732320826","148","0.051757812","-1.1474609","-0.13183594","-14.0625","29.65625","3.03125"
"1573732320826","149","-0.043945312","-1.0429688","-0.068359375","-18.625","-7.8125","-11.84375"
"1573732321020","150","-0.15234375","-0.91503906","-0.125","-26.75","-35.78125","-6.53125"
"1573732321020","151","-0.12792969","-0.79589844","-0.14453125","-22.59375","-38.40625","-0.3125"
"1573732321021","152","-0.19335938","-0.7373047","-0.20019531","-16.4375","-52.625","-0.875"
"1573732321021","153","-0.29492188","-0.7597656","-0.23535156","-5.15625","-38.40625","1.375"
"1573732321021","154","-0.2626953","-0.8232422","-0.29296875","-8.375","-22.40625","1.3125"
"1573732321021","155","-0.12988281","-0.8691406","-0.42382812","-21.875","-11.5625","-8.75"
"1573732321022","156","-0.05859375","-0.87597656","-0.3466797","-8.6875","-34.1875","-10.9375"
"1573732321023","157","-0.10839844","-1.0996094","-0.4033203","2.59375","-32.1875","-7.40625"
"1573732321024","158","-0.10546875","-1.0732422","-0.5419922","-15.8125","-35.90625","-4.65625"
"1573732321024","159","-0.49804688","-1.5478516","-0.4423828","-46.15625","20.8125","26.40625"
"1573732321417","160","-0.46777344","-0.7949219","0.21386719","-20.09375","20.5625","34.34375"
"1573732321417","161","-0.107421875","-1.0712891","-0.103515625","-36.34375","-21.375","19.625"
"1573732321418","162","-0.453125","-1.0234375","0.036132812","3.15625","-13.3125","5.90625"
"1573732321418","163","-0.44628906","-0.9355469","-0.22851562","2.5625","29.21875","1.6875"
"1573732321418","164","-0.26367188","-0.9121094","-0.23242188","30.375","25.6875","-6.90625"
"1573732321418","165","-0.17675781","-0.8125","-0.17382812","41.78125","18.125","1.3125"
"1573732321418","166","-0.171875","-0.77246094","-0.18847656","32.6875","32.75","12.1875"
"1573732321419","167","-0.078125","-0.8154297","-0.18359375","17.0","34.59375","10.59375"
"1573732321419","168","-0.033203125","-0.80371094","-0.19433594","5.125","22.9375","12.75"
"1573732321420","169","-0.099609375","-0.9042969","-0.29492188","10.1875","31.1875","10.375"
"1573732321816","170","-0.22070312","-0.9667969","-0.32226562","2.0","51.1875","13.84375"
"1573732321816","171","-0.060546875","-1.2001953","-0.38671875","-19.65625","28.4375","9.25"
"1573732321817","172","0.28808594","-1.1621094","-0.4970703","-2.09375","-10.4375","-29.4375"
"1573732321817","173","-0.29101562","-1.3457031","-0.31152344","11.28125","8.15625","-41.34375"
"1573732321817","174","-0.35058594","-1.0175781","0.12792969","15.78125","-51.34375","-55.3125"
"1573732321817","175","-0.8691406","-0.9638672","0.115234375","46.6875","15.5625","-22.28125"
"1573732321818","176","-0.3203125","-1.0976562","-0.068359375","24.8125","39.96875","5.40625"
"1573732321818","177","-0.07519531","-1.1875","-9.765625E-4","9.3125","-3.625","-6.59375"
"1573732321818","178","-0.23535156","-0.9560547","-0.083984375","-9.40625","-14.78125","9.25"
"1573732321818","179","-0.18261719","-0.7783203","-0.14550781","9.09375","-6.0","11.71875"
"1573732322213","180","-0.11230469","-0.68359375","-0.15332031","9.625","-7.78125","9.25"
"1573732322214","181","-0.15429688","-0.66796875","-0.20117188","1.5","-11.25","5.0625"
"1573732322214","182","-0.14941406","-0.79785156","-0.22753906","-5.625","-4.90625","4.6875"
"1573732322215","183","-0.17773438","-0.9716797","-0.30859375","-21.0","-10.28125","-1.59375"
"1573732322215","184","-0.13476562","-1.0605469","-0.33691406","-44.5625","-25.71875","-10.21875"
"1573732322215","185","-0.046875","-1.1503906","-0.3935547","-37.5625","-26.125","-11.625"
"1573732322215","186","-0.24023438","-1.0341797","-0.7402344","-47.8125","-23.6875","6.15625"
"1573732322215","187","-0.15527344","-1.4384766","-0.4423828","-41.40625","-8.0","2.3125"
"1573732322216","188","-0.5722656","-1.0126953","0.08203125","-40.59375","-0.1875","31.0"
"1573732322216","189","-0.20800781","-0.9589844","0.17382812","-47.75","-27.78125","41.25"
"1573732322612","190","-0.08691406","-1.0634766","-0.07519531","-31.625","-53.90625","-1.40625"
"1573732322612","191","-0.66308594","-0.92089844","-0.13085938","13.78125","-1.0625","-2.09375"
"1573732322613","192","-0.4453125","-0.85058594","-0.20996094","33.3125","40.5625","-11.71875"
"1573732322614","193","-0.22949219","-0.8486328","-0.19726562","57.34375","35.875","-8.125"
"1573732322614","194","-0.15527344","-0.7216797","-0.171875","52.84375","28.78125","5.65625"
"1573732322615","195","-0.01171875","-0.74316406","-0.17773438","29.40625","21.96875","8.90625"
"1573732322615","196","-0.034179688","-0.79296875","-0.19335938","15.3125","21.46875","5.65625"
"1573732322615","197","-0.0390625","-0.9550781","-0.24023438","13.59375","23.65625","-2.46875"
"1573732322616","198","-0.16308594","-1.0166016","-0.31835938","-9.28125","40.6875","1.625"
"1573732322616","199","-0.09375","-1.1523438","-0.34960938","-9.40625","31.84375","-0.1875"
"1573732323008","200","0.16210938","-1.2060547","-0.5527344","9.5","-4.59375","-21.0"
"1573732323008","201","-0.25","-1.3242188","-0.28320312","-7.78125","21.15625","-35.84375"
"1573732323009","202","-0.22851562","-0.9794922","0.12988281","28.0","-0.625","-37.0625"
"1573732323009","203","-0.8964844","-0.96484375","0.20410156","70.90625","9.25","-16.75"
"1573732323009","204","-0.37695312","-1.1025391","0.05859375","5.90625","55.09375","-2.46875"
"1573732323010","205","-0.13183594","-1.1708984","-0.0859375","5.46875","19.15625","-2.53125"
"1573732323010","206","-0.028320312","-1.0126953","0.0048828125","-21.25","-28.53125","0.03125"
"1573732323011","207","-0.107421875","-0.83496094","-0.14453125","-16.375","-42.3125","4.375"
"1573732323011","208","-0.12402344","-0.73046875","-0.20898438","-8.125","-27.25","5.40625"
"1573732323011","209","-0.15039062","-0.7363281","-0.19238281","-13.75","-46.28125","6.46875"
"1573732323407","210","-0.21777344","-0.71777344","-0.18457031","-17.65625","-35.40625","2.71875"
"1573732323407","211","-0.22167969","-0.8730469","-0.23046875","-20.09375","-5.6875","-3.625"
"1573732323407","212","-0.14160156","-0.93066406","-0.4013672","-39.625","-15.53125","-8.25"
"1573732323408","213","-0.072265625","-1.1347656","-0.3984375","-33.59375","-45.3125","-11.0"
"1573732323408","214","-0.12695312","-1.1025391","-0.69433594","-40.59375","-36.34375","-0.875"
"1573732323408","215","-0.4873047","-1.6552734","-0.51171875","-75.875","5.1875","30.5"
"1573732323408","216","-0.36816406","-0.8876953","0.2841797","2.5625","2.78125","22.09375"
"1573732323409","217","-0.029296875","-1.0146484","-0.080078125","-41.59375","-75.21875","16.84375"
"1573732323409","218","-0.6201172","-0.9404297","0.0703125","-7.65625","-17.71875","4.4375"
"1573732323409","219","-0.42578125","-0.9501953","-0.15625","-10.6875","32.34375","5.59375"
"1573732323802","220","-0.3203125","-0.9111328","-0.31640625","31.1875","24.34375","-11.71875"
"1573732323803","221","-0.24511719","-0.8125","-0.18457031","65.09375","42.84375","4.3125"
"1573732323803","222","-0.14746094","-0.7685547","-0.18652344","43.4375","53.6875","10.71875"
"1573732323803","223","-0.061523438","-0.80566406","-0.20996094","28.375","48.75","5.90625"
"1573732323804","224","0.029296875","-0.76953125","-0.234375","12.75","36.84375","5.0625"
"1573732323804","225","-0.020507812","-0.8701172","-0.25683594","6.21875","36.59375","2.84375"
"1573732323804","226","-0.12890625","-0.96972656","-0.31445312","-5.5","55.96875","5.0"
"1573732323805","227","0.111328125","-1.1621094","-0.44335938","-23.21875","-0.1875","-11.375"
"1573732323805","228","0.08203125","-1.0810547","-0.5888672","23.375","-12.71875","-22.59375"
"1573732323805","229","-0.3125","-1.4052734","-0.20605469","9.5","-3.0625","-32.4375"
"1573732324200","230","-0.3515625","-1.0976562","0.234375","33.625","-29.5","-39.875"
"1573732324200","231","-0.9824219","-1.0917969","0.1171875","35.375","33.84375","-1.65625"
"1573732324200","232","-0.15429688","-1.0927734","-0.076171875","9.25","53.03125","1.75"
"1573732324201","233","-0.07324219","-1.1972656","-0.03515625","-2.75","17.25","-2.40625"
"1573732324201","234","-0.16210938","-0.91308594","-0.115234375","-21.0625","-1.0","4.8125"
"1573732324201","235","-0.13964844","-0.7529297","-0.16992188","-8.1875","-3.96875","10.46875"
"1573732324202","236","-0.11621094","-0.68359375","-0.18164062","-1.71875","-12.53125","8.59375"
"1573732324202","237","-0.16894531","-0.7294922","-0.22460938","0.96875","-11.25","4.4375"
"1573732324202","238","-0.06933594","-0.7685547","-0.24804688","7.1875","-28.65625","1.875"
"1573732324202","239","-0.17089844","-0.8798828","-0.28710938","-6.84375","-26.4375","-5.09375"
"1573732324794","240","-0.10839844","-1.0273438","-0.3720703","-36.625","-47.5625","-7.875"
"1573732324796","241","-0.18652344","-1.1894531","-0.37597656","-18.75","-40.1875","-1.1875"
"1573732324796","242","-0.13378906","-1.1376953","-0.48339844","-63.125","-54.75","2.96875"
"1573732324797","243","-0.47460938","-1.5068359","0.10839844","-36.34375","10.3125","30.9375"
"1573732324797","244","-0.3359375","-0.8779297","-0.07714844","-47.75","-14.59375","24.9375"
"1573732324797","245","0.036132812","-1.1552734","0.041015625","-39.3125","-60.8125","5.65625"
"1573732324798","246","-0.57714844","-0.9296875","0.0234375","18.71875","-13.5","-3.625"
"1573732324798","247","-0.47070312","-0.8720703","-0.16113281","18.90625","31.25","-4.28125"
"1573732324798","248","-0.2783203","-0.94140625","-0.111328125","32.34375","51.1875","-4.21875"
"1573732324799","249","-0.20703125","-0.71777344","-0.11230469","29.09375","32.6875","5.34375"
"1573732324995","250","-0.11328125","-0.7050781","-0.16308594","28.84375","26.46875","13.65625"
"1573732324996","251","-0.040039062","-0.74316406","-0.1484375","26.09375","15.71875","9.5"
"1573732324996","252","-0.038085938","-0.8417969","-0.21289062","9.6875","18.78125","9.6875"
"1573732324997","253","-0.14355469","-1.03125","-0.30078125","9.125","33.3125","9.9375"
"1573732324997","254","-0.16699219","-1.1210938","-0.3017578","-3.90625","58.46875","9.125"
"1573732324997","255","-0.1328125","-1.0761719","-0.35351562","21.09375","19.40625","5.34375"
"1573732324998","256","0.24902344","-1.1845703","-0.42382812","11.75","-14.25","-13.5"
"1573732324998","257","-0.5644531","-1.3632812","-0.10839844","-22.71875","-6.0625","-32.0"
"1573732324998","258","-0.35058594","-0.9248047","0.22949219","29.78125","-24.5625","-41.9375"
"1573732324998","259","-0.8544922","-1.0576172","-0.030273438","19.40625","39.96875","-0.5625"
"1573732325591","260","-0.16992188","-1.0175781","-0.109375","19.53125","21.03125","7.125"
"1573732325591","261","-0.14257812","-1.0205078","-0.07519531","6.6875","2.84375","-9.53125"
"1573732325591","262","-0.125","-0.8857422","-0.055664062","-2.09375","-20.71875","-12.09375"
"1573732325592","263","-0.20019531","-0.78515625","-0.171875","-4.03125","-23.5625","-11.125"
"1573732325592","264","-0.20019531","-0.75097656","-0.13964844","-17.40625","-21.375","-2.40625"
"1573732325593","265","-0.24609375","-0.81640625","-0.19335938","-16.375","-17.84375","0.21875"
"1573732325594","266","-0.19042969","-0.79785156","-0.21777344","-3.0625","8.09375","-2.625"
"1573732325594","267","-0.10546875","-0.87890625","-0.31152344","1.625","34.34375","-0.875"
"1573732325594","268","-0.0859375","-1.0390625","-0.38867188","-35.21875","0.03125","3.21875"
"1573732325595","269","-0.16601562","-1.1611328","-0.43554688","-32.1875","-22.53125","0.15625"
"1573732325789","270","-0.064453125","-1.1894531","-0.39648438","-37.4375","-19.1875","-4.15625"
"1573732325790","271","-0.64453125","-1.5253906","-0.051757812","-79.3125","9.4375","30.6875"
"1573732325790","272","-0.35253906","-0.6542969","0.25585938","-43.40625","-33.15625","20.5625"
"1573732325790","273","-0.12988281","-1.2021484","-0.11425781","-50.1875","-63.375","10.46875"
"1573732325790","274","-0.51660156","-0.90625","-0.030273438","24.9375","-3.0","9.6875"
"1573732325791","275","-0.453125","-0.9199219","-0.21191406","28.625","13.96875","6.5625"
"1573732325791","276","-0.25585938","-0.8886719","-0.20507812","40.5","16.84375","0.46875"
"1573732325792","277","-0.16503906","-0.7597656","-0.16210938","21.84375","18.78125","1.375"
"1573732325793","278","-0.099609375","-0.7451172","-0.16308594","25.3125","26.34375","7.5"
"1573732325793","279","-0.11035156","-0.80371094","-0.22265625","13.40625","26.96875","6.875"
"1573732326188","280","-0.034179688","-0.81152344","-0.27441406","5.90625","18.40625","8.03125"
"1573732326188","281","-0.14550781","-0.9169922","-0.26367188","6.5625","39.34375","4.6875"
"1573732326188","282","-0.14453125","-1.1054688","-0.3544922","-20.46875","41.25","2.3125"
"1573732326189","283","0.31933594","-1.1972656","-0.5097656","-11.3125","-33.875","-33.84375"
"1573732326189","284","-0.27539062","-1.296875","-0.41992188","-10.9375","11.53125","-38.53125"
"1573732326189","285","-0.31835938","-1.1591797","0.06542969","10.53125","-23.34375","-53.53125"
"1573732326189","286","-0.8955078","-1.0273438","0.09375","52.09375","-9.53125","-36.28125"
"1573732326190","287","-0.5234375","-1.0898438","-0.049804688","7.5","49.375","-2.15625"
"1573732326190","288","-0.053710938","-1.2001953","-0.068359375","-0.75","9.75","-0.8125"
"1573732326191","289","-0.083984375","-1.0341797","-0.037109375","-18.25","-15.34375","-6.96875"
"1573732326584","290","-0.18066406","-0.85839844","-0.18066406","-12.46875","-20.46875","5.59375"
"1573732326585","291","-0.140625","-0.7128906","-0.18945312","-4.40625","-17.34375","6.6875"
"1573732326585","292","-0.18359375","-0.6875","-0.20507812","-0.1875","-23.15625","4.8125"
"1573732326585","293","-0.1640625","-0.61621094","-0.22851562","10.3125","-16.1875","1.6875"
"1573732326586","294","-0.12402344","-0.8173828","-0.2578125","4.6875","-20.59375","-0.1875"
"1573732326586","295","-0.1953125","-0.9785156","-0.3515625","-13.75","-5.4375","-5.875"
"1573732326586","296","-0.109375","-1.1269531","-0.42089844","-25.40625","-3.0","-11.625"
"1573732326586","297","-0.09667969","-1.1484375","-0.5253906","-22.34375","-15.09375","-4.71875"
"1573732326586","298","-0.32617188","-1.5849609","-0.48339844","-82.21875","-1.96875","23.0625"
"1573732326587","299","-0.55078125","-0.9501953","0.18847656","16.28125","23.96875","44.125"
"1573732327182","300","-0.09375","-0.95703125","-0.20703125","-53.375","-40.40625","14.3125"
"1573732327184","301","-0.3798828","-1.1523438","0.068359375","40.75","13.40625","-0.4375"
"1573732327184","302","-0.5908203","-0.8154297","-0.11621094","4.375","42.03125","2.375"
"1573732327185","303","-0.29101562","-0.9667969","-0.21386719","7.0","21.15625","-2.9375"
"1573732327185","304","-0.12207031","-0.7578125","-0.10546875","32.40625","15.625","4.3125"
"1573732327185","305","-0.13769531","-0.7158203","-0.125","34.96875","31.0","9.6875"
"1573732327186","306","-0.055664062","-0.7685547","-0.203125","23.3125","27.4375","13.28125"
"1573732327186","307","-0.052734375","-0.8144531","-0.20214844","8.90625","21.15625","13.40625"
"1573732327186","308","-0.041015625","-0.94628906","-0.27441406","2.3125","23.0","8.34375"
"1573732327187","309","-0.06738281","-0.9560547","-0.33398438","5.21875","28.5","3.65625"
"1573732327579","310","-0.08300781","-1.1269531","-0.26660156","1.03125","11.28125","-3.75"
"1573732327580","311","0.0703125","-1.1220703","-0.5107422","9.3125","-25.53125","-22.0625"
"1573732327580","312","-0.2578125","-1.4208984","-0.27441406","-10.03125","31.34375","-25.65625"
"1573732327581","313","-0.375","-1.1103516","0.12890625","4.375","-9.34375","-38.46875"
"1573732327582","314","-0.7832031","-1.0361328","0.09667969","33.375","4.6875","-19.53125"
"1573732327582","315","-0.32128906","-1.0068359","-0.08203125","11.03125","17.0625","6.9375"
"1573732327582","316","-0.111328125","-1.1162109","-0.20117188","10.375","7.6875","2.4375"
"1573732327583","317","-0.059570312","-1.0546875","0.017578125","-6.59375","-20.9375","3.46875"
"1573732327583","318","-0.17578125","-0.8310547","-0.125","-17.96875","-36.625","0.34375"
"1573732327583","319","-0.13085938","-0.72753906","-0.15429688","-7.875","-19.4375","-1.0"
"1573732327977","320","-0.16894531","-0.73046875","-0.16601562","-7.78125","-51.59375","10.25"
"1573732327977","321","-0.23242188","-0.69433594","-0.2578125","-35.34375","-41.34375","14.375"
"1573732327978","322","-0.06347656","-0.80566406","-0.2626953","-47.0","0.34375","5.21875"
"1573732327978","323","-0.11328125","-0.95703125","-0.47265625","-57.21875","-45.0","-9.125"
"1573732327978","324","-0.3466797","-1.1191406","-0.49804688","-39.6875","-54.59375","-2.28125"
"1573732327980","325","-0.12890625","-1.0664062","-0.75097656","-36.46875","-32.65625","-4.53125"
"1573732327980","326","-0.5546875","-1.6708984","-0.48632812","-29.0","25.5","20.3125"
"1573732327980","327","-0.4658203","-0.99316406","0.32226562","-29.9375","-20.53125","22.375"
"1573732327980","328","-0.041992188","-1.2353516","-0.056640625","-57.875","-67.875","0.90625"
"1573732327981","329","-0.4658203","-0.92285156","-0.01171875","13.09375","-26.25","-13.3125"
"1573732328376","330","-0.53222656","-0.75097656","-0.26660156","28.1875","12.75","-6.0625"
"1573732328376","331","-0.29101562","-0.8183594","-0.24511719","38.625","16.65625","-6.53125"
"1573732328376","332","-0.16113281","-0.67871094","-0.17089844","47.59375","25.125","5.46875"
"1573732328377","333","-0.14453125","-0.68066406","-0.19238281","38.875","42.40625","14.5"
"1573732328377","334","-0.060546875","-0.7832031","-0.18554688","23.71875","48.625","12.75"
"1573732328377","335","-0.036132812","-0.87109375","-0.23242188","17.625","43.6875","11.15625"
"1573732328377","336","-0.16601562","-1.0556641","-0.30859375","11.03125","60.15625","10.46875"
"1573732328379","337","-0.10058594","-1.0585938","-0.3154297","-14.71875","61.625","7.8125"
"1573732328379","338","0.24707031","-1.1767578","-0.45898438","19.75","8.15625","-18.03125"
"1573732328379","339","-0.14648438","-1.2041016","-0.4482422","17.6875","28.0","-17.65625"
