"# PR data"
"# Start time: 20191114T033906"
"# Subject: teo"
"# Activity type: Bicep curl"
"# Correctness: Correct"
"# Notes: "
""
"timestamp","seq","accel_x","accel_y","accel_z","gyro_x","gyro_y","gyro_z"
"1573702746141","0","0.15429688","-0.97265625","-0.2861328","-3.125","-5.4375","-2.53125"
"1573702746142","1","0.15332031","-0.96484375","-0.296875","-5.03125","-7.40625","-1.53125"
"1573702746142","2","0.15625","-0.9707031","-0.2998047","-6.0625","-8.6875","-1.25"
"1573702746142","3","0.15332031","-0.9736328","-0.30664062","-3.4375","-6.90625","-0.8125"
"1573702746143","4","0.14257812","-0.9589844","-0.3232422","-0.8125","-7.15625","-1.46875"
"1573702746143","5","0.14453125","-0.9716797","-0.3095703","-0.4375","-5.75","-1.84375"
"1573702746143","6","0.14648438","-0.96972656","-0.30859375","-1.40625","-5.5625","-0.625"
"1573702746143","7","0.15234375","-0.9628906","-0.31640625","-1.46875","-8.875","-1.65625"
"1573702746143","8","0.17675781","-0.9667969","-0.3203125","-1.1875","-13.5625","-1.71875"
"1573702746144","9","0.1796875","-0.9736328","-0.3125","-1.78125","-16.0","-3.125"
"1573702746541","10","0.17382812","-0.9716797","-0.3046875","-3.3125","-21.5625","-7.8125"
"1573702746542","11","0.20996094","-0.95214844","-0.29003906","-4.65625","-33.28125","-7.15625"
"1573702746542","12","0.22265625","-0.96191406","-0.30371094","0.28125","-45.1875","-4.09375"
"1573702746543","13","0.16992188","-0.9746094","-0.31054688","3.9375","-47.625","-4.21875"
"1573702746544","14","0.12109375","-0.9638672","-0.3251953","5.21875","-44.8125","-4.34375"
"1573702746544","15","0.13085938","-0.96777344","-0.31347656","5.84375","-43.65625","-11.375"
"1573702746544","16","0.18164062","-0.9970703","-0.28515625","7.125","-46.03125","-22.15625"
"1573702746545","17","0.14746094","-1.0595703","-0.2548828","3.09375","-59.40625","-17.71875"
"1573702746545","18","0.21875","-0.9765625","-0.29785156","-9.40625","-61.1875","-45.96875"
"1573702746545","19","0.09863281","-0.95703125","-0.33203125","4.1875","-56.84375","-16.9375"
"1573702746937","20","0.21484375","-0.90722656","-0.35546875","-3.1875","-48.71875","-35.59375"
"1573702746937","21","0.23632812","-0.99121094","-0.37109375","-6.0","-34.0","-30.34375"
"1573702746938","22","0.18066406","-0.9892578","-0.3154297","5.0625","-35.21875","-31.75"
"1573702746938","23","0.18554688","-0.93847656","-0.31835938","2.90625","-47.0","-29.25"
"1573702746938","24","0.15039062","-0.9033203","-0.32910156","-3.5","-49.15625","-17.21875"
"1573702746942","25","0.12011719","-0.89746094","-0.3720703","0.21875","-41.21875","-14.34375"
"1573702746943","26","0.076171875","-0.9628906","-0.41503906","0.59375","-25.21875","-8.0"
"1573702746943","27","0.1015625","-0.95996094","-0.43164062","-1.1875","-9.40625","-0.3125"
"1573702746943","28","0.17285156","-0.9667969","-0.37890625","1.09375","-7.40625","5.0625"
"1573702746944","29","0.19824219","-0.92871094","-0.36816406","3.21875","-8.5625","5.125"
"1573702747335","30","0.16992188","-0.9404297","-0.36328125","11.875","-2.59375","3.59375"
"1573702747335","31","0.12207031","-0.96972656","-0.38964844","4.375","-0.9375","4.8125"
"1573702747336","32","0.13671875","-0.9736328","-0.39941406","4.1875","1.9375","5.71875"
"1573702747336","33","0.13085938","-0.9423828","-0.41308594","3.03125","5.125","8.34375"
"1573702747336","34","0.15429688","-0.90527344","-0.390625","4.5625","7.96875","9.09375"
"1573702747336","35","0.13769531","-0.9248047","-0.36328125","-3.96875","10.0","4.875"
"1573702747337","36","0.14550781","-0.94140625","-0.38085938","-4.46875","17.0","2.84375"
"1573702747338","37","0.12695312","-0.96484375","-0.40722656","-4.59375","15.84375","0.59375"
"1573702747338","38","0.14648438","-0.9296875","-0.4091797","-13.75","16.78125","-0.3125"
"1573702747339","39","0.16601562","-0.93359375","-0.41796875","-2.15625","16.9375","3.78125"
"1573702747732","40","0.18066406","-0.9189453","-0.40820312","-6.5","13.96875","2.5625"
"1573702747732","41","0.17675781","-0.92285156","-0.40820312","-8.9375","11.15625","1.375"
"1573702747733","42","0.1796875","-0.92578125","-0.42089844","-9.34375","12.5","1.03125"
"1573702747733","43","0.17871094","-0.92871094","-0.41015625","-11.3125","11.75","-1.25"
"1573702747733","44","0.18066406","-0.921875","-0.42089844","-8.0","7.6875","-1.96875"
"1573702747733","45","0.18359375","-0.93066406","-0.4296875","-4.96875","3.71875","-1.1875"
"1573702747734","46","0.18359375","-0.9238281","-0.42382812","-0.75","0.15625","-0.5625"
"1573702747734","47","0.18066406","-0.92089844","-0.421875","0.96875","-3.0625","0.0"
"1573702747734","48","0.18457031","-0.92285156","-0.41503906","1.5","-4.90625","-0.9375"
"1573702747736","49","0.17871094","-0.92089844","-0.42382812","3.28125","-6.25","-0.75"
"1573702748326","50","0.17382812","-0.9316406","-0.42382812","4.0","-6.53125","-0.0625"
"1573702748328","51","0.16503906","-0.9326172","-0.4111328","5.65625","-6.125","0.71875"
"1573702748329","52","0.17089844","-0.9296875","-0.4111328","4.6875","-6.0","2.65625"
"1573702748329","53","0.171875","-0.9375","-0.40820312","2.5","-2.59375","4.3125"
"1573702748329","54","0.17480469","-0.9404297","-0.38867188","3.90625","-2.03125","3.9375"
"1573702748330","55","0.18164062","-0.91015625","-0.41796875","1.28125","-2.15625","4.1875"
"1573702748330","56","0.17480469","-0.9482422","-0.40429688","1.625","0.59375","4.5625"
"1573702748330","57","0.16308594","-0.9316406","-0.4013672","-2.03125","-2.59375","2.90625"
"1573702748330","58","0.17773438","-0.9375","-0.40234375","-1.65625","-1.40625","2.90625"
"1573702748331","59","0.15917969","-0.93652344","-0.3955078","-0.9375","-2.15625","1.375"
"1573702748526","60","0.15039062","-0.93652344","-0.390625","-3.4375","-1.65625","0.65625"
"1573702748527","61","0.16796875","-0.9355469","-0.39648438","-1.90625","-0.0625","0.78125"
"1573702748528","62","0.15917969","-0.92871094","-0.40234375","4.4375","2.78125","1.15625"
"1573702748528","63","0.15722656","-0.94921875","-0.38476562","8.65625","3.90625","3.84375"
"1573702748528","64","0.16210938","-0.94433594","-0.38085938","5.78125","2.84375","3.65625"
"1573702748529","65","0.14453125","-0.9433594","-0.37890625","-2.03125","4.3125","1.8125"
"1573702748529","66","0.14941406","-0.93847656","-0.375","-3.3125","3.28125","-0.625"
"1573702748529","67","0.16308594","-0.9433594","-0.37890625","1.5625","0.03125","-1.34375"
"1573702748529","68","0.15722656","-0.9375","-0.38964844","4.125","-5.8125","-3.5625"
"1573702748529","69","0.14550781","-0.9501953","-0.3857422","5.21875","-9.53125","-3.875"
"1573702749518","70","0.16503906","-0.96972656","-0.36914062","6.40625","-7.34375","-2.15625"
"1573702749519","71","0.15722656","-0.9472656","-0.36523438","-5.15625","-4.71875","-3.875"
"1573702749519","72","0.16015625","-0.9501953","-0.37695312","-2.6875","-6.375","-2.03125"
"1573702749520","73","0.15917969","-0.9404297","-0.40527344","-0.125","-6.96875","-1.71875"
"1573702749521","74","0.15429688","-0.94921875","-0.39160156","-1.125","-4.90625","-2.03125"
"1573702749521","75","0.140625","-0.94140625","-0.40625","-0.125","-6.4375","-3.375"
"1573702749521","76","0.15527344","-0.92871094","-0.3984375","-4.46875","-5.875","-4.28125"
"1573702749522","77","0.18066406","-0.9394531","-0.4091797","0.34375","-7.8125","-3.75"
"1573702749522","78","0.16894531","-0.9404297","-0.40527344","0.71875","-5.375","-0.6875"
"1573702749522","79","0.15429688","-0.92285156","-0.39648438","0.21875","-6.96875","-1.46875"
"1573702749718","80","0.15917969","-0.92285156","-0.3984375","-2.15625","-4.09375","-2.6875"
"1573702749718","81","0.18164062","-0.9326172","-0.40820312","1.03125","-4.21875","-1.0"
"1573702749719","82","0.16601562","-0.93652344","-0.40234375","1.4375","-4.71875","-1.34375"
"1573702749719","83","0.15722656","-0.9345703","-0.40722656","5.21875","-5.3125","1.03125"
"1573702749719","84","0.17480469","-0.92285156","-0.38867188","0.96875","-2.8125","2.59375"
"1573702749720","85","0.16894531","-0.93847656","-0.4033203","3.46875","-3.0","1.6875"
"1573702749721","86","0.125","-0.94628906","-0.39746094","-0.875","-2.40625","-0.6875"
"1573702749721","87","0.17089844","-0.9375","-0.38476562","-1.25","-0.5","1.3125"
"1573702749721","88","0.16210938","-0.95410156","-0.38964844","2.375","2.59375","0.09375"
"1573702749722","89","0.15429688","-0.9326172","-0.3984375","-0.0625","-0.875","0.84375"
"1573702749914","90","0.17675781","-0.93359375","-0.38378906","-1.46875","1.8125","2.0625"
"1573702749915","91","0.16015625","-0.9453125","-0.4013672","0.71875","1.375","2.125"
"1573702749915","92","0.14648438","-0.9550781","-0.38964844","0.96875","1.3125","2.84375"
"1573702749915","93","0.16992188","-0.9296875","-0.3935547","-0.75","1.9375","2.0625"
"1573702749915","94","0.15234375","-0.9375","-0.37304688","-9.71875","6.09375","-1.3125"
"1573702749916","95","0.13183594","-0.9296875","-0.3935547","-13.1875","4.5","-4.46875"
"1573702749916","96","0.15429688","-0.9345703","-0.41308594","-6.3125","1.9375","-2.625"
"1573702749917","97","0.16601562","-0.9404297","-0.42089844","3.78125","0.28125","0.40625"
"1573702749917","98","0.14648438","-0.92871094","-0.4013672","7.625","1.4375","1.5"
"1573702749918","99","0.16601562","-0.91503906","-0.39648438","9.375","0.03125","2.59375"
"1573702750117","100","0.1640625","-0.9394531","-0.38964844","9.875","1.625","2.375"
"1573702750117","101","0.16015625","-0.95214844","-0.40039062","14.15625","0.96875","3.90625"
"1573702750117","102","0.16894531","-0.9404297","-0.37695312","10.25","-1.0625","4.1875"
"1573702750118","103","0.17578125","-0.9404297","-0.38964844","13.0","-3.75","6.28125"
"1573702750118","104","0.15332031","-0.9453125","-0.38183594","13.96875","-8.0625","4.0625"
"1573702750118","105","0.16992188","-0.9326172","-0.36132812","1.5","-7.40625","3.90625"
"1573702750118","106","0.15429688","-0.9580078","-0.37402344","15.4375","-6.59375","5.65625"
"1573702750118","107","0.11035156","-0.9589844","-0.34960938","5.21875","-10.03125","2.71875"
"1573702750119","108","0.12011719","-0.9560547","-0.34765625","0.71875","-6.0","1.09375"
"1573702750120","109","0.123046875","-0.9609375","-0.35058594","-0.6875","-0.875","-1.1875"
"1573702750513","110","0.12207031","-0.9560547","-0.3408203","-4.90625","0.71875","-1.25"
"1573702750514","111","0.14453125","-0.95410156","-0.35253906","-2.875","-0.125","0.59375"
"1573702750514","112","0.12988281","-0.9550781","-0.3623047","-0.4375","0.65625","1.21875"
"1573702750515","113","0.1171875","-0.9472656","-0.33007812","-0.875","1.75","1.28125"
"1573702750515","114","0.13183594","-0.9707031","-0.33007812","1.5625","5.59375","1.9375"
"1573702750515","115","0.12402344","-0.9814453","-0.33007812","-2.34375","4.1875","0.78125"
"1573702750515","116","0.115234375","-0.9746094","-0.3388672","-3.3125","0.46875","-0.3125"
"1573702750516","117","0.111328125","-0.9511719","-0.3515625","-2.40625","-0.5625","-1.40625"
"1573702750516","118","0.1328125","-0.953125","-0.3642578","-0.375","1.5","-1.25"
"1573702750516","119","0.13867188","-0.95703125","-0.3544922","-3.1875","1.5","-2.40625"
"1573702750912","120","0.13085938","-0.9511719","-0.3564453","-1.25","3.59375","-0.3125"
"1573702750914","121","0.13378906","-0.9453125","-0.37890625","4.375","2.125","-0.75"
"1573702750915","122","0.14746094","-0.9375","-0.36523438","-13.3125","1.8125","-1.46875"
"1573702750915","123","0.13476562","-0.96191406","-0.3779297","2.0","2.0625","0.21875"
"1573702750915","124","0.13769531","-0.9375","-0.37695312","-4.21875","2.78125","-0.375"
"1573702750916","125","0.18359375","-0.9199219","-0.39941406","-3.75","-1.53125","-0.625"
"1573702750916","126","0.123046875","-0.9501953","-0.3935547","3.65625","0.28125","-3.0625"
"1573702750916","127","0.18847656","-0.94140625","-0.3671875","-2.9375","-2.34375","1.15625"
"1573702750916","128","0.1328125","-0.94140625","-0.37402344","3.90625","-6.375","-3.6875"
"1573702750917","129","0.14550781","-0.9560547","-0.38085938","0.15625","-2.9375","-1.34375"
"1573702751310","130","0.1640625","-0.94433594","-0.37597656","-0.875","-6.53125","-3.125"
"1573702751310","131","0.125","-0.9472656","-0.36328125","-3.4375","-4.15625","-5.5625"
"1573702751311","132","0.15136719","-0.94628906","-0.3857422","-0.0625","-4.90625","-2.9375"
"1573702751312","133","0.14746094","-0.95996094","-0.359375","-2.875","-1.59375","-2.46875"
"1573702751312","134","0.15332031","-0.92871094","-0.3779297","-2.09375","-2.75","-1.25"
"1573702751313","135","0.14453125","-0.9580078","-0.375","-0.375","-1.78125","0.65625"
"1573702751313","136","0.15234375","-0.9433594","-0.38476562","1.625","-2.21875","2.0"
"1573702751313","137","0.13867188","-0.93359375","-0.39257812","-0.875","-3.0","-0.625"
"1573702751313","138","0.14160156","-0.9667969","-0.36328125","2.65625","-0.625","0.09375"
"1573702751314","139","0.14453125","-0.94433594","-0.3798828","-1.1875","1.875","-1.46875"
"1573702751708","140","0.14941406","-0.9511719","-0.3701172","-3.8125","-1.59375","-1.0625"
"1573702751708","141","0.1484375","-0.9375","-0.37597656","-5.21875","-1.71875","-0.375"
"1573702751709","142","0.13574219","-0.94433594","-0.38671875","-2.875","-3.0","0.65625"
"1573702751709","143","0.14453125","-0.95410156","-0.38867188","-0.5625","-2.15625","1.15625"
"1573702751709","144","0.14550781","-0.9355469","-0.38476562","-0.1875","-2.53125","0.65625"
"1573702751710","145","0.14648438","-0.94433594","-0.390625","2.78125","-2.34375","1.625"
"1573702751711","146","0.14648438","-0.93652344","-0.39453125","5.21875","-3.25","1.21875"
"1573702751711","147","0.15527344","-0.9423828","-0.39257812","6.09375","-4.15625","2.0625"
"1573702751711","148","0.14746094","-0.94433594","-0.38867188","4.875","-4.28125","1.8125"
"1573702751712","149","0.14746094","-0.94628906","-0.38867188","2.90625","-4.34375","1.03125"
"1573702752106","150","0.14746094","-0.9482422","-0.38183594","2.84375","-3.0","0.03125"
"1573702752106","151","0.13769531","-0.94433594","-0.3876953","1.8125","-3.8125","-0.125"
"1573702752115","152","0.1328125","-0.94140625","-0.38671875","1.6875","-2.46875","-0.875"
"1573702752115","153","0.13769531","-0.9423828","-0.37890625","1.09375","-0.375","-0.4375"
"1573702752115","154","0.13867188","-0.9609375","-0.38183594","4.0","0.78125","0.71875"
"1573702752116","155","0.13183594","-0.9511719","-0.38085938","7.8125","1.4375","1.9375"
"1573702752116","156","0.13867188","-0.9316406","-0.36328125","-1.71875","3.21875","1.5"
"1573702752117","157","0.13378906","-0.9560547","-0.3642578","3.46875","5.28125","1.09375"
"1573702752117","158","0.14550781","-0.9511719","-0.3642578","-0.25","4.0","1.4375"
"1573702752118","159","0.14453125","-0.9453125","-0.36328125","-5.625","5.0","1.28125"
"1573702752502","160","0.13769531","-0.96191406","-0.3701172","-9.53125","4.0","0.65625"
"1573702752503","161","0.13671875","-0.9404297","-0.36816406","-9.15625","-3.90625","0.0"
"1573702752503","162","0.13183594","-0.92871094","-0.39648438","3.46875","-5.6875","-0.0625"
"1573702752503","163","0.11621094","-0.9550781","-0.38085938","10.0625","-1.0","-0.375"
"1573702752503","164","0.12011719","-0.9550781","-0.36132812","10.84375","1.5","-1.125"
"1573702752504","165","0.11816406","-0.96484375","-0.34472656","7.8125","3.84375","-2.28125"
"1573702752504","166","0.12207031","-0.9873047","-0.3359375","6.21875","5.53125","-1.34375"
"1573702752504","167","0.14453125","-0.9716797","-0.3388672","0.96875","2.5625","0.40625"
"1573702752505","168","0.14355469","-0.9501953","-0.35058594","-1.53125","1.5","1.21875"
"1573702752505","169","0.14453125","-0.9580078","-0.3671875","0.28125","3.40625","1.875"
"1573702752900","170","0.15917969","-0.9580078","-0.35351562","-4.84375","1.8125","0.78125"
"1573702752901","171","0.140625","-0.9550781","-0.36328125","-3.1875","2.96875","0.21875"
"1573702752901","172","0.15332031","-0.94140625","-0.3779297","-1.96875","-0.1875","-0.5"
"1573702752901","173","0.13574219","-0.9355469","-0.3515625","-9.125","-0.75","-2.59375"
"1573702752901","174","0.15625","-0.96777344","-0.37597656","4.3125","2.3125","2.65625"
"1573702752902","175","0.12695312","-0.9267578","-0.3701172","0.34375","-4.03125","-2.09375"
"1573702752902","176","0.15332031","-0.9355469","-0.37695312","-2.34375","4.1875","0.46875"
"1573702752902","177","0.16503906","-0.93652344","-0.38476562","3.53125","-3.125","-2.03125"
"1573702752902","178","0.12109375","-0.9707031","-0.34277344","-3.90625","-0.9375","-4.15625"
"1573702752903","179","0.18652344","-0.9375","-0.3701172","-1.71875","-3.96875","-2.8125"
"1573702753495","180","0.13671875","-0.9589844","-0.3642578","-0.5625","-2.34375","-4.53125"
"1573702753496","181","0.15039062","-0.94140625","-0.3720703","-4.28125","-1.96875","-2.34375"
"1573702753496","182","0.13964844","-0.9296875","-0.37402344","-2.15625","-0.5","-4.15625"
"1573702753497","183","0.13671875","-0.9736328","-0.3779297","-0.3125","2.25","-2.28125"
"1573702753497","184","0.16699219","-0.9433594","-0.36816406","-2.15625","3.09375","0.28125"
"1573702753497","185","0.15625","-0.9355469","-0.36816406","-2.59375","3.09375","0.28125"
"1573702753497","186","0.15625","-0.9638672","-0.37402344","-0.0625","2.4375","1.09375"
"1573702753498","187","0.1640625","-0.9355469","-0.3876953","-0.125","0.65625","1.03125"
"1573702753498","188","0.1640625","-0.94140625","-0.37402344","-0.75","1.5","0.40625"
"1573702753498","189","0.16796875","-0.96191406","-0.3642578","3.40625","0.15625","-0.0625"
"1573702753891","190","0.171875","-0.91015625","-0.39160156","-5.3125","-1.46875","-1.59375"
"1573702753891","191","0.15234375","-0.9667969","-0.37597656","-0.4375","-0.6875","-0.8125"
"1573702753892","192","0.15527344","-0.94140625","-0.38378906","0.46875","-3.6875","0.09375"
"1573702753893","193","0.15917969","-0.9453125","-0.3779297","-1.59375","-1.59375","0.03125"
"1573702753894","194","0.15820312","-0.9511719","-0.38085938","-0.8125","-1.0625","-0.125"
"1573702753894","195","0.15722656","-0.93066406","-0.38183594","-3.875","-2.53125","-0.1875"
"1573702753894","196","0.16308594","-0.94628906","-0.38867188","-1.59375","-3.625","0.65625"
"1573702753895","197","0.13867188","-0.93847656","-0.3857422","-0.75","-2.9375","-0.5625"
"1573702753895","198","0.15234375","-0.9394531","-0.3828125","-0.75","-1.3125","-1.34375"
"1573702753895","199","0.16796875","-0.9433594","-0.38964844","1.03125","-1.34375","-1.25"
"1573702754288","200","0.16210938","-0.94140625","-0.4033203","2.375","-2.34375","-0.125"
"1573702754289","201","0.16015625","-0.9375","-0.38476562","2.25","-2.6875","1.15625"
"1573702754289","202","0.16113281","-0.93359375","-0.390625","3.71875","-3.96875","1.5625"
"1573702754289","203","0.16113281","-0.9433594","-0.39160156","5.78125","-3.5","1.5"
"1573702754289","204","0.16308594","-0.9375","-0.38476562","1.8125","-5.5625","0.0"
"1573702754291","205","0.15917969","-0.9482422","-0.3779297","2.65625","-4.78125","0.03125"
"1573702754291","206","0.15234375","-0.94140625","-0.39257812","6.625","-5.09375","0.34375"
"1573702754291","207","0.16015625","-0.9238281","-0.3779297","-2.75","-3.625","0.46875"
"1573702754292","208","0.14746094","-0.94433594","-0.38378906","4.0625","-4.28125","0.78125"
"1573702754292","209","0.14550781","-0.9453125","-0.3798828","2.3125","-3.625","0.28125"
"1573702754488","210","0.15917969","-0.9433594","-0.3779297","2.84375","-4.40625","0.59375"
"1573702754489","211","0.13085938","-0.9453125","-0.3779297","3.9375","-4.78125","-1.0625"
"1573702754489","212","0.14941406","-0.94433594","-0.36132812","2.59375","-4.15625","-0.5625"
"1573702754489","213","0.16308594","-0.9433594","-0.36523438","5.84375","-5.15625","-0.8125"
"1573702754490","214","0.125","-0.9658203","-0.37109375","5.96875","-4.40625","-0.625"
"1573702754490","215","0.13183594","-0.9667969","-0.3359375","7.0625","-0.3125","0.90625"
"1573702754490","216","0.12402344","-0.95703125","-0.34765625","5.28125","1.375","1.15625"
"1573702754491","217","0.1171875","-0.98828125","-0.31835938","0.90625","8.21875","0.21875"
"1573702754492","218","0.13085938","-0.9667969","-0.33789062","-5.75","7.5625","-0.25"
"1573702754492","219","0.140625","-0.9707031","-0.35742188","-6.4375","7.0625","-0.625"
"1573702754887","220","0.16113281","-0.96484375","-0.35546875","-7.09375","7.125","0.84375"
"1573702754888","221","0.1484375","-0.95214844","-0.35546875","-3.375","6.21875","0.96875"
"1573702754888","222","0.15429688","-0.95214844","-0.36328125","-2.15625","5.96875","0.28125"
"1573702754888","223","0.14941406","-0.9589844","-0.3671875","-3.625","9.09375","-0.8125"
"1573702754889","224","0.15136719","-0.9482422","-0.38378906","0.0","5.34375","0.96875"
"1573702754889","225","0.14160156","-0.93652344","-0.37890625","-12.53125","6.5","-1.1875"
"1573702754889","226","0.18945312","-0.9326172","-0.39257812","-8.875","2.5","1.21875"
"1573702754889","227","0.15527344","-0.9316406","-0.390625","-3.8125","-0.9375","-0.1875"
"1573702754890","228","0.16503906","-0.9248047","-0.3828125","-9.0","0.15625","-1.71875"
"1573702754891","229","0.15917969","-0.93847656","-0.4033203","-0.125","-2.625","-3.0625"
"1573702755286","230","0.140625","-0.9355469","-0.38378906","-5.375","1.75","-4.71875"
"1573702755286","231","0.19140625","-0.9248047","-0.40527344","-1.46875","-2.28125","-3.0"
"1573702755287","232","0.15332031","-0.93847656","-0.39648438","0.03125","-2.21875","-4.84375"
"1573702755287","233","0.1640625","-0.9277344","-0.3955078","0.09375","-2.75","-2.6875"
"1573702755287","234","0.17285156","-0.9326172","-0.40429688","3.9375","-3.125","-2.53125"
"1573702755287","235","0.16308594","-0.94628906","-0.39160156","3.78125","-0.4375","-2.21875"
"1573702755288","236","0.17578125","-0.94628906","-0.39453125","3.03125","-2.40625","0.03125"
"1573702755288","237","0.16894531","-0.93066406","-0.38183594","0.03125","-1.1875","0.21875"
"1573702755288","238","0.16894531","-0.94628906","-0.39941406","0.59375","-3.125","1.6875"
"1573702755288","239","0.16503906","-0.93652344","-0.4013672","4.5","-3.3125","2.4375"
"1573702755681","240","0.15136719","-0.9326172","-0.3935547","1.5","-1.40625","2.5"
"1573702755681","241","0.16503906","-0.93652344","-0.3876953","1.4375","1.9375","3.09375"
"1573702755682","242","0.16015625","-0.9423828","-0.3857422","2.96875","-0.6875","1.5625"
"1573702755682","243","0.14550781","-0.9199219","-0.4013672","-4.03125","1.09375","0.21875"
"1573702755682","244","0.16113281","-0.9609375","-0.3876953","4.9375","4.75","2.5"
"1573702755682","245","0.17382812","-0.9316406","-0.3798828","2.125","1.625","1.375"
"1573702755683","246","0.17285156","-0.94140625","-0.37597656","1.15625","1.3125","1.5625"
"1573702755683","247","0.15332031","-0.9453125","-0.36914062","1.3125","1.15625","1.5625"
"1573702755683","248","0.16210938","-0.9482422","-0.37890625","-1.53125","-1.125","1.375"
"1573702755683","249","0.16015625","-0.94140625","-0.3828125","0.34375","-1.84375","1.4375"
"1573702756078","250","0.16601562","-0.9404297","-0.390625","2.25","-1.65625","0.53125"
"1573702756079","251","0.16894531","-0.94140625","-0.38964844","-0.0625","-2.40625","-0.1875"
"1573702756079","252","0.1640625","-0.9394531","-0.38867188","-1.0625","-1.78125","-1.125"
"1573702756080","253","0.16503906","-0.9404297","-0.390625","-2.625","-0.25","-1.1875"
"1573702756080","254","0.16992188","-0.93847656","-0.38964844","-1.71875","-0.875","-1.125"
"1573702756081","255","0.15917969","-0.94140625","-0.3857422","0.78125","-2.40625","-0.5625"
"1573702756081","256","0.1640625","-0.9316406","-0.39160156","4.5","-1.90625","0.78125"
"1573702756081","257","0.16113281","-0.9326172","-0.3798828","1.5625","-2.875","0.53125"
"1573702756081","258","0.15820312","-0.9404297","-0.38183594","2.78125","-1.59375","1.8125"
"1573702756082","259","0.1484375","-0.93652344","-0.39453125","8.03125","-2.09375","2.0"
"1573702756478","260","0.15917969","-0.9277344","-0.36328125","-4.46875","-1.96875","1.875"
"1573702756479","261","0.16113281","-0.9501953","-0.38085938","8.59375","-0.25","3.78125"
"1573702756479","262","0.14453125","-0.94433594","-0.37109375","4.75","-6.375","1.15625"
"1573702756479","263","0.15429688","-0.9423828","-0.37695312","6.5625","-6.5","2.5"
"1573702756480","264","0.15429688","-0.9423828","-0.37402344","7.84375","-5.75","2.125"
"1573702756481","265","0.14355469","-0.95703125","-0.3515625","7.3125","-3.6875","1.6875"
"1573702756481","266","0.15234375","-0.96484375","-0.3544922","8.09375","-3.90625","4.0"
"1573702756482","267","0.119140625","-0.9609375","-0.3466797","10.40625","-4.21875","3.9375"
"1573702756482","268","0.099609375","-0.97558594","-0.32617188","8.59375","0.84375","3.90625"
"1573702756482","269","0.13769531","-0.97753906","-0.3232422","5.46875","4.4375","6.5625"
"1573702756875","270","0.107421875","-0.97265625","-0.3095703","0.15625","-0.5625","-1.59375"
"1573702756876","271","0.11328125","-1.0029297","-0.3251953","-0.8125","-1.46875","0.34375"
"1573702756876","272","0.1484375","-0.9638672","-0.3251953","-1.1875","-0.75","1.03125"
"1573702756876","273","0.125","-0.94921875","-0.3388672","-3.3125","-1.34375","-3.0625"
"1573702756877","274","0.13378906","-0.96484375","-0.3466797","-0.0625","-1.46875","-2.15625"
"1573702756877","275","0.15039062","-0.9589844","-0.34179688","-2.09375","-2.9375","-1.46875"
"1573702756877","276","0.119140625","-0.9550781","-0.34277344","-1.59375","-0.875","-3.8125"
"1573702756878","277","0.140625","-0.9404297","-0.3515625","-11.5625","-3.375","-3.3125"
"1573702756879","278","0.15527344","-0.96484375","-0.36523438","-3.375","-3.90625","-0.9375"
"1573702756879","279","0.13476562","-0.9453125","-0.3779297","-4.09375","-6.53125","-2.625"
"1573702757272","280","0.14648438","-0.94433594","-0.35546875","-4.96875","-4.90625","-3.5625"
"1573702757272","281","0.14355469","-0.94921875","-0.36816406","-6.5","-3.875","-4.59375"
"1573702757273","282","0.14453125","-0.9580078","-0.3623047","-1.1875","-4.28125","-3.5"
"1573702757273","283","0.14453125","-0.9511719","-0.3642578","-1.90625","-6.96875","-2.15625"
"1573702757273","284","0.10449219","-0.9482422","-0.37597656","1.875","-3.5625","-4.09375"
"1573702757273","285","0.17089844","-0.9472656","-0.3642578","-0.1875","-2.15625","0.15625"
"1573702757274","286","0.1484375","-0.9501953","-0.3642578","0.34375","-3.75","-2.34375"
"1573702757274","287","0.12207031","-0.9609375","-0.37304688","0.46875","-2.34375","-0.125"
"1573702757274","288","0.14648438","-0.93847656","-0.37109375","-0.8125","-0.5","-0.5"
"1573702757276","289","0.14160156","-0.9550781","-0.3798828","0.53125","2.0","-1.125"
"1573702757669","290","0.13574219","-0.9707031","-0.3701172","-0.6875","1.03125","-0.125"
"1573702757669","291","0.15625","-0.93066406","-0.36328125","0.90625","2.125","2.96875"
"1573702757669","292","0.15429688","-0.95214844","-0.35546875","-4.78125","3.09375","2.125"
"1573702757669","293","0.14453125","-0.9638672","-0.3671875","2.375","1.5","2.59375"
"1573702757670","294","0.13867188","-0.92578125","-0.3798828","-4.65625","1.625","1.03125"
"1573702757670","295","0.13378906","-0.9707031","-0.36621094","4.5625","2.3125","0.96875"
"1573702757670","296","0.13671875","-0.93359375","-0.36523438","1.6875","0.0","-0.0625"
"1573702757670","297","0.14453125","-0.9453125","-0.3671875","-0.3125","1.28125","-3.125"
"1573702757671","298","0.140625","-0.9638672","-0.3720703","4.625","1.5","-1.0625"
"1573702757671","299","0.15625","-0.95214844","-0.37109375","1.3125","-1.0","-0.0625"
"1573702758067","300","0.15039062","-0.9511719","-0.37304688","5.28125","-1.90625","1.9375"
"1573702758068","301","0.13867188","-0.94628906","-0.36621094","5.65625","-1.84375","2.25"
"1573702758069","302","0.15234375","-0.9501953","-0.36816406","4.5","-2.46875","1.625"
"1573702758069","303","0.15234375","-0.95703125","-0.3623047","7.375","-4.15625","3.34375"
"1573702758069","304","0.14941406","-0.9580078","-0.35351562","6.75","-5.9375","3.40625"
"1573702758070","305","0.140625","-0.9472656","-0.3544922","7.0","-8.1875","3.84375"
"1573702758070","306","0.14746094","-0.95410156","-0.3564453","11.15625","-9.28125","5.78125"
"1573702758070","307","0.125","-0.9433594","-0.33203125","5.53125","-10.15625","3.40625"
"1573702758070","308","0.13183594","-0.9628906","-0.32910156","9.25","-9.40625","3.84375"
"1573702758071","309","0.1171875","-0.94921875","-0.35546875","9.09375","-10.875","1.375"
"1573702758660","310","0.103515625","-0.96191406","-0.3017578","0.96875","-6.4375","-0.375"
"1573702758661","311","0.115234375","-0.98535156","-0.32617188","13.78125","-2.28125","1.09375"
"1573702758661","312","0.107421875","-0.96484375","-0.29296875","2.0625","-6.96875","-0.5625"
"1573702758662","313","0.099609375","-0.9580078","-0.31054688","-1.25","-4.53125","-1.59375"
"1573702758662","314","0.11328125","-0.96777344","-0.32421875","0.34375","-1.78125","-1.40625"
"1573702758663","315","0.11425781","-0.97265625","-0.31933594","-1.59375","-0.3125","0.09375"
"1573702758663","316","0.10839844","-0.9736328","-0.31445312","0.15625","0.28125","0.59375"
"1573702758663","317","0.103515625","-0.9716797","-0.3125","2.90625","-0.5","1.03125"
"1573702758664","318","0.09472656","-0.9873047","-0.29785156","2.65625","-0.3125","-0.75"
"1573702758664","319","0.095703125","-0.9824219","-0.28515625","-3.1875","2.78125","-2.8125"
"1573702759060","320","0.115234375","-0.9746094","-0.28222656","-7.34375","2.65625","-5.8125"
"1573702759060","321","0.11621094","-0.9892578","-0.3095703","-4.34375","0.46875","-3.0625"
"1573702759061","322","0.11816406","-0.97265625","-0.328125","3.28125","-0.625","1.5625"
"1573702759061","323","0.1171875","-0.9589844","-0.3173828","2.65625","-0.0625","0.78125"
"1573702759061","324","0.12109375","-0.97265625","-0.3095703","4.0625","1.8125","0.21875"
"1573702759062","325","0.12402344","-0.94628906","-0.3359375","3.28125","-1.3125","-1.40625"
"1573702759062","326","0.13183594","-0.98535156","-0.3076172","7.625","-2.28125","1.09375"
"1573702759063","327","0.15234375","-0.9560547","-0.34765625","14.375","-4.53125","3.15625"
"1573702759063","328","0.13867188","-0.9667969","-0.3154297","18.78125","-10.4375","7.4375"
"1573702759063","329","0.13574219","-0.96875","-0.27734375","24.8125","-11.0","11.28125"
"1573702759653","330","0.09765625","-0.96875","-0.2529297","15.625","-13.875","6.5"
"1573702759654","331","0.068359375","-0.9980469","-0.25195312","12.5","-13.5625","0.84375"
"1573702759654","332","0.0546875","-1.0019531","-0.25","5.40625","-6.65625","-1.3125"
"1573702759654","333","0.09082031","-0.97753906","-0.24414062","-0.875","-9.0625","-2.6875"
"1573702759655","334","0.07714844","-0.98828125","-0.25390625","-5.03125","-6.0","-4.96875"
"1573702759655","335","0.10839844","-0.9970703","-0.26171875","-0.5","-9.34375","1.4375"
"1573702759655","336","0.0546875","-0.9892578","-0.265625","-0.0625","-5.21875","0.0"
"1573702759656","337","0.08691406","-0.9921875","-0.25585938","0.90625","-0.9375","6.5"
"1573702759656","338","0.08691406","-0.99609375","-0.23925781","1.09375","-1.3125","5.0"
"1573702759656","339","0.06640625","-0.9951172","-0.24902344","-2.9375","0.03125","5.0"
"1573702759855","340","0.08984375","-0.9892578","-0.26464844","1.4375","0.15625","6.21875"
"1573702759855","341","0.07324219","-0.9785156","-0.2705078","-0.375","-3.875","1.5625"
"1573702759855","342","0.07324219","-0.9980469","-0.24511719","-2.03125","-2.15625","1.5625"
"1573702759856","343","0.087890625","-0.984375","-0.26367188","2.1875","-0.5625","-0.875"
"1573702759856","344","0.0625","-0.99316406","-0.25683594","-3.75","-3.8125","-2.625"
"1573702759856","345","0.068359375","-0.9824219","-0.26367188","-2.75","-2.15625","-1.78125"
"1573702759856","346","0.068359375","-0.9902344","-0.265625","-3.75","0.03125","-1.96875"
"1573702759857","347","0.064453125","-1.0009766","-0.26367188","-3.0625","3.40625","-0.25"
"1573702759857","348","0.07324219","-0.9785156","-0.2685547","-3.4375","4.875","0.65625"
"1573702759858","349","0.07714844","-0.9941406","-0.2705078","-2.09375","6.09375","0.90625"
"1573702760450","350","0.0859375","-0.9902344","-0.26171875","-4.84375","7.375","0.40625"
"1573702760451","351","0.08105469","-0.9716797","-0.28515625","-6.71875","6.21875","-1.96875"
"1573702760451","352","0.10058594","-0.9785156","-0.29003906","-4.34375","4.125","-1.25"
"1573702760451","353","0.0859375","-0.98339844","-0.2890625","-3.375","1.8125","-2.40625"
"1573702760451","354","0.087890625","-0.9716797","-0.2841797","-2.75","0.40625","-1.40625"
"1573702760451","355","0.099609375","-0.9765625","-0.2890625","4.5","-1.0","0.65625"
"1573702760452","356","0.08691406","-0.9863281","-0.2890625","7.125","-1.90625","3.46875"
"1573702760452","357","0.07128906","-0.9638672","-0.3076172","3.9375","-5.8125","0.28125"
"1573702760452","358","0.0703125","-0.99609375","-0.25585938","3.9375","-0.4375","2.65625"
"1573702760452","359","0.08496094","-0.9736328","-0.29589844","9.09375","-1.1875","0.40625"
"1573702760650","360","0.07910156","-0.9873047","-0.26367188","2.5","-3.3125","0.03125"
"1573702760651","361","0.080078125","-0.96875","-0.28125","2.375","-2.875","-0.5625"
"1573702760652","362","0.09472656","-0.99316406","-0.2705078","4.125","-0.8125","0.59375"
"1573702760652","363","0.09082031","-0.98339844","-0.26171875","-1.78125","-4.53125","1.09375"
"1573702760652","364","0.07324219","-0.984375","-0.26953125","-0.3125","-5.6875","0.0"
"1573702760653","365","0.07324219","-0.9892578","-0.27148438","2.375","-3.125","0.53125"
"1573702760653","366","0.0703125","-0.9707031","-0.2626953","1.6875","0.46875","-1.46875"
"1573702760653","367","0.078125","-0.9736328","-0.26757812","-0.8125","4.1875","-3.5625"
"1573702760653","368","0.08203125","-0.99121094","-0.265625","1.5625","3.53125","-2.6875"
"1573702760653","369","0.08691406","-0.99316406","-0.27246094","4.375","1.375","0.78125"
"1573702761047","370","0.0703125","-1.0009766","-0.25683594","8.71875","0.84375","1.03125"
"1573702761048","371","0.046875","-0.9902344","-0.23046875","6.21875","3.78125","1.03125"
"1573702761048","372","0.08105469","-1.0117188","-0.20898438","6.46875","14.3125","1.03125"
"1573702761055","373","0.08691406","-1.0058594","-0.24316406","4.0","9.1875","-0.8125"
"1573702761055","374","0.06542969","-0.98535156","-0.21972656","-12.59375","5.0","-0.3125"
"1573702761055","375","0.08984375","-0.98828125","-0.24804688","0.90625","8.53125","-0.375"
"1573702761055","376","0.09863281","-0.9824219","-0.23535156","-6.0625","6.03125","-3.625"
"1573702761056","377","0.087890625","-0.98046875","-0.25195312","-6.5","2.4375","-5.5625"
"1573702761056","378","0.08984375","-0.9824219","-0.2685547","-3.8125","3.71875","-4.15625"
"1573702761056","379","0.115234375","-0.9824219","-0.27246094","-5.4375","1.875","-2.53125"
"1573702761446","380","0.115234375","-0.9746094","-0.27734375","-6.5","-0.875","-1.1875"
"1573702761447","381","0.103515625","-0.9560547","-0.2939453","-4.59375","-1.0","-1.0625"
"1573702761447","382","0.11816406","-0.9765625","-0.29003906","-0.4375","0.59375","0.40625"
"1573702761447","383","0.12207031","-0.97265625","-0.27734375","-4.03125","-0.8125","-1.71875"
"1573702761447","384","0.12011719","-0.9736328","-0.30078125","-3.25","-6.4375","-2.53125"
"1573702761449","385","0.07910156","-0.9814453","-0.28808594","-0.8125","-5.09375","-3.90625"
"1573702761449","386","0.10644531","-0.97558594","-0.27539062","-0.0625","-2.59375","-3.125"
"1573702761450","387","0.11816406","-0.9902344","-0.27734375","-0.8125","-0.0625","-1.65625"
"1573702761450","388","0.11621094","-0.96972656","-0.31054688","2.1875","-4.71875","0.34375"
"1573702761450","389","0.087890625","-0.9814453","-0.2607422","-4.28125","-2.34375","2.125"
"1573702762040","390","0.107421875","-0.984375","-0.29101562","8.71875","2.71875","4.125"
"1573702762040","391","0.103515625","-0.98828125","-0.2734375","2.1875","-0.625","3.65625"
"1573702762040","392","0.091796875","-0.9736328","-0.2841797","2.84375","-4.59375","4.125"
"1573702762041","393","0.0859375","-0.98828125","-0.28125","6.09375","-3.1875","3.59375"
"1573702762041","394","0.11425781","-0.98535156","-0.2685547","5.0625","-4.40625","5.28125"
"1573702762041","395","0.08203125","-0.98046875","-0.26171875","3.03125","-5.25","3.03125"
"1573702762041","396","0.061523438","-0.98828125","-0.26953125","4.25","-5.21875","2.59375"
"1573702762042","397","0.08300781","-0.9863281","-0.25683594","0.40625","-1.96875","2.4375"
"1573702762042","398","0.083984375","-0.9814453","-0.2626953","-1.1875","-2.8125","0.34375"
"1573702762042","399","0.06640625","-0.9902344","-0.25683594","-3.96875","-2.40625","-0.625"
"1573702762240","400","0.08203125","-0.9765625","-0.2685547","-4.84375","-1.0","-0.8125"
"1573702762240","401","0.080078125","-0.9873047","-0.26464844","-2.8125","1.625","0.09375"
"1573702762240","402","0.078125","-1.0019531","-0.26171875","0.09375","0.78125","1.5"
"1573702762240","403","0.068359375","-0.97265625","-0.2939453","3.40625","-3.0625","0.59375"
"1573702762241","404","0.07324219","-0.99121094","-0.25390625","2.5625","-0.1875","2.1875"
"1573702762241","405","0.1015625","-0.9892578","-0.27539062","5.96875","-0.125","1.09375"
"1573702762241","406","0.0859375","-0.9902344","-0.2705078","2.125","-4.40625","0.71875"
"1573702762241","407","0.08984375","-0.9824219","-0.27539062","1.5","-5.03125","0.90625"
"1573702762242","408","0.091796875","-0.9824219","-0.2783203","2.1875","-6.59375","0.0"
"1573702762243","409","0.083984375","-0.9863281","-0.27148438","-0.4375","-6.71875","0.0"
"1573702762638","410","0.09082031","-0.9785156","-0.27539062","1.21875","-7.65625","-0.6875"
"1573702762639","411","0.061523438","-0.9824219","-0.27246094","1.625","-6.5","-1.53125"
"1573702762639","412","0.06933594","-0.98046875","-0.26464844","2.5625","-5.3125","-1.34375"
"1573702762639","413","0.078125","-0.99121094","-0.26464844","3.84375","-4.15625","-1.0625"
"1573702762640","414","0.072265625","-0.984375","-0.26171875","3.46875","-4.03125","-0.5625"
"1573702762640","415","0.07519531","-0.9892578","-0.2578125","4.125","-0.8125","0.78125"
"1573702762640","416","0.06933594","-0.9921875","-0.24902344","3.59375","-2.53125","1.625"
"1573702762640","417","0.06738281","-0.9746094","-0.24902344","4.5625","-1.125","1.4375"
"1573702762641","418","0.072265625","-0.9892578","-0.24707031","2.96875","0.71875","0.90625"
"1573702762641","419","0.06347656","-1.0166016","-0.22265625","6.03125","0.78125","2.78125"
"1573702763035","420","0.07714844","-0.95703125","-0.2548828","-0.8125","-0.3125","1.875"
"1573702763036","421","0.072265625","-1.0009766","-0.23828125","7.125","-3.75","3.46875"
"1573702763036","422","0.06542969","-0.9951172","-0.23144531","5.46875","-3.0","4.25"
"1573702763036","423","0.055664062","-0.9980469","-0.2265625","6.46875","-1.78125","1.28125"
"1573702763037","424","0.032226562","-1.0078125","-0.21972656","5.34375","-2.15625","-1.0625"
"1573702763037","425","0.030273438","-1.0078125","-0.22167969","3.71875","-1.3125","-4.53125"
"1573702763037","426","0.055664062","-1.0068359","-0.22167969","4.0","1.8125","-3.5625"
"1573702763037","427","0.07128906","-0.9941406","-0.22558594","1.5625","2.90625","-2.46875"
"1573702763038","428","0.087890625","-0.99316406","-0.22070312","-2.875","0.40625","-0.9375"
"1573702763038","429","0.083984375","-1.0019531","-0.22558594","-4.40625","2.375","-0.9375"
"1573702763434","430","0.064453125","-0.9941406","-0.234375","-1.46875","1.75","-1.1875"
"1573702763434","431","0.055664062","-1.0039062","-0.23144531","0.59375","0.34375","-1.78125"
"1573702763435","432","0.07714844","-0.9892578","-0.23632812","-1.3125","-0.9375","-1.0"
"1573702763436","433","0.06347656","-0.984375","-0.23632812","-6.84375","1.8125","-4.15625"
"1573702763436","434","0.08984375","-1.0048828","-0.22265625","-2.46875","-1.1875","-0.9375"
"1573702763437","435","0.072265625","-0.95703125","-0.27148438","-0.875","-4.71875","-2.625"
"1573702763437","436","0.078125","-1.0107422","-0.23828125","-3.5","0.90625","0.90625"
"1573702763437","437","0.099609375","-0.9667969","-0.24023438","-2.9375","-3.5","1.4375"
"1573702763438","438","0.040039062","-0.9902344","-0.24902344","-3.90625","-0.625","-2.46875"
"1573702763438","439","0.07324219","-0.99316406","-0.24902344","-3.96875","3.90625","-0.5625"
"1573702763831","440","0.095703125","-0.9824219","-0.25195312","-3.96875","2.0625","-2.21875"
"1573702763832","441","0.07324219","-0.99316406","-0.24707031","-7.03125","1.03125","-2.6875"
"1573702763832","442","0.0703125","-0.9746094","-0.26464844","-5.5625","0.84375","-2.40625"
"1573702763832","443","0.0859375","-0.98828125","-0.2578125","-3.75","2.375","-2.28125"
"1573702763832","444","0.078125","-0.98828125","-0.25976562","-3.375","1.9375","-2.9375"
"1573702763834","445","0.08496094","-0.9794922","-0.26171875","-2.09375","2.125","-1.0625"
"1573702763834","446","0.095703125","-0.984375","-0.25878906","-4.09375","3.40625","-0.625"
"1573702763835","447","0.08496094","-0.98828125","-0.2734375","-1.65625","4.125","0.0"
"1573702763835","448","0.08886719","-0.9785156","-0.29589844","-0.5625","5.53125","-0.625"
"1573702763835","449","0.10058594","-0.9902344","-0.24414062","-7.40625","3.9375","0.34375"
"1573702764227","450","0.10253906","-0.9814453","-0.28222656","-3.375","6.5","-1.40625"
"1573702764228","451","0.08496094","-0.9941406","-0.2734375","-9.59375","3.71875","-1.3125"
"1573702764228","452","0.10546875","-0.9736328","-0.2919922","-3.96875","-1.25","0.84375"
"1573702764229","453","0.103515625","-0.984375","-0.31054688","3.53125","-1.78125","1.75"
"1573702764229","454","0.09082031","-0.9746094","-0.28222656","1.8125","-2.46875","2.0625"
"1573702764229","455","0.095703125","-0.9814453","-0.28125","0.34375","-1.34375","-0.25"
"1573702764229","456","0.09863281","-0.9873047","-0.29296875","1.03125","-2.40625","0.46875"
"1573702764230","457","0.103515625","-0.9794922","-0.3017578","3.21875","-1.59375","1.21875"
"1573702764231","458","0.103515625","-0.97558594","-0.2939453","2.84375","-3.125","1.8125"
"1573702764231","459","0.0859375","-0.96875","-0.29785156","2.84375","-3.8125","0.90625"
"1573702764625","460","0.08691406","-0.9785156","-0.29785156","3.34375","-3.625","0.71875"
"1573702764625","461","0.08984375","-0.9794922","-0.28710938","2.25","0.0","-0.25"
"1573702764625","462","0.099609375","-0.9736328","-0.27734375","1.875","0.65625","0.84375"
"1573702764626","463","0.09082031","-0.97265625","-0.296875","7.4375","-2.34375","0.65625"
"1573702764626","464","0.08691406","-0.97558594","-0.2626953","-3.3125","0.96875","0.09375"
"1573702764626","465","0.09472656","-0.9863281","-0.27246094","2.375","-0.8125","0.96875"
"1573702764626","466","0.083984375","-0.9765625","-0.28027344","4.9375","-3.0625","1.21875"
"1573702764627","467","0.08886719","-0.9765625","-0.26464844","2.78125","-2.8125","1.03125"
"1573702764627","468","0.08300781","-0.9873047","-0.265625","4.625","0.65625","-0.25"
"1573702764628","469","0.087890625","-0.98828125","-0.2529297","1.75","1.15625","0.28125"
"1573702765025","470","0.072265625","-0.9785156","-0.27148438","1.3125","-0.1875","2.375"
"1573702765026","471","0.07714844","-0.9941406","-0.25683594","3.09375","0.34375","1.75"
"1573702765026","472","0.080078125","-0.9892578","-0.2626953","2.59375","0.03125","1.5"
"1573702765026","473","0.078125","-0.9824219","-0.25390625","2.25","1.9375","0.65625"
"1573702765026","474","0.052734375","-1.0107422","-0.22851562","0.03125","5.59375","-1.125"
"1573702765027","475","0.055664062","-0.9892578","-0.23144531","-4.84375","6.15625","-3.5625"
"1573702765027","476","0.07421875","-0.9902344","-0.2529297","-4.53125","5.84375","-5.03125"
"1573702765027","477","0.09375","-0.9863281","-0.28222656","-3.5","3.46875","-4.59375"
"1573702765027","478","0.10839844","-1.0058594","-0.2529297","1.15625","2.65625","0.0"
"1573702765028","479","0.10546875","-0.9814453","-0.26953125","2.0625","2.1875","-1.125"
"1573702765422","480","0.095703125","-0.98828125","-0.2548828","0.34375","-1.0","-0.8125"
"1573702765423","481","0.09863281","-0.9794922","-0.2626953","-3.3125","-3.5","-2.15625"
"1573702765424","482","0.10058594","-0.98535156","-0.2841797","-4.71875","-5.03125","-3.8125"
"1573702765424","483","0.09082031","-0.9873047","-0.28027344","-6.0","-7.21875","-3.96875"
"1573702765424","484","0.10644531","-0.9638672","-0.296875","-4.46875","-4.09375","-3.625"
"1573702765424","485","0.12207031","-0.9716797","-0.2919922","-1.78125","-7.09375","-1.46875"
"1573702765425","486","0.11328125","-0.9609375","-0.30371094","-3.0","-2.15625","-2.03125"
"1573702765425","487","0.12011719","-0.9667969","-0.2998047","-4.03125","-5.8125","-3.6875"
"1573702765425","488","0.06347656","-0.9873047","-0.2861328","-2.34375","-4.53125","-6.96875"
"1573702765426","489","0.1015625","-0.9765625","-0.2841797","-3.1875","-4.34375","-6.0"
"1573702765819","490","0.11035156","-0.9628906","-0.30859375","-1.0","-5.375","-7.09375"
"1573702765819","491","0.103515625","-0.984375","-0.28808594","-1.1875","-0.9375","-4.90625"
"1573702765819","492","0.11230469","-0.9824219","-0.29492188","8.46875","-4.96875","-1.125"
"1573702765821","493","0.10546875","-0.95214844","-0.29101562","2.71875","-3.90625","-0.3125"
"1573702765821","494","0.13183594","-0.9980469","-0.2685547","8.84375","-1.53125","3.78125"
"1573702765822","495","0.123046875","-0.9736328","-0.27148438","7.3125","-8.25","2.65625"
"1573702765822","496","0.10449219","-0.9941406","-0.27148438","8.40625","-7.53125","1.6875"
"1573702765822","497","0.103515625","-0.9873047","-0.24707031","1.9375","-3.8125","1.5625"
"1573702765823","498","0.095703125","-0.96777344","-0.265625","-3.375","-1.3125","-2.53125"
"1573702765823","499","0.10253906","-0.99121094","-0.2705078","-9.34375","-0.0625","-1.34375"
"1573702766215","500","0.11230469","-0.9824219","-0.27734375","-7.46875","-2.34375","-0.875"
"1573702766216","501","0.115234375","-0.98046875","-0.2763672","-8.6875","-3.375","-0.4375"
"1573702766216","502","0.09765625","-0.9736328","-0.27929688","-4.84375","-1.53125","-1.25"
"1573702766216","503","0.109375","-0.984375","-0.30078125","3.15625","-3.75","-0.75"
"1573702766216","504","0.10644531","-0.9814453","-0.28515625","4.0","-5.21875","-0.9375"
"1573702766218","505","0.10546875","-0.98828125","-0.27734375","6.15625","-5.4375","-0.125"
"1573702766218","506","0.103515625","-0.97753906","-0.29882812","5.59375","-5.25","-1.46875"
"1573702766218","507","0.115234375","-0.9746094","-0.25683594","-3.90625","-3.125","-0.8125"
"1573702766219","508","0.12695312","-0.9921875","-0.30566406","12.9375","-1.0625","3.90625"
"1573702766219","509","0.12988281","-0.97265625","-0.28222656","-2.625","-5.5625","1.375"
"1573702766809","510","0.10546875","-0.9716797","-0.30566406","-0.0625","-11.1875","1.15625"
"1573702766810","511","0.09765625","-0.984375","-0.30273438","0.65625","-8.5625","0.34375"
"1573702766810","512","0.095703125","-0.9628906","-0.28710938","-3.1875","-6.25","-2.03125"
"1573702766811","513","0.09765625","-0.9736328","-0.29785156","-2.34375","-3.375","-2.875"
"1573702766811","514","0.09472656","-0.97558594","-0.3017578","-1.59375","0.53125","-1.78125"
"1573702766811","515","0.109375","-0.9746094","-0.2919922","-1.96875","3.78125","-0.625"
"1573702766811","516","0.10058594","-0.984375","-0.2763672","-0.375","5.28125","0.46875"
"1573702766813","517","0.111328125","-0.96777344","-0.2919922","-2.21875","5.0625","1.75"
"1573702766813","518","0.12109375","-0.9707031","-0.2841797","-3.125","6.8125","0.84375"
"1573702766813","519","0.119140625","-0.97753906","-0.29785156","3.78125","4.875","3.40625"
"1573702767012","520","0.109375","-0.9736328","-0.29003906","4.125","6.40625","3.84375"
"1573702767013","521","0.09277344","-0.98339844","-0.25195312","2.3125","5.1875","5.40625"
"1573702767013","522","0.107421875","-0.9560547","-0.28027344","7.25","2.90625","6.34375"
"1573702767013","523","0.08300781","-1.0029297","-0.2841797","4.875","4.9375","5.46875"
"1573702767013","524","0.07714844","-0.9970703","-0.2685547","-2.9375","11.21875","3.65625"
"1573702767014","525","0.103515625","-0.9863281","-0.27734375","-5.875","13.65625","1.9375"
"1573702767014","526","0.08691406","-1.0048828","-0.2685547","-4.40625","11.34375","0.0"
"1573702767014","527","0.07421875","-0.99316406","-0.27148438","-3.4375","9.5","-2.8125"
"1573702767014","528","0.107421875","-0.98828125","-0.28027344","-4.15625","8.46875","-1.3125"
"1573702767016","529","0.11328125","-0.9863281","-0.28710938","-3.0","9.09375","-1.34375"
"1573702767409","530","0.12207031","-0.9746094","-0.28710938","-3.25","7.25","0.28125"
"1573702767409","531","0.115234375","-0.9667969","-0.3095703","-4.46875","4.5","0.03125"
"1573702767409","532","0.109375","-0.9746094","-0.31152344","-7.53125","5.1875","-0.4375"
"1573702767410","533","0.115234375","-0.95214844","-0.3154297","-10.75","3.78125","-1.40625"
"1573702767410","534","0.107421875","-0.9609375","-0.3173828","-10.03125","3.46875","-0.75"
"1573702767410","535","0.107421875","-0.96777344","-0.35839844","-1.25","-1.1875","0.90625"
"1573702767410","536","0.12597656","-0.92578125","-0.3466797","-15.28125","-0.8125","-0.875"
"1573702767411","537","0.12011719","-0.9628906","-0.3701172","1.3125","0.78125","2.59375"
"1573702767411","538","0.10449219","-0.9638672","-0.35058594","-2.34375","-3.625","2.3125"
"1573702767411","539","0.08886719","-0.94921875","-0.34960938","-1.84375","-0.25","1.3125"
"1573702767806","540","0.09375","-0.9667969","-0.34765625","-2.34375","0.65625","1.28125"
"1573702767807","541","0.059570312","-0.95214844","-0.35839844","-7.71875","1.875","-1.1875"
"1573702767807","542","0.09472656","-0.9716797","-0.3623047","-10.5","5.0625","-0.6875"
"1573702767808","543","0.109375","-0.9589844","-0.3798828","-9.125","0.96875","3.46875"
"1573702767808","544","0.08691406","-0.9472656","-0.36816406","-5.21875","4.4375","3.53125"
"1573702767808","545","0.09082031","-0.9423828","-0.3720703","-3.0","2.59375","4.5625"
"1573702767808","546","0.109375","-0.94433594","-0.37304688","-0.9375","2.125","3.59375"
"1573702767809","547","0.12011719","-0.9550781","-0.36816406","-1.0625","-1.34375","3.84375"
"1573702767809","548","0.10449219","-0.94921875","-0.3779297","0.34375","-4.46875","0.53125"
"1573702767809","549","0.12402344","-0.95703125","-0.36621094","0.59375","-4.15625","0.78125"
"1573702768203","550","0.09375","-0.953125","-0.37304688","7.96875","-7.9375","-0.875"
"1573702768204","551","0.08496094","-0.95703125","-0.3515625","-3.0","-5.4375","-5.09375"
"1573702768204","552","0.06738281","-0.9667969","-0.34765625","6.40625","-4.71875","-4.21875"
"1573702768205","553","0.08691406","-0.9658203","-0.34277344","-0.5625","-1.84375","-2.9375"
"1573702768206","554","0.078125","-0.96484375","-0.33984375","-3.0","2.0","1.03125"
"1573702768206","555","0.05859375","-0.96875","-0.34375","-0.25","7.0625","4.75"
"1573702768206","556","0.10546875","-0.9638672","-0.32910156","7.1875","8.40625","8.90625"
"1573702768206","557","0.095703125","-0.9873047","-0.3046875","4.5","10.0","7.90625"
"1573702768207","558","0.06738281","-0.9667969","-0.32128906","3.65625","12.375","7.125"
"1573702768207","559","0.12109375","-0.9707031","-0.31152344","1.5625","12.8125","2.0"
"1573702768600","560","0.14160156","-0.98046875","-0.30371094","7.0625","6.03125","0.65625"
"1573702768600","561","0.09765625","-0.9658203","-0.31445312","5.96875","3.9375","-1.125"
"1573702768600","562","0.09765625","-0.9746094","-0.31152344","2.0","5.65625","-2.6875"
"1573702768601","563","0.095703125","-0.9609375","-0.32128906","0.0","8.78125","-1.1875"
"1573702768601","564","0.08496094","-0.9628906","-0.3154297","-2.28125","8.15625","-0.9375"
"1573702768602","565","0.09472656","-0.9785156","-0.33203125","-3.625","10.125","0.15625"
"1573702768602","566","0.08886719","-0.95703125","-0.3564453","-2.21875","10.25","-1.3125"
"1573702768602","567","0.11425781","-0.9794922","-0.3359375","-4.21875","14.5","2.125"
"1573702768603","568","0.12988281","-0.95410156","-0.3515625","-3.90625","18.59375","3.9375"
"1573702768603","569","0.109375","-0.9638672","-0.34277344","-1.34375","15.90625","7.75"
"1573702768999","570","0.109375","-0.9667969","-0.33007812","0.71875","14.6875","10.65625"
"1573702769000","571","0.087890625","-0.96191406","-0.3251953","0.46875","15.5625","10.1875"
"1573702769000","572","0.080078125","-0.9707031","-0.32226562","-1.34375","16.71875","10.46875"
"1573702769000","573","0.11328125","-0.9716797","-0.31640625","0.0","16.09375","8.84375"
"1573702769001","574","0.09765625","-0.9667969","-0.328125","2.5625","13.09375","8.09375"
"1573702769001","575","0.11328125","-0.96484375","-0.32617188","0.09375","10.40625","4.9375"
"1573702769001","576","0.12695312","-0.96777344","-0.33007812","1.375","7.84375","2.78125"
"1573702769003","577","0.10839844","-0.96191406","-0.32714844","2.125","4.6875","0.21875"
"1573702769003","578","0.12109375","-0.9580078","-0.328125","1.5","2.125","0.71875"
"1573702769003","579","0.10644531","-0.9658203","-0.32910156","2.5","1.375","0.40625"
"1573702769396","580","0.099609375","-0.9580078","-0.3330078","2.25","2.59375","0.34375"
"1573702769397","581","0.10058594","-0.96777344","-0.33691406","3.03125","2.0","0.90625"
"1573702769397","582","0.10644531","-0.95703125","-0.32910156","1.5625","2.59375","0.09375"
"1573702769397","583","0.10644531","-0.96972656","-0.33691406","5.125","2.84375","1.4375"
"1573702769398","584","0.10449219","-0.96875","-0.31445312","7.3125","0.21875","0.78125"
"1573702769398","585","0.08496094","-0.9472656","-0.29003906","-2.875","-2.03125","-0.875"
"1573702769398","586","0.1015625","-0.9892578","-0.3232422","9.09375","-0.8125","4.875"
"1573702769398","587","0.08300781","-0.9814453","-0.31054688","1.6875","-1.59375","0.46875"
"1573702769398","588","0.07421875","-0.96875","-0.31640625","1.8125","0.59375","2.25"
"1573702769400","589","0.083984375","-0.97265625","-0.3232422","2.125","1.8125","1.375"
