"# PR data"
"# Start time: 20191114T034151"
"# Subject: teo"
"# Activity type: Wall push offs"
"# Correctness: Correct"
"# Notes: "
""
"timestamp","seq","accel_x","accel_y","accel_z","gyro_x","gyro_y","gyro_z"
"1573702912098","0","0.14355469","-0.9765625","-0.3154297","-14.84375","34.96875","7.0625"
"1573702912099","1","0.12597656","-0.9238281","-0.32714844","-14.53125","37.59375","8.53125"
"1573702912099","2","0.12792969","-0.9121094","-0.33398438","-14.3125","41.25","11.59375"
"1573702912099","3","0.14355469","-0.9736328","-0.3388672","-9.34375","44.46875","10.3125"
"1573702912100","4","0.19140625","-1.0205078","-0.3544922","-6.125","46.0","6.8125"
"1573702912100","5","0.18261719","-1.0625","-0.3955078","-6.65625","39.59375","4.25"
"1573702912100","6","0.13769531","-1.0058594","-0.3544922","-6.84375","46.375","9.03125"
"1573702912100","7","0.001953125","-1.4091797","-0.31640625","2.5625","58.875","-12.21875"
"1573702912101","8","-0.0703125","-1.1582031","-0.13964844","20.75","48.1875","-7.59375"
"1573702912101","9","-0.025390625","-0.76953125","-0.0625","40.4375","44.46875","8.71875"
"1573702912496","10","-0.08105469","-0.90625","-0.15527344","10.71875","29.40625","32.40625"
"1573702912496","11","0.125","-1.1972656","-0.18652344","-10.5625","46.75","17.1875"
"1573702912497","12","0.2919922","-1.1611328","-0.11425781","-11.4375","0.65625","-11.96875"
"1573702912497","13","0.091796875","-0.7792969","-0.10546875","-6.59375","-51.65625","-26.125"
"1573702912497","14","0.024414062","-0.7792969","-0.23925781","3.46875","-40.0","9.3125"
"1573702912498","15","-0.12011719","-0.97753906","-0.34960938","-4.28125","-8.375","7.5"
"1573702912498","16","0.16601562","-1.0263672","-0.3720703","-14.65625","-24.96875","-2.03125"
"1573702912498","17","0.28808594","-0.8496094","-0.29101562","-11.78125","-55.875","-9.0625"
"1573702912498","18","0.08300781","-0.78222656","-0.31640625","4.375","-60.875","-20.40625"
"1573702912499","19","0.076171875","-0.91503906","-0.3720703","17.25","-48.40625","-26.4375"
"1573702912892","20","0.13574219","-0.9951172","-0.38183594","13.96875","-43.65625","-19.25"
"1573702912893","21","0.06542969","-1.0048828","-0.3564453","9.875","-44.5","-19.3125"
"1573702912893","22","0.036132812","-1.0009766","-0.40234375","11.46875","-46.21875","-16.0625"
"1573702912893","23","0.18847656","-1.1025391","-0.18261719","-8.25","-31.21875","-17.28125"
"1573702912894","24","0.044921875","-1.2744141","-0.1640625","-32.71875","-36.5625","-47.625"
"1573702912895","25","-0.072265625","-1.3652344","-0.25097656","-32.0625","-64.21875","-36.46875"
"1573702912895","26","0.16113281","-0.9160156","-0.24902344","46.875","-30.40625","-35.15625"
"1573702912895","27","0.3359375","-0.7216797","-0.21289062","36.46875","-32.0625","-35.65625"
"1573702912896","28","0.27246094","-0.93066406","0.0","27.4375","-57.9375","-11.375"
"1573702912896","29","0.125","-0.9472656","0.08300781","14.3125","-77.09375","-19.1875"
"1573702913291","30","0.09375","-0.96484375","0.045898438","11.875","-14.0","-26.25"
"1573702913291","31","0.123046875","-1.0341797","-0.15332031","17.1875","24.21875","-25.71875"
"1573702913291","32","0.3330078","-1.0322266","-0.17480469","-1.3125","7.4375","-21.25"
"1573702913292","33","0.39941406","-0.94921875","-0.125","-8.3125","-2.34375","-19.5"
"1573702913292","34","0.34179688","-0.9736328","-0.0859375","16.46875","4.6875","-8.875"
"1573702913292","35","0.27148438","-0.984375","-0.0703125","1.5625","7.5625","-2.34375"
"1573702913292","36","0.2919922","-1.0078125","-0.08886719","-4.96875","14.21875","-2.28125"
"1573702913293","37","0.32910156","-0.9404297","-0.0703125","-5.8125","13.40625","2.0"
"1573702913293","38","0.2939453","-0.9580078","-0.09277344","-8.375","14.5625","2.65625"
"1573702913293","39","0.31640625","-1.0117188","-0.08691406","-13.625","20.125","2.90625"
"1573702913689","40","0.3671875","-1.0195312","-0.10253906","-11.96875","21.09375","2.4375"
"1573702913689","41","0.3779297","-0.9589844","-0.09082031","-17.78125","24.15625","8.84375"
"1573702913690","42","0.375","-0.93652344","-0.080078125","-29.125","28.5","14.09375"
"1573702913690","43","0.3857422","-0.9658203","-0.119140625","-30.40625","30.1875","17.4375"
"1573702913690","44","0.3779297","-0.9716797","-0.15332031","-27.0","27.5","23.125"
"1573702913690","45","0.33984375","-0.9160156","-0.15820312","-29.1875","25.5625","25.4375"
"1573702913691","46","0.3388672","-0.953125","-0.171875","-17.28125","20.8125","23.78125"
"1573702913691","47","0.2783203","-1.0087891","-0.16601562","-1.59375","14.21875","20.6875"
"1573702913691","48","0.22070312","-0.98339844","-0.19433594","15.125","8.34375","22.9375"
"1573702913693","49","0.14257812","-1.0673828","-0.2705078","31.65625","6.5625","28.5"
"1573702914085","50","0.08105469","-1.0917969","-0.27734375","18.96875","6.875","37.28125"
"1573702914086","51","-0.01171875","-1.0039062","-0.26464844","17.9375","8.59375","40.8125"
"1573702914086","52","-0.16992188","-0.9511719","-0.3935547","22.3125","11.03125","56.1875"
"1573702914086","53","0.020507812","-0.94433594","-0.43066406","-11.625","22.09375","41.5"
"1573702914087","54","0.16894531","-1.0615234","-0.26757812","-5.3125","19.5625","21.34375"
"1573702914087","55","-0.06933594","-0.8730469","-0.3125","6.75","-9.0","18.90625"
"1573702914087","56","-0.00390625","-0.8457031","-0.3623047","2.0","2.5","9.5625"
"1573702914087","57","0.048828125","-1.0634766","-0.32617188","-14.34375","9.4375","-1.25"
"1573702914088","58","0.041992188","-0.98046875","-0.3359375","-5.21875","-3.5","4.9375"
"1573702914088","59","-0.0048828125","-0.9091797","-0.29785156","-2.28125","-12.71875","1.15625"
"1573702914484","60","0.030273438","-0.9970703","-0.31445312","-2.09375","-3.875","-0.125"
"1573702914485","61","9.765625E-4","-0.96875","-0.328125","-0.0625","-10.34375","0.71875"
"1573702914486","62","0.0234375","-0.9501953","-0.3203125","-3.625","-7.59375","-7.40625"
"1573702914486","63","0.051757812","-1.0419922","-0.28222656","-5.8125","-2.28125","-10.21875"
"1573702914486","64","0.0107421875","-1.0107422","-0.25878906","-5.21875","-7.78125","-9.46875"
"1573702914487","65","0.0","-0.91503906","-0.28515625","-2.75","-8.9375","-4.46875"
"1573702914487","66","0.0703125","-0.9316406","-0.31347656","0.40625","-3.8125","-1.0"
"1573702914487","67","0.076171875","-0.94433594","-0.31347656","1.15625","-0.875","-6.53125"
"1573702914487","68","0.068359375","-0.9345703","-0.30664062","15.90625","0.46875","-5.15625"
"1573702914488","69","0.095703125","-0.9033203","-0.28320312","26.96875","-1.46875","-1.78125"
"1573702914881","70","0.06347656","-0.9316406","-0.18164062","20.90625","8.90625","3.15625"
"1573702914882","71","-0.060546875","-1.1464844","-0.171875","14.625","25.4375","9.75"
"1573702914882","72","-0.0234375","-1.2460938","-0.20703125","0.09375","27.875","14.15625"
"1573702914883","73","0.171875","-0.96972656","-0.18945312","8.65625","16.34375","16.15625"
"1573702914883","74","0.27734375","-0.86621094","-0.19042969","16.28125","-7.875","-0.6875"
"1573702914884","75","0.024414062","-1.0136719","-0.22460938","7.96875","-11.78125","7.6875"
"1573702914884","76","-0.026367188","-0.97265625","-0.19042969","3.15625","-0.625","14.375"
"1573702914884","77","0.08984375","-0.96777344","-0.14550781","11.34375","-6.0625","6.40625"
"1573702914884","78","0.036132812","-1.0039062","-0.17773438","14.03125","-18.4375","8.34375"
"1573702914885","79","0.017578125","-1.0117188","-0.20410156","18.0","-12.03125","7.1875"
"1573702915279","80","0.060546875","-0.97265625","-0.16894531","7.5625","-8.25","5.40625"
"1573702915280","81","0.05859375","-0.9580078","-0.17675781","17.25","-22.78125","9.3125"
"1573702915280","82","-0.015625","-0.98046875","-0.15332031","20.90625","-18.8125","11.65625"
"1573702915280","83","-0.056640625","-0.9794922","-0.15625","16.90625","-7.59375","6.8125"
"1573702915280","84","-0.032226562","-1.0087891","-0.14453125","18.78125","-1.59375","7.90625"
"1573702915282","85","0.0078125","-0.98535156","-0.13378906","21.40625","-3.75","12.75"
"1573702915282","86","-0.00390625","-0.9794922","-0.13183594","25.4375","-6.59375","17.25"
"1573702915282","87","-0.06542969","-0.9765625","-0.0625","28.0","-5.3125","20.0625"
"1573702915283","88","-0.055664062","-0.9345703","-0.07128906","42.53125","6.40625","23.0"
"1573702915283","89","-0.052734375","-1.0009766","9.765625E-4","41.78125","13.28125","29.65625"
"1573702915677","90","-0.10449219","-1.0019531","0.051757812","39.28125","14.4375","19.625"
"1573702915677","91","-0.14550781","-0.93359375","0.15527344","43.6875","-3.0","40.5"
"1573702915677","92","-0.15625","-1.0195312","0.16015625","50.21875","-17.59375","44.46875"
"1573702915678","93","-0.25","-1.0878906","0.2421875","39.71875","-23.4375","31.78125"
"1573702915678","94","-0.26464844","-0.9794922","0.2763672","30.8125","-9.46875","27.09375"
"1573702915678","95","-0.3203125","-0.9638672","0.28320312","26.09375","-3.5625","11.75"
"1573702915678","96","-0.22363281","-0.96875","0.3046875","24.8125","-0.6875","15.625"
"1573702915680","97","-0.28125","-0.890625","0.31347656","17.0625","-10.8125","8.78125"
"1573702915680","98","-0.31835938","-0.90625","0.33984375","9.8125","-2.21875","5.53125"
"1573702915680","99","-0.29785156","-0.92089844","0.31445312","9.3125","-1.53125","1.875"
"1573702916272","100","-0.3203125","-0.9501953","0.32714844","6.34375","2.71875","-1.40625"
"1573702916272","101","-0.32714844","-0.9638672","0.34277344","1.3125","4.125","-0.875"
"1573702916273","102","-0.31347656","-0.9658203","0.35742188","-2.46875","3.21875","-1.53125"
"1573702916273","103","-0.3515625","-0.95703125","0.3076172","-1.0625","-1.40625","-9.125"
"1573702916273","104","-0.3486328","-0.95410156","0.33007812","-10.28125","7.90625","-8.75"
"1573702916273","105","-0.2890625","-0.97265625","0.2841797","-7.53125","10.46875","-9.90625"
"1573702916274","106","-0.2705078","-0.94140625","0.3154297","-7.09375","11.71875","-13.1875"
"1573702916274","107","-0.2998047","-0.9355469","0.26367188","-10.09375","9.09375","-11.0625"
"1573702916274","108","-0.27539062","-0.9404297","0.23535156","-12.46875","15.84375","-17.21875"
"1573702916276","109","-0.23730469","-0.9423828","0.22753906","-13.6875","13.90625","-21.375"
"1573702916471","110","-0.21679688","-0.94433594","0.20507812","-13.25","7.8125","-22.34375"
"1573702916471","111","-0.13574219","-0.97265625","0.2109375","-5.9375","6.8125","-22.46875"
"1573702916471","112","-0.18359375","-0.93359375","0.18066406","-19.3125","-0.875","-25.65625"
"1573702916471","113","-0.12597656","-0.9550781","0.13867188","-27.25","-1.46875","-24.4375"
"1573702916472","114","-0.103515625","-0.9638672","0.10449219","-32.0","-1.3125","-27.1875"
"1573702916472","115","-0.053710938","-0.9589844","0.057617188","-29.25","-9.46875","-24.75"
"1573702916472","116","-0.056640625","-0.96484375","0.0546875","-31.9375","-8.625","-23.15625"
"1573702916472","117","-0.064453125","-0.96484375","0.01171875","-33.84375","-3.5","-23.09375"
"1573702916473","118","-0.044921875","-1.0078125","-0.033203125","-35.46875","0.15625","-23.15625"
"1573702916473","119","0.0146484375","-0.9482422","-0.051757812","-34.9375","-3.1875","-20.28125"
"1573702916868","120","0.0078125","-0.97265625","-0.03515625","-25.28125","3.21875","-16.0"
"1573702916869","121","0.015625","-0.9785156","-0.09863281","-28.46875","11.875","-20.15625"
"1573702916869","122","0.09765625","-1.0527344","-0.12988281","-29.625","12.375","-18.9375"
"1573702916869","123","0.07128906","-1.0644531","-0.13769531","-28.28125","4.4375","-14.90625"
"1573702916870","124","0.040039062","-1.0390625","-0.16601562","-22.40625","-0.25","-10.03125"
"1573702916870","125","0.08984375","-0.9873047","-0.18457031","-13.4375","2.5625","-9.0"
"1573702916870","126","0.119140625","-0.9580078","-0.18066406","-12.84375","-3.3125","-8.4375"
"1573702916870","127","0.09667969","-0.9794922","-0.19824219","-8.125","-5.09375","-9.46875"
"1573702916870","128","0.07910156","-1.0","-0.19238281","-7.15625","-3.8125","-7.09375"
"1573702916872","129","0.06640625","-0.98828125","-0.19921875","-6.71875","-2.46875","-6.4375"
"1573702917859","130","0.0859375","-1.0","-0.20605469","-3.875","-1.3125","-4.34375"
"1573702917860","131","0.07519531","-0.99121094","-0.20410156","-2.15625","-1.0625","-1.65625"
"1573702917860","132","0.08300781","-0.98046875","-0.19140625","-1.34375","1.6875","0.46875"
"1573702917861","133","0.095703125","-0.9785156","-0.19921875","-0.9375","2.0","0.21875"
"1573702917862","134","0.09863281","-0.9892578","-0.19238281","0.0","1.3125","0.15625"
"1573702917862","135","0.099609375","-1.0009766","-0.19335938","2.0","2.25","2.65625"
"1573702917862","136","0.08496094","-0.97558594","-0.20605469","4.3125","-2.625","1.6875"
"1573702917862","137","0.08886719","-0.9873047","-0.17089844","-0.25","-1.1875","3.78125"
"1573702917863","138","0.10253906","-1.0019531","-0.19726562","9.1875","1.21875","4.375"
"1573702917863","139","0.064453125","-0.9824219","-0.18945312","5.96875","-4.03125","4.375"
"1573702918059","140","0.08984375","-0.9892578","-0.1796875","4.5625","-2.34375","3.65625"
"1573702918060","141","0.08105469","-0.99316406","-0.18457031","6.875","-2.9375","4.9375"
"1573702918060","142","0.064453125","-0.9980469","-0.171875","8.78125","-2.40625","6.40625"
"1573702918060","143","0.07324219","-0.984375","-0.17578125","9.125","-1.84375","7.125"
"1573702918061","144","0.07324219","-0.984375","-0.1640625","11.53125","-1.1875","8.78125"
"1573702918062","145","0.06542969","-0.9863281","-0.15332031","11.28125","-0.1875","8.96875"
"1573702918062","146","0.05078125","-0.98339844","-0.15820312","13.15625","-0.75","8.96875"
"1573702918063","147","0.059570312","-0.9863281","-0.16210938","16.65625","-0.8125","10.375"
"1573702918063","148","0.047851562","-0.9921875","-0.140625","17.0625","-0.125","10.71875"
"1573702918063","149","0.026367188","-0.9765625","-0.1328125","12.375","1.6875","8.96875"
"1573702918255","150","0.06933594","-1.0039062","-0.14941406","14.8125","2.4375","13.21875"
"1573702918256","151","0.057617188","-0.9863281","-0.123046875","11.65625","-0.875","18.125"
"1573702918256","152","-9.765625E-4","-0.9658203","-0.10839844","14.75","-3.0","20.6875"
"1573702918256","153","-0.009765625","-0.9785156","-0.08496094","24.9375","-7.34375","24.28125"
"1573702918257","154","-0.036132812","-0.94433594","-0.072265625","23.375","-6.5","24.75"
"1573702918257","155","-0.024414062","-0.9326172","-0.041015625","46.5","-25.40625","33.8125"
"1573702918257","156","-0.18945312","-0.9746094","0.12402344","55.71875","-12.53125","45.15625"
"1573702918258","157","-0.24316406","-1.0791016","0.20410156","50.46875","-5.8125","28.5625"
"1573702918259","158","-0.21875","-1.0009766","0.19433594","27.21875","-12.28125","26.21875"
"1573702918259","159","-0.25390625","-0.99316406","0.21191406","18.46875","-30.28125","24.21875"
"1573702918457","160","-0.36621094","-0.9667969","0.32226562","28.71875","-14.90625","20.4375"
"1573702918458","161","-0.265625","-0.96875","0.31152344","15.0625","-22.15625","21.84375"
"1573702918458","162","-0.36132812","-0.94433594","0.36328125","13.21875","-3.1875","11.75"
"1573702918458","163","-0.3173828","-0.984375","0.3095703","15.5","0.34375","9.4375"
"1573702918458","164","-0.296875","-0.9404297","0.31835938","11.8125","0.46875","3.78125"
"1573702918459","165","-0.34960938","-0.9169922","0.3486328","9.125","0.09375","-1.40625"
"1573702918459","166","-0.3232422","-0.97558594","0.35546875","2.1875","7.625","-6.5"
"1573702918459","167","-0.3173828","-0.9824219","0.32617188","-1.34375","6.40625","-8.625"
"1573702918459","168","-0.2861328","-0.9472656","0.31347656","-9.53125","0.65625","-6.90625"
"1573702918460","169","-0.26660156","-0.9892578","0.28808594","-4.46875","4.0625","-9.21875"
"1573702918856","170","-0.27539062","-0.9628906","0.2626953","-6.3125","3.46875","-7.40625"
"1573702918856","171","-0.28320312","-0.9736328","0.26757812","-8.75","3.21875","-7.09375"
"1573702918856","172","-0.21972656","-0.9501953","0.24707031","-8.1875","4.6875","-10.5625"
"1573702918856","173","-0.22265625","-0.9589844","0.24316406","-12.28125","-1.1875","-12.46875"
"1573702918857","174","-0.21777344","-0.9375","0.24511719","-18.3125","-10.03125","-9.34375"
"1573702918857","175","-0.23046875","-0.95703125","0.21777344","-15.59375","-6.0625","-12.78125"
"1573702918857","176","-0.15917969","-0.9472656","0.171875","-14.78125","-4.28125","-14.59375"
"1573702918857","177","-0.16015625","-0.9785156","0.13574219","-8.0625","1.28125","-18.4375"
"1573702918858","178","-0.14941406","-0.94921875","0.16113281","-14.25","0.28125","-17.34375"
"1573702918858","179","-0.17382812","-0.93066406","0.13574219","-18.9375","0.71875","-17.78125"
"1573702919254","180","-0.095703125","-0.96484375","0.087890625","-23.40625","7.1875","-21.75"
"1573702919256","181","-0.06640625","-0.9482422","0.047851562","-24.75","3.53125","-22.15625"
"1573702919257","182","-0.0146484375","-0.97265625","-9.765625E-4","-17.46875","2.3125","-15.9375"
"1573702919257","183","-0.015625","-0.95996094","9.765625E-4","-16.3125","0.03125","-13.75"
"1573702919257","184","-0.06640625","-0.9667969","-0.016601562","-18.4375","4.0","-15.625"
"1573702919258","185","0.0","-1.0537109","-0.044921875","-10.5","2.71875","-13.5625"
"1573702919258","186","0.10253906","-1.0908203","-0.06542969","-26.03125","-0.3125","-21.4375"
"1573702919258","187","0.028320312","-1.0458984","-0.072265625","-14.96875","-12.71875","-12.46875"
"1573702919258","188","-0.049804688","-0.94140625","-0.08203125","-11.71875","-11.375","-4.59375"
"1573702919259","189","0.061523438","-0.96191406","-0.103515625","-10.21875","-0.8125","-7.875"
"1573702919651","190","0.09082031","-0.9736328","-0.115234375","-5.3125","-7.65625","-5.4375"
"1573702919652","191","0.026367188","-1.0087891","-0.109375","-5.6875","-8.6875","-1.59375"
"1573702919652","192","-9.765625E-4","-1.0429688","-0.11621094","-2.9375","-4.65625","-0.3125"
"1573702919654","193","0.020507812","-0.99902344","-0.10644531","-2.9375","-1.84375","2.78125"
"1573702919654","194","0.0146484375","-0.96972656","-0.111328125","-7.03125","-5.4375","0.71875"
"1573702919654","195","0.0126953125","-0.9824219","-0.12207031","-6.5","2.125","-3.25"
"1573702919655","196","0.020507812","-0.99316406","-0.14746094","-3.8125","3.03125","-1.34375"
"1573702919655","197","0.034179688","-0.9921875","-0.12890625","0.84375","4.9375","2.0625"
"1573702919655","198","0.01953125","-0.99121094","-0.111328125","-2.34375","3.34375","2.1875"
"1573702919655","199","0.028320312","-0.99609375","-0.12011719","1.875","5.34375","2.96875"
"1573702920047","200","0.013671875","-0.98339844","-0.13378906","8.21875","2.0","4.1875"
"1573702920048","201","0.028320312","-0.9707031","-0.12890625","-1.46875","3.21875","4.6875"
"1573702920048","202","0.041015625","-0.9921875","-0.11425781","7.5","4.375","9.75"
"1573702920048","203","0.00390625","-0.9658203","-0.1171875","9.75","-6.96875","11.59375"
"1573702920048","204","-0.005859375","-0.98535156","-0.103515625","12.8125","-4.28125","12.3125"
"1573702920049","205","-0.005859375","-0.98828125","-0.10839844","18.84375","-9.46875","13.84375"
"1573702920049","206","-0.037109375","-0.99121094","-0.07910156","20.84375","-11.375","15.84375"
"1573702920050","207","-0.044921875","-0.9824219","-0.052734375","24.65625","-12.90625","17.375"
"1573702920050","208","-0.07324219","-1.0","0.0048828125","18.0","-15.15625","15.5625"
"1573702920050","209","-0.061523438","-0.9785156","0.0087890625","15.4375","-15.21875","15.3125"
"1573702920451","210","-0.15917969","-0.9589844","0.030273438","19.5625","-23.40625","14.03125"
"1573702920451","211","-0.12890625","-0.9736328","0.06738281","40.34375","-13.0625","12.8125"
"1573702920452","212","-0.13671875","-0.97558594","0.11035156","47.34375","-11.625","21.09375"
"1573702920452","213","-0.13574219","-0.9589844","0.18457031","39.84375","-2.59375","25.5"
"1573702920452","214","-0.25","-0.9580078","0.2763672","24.40625","5.71875","28.5"
"1573702920452","215","-0.27441406","-1.0087891","0.3310547","32.21875","-6.4375","31.59375"
"1573702920453","216","-0.27734375","-0.99121094","0.35742188","42.03125","-22.90625","31.59375"
"1573702920454","217","-0.26171875","-0.9501953","0.3544922","29.09375","-10.9375","30.4375"
"1573702920454","218","-0.34765625","-0.93359375","0.390625","18.53125","13.65625","11.21875"
"1573702920455","219","-0.3046875","-0.92089844","0.4248047","5.53125","8.46875","4.625"
"1573702920844","220","-0.2939453","-0.90527344","0.41308594","4.0625","0.90625","5.0625"
"1573702920844","221","-0.31835938","-0.8935547","0.37597656","2.96875","5.21875","-5.375"
"1573702920844","222","-0.3359375","-0.9169922","0.40722656","-8.3125","-1.0625","-3.625"
"1573702920845","223","-0.31835938","-0.9511719","0.36914062","-6.5","1.4375","-7.15625"
"1573702920845","224","-0.3701172","-0.9472656","0.35839844","-6.4375","0.34375","-9.0625"
"1573702920845","225","-0.3203125","-0.9736328","0.34277344","-3.875","7.84375","-7.65625"
"1573702920845","226","-0.29589844","-0.92578125","0.32714844","-5.09375","9.1875","-11.5"
"1573702920846","227","-0.27441406","-0.9404297","0.3125","-6.1875","9.375","-9.65625"
"1573702920846","228","-0.27929688","-0.90625","0.28222656","-5.5625","8.96875","-10.6875"
"1573702920847","229","-0.2265625","-0.921875","0.27929688","-9.53125","5.125","-8.625"
"1573702921242","230","-0.23632812","-0.9404297","0.25097656","-4.78125","8.84375","-12.78125"
"1573702921242","231","-0.25195312","-0.94921875","0.24609375","-9.125","4.3125","-11.25"
"1573702921242","232","-0.22949219","-0.96484375","0.25195312","-9.0","6.875","-10.15625"
"1573702921243","233","-0.21289062","-0.9658203","0.23046875","-11.625","5.1875","-10.34375"
"1573702921243","234","-0.19042969","-0.9423828","0.19042969","-11.0","5.34375","-14.53125"
"1573702921243","235","-0.15917969","-0.92285156","0.16113281","-15.28125","-1.90625","-12.84375"
"1573702921243","236","-0.13964844","-0.93066406","0.13867188","-13.375","-1.90625","-12.53125"
"1573702921244","237","-0.10644531","-0.9453125","0.12695312","-12.65625","-3.1875","-12.84375"
"1573702921244","238","-0.12597656","-0.96972656","0.10449219","-11.625","-2.46875","-13.03125"
"1573702921244","239","-0.09375","-0.99902344","0.08300781","-12.15625","-4.03125","-13.9375"
"1573702921640","240","-0.103515625","-1.0078125","0.076171875","-16.625","-9.78125","-15.28125"
"1573702921642","241","-0.11621094","-0.97265625","0.0703125","-14.40625","-9.21875","-16.625"
"1573702921642","242","-0.060546875","-0.97558594","0.040039062","-11.3125","-6.71875","-11.6875"
"1573702921643","243","-0.032226562","-1.0234375","0.040039062","-11.625","-4.21875","-10.5625"
"1573702921643","244","-0.044921875","-0.99121094","0.01953125","-13.0625","-5.8125","-4.59375"
"1573702921643","245","-0.05859375","-0.98828125","0.0146484375","-8.5","-7.9375","1.6875"
"1573702921644","246","-0.08300781","-1.0","0.0048828125","-5.6875","-1.78125","2.59375"
"1573702921644","247","-0.048828125","-0.99121094","0.005859375","-4.34375","-0.25","1.28125"
"1573702921645","248","-0.022460938","-0.9863281","0.0029296875","0.84375","-1.0","1.8125"
"1573702921645","249","-0.060546875","-0.98535156","0.0","-0.5","-4.71875","-0.5625"
"1573702922035","250","-0.052734375","-1.0068359","0.0048828125","0.96875","2.78125","-1.53125"
"1573702922036","251","-0.030273438","-0.9951172","0.00390625","-0.6875","0.0","-1.53125"
"1573702922036","252","-0.026367188","-0.9941406","0.0","-0.1875","-0.125","-1.0"
"1573702922037","253","-0.04296875","-0.9941406","-0.0068359375","0.84375","-4.28125","-1.0"
"1573702922038","254","-0.047851562","-1.0039062","0.0029296875","-4.96875","-0.625","-1.53125"
"1573702922038","255","-0.041992188","-1.0029297","-9.765625E-4","-1.90625","-0.5","-1.59375"
"1573702922038","256","-0.07714844","-0.95996094","-0.0068359375","-5.3125","0.46875","-6.5"
"1573702922039","257","-0.016601562","-1.0097656","-0.005859375","-5.03125","6.8125","0.53125"
"1573702922039","258","0.017578125","-1.0107422","0.0068359375","-9.28125","1.375","0.78125"
"1573702922039","259","-0.05078125","-0.96875","-0.013671875","-12.09375","-11.125","2.4375"
"1573702922433","260","-0.08496094","-0.9707031","-0.033203125","3.15625","-9.15625","7.125"
"1573702922434","261","-0.046875","-0.99316406","-0.021484375","11.71875","-8.4375","6.8125"
"1573702922435","262","-0.09863281","-0.96777344","0.01171875","8.34375","-11.0625","2.5"
"1573702922435","263","-0.083984375","-0.9951172","0.0068359375","11.65625","-2.34375","3.71875"
"1573702922435","264","-0.12988281","-1.0166016","0.01953125","12.125","-3.5625","8.71875"
"1573702922435","265","-0.1171875","-0.97558594","0.045898438","14.3125","1.03125","11.21875"
"1573702922436","266","-0.12597656","-1.0058594","0.05078125","26.71875","7.625","16.03125"
"1573702922436","267","-0.13378906","-0.96972656","0.08496094","24.09375","8.96875","16.21875"
"1573702922436","268","-0.15722656","-0.95214844","0.1015625","26.03125","19.21875","20.8125"
"1573702922437","269","-0.18847656","-0.9589844","0.15332031","27.15625","19.6875","20.0625"
"1573702922831","270","-0.21777344","-0.9472656","0.22265625","30.25","10.84375","22.09375"
"1573702922831","271","-0.1796875","-0.9355469","0.20117188","31.84375","11.8125","22.5"
"1573702922832","272","-0.23828125","-0.95996094","0.26757812","24.28125","-8.4375","25.0"
"1573702922832","273","-0.3330078","-0.9189453","0.30371094","22.1875","-13.5625","20.375"
"1573702922832","274","-0.27246094","-0.9404297","0.32714844","21.90625","-6.3125","18.28125"
"1573702922832","275","-0.28125","-0.9501953","0.32128906","16.28125","-11.90625","14.625"
"1573702922833","276","-0.33203125","-0.94433594","0.36621094","10.0625","-2.53125","8.21875"
"1573702922833","277","-0.33496094","-0.96875","0.38183594","4.125","-12.21875","7.8125"
"1573702922833","278","-0.3359375","-0.9140625","0.37402344","7.84375","-5.8125","1.375"
"1573702922833","279","-0.38183594","-0.8964844","0.39257812","-2.875","-5.5","-1.71875"
"1573702923229","280","-0.3095703","-0.92285156","0.3466797","-2.6875","-0.875","-6.71875"
"1573702923229","281","-0.3359375","-0.8935547","0.3779297","-5.5","-0.6875","-10.6875"
"1573702923230","282","-0.328125","-0.92285156","0.34277344","-7.875","1.9375","-10.75"
"1573702923230","283","-0.3251953","-0.9511719","0.37402344","-6.96875","6.34375","-9.125"
"1573702923230","284","-0.328125","-0.9404297","0.31347656","-4.03125","7.90625","-9.53125"
"1573702923230","285","-0.33398438","-0.92871094","0.33789062","-3.3125","9.75","-10.625"
"1573702923231","286","-0.3017578","-0.91308594","0.32617188","-7.9375","6.09375","-6.5"
"1573702923231","287","-0.24414062","-0.9326172","0.2763672","-8.3125","2.96875","-7.34375"
"1573702923231","288","-0.25683594","-0.93847656","0.2421875","-9.28125","2.0","-10.28125"
"1573702923232","289","-0.21777344","-0.9433594","0.23535156","-6.53125","3.03125","-12.03125"
"1573702923626","290","-0.22753906","-0.90625","0.234375","-11.0","-1.84375","-14.125"
"1573702923627","291","-0.21582031","-0.94433594","0.22949219","-10.625","-0.6875","-12.15625"
"1573702923627","292","-0.17773438","-0.95214844","0.18945312","-11.90625","-3.25","-10.5"
"1573702923627","293","-0.15820312","-0.9580078","0.15527344","-10.03125","-7.65625","-8.125"
"1573702923628","294","-0.19335938","-0.9375","0.13769531","-13.375","-9.53125","-6.59375"
"1573702923628","295","-0.15527344","-0.96191406","0.11621094","-14.3125","-2.8125","-7.09375"
"1573702923628","296","-0.17089844","-0.9609375","0.06738281","-6.96875","-6.0625","-9.40625"
"1573702923628","297","-0.15332031","-0.97265625","0.13476562","-15.03125","-1.59375","-12.03125"
"1573702923628","298","-0.1015625","-0.99609375","0.10839844","-9.65625","1.03125","-11.4375"
"1573702923629","299","-0.12402344","-0.96972656","0.109375","-10.875","1.15625","-11.3125"
"1573702924024","300","-0.091796875","-0.953125","0.08105469","-9.125","-4.78125","-10.5"
"1573702924024","301","-0.08886719","-0.98046875","0.057617188","-4.09375","-21.3125","-6.1875"
"1573702924024","302","-0.049804688","-0.99316406","0.064453125","-9.125","-13.625","-4.53125"
"1573702924025","303","-0.0625","-1.0273438","0.048828125","-3.625","-16.0625","-1.25"
"1573702924025","304","-0.13574219","-0.9785156","0.07324219","-1.53125","-10.4375","-3.75"
"1573702924025","305","-0.055664062","-0.9873047","0.048828125","4.875","-9.34375","-0.8125"
"1573702924026","306","-0.051757812","-0.9658203","0.055664062","-0.0625","-12.65625","-1.65625"
"1573702924026","307","-0.076171875","-0.9746094","0.06542969","0.0","-12.28125","-3.6875"
"1573702924026","308","-0.068359375","-1.0019531","0.053710938","3.15625","-7.28125","-3.1875"
"1573702924026","309","-0.072265625","-0.99316406","0.057617188","0.21875","-7.09375","-0.125"
"1573702924420","310","-0.055664062","-1.0117188","0.078125","4.0","-7.03125","2.4375"
"1573702924420","311","-0.078125","-0.9785156","0.078125","-4.71875","-6.0","0.84375"
"1573702924421","312","-0.07910156","-1.0048828","0.07128906","1.6875","-5.5625","3.71875"
"1573702924422","313","-0.087890625","-0.9765625","0.08984375","-5.5","-3.5625","1.6875"
"1573702924422","314","-0.064453125","-0.98828125","0.0703125","-2.28125","-1.0625","1.15625"
"1573702924422","315","-0.06542969","-0.98828125","0.08300781","2.0","-3.0","3.40625"
"1573702924422","316","-0.083984375","-0.9736328","0.08984375","3.21875","-4.84375","2.96875"
"1573702924423","317","-0.08300781","-0.9736328","0.07421875","5.46875","-1.90625","3.65625"
"1573702924423","318","-0.08105469","-0.97753906","0.09277344","4.5625","-0.875","2.78125"
"1573702924423","319","-0.064453125","-0.95996094","0.08886719","6.09375","-3.90625","6.21875"
"1573702924819","320","-0.09472656","-0.9785156","0.10546875","6.625","-1.25","4.875"
"1573702924819","321","-0.091796875","-0.9765625","0.1015625","11.875","-7.34375","8.90625"
"1573702924820","322","-0.13769531","-0.97265625","0.13769531","9.09375","-0.5625","7.0"
"1573702924820","323","-0.099609375","-0.97558594","0.087890625","18.125","-5.15625","9.125"
"1573702924820","324","-0.15136719","-0.9511719","0.17675781","0.46875","0.28125","5.0625"
"1573702924821","325","-0.12402344","-0.99316406","0.119140625","16.9375","-1.96875","6.6875"
"1573702924822","326","-0.17089844","-0.9609375","0.16992188","5.34375","7.5625","3.9375"
"1573702924822","327","-0.13183594","-0.96777344","0.15722656","6.28125","11.09375","2.90625"
"1573702924822","328","-0.19824219","-0.9873047","0.18457031","-1.96875","19.5625","2.59375"
"1573702924823","329","-0.171875","-0.94433594","0.15136719","-5.03125","22.6875","1.09375"
"1573702925216","330","-0.14941406","-0.95703125","0.23242188","-6.84375","13.46875","15.65625"
"1573702925217","331","-0.22363281","-0.9970703","0.20800781","-5.4375","-19.84375","13.0"
"1573702925217","332","-0.24316406","-0.96484375","0.19238281","3.03125","-14.46875","8.46875"
"1573702925217","333","-0.23535156","-0.9892578","0.2109375","3.34375","-3.875","3.9375"
"1573702925218","334","-0.23144531","-0.97265625","0.22460938","4.6875","-4.84375","4.9375"
"1573702925218","335","-0.24023438","-0.98828125","0.2626953","3.34375","-3.625","3.40625"
"1573702925218","336","-0.25390625","-0.9169922","0.23535156","3.28125","-2.8125","2.84375"
"1573702925219","337","-0.23535156","-0.95996094","0.2783203","2.78125","-8.25","3.65625"
"1573702925220","338","-0.28808594","-0.9404297","0.27734375","0.15625","-2.34375","-1.40625"
"1573702925220","339","-0.25195312","-0.99316406","0.28222656","1.4375","-1.125","0.96875"
"1573702925614","340","-0.28222656","-0.9716797","0.3125","0.09375","3.9375","-3.0625"
"1573702925615","341","-0.25878906","-0.9794922","0.28515625","-4.40625","4.125","-1.71875"
"1573702925615","342","-0.24804688","-0.9746094","0.26757812","-4.46875","0.84375","0.21875"
"1573702925615","343","-0.28710938","-0.9628906","0.2861328","-2.875","4.5","-2.875"
"1573702925615","344","-0.26660156","-0.9814453","0.26660156","-0.6875","5.125","-2.03125"
"1573702925615","345","-0.26660156","-0.9589844","0.2685547","-3.125","5.40625","-4.46875"
"1573702925616","346","-0.26757812","-0.9609375","0.24804688","-4.65625","8.65625","-5.4375"
"1573702925616","347","-0.25683594","-0.9746094","0.234375","-2.625","12.0","-4.90625"
"1573702925616","348","-0.22070312","-0.9550781","0.22265625","-5.5","7.8125","-3.4375"
"1573702925618","349","-0.22851562","-0.96191406","0.22363281","-5.8125","10.125","-4.40625"
"1573702926011","350","-0.22265625","-0.95214844","0.15429688","0.0","5.0","-4.15625"
"1573702926012","351","-0.21679688","-0.95996094","0.20605469","-6.5","5.96875","-4.15625"
"1573702926012","352","-0.19921875","-0.95703125","0.14941406","0.21875","5.71875","-6.0625"
"1573702926012","353","-0.18652344","-0.97265625","0.14257812","-3.3125","1.03125","-4.78125"
"1573702926012","354","-0.13964844","-0.9716797","0.12792969","-8.5625","-4.84375","-2.625"
"1573702926013","355","-0.19824219","-0.9316406","0.09765625","-5.15625","-9.125","-6.96875"
"1573702926013","356","-0.18457031","-0.96972656","0.09765625","-7.34375","-8.875","-9.65625"
"1573702926013","357","-0.19042969","-0.9628906","0.09863281","-5.875","-10.8125","-12.53125"
"1573702926013","358","-0.14257812","-0.98535156","0.072265625","-4.40625","-10.9375","-11.96875"
"1573702926014","359","-0.19042969","-1.0019531","0.034179688","-2.28125","-11.0","-12.96875"
"1573702926408","360","-0.13085938","-0.9921875","0.06933594","-9.71875","3.90625","-9.59375"
"1573702926409","361","-0.06640625","-0.95996094","0.053710938","-8.6875","5.96875","-8.25"
"1573702926409","362","-0.07910156","-0.9658203","0.048828125","-6.0625","1.8125","-8.25"
"1573702926409","363","-0.08105469","-1.0097656","0.046875","-9.0625","1.8125","-7.40625"
"1573702926410","364","-0.0703125","-1.0039062","0.009765625","-5.625","3.84375","-8.0625"
"1573702926410","365","-0.038085938","-1.0048828","0.06640625","-10.5625","3.53125","-4.34375"
"1573702926410","366","-0.03125","-0.9941406","0.015625","-5.15625","-3.1875","-3.5625"
"1573702926411","367","-0.06738281","-0.98828125","0.015625","-9.21875","-8.25","-3.625"
"1573702926411","368","-0.06347656","-0.9873047","0.009765625","-5.5625","-6.53125","-3.625"
"1573702926411","369","-0.05078125","-1.0009766","-0.0068359375","1.625","-8.75","-2.15625"
"1573702926806","370","-0.0546875","-0.9794922","0.015625","-2.21875","-5.3125","-2.21875"
"1573702926807","371","-0.06347656","-0.9970703","0.009765625","3.21875","-5.5625","-1.65625"
"1573702926807","372","-0.083984375","-0.9980469","0.0146484375","3.40625","-3.4375","-1.59375"
"1573702926809","373","-0.061523438","-1.0097656","0.026367188","5.125","2.1875","-0.0625"
"1573702926809","374","-0.060546875","-0.99316406","0.02734375","1.625","2.25","-0.125"
"1573702926809","375","-0.041992188","-0.9892578","0.0146484375","2.84375","2.96875","0.90625"
"1573702926809","376","-0.068359375","-0.99316406","0.032226562","-2.15625","2.96875","-0.5625"
"1573702926810","377","-0.057617188","-1.0087891","0.028320312","-5.9375","7.3125","-0.5625"
"1573702926810","378","-0.057617188","-1.0019531","0.0068359375","1.9375","0.65625","-0.9375"
"1573702926810","379","-0.06542969","-0.98339844","0.021484375","-5.25","-0.125","-0.5625"
"1573702927204","380","-0.061523438","-1.0087891","0.03125","2.59375","0.71875","-0.1875"
"1573702927204","381","-0.056640625","-0.99609375","0.016601562","2.0625","-3.125","3.15625"
"1573702927205","382","-0.06640625","-0.98339844","0.028320312","0.28125","-4.96875","5.0"
"1573702927205","383","-0.087890625","-0.97753906","0.030273438","3.09375","-2.28125","4.4375"
"1573702927205","384","-0.08203125","-0.9921875","0.041015625","7.84375","-4.84375","10.96875"
"1573702927205","385","-0.11328125","-0.9667969","0.04296875","6.5625","-6.0","10.40625"
"1573702927206","386","-0.12695312","-0.9941406","0.046875","11.34375","1.875","10.46875"
"1573702927206","387","-0.109375","-0.98535156","0.055664062","7.125","0.90625","9.625"
"1573702927207","388","-0.109375","-0.96484375","0.05078125","13.34375","-0.3125","11.53125"
"1573702927207","389","-0.16699219","-0.9765625","0.06347656","9.3125","1.09375","7.0625"
"1573702927601","390","-0.13574219","-0.9892578","0.053710938","16.03125","8.96875","8.03125"
"1573702927602","391","-0.16796875","-0.9277344","0.08984375","9.5","16.15625","3.34375"
"1573702927602","392","-0.11621094","-0.95410156","0.09375","11.9375","21.65625","9.625"
"1573702927602","393","-0.19824219","-0.9863281","0.10839844","15.25","19.09375","12.0"
"1573702927603","394","-0.15820312","-0.98828125","0.12695312","23.25","4.6875","16.53125"
"1573702927603","395","-0.22851562","-0.9794922","0.18261719","18.0","3.9375","13.53125"
"1573702927603","396","-0.18652344","-0.9970703","0.1953125","12.0625","0.84375","8.84375"
"1573702927605","397","-0.2783203","-0.95996094","0.2109375","5.21875","-8.0","9.8125"
"1573702927605","398","-0.29296875","-0.9345703","0.21679688","2.5625","-16.25","9.875"
"1573702927605","399","-0.25683594","-0.9453125","0.23632812","7.75","-12.40625","9.03125"
"1573702927997","400","-0.27441406","-0.9658203","0.24511719","3.40625","-9.71875","7.375"
"1573702927998","401","-0.265625","-0.9746094","0.24121094","-3.0625","-15.15625","5.21875"
"1573702927998","402","-0.33398438","-0.95996094","0.2529297","1.4375","-11.0","0.65625"
"1573702927998","403","-0.3154297","-0.9794922","0.25976562","4.8125","3.59375","-2.59375"
"1573702927999","404","-0.2763672","-0.94140625","0.28125","0.84375","-1.3125","-0.25"
"1573702927999","405","-0.2919922","-0.9453125","0.28515625","-1.96875","-2.28125","0.90625"
"1573702928000","406","-0.29785156","-0.95703125","0.2548828","1.5","8.40625","-4.46875"
"1573702928000","407","-0.27929688","-0.9404297","0.2578125","-2.8125","4.3125","-0.75"
"1573702928000","408","-0.26757812","-0.94628906","0.265625","0.21875","0.03125","1.4375"
"1573702928001","409","-0.3095703","-0.96875","0.2578125","0.84375","4.0","-3.3125"
"1573702928395","410","-0.29882812","-0.9609375","0.24804688","-3.25","1.9375","-3.25"
"1573702928396","411","-0.24316406","-0.9716797","0.24414062","-4.09375","4.875","-6.0"
"1573702928396","412","-0.265625","-0.97558594","0.23339844","-4.96875","0.59375","-6.1875"
"1573702928396","413","-0.2919922","-0.95703125","0.22558594","-2.53125","6.09375","-5.09375"
"1573702928396","414","-0.22558594","-0.95996094","0.20117188","-1.96875","6.40625","-4.59375"
"1573702928397","415","-0.24316406","-0.9199219","0.19238281","-5.03125","2.5625","-6.125"
"1573702928397","416","-0.22167969","-0.94433594","0.1953125","-5.21875","5.0","-6.5"
"1573702928397","417","-0.21582031","-0.96484375","0.17382812","-5.25","0.78125","-8.5"
"1573702928397","418","-0.20898438","-0.96191406","0.18554688","-6.125","3.90625","-9.71875"
"1573702928398","419","-0.21484375","-0.9511719","0.14746094","-6.4375","-1.71875","-11.25"
"1573702928794","420","-0.24121094","-0.98828125","0.18652344","-3.75","7.625","-12.84375"
"1573702928796","421","-0.15039062","-0.95703125","0.15625","-8.875","6.09375","-8.5625"
"1573702928796","422","-0.15136719","-0.9472656","0.119140625","-5.8125","4.0625","-11.5625"
"1573702928796","423","-0.13476562","-0.96972656","0.08691406","-4.78125","-1.53125","-7.40625"
"1573702928797","424","-0.16796875","-0.9707031","0.09082031","-0.9375","-1.34375","-8.375"
"1573702928797","425","-0.11621094","-0.99121094","0.078125","2.5625","-6.90625","-7.40625"
"1573702928797","426","-0.12988281","-0.96972656","0.095703125","2.90625","-15.625","-7.65625"
"1573702928797","427","-0.07128906","-0.9765625","0.046875","7.96875","-23.03125","-5.4375"
"1573702928798","428","-0.06347656","-0.98828125","0.078125","10.0625","-27.1875","0.03125"
"1573702928798","429","-0.09667969","-0.9472656","0.095703125","13.0","-16.6875","-0.875"
"1573702929191","430","-0.12988281","-1.0175781","0.115234375","4.25","-9.0625","-8.25"
"1573702929192","431","-0.10253906","-1.0507812","0.10058594","-1.59375","-13.3125","-4.28125"
"1573702929192","432","-0.13085938","-0.9375","0.13867188","-8.125","-7.875","-4.78125"
"1573702929194","433","-0.07519531","-0.9941406","0.06933594","0.09375","-9.21875","-5.25"
"1573702929194","434","-0.076171875","-0.9785156","0.068359375","-6.375","-8.125","0.15625"
"1573702929194","435","-0.057617188","-0.9433594","0.07519531","1.09375","-5.21875","-3.0"
"1573702929196","436","-0.07519531","-0.98535156","0.09667969","4.5","-1.90625","-0.125"
"1573702929196","437","-0.06640625","-0.99121094","0.09472656","3.46875","-0.6875","-1.0625"
"1573702929196","438","-0.05078125","-0.9794922","0.08984375","0.0","-1.0","-1.0"
"1573702929197","439","-0.08105469","-0.9863281","0.09765625","-0.125","-3.875","-0.75"
"1573702929589","440","-0.07324219","-0.9941406","0.09375","1.875","-0.8125","-1.65625"
"1573702929589","441","-0.052734375","-0.9921875","0.091796875","-4.96875","-2.875","0.03125"
"1573702929590","442","-0.052734375","-0.9667969","0.08691406","-6.375","-1.40625","0.15625"
"1573702929590","443","-0.07519531","-1.0126953","0.091796875","-6.84375","-1.46875","-0.3125"
"1573702929590","444","-0.09863281","-0.98535156","0.09082031","-6.71875","-1.65625","-1.34375"
"1573702929592","445","-0.109375","-0.9589844","0.076171875","-9.78125","2.5","-5.375"
"1573702929592","446","-0.06738281","-0.99121094","0.07910156","11.59375","6.875","-3.125"
"1573702929592","447","-0.076171875","-0.99316406","0.10253906","10.71875","1.8125","2.59375"
"1573702929593","448","-0.055664062","-0.9550781","0.09472656","6.03125","5.65625","3.09375"
"1573702929593","449","-0.07324219","-0.97753906","0.08691406","11.40625","-5.5","10.59375"
"1573702929985","450","-0.1015625","-0.9423828","0.119140625","10.65625","0.71875","9.3125"
"1573702929985","451","-0.0859375","-0.97558594","0.12597656","16.65625","-3.90625","13.09375"
"1573702929986","452","-0.13671875","-0.9472656","0.14941406","15.0","0.78125","11.15625"
"1573702929986","453","-0.13378906","-0.97265625","0.16210938","13.71875","-0.6875","11.875"
"1573702929986","454","-0.20410156","-0.9765625","0.20996094","10.375","7.625","8.34375"
"1573702929986","455","-0.18457031","-0.9638672","0.18847656","4.625","14.4375","4.125"
"1573702929987","456","-0.20703125","-0.96875","0.21582031","0.28125","21.90625","5.1875"
"1573702929988","457","-0.1640625","-0.96484375","0.23144531","5.84375","14.9375","6.75"
"1573702929988","458","-0.19042969","-0.9375","0.20605469","9.1875","6.5625","12.3125"
"1573702929988","459","-0.1875","-0.9375","0.20800781","13.84375","14.375","15.125"
"1573702930384","460","-0.20898438","-0.99121094","0.2548828","6.6875","7.5625","22.5625"
"1573702930384","461","-0.2548828","-0.94433594","0.2578125","-1.3125","-3.25","16.84375"
"1573702930385","462","-0.28808594","-0.95703125","0.2548828","7.0625","-5.4375","12.8125"
"1573702930385","463","-0.2890625","-0.9404297","0.27539062","10.0","-12.09375","9.125"
"1573702930385","464","-0.2919922","-0.93847656","0.328125","10.96875","-19.78125","11.9375"
"1573702930385","465","-0.33496094","-0.9355469","0.34472656","9.125","-11.6875","6.21875"
"1573702930386","466","-0.32128906","-0.9189453","0.33984375","7.25","0.03125","4.5"
"1573702930386","467","-0.32714844","-0.91503906","0.3486328","-0.3125","-7.34375","7.25"
"1573702930386","468","-0.32421875","-0.9267578","0.32128906","4.25","2.84375","-2.15625"
"1573702930387","469","-0.3388672","-0.9375","0.3203125","-3.5","7.75","-6.25"
"1573702930980","470","-0.3388672","-0.95703125","0.3798828","-3.4375","2.1875","-2.75"
"1573702930981","471","-0.2861328","-0.9511719","0.30859375","-0.5","7.3125","-8.25"
"1573702930981","472","-0.30664062","-0.9746094","0.3203125","-6.125","4.5","-7.40625"
"1573702930981","473","-0.29492188","-0.92285156","0.3046875","-8.3125","2.125","-7.78125"
"1573702930981","474","-0.27929688","-0.92285156","0.29785156","-11.0625","8.09375","-12.46875"
"1573702930982","475","-0.2578125","-0.9355469","0.28027344","-11.6875","7.5","-11.5625"
"1573702930982","476","-0.23925781","-0.9267578","0.24804688","-10.34375","1.21875","-12.21875"
"1573702930982","477","-0.22460938","-0.94921875","0.22949219","-7.15625","-0.5625","-11.3125"
"1573702930983","478","-0.24023438","-0.95996094","0.25","-5.625","-5.4375","-9.15625"
"1573702930983","479","-0.25585938","-0.95410156","0.24121094","-7.34375","-4.90625","-12.59375"
"1573702931179","480","-0.22265625","-0.9638672","0.22167969","-13.03125","-3.75","-9.84375"
"1573702931180","481","-0.20214844","-0.9658203","0.19433594","-12.28125","-1.3125","-12.21875"
"1573702931181","482","-0.16015625","-0.9472656","0.16992188","-11.25","-1.96875","-11.5625"
"1573702931181","483","-0.15332031","-0.96972656","0.15527344","-9.28125","-2.15625","-10.625"
"1573702931181","484","-0.14550781","-0.95703125","0.10839844","-2.8125","-7.09375","-11.5625"
"1573702931182","485","-0.087890625","-0.95410156","0.11230469","-8.9375","-3.0625","-13.5"
"1573702931182","486","-0.06640625","-0.9794922","0.08886719","-3.5","-6.53125","-13.8125"
"1573702931182","487","-0.078125","-0.9658203","0.08691406","-3.75","-15.34375","-9.96875"
"1573702931183","488","-0.05859375","-0.96972656","0.099609375","-8.625","-13.5625","-8.75"
"1573702931183","489","-0.078125","-0.9951172","0.07910156","-3.90625","-20.65625","-7.875"
"1573702931576","490","-0.07421875","-0.98046875","0.08105469","-11.0625","-17.71875","-8.125"
"1573702931577","491","-0.08300781","-0.9941406","0.0546875","-8.4375","-15.9375","-7.46875"
"1573702931577","492","-0.051757812","-0.99609375","0.0546875","-7.21875","-12.34375","-6.90625"
"1573702931578","493","-0.07324219","-0.98535156","0.061523438","-7.34375","-10.28125","-6.4375"
"1573702931579","494","-0.07910156","-0.9794922","0.049804688","-5.75","-6.53125","-7.46875"
"1573702931579","495","-0.036132812","-0.9873047","0.034179688","-1.40625","1.28125","-3.6875"
"1573702931579","496","-0.026367188","-0.9873047","0.04296875","-3.25","-2.03125","-0.25"
"1573702931580","497","-0.0546875","-0.98828125","0.053710938","-4.90625","2.4375","-1.125"
"1573702931580","498","-0.017578125","-0.99121094","0.037109375","-0.875","1.8125","0.96875"
"1573702931580","499","-0.0234375","-0.98535156","0.026367188","2.375","-3.8125","2.4375"
"1573702931972","500","-0.036132812","-1.0019531","0.04296875","1.15625","-2.8125","1.8125"
"1573702931973","501","-0.055664062","-1.0039062","0.056640625","4.5","-4.78125","-0.25"
"1573702931973","502","-0.04296875","-0.9628906","0.041015625","-4.65625","-4.03125","-0.125"
"1573702931973","503","-0.053710938","-1.0078125","0.047851562","1.625","-2.03125","1.75"
"1573702931973","504","-0.060546875","-0.9765625","0.046875","-0.4375","-6.53125","2.84375"
"1573702931974","505","-0.045898438","-0.9951172","0.0546875","1.875","-2.28125","6.40625"
"1573702931974","506","-0.08691406","-0.9824219","0.0625","1.3125","-2.875","4.0"
"1573702931974","507","-0.05859375","-0.9736328","0.051757812","8.09375","2.59375","6.21875"
"1573702931975","508","-0.08105469","-0.9814453","0.06347656","13.15625","-6.375","6.34375"
"1573702931975","509","-0.10253906","-0.96875","0.09863281","13.46875","0.28125","3.65625"
"1573702932370","510","-0.07714844","-0.9814453","0.09375","18.53125","-2.625","7.625"
"1573702932371","511","-0.13769531","-0.97753906","0.12695312","13.46875","3.9375","5.0625"
"1573702932371","512","-0.076171875","-0.97558594","0.11621094","14.5625","5.59375","10.53125"
"1573702932371","513","-0.13476562","-0.9580078","0.1640625","12.5","7.625","11.8125"
"1573702932371","514","-0.11328125","-0.95703125","0.13574219","19.34375","3.90625","13.09375"
"1573702932372","515","-0.16503906","-0.9707031","0.20214844","13.96875","6.8125","15.125"
"1573702932372","516","-0.14941406","-0.9902344","0.20410156","16.40625","9.4375","14.15625"
"1573702932372","517","-0.16601562","-0.9707031","0.1875","7.8125","1.75","15.84375"
"1573702932373","518","-0.17578125","-0.9042969","0.26367188","1.03125","-8.4375","22.25"
"1573702932373","519","-0.21972656","-0.9355469","0.20703125","11.875","-6.84375","23.25"
"1573702932769","520","-0.24609375","-0.984375","0.26171875","8.96875","-6.65625","14.9375"
"1573702932769","521","-0.2421875","-0.9404297","0.3095703","7.1875","-22.96875","16.84375"
"1573702932770","522","-0.27539062","-0.9902344","0.29003906","10.0","-15.28125","10.125"
"1573702932770","523","-0.31054688","-0.93359375","0.31347656","1.5625","-15.15625","5.96875"
"1573702932770","524","-0.2548828","-0.9794922","0.32128906","3.78125","-8.3125","5.21875"
"1573702932770","525","-0.30371094","-0.9121094","0.34960938","-2.875","-7.9375","-1.71875"
"1573702932771","526","-0.28710938","-0.94140625","0.3623047","-3.8125","-10.5","0.0"
"1573702932771","527","-0.26660156","-0.93066406","0.33398438","0.15625","-4.15625","-3.96875"
"1573702932771","528","-0.2626953","-0.94140625","0.33496094","-2.875","-3.4375","-6.3125"
"1573702932772","529","-0.30566406","-0.9316406","0.35742188","-2.59375","0.15625","-8.0"
"1573702933166","530","-0.24511719","-0.93066406","0.34472656","-2.9375","-1.65625","-4.46875"
"1573702933167","531","-0.29785156","-0.9394531","0.34472656","-5.25","0.71875","-7.78125"
"1573702933167","532","-0.29003906","-0.95996094","0.33691406","-6.125","1.3125","-4.53125"
"1573702933167","533","-0.25195312","-0.9667969","0.2734375","2.125","4.375","-5.875"
"1573702933168","534","-0.26660156","-0.9404297","0.33496094","-7.15625","0.53125","-5.03125"
"1573702933168","535","-0.28515625","-0.97265625","0.30273438","-0.625","2.65625","-6.25"
"1573702933168","536","-0.24804688","-0.94921875","0.30273438","-3.875","5.0","-5.25"
"1573702933169","537","-0.23925781","-0.92089844","0.29296875","-9.125","4.4375","-6.53125"
"1573702933169","538","-0.24316406","-0.9423828","0.27148438","-10.5625","1.6875","-6.96875"
"1573702933169","539","-0.20703125","-0.9433594","0.2529297","-17.15625","1.09375","-4.59375"
"1573702933564","540","-0.19042969","-0.9628906","0.23925781","-15.59375","6.5","-7.71875"
"1573702933564","541","-0.1953125","-0.9501953","0.18066406","-14.125","0.78125","-5.875"
"1573702933564","542","-0.18457031","-0.96191406","0.15429688","-6.53125","5.65625","-6.78125"
"1573702933565","543","-0.1484375","-0.9482422","0.12792969","-1.90625","9.1875","-8.75"
"1573702933565","544","-0.15039062","-0.9560547","0.14355469","-0.875","15.3125","-14.0625"
"1573702933565","545","-0.09375","-0.96191406","0.123046875","-3.25","10.1875","-11.375"
"1573702933565","546","-0.12792969","-0.9716797","0.11035156","-7.65625","5.0","-11.71875"
"1573702933566","547","-0.10058594","-0.9824219","0.11328125","-10.40625","7.90625","-11.84375"
"1573702933566","548","-0.060546875","-0.99316406","0.091796875","-10.5","-0.0625","-8.625"
"1573702933566","549","-0.06738281","-0.9667969","0.045898438","-5.5625","-4.21875","-9.0625"
"1573702933961","550","-0.068359375","-0.97558594","0.08886719","-15.9375","-8.9375","-8.0"
"1573702933962","551","-0.0390625","-0.9746094","0.046875","-10.4375","-6.84375","-8.375"
"1573702933962","552","-0.09082031","-0.9814453","0.045898438","-19.375","-7.8125","-8.5625"
"1573702933963","553","-0.0859375","-0.98828125","0.02734375","-19.84375","-1.46875","-6.65625"
"1573702933963","554","-0.037109375","-0.99902344","-0.0048828125","-7.875","-2.9375","-3.4375"
"1573702933963","555","-0.091796875","-0.9716797","0.0126953125","-9.21875","-7.40625","-1.0625"
"1573702933964","556","-0.11621094","-0.9873047","0.013671875","-4.34375","0.0","-4.96875"
"1573702933964","557","-0.07714844","-1.0205078","0.0068359375","-1.0","5.0","-1.96875"
"1573702933964","558","-0.07324219","-1.0244141","0.025390625","-2.28125","2.375","-0.5625"
"1573702933964","559","-0.09863281","-0.9921875","0.026367188","-7.65625","2.0625","-1.1875"
"1573702934359","560","-0.095703125","-0.9814453","0.0107421875","-5.5625","6.34375","-2.21875"
"1573702934359","561","-0.055664062","-0.9902344","-0.0107421875","-5.6875","7.125","-1.0"
"1573702934360","562","-0.033203125","-0.9951172","-0.018554688","0.40625","2.1875","3.65625"
"1573702934360","563","-0.057617188","-0.99316406","0.0029296875","-3.25","-1.65625","7.4375"
"1573702934360","564","-0.09765625","-0.984375","-0.0087890625","1.4375","0.0","4.4375"
"1573702934362","565","-0.078125","-0.96191406","-0.032226562","1.5625","-2.15625","2.25"
"1573702934362","566","-0.068359375","-1.0195312","0.01171875","4.875","0.21875","3.71875"
"1573702934362","567","-0.051757812","-0.9902344","-9.765625E-4","3.34375","-1.3125","5.0"
"1573702934362","568","-0.09667969","-0.96972656","-0.013671875","3.46875","-5.09375","4.6875"
"1573702934363","569","-0.076171875","-0.9736328","-0.0048828125","5.40625","-3.5625","5.84375"
"1573702934756","570","-0.09863281","-0.98046875","0.001953125","11.15625","-0.75","6.40625"
"1573702934756","571","-0.078125","-0.9716797","0.001953125","11.71875","-1.3125","10.375"
"1573702934757","572","-0.115234375","-0.97265625","0.033203125","19.09375","-0.875","12.6875"
"1573702934757","573","-0.15136719","-0.97753906","0.045898438","18.0","4.875","11.03125"
"1573702934757","574","-0.10644531","-0.9873047","0.0703125","23.4375","12.25","16.90625"
"1573702934757","575","-0.15625","-0.96875","0.08984375","13.78125","3.03125","11.53125"
"1573702934757","576","-0.16601562","-0.9375","0.09375","18.1875","6.75","13.90625"
"1573702934759","577","-0.18457031","-0.98046875","0.12988281","18.96875","3.09375","9.875"
"1573702934759","578","-0.17578125","-0.96484375","0.12695312","22.25","-1.34375","12.6875"
"1573702934760","579","-0.24609375","-0.93652344","0.17578125","17.9375","6.15625","13.0"
"1573702935153","580","-0.23339844","-0.9873047","0.18164062","21.03125","-0.75","18.28125"
"1573702935154","581","-0.3095703","-0.91015625","0.2734375","6.625","12.5625","11.9375"
"1573702935154","582","-0.23144531","-0.953125","0.18652344","6.15625","-7.28125","23.59375"
"1573702935155","583","-0.2939453","-1.0087891","0.29882812","15.375","-6.125","16.40625"
"1573702935155","584","-0.33203125","-0.890625","0.25683594","4.3125","-24.5625","11.9375"
"1573702935155","585","-0.3125","-0.9716797","0.27734375","11.59375","-8.75","9.1875"
"1573702935155","586","-0.28222656","-0.9560547","0.2939453","-5.5625","-13.9375","7.25"
"1573702935156","587","-0.2861328","-0.91015625","0.2626953","-3.0","-4.78125","3.59375"
"1573702935156","588","-0.27246094","-0.9423828","0.29882812","-7.09375","-10.625","7.96875"
"1573702935157","589","-0.32226562","-0.9423828","0.27148438","-4.21875","-9.34375","-0.5625"
"1573702935946","590","-0.2939453","-0.94140625","0.2705078","-0.75","2.4375","-2.6875"
"1573702935946","591","-0.32714844","-0.921875","0.3076172","-4.96875","-10.15625","-4.53125"
"1573702935947","592","-0.3017578","-0.93652344","0.28320312","5.90625","0.28125","-9.90625"
"1573702935947","593","-0.33789062","-0.92871094","0.3359375","-0.5625","0.65625","-9.21875"
"1573702935947","594","-0.32910156","-0.94628906","0.32421875","1.28125","0.03125","-9.125"
"1573702935948","595","-0.34179688","-0.95703125","0.31054688","-3.0625","6.6875","-10.09375"
"1573702935948","596","-0.3125","-0.9736328","0.29785156","-6.0","1.75","-5.75"
"1573702935948","597","-0.3017578","-0.9423828","0.28222656","-4.53125","7.375","-5.9375"
"1573702935948","598","-0.2783203","-0.9453125","0.25976562","-1.40625","1.625","-5.8125"
"1573702935949","599","-0.296875","-0.9140625","0.28027344","-3.5625","5.84375","-6.25"
"1573702936343","600","-0.25195312","-0.9277344","0.2705078","-7.15625","1.875","-7.34375"
"1573702936345","601","-0.2890625","-0.9453125","0.25","-6.0625","1.21875","-7.78125"
"1573702936346","602","-0.24121094","-0.9501953","0.24804688","-9.15625","5.21875","-5.25"
"1573702936346","603","-0.19824219","-0.9765625","0.19140625","-8.8125","-1.125","-3.625"
"1573702936346","604","-0.2861328","-0.9609375","0.20019531","-11.3125","-9.0","-2.875"
"1573702936347","605","-0.25976562","-0.9423828","0.15527344","-5.5","-2.09375","-6.0625"
"1573702936347","606","-0.22167969","-0.9423828","0.13085938","-3.25","2.59375","-10.9375"
"1573702936347","607","-0.171875","-0.9326172","0.10839844","-1.59375","6.09375","-14.34375"
"1573702936348","608","-0.16113281","-0.9423828","0.07128906","-3.5625","-1.84375","-13.75"
"1573702936348","609","-0.16308594","-0.96972656","0.11230469","-13.375","6.8125","-19.59375"
"1573702936544","610","-0.10839844","-1.0068359","0.07714844","-13.875","-0.4375","-15.53125"
"1573702936544","611","-0.10449219","-0.9941406","0.072265625","-11.625","-8.875","-15.40625"
"1573702936544","612","-0.09765625","-0.9501953","0.043945312","-20.65625","-8.875","-11.5625"
"1573702936545","613","-0.059570312","-0.9951172","0.0234375","-7.875","-13.03125","-6.125"
"1573702936546","614","-0.09277344","-0.96484375","0.051757812","-16.1875","-15.28125","-8.875"
"1573702936546","615","-0.08300781","-1.0","0.017578125","-14.3125","-20.34375","-10.21875"
"1573702936546","616","-0.13671875","-0.9736328","0.036132812","-16.75","-15.40625","-15.8125"
"1573702936546","617","-0.10253906","-0.96484375","-0.0029296875","-12.46875","-12.09375","-16.3125"
"1573702936547","618","-0.0546875","-0.97558594","-0.0107421875","-5.5","-6.5","-11.3125"
"1573702936547","619","-0.034179688","-0.98828125","-0.0087890625","-3.0","-6.3125","-6.53125"
"1573702936743","620","-0.068359375","-0.96777344","-0.001953125","-4.78125","0.15625","-4.03125"
"1573702936743","621","-0.0390625","-0.98535156","-0.029296875","5.0","3.21875","1.15625"
"1573702936743","622","-0.013671875","-1.0048828","-0.024414062","8.40625","-2.53125","6.9375"
"1573702936744","623","-0.036132812","-1.0068359","0.0234375","10.3125","-6.59375","8.34375"
"1573702936744","624","-0.0625","-1.0224609","0.04296875","8.65625","-9.59375","5.71875"
"1573702936746","625","-0.06347656","-0.9892578","0.022460938","3.28125","-10.5","0.15625"
"1573702936746","626","-0.08300781","-0.99121094","0.045898438","-10.4375","-8.4375","-3.90625"
"1573702936746","627","-0.043945312","-1.0126953","0.01953125","2.5","-5.4375","-3.5"
"1573702936747","628","-0.09082031","-0.9736328","0.025390625","-10.625","-8.625","-3.8125"
"1573702936747","629","-0.044921875","-1.0029297","0.0126953125","-3.1875","-1.53125","-0.625"
"1573702937141","630","-0.087890625","-0.98828125","0.0107421875","-3.875","-4.65625","0.34375"
"1573702937142","631","-0.0625","-0.98828125","0.015625","3.15625","2.25","2.65625"
"1573702937142","632","-0.06738281","-0.99121094","0.033203125","4.9375","0.03125","5.28125"
"1573702937142","633","-0.055664062","-0.95996094","0.0078125","6.9375","3.9375","6.8125"
"1573702937142","634","-0.08886719","-0.97753906","0.030273438","7.84375","2.4375","7.96875"
"1573702937143","635","-0.10058594","-0.9560547","0.051757812","3.40625","7.25","3.21875"
"1573702937143","636","-0.10644531","-0.9892578","0.01171875","16.28125","10.78125","4.4375"
"1573702937144","637","-0.0859375","-0.9970703","0.076171875","13.0","11.15625","5.40625"
"1573702937145","638","-0.10546875","-0.9658203","0.07324219","21.09375","5.46875","10.71875"
"1573702937145","639","-0.111328125","-0.9609375","0.095703125","16.78125","14.21875","10.0625"
"1573702937537","640","-0.10449219","-0.98046875","0.12207031","19.875","2.84375","19.6875"
"1573702937538","641","-0.16992188","-0.9589844","0.13964844","23.4375","8.78125","17.125"
"1573702937538","642","-0.14257812","-0.98828125","0.1484375","18.84375","5.96875","19.53125"
"1573702937538","643","-0.21679688","-0.9394531","0.18164062","11.65625","8.71875","18.40625"
"1573702937539","644","-0.24609375","-0.9355469","0.20117188","20.5","21.21875","13.78125"
"1573702937539","645","-0.28222656","-0.9980469","0.19238281","16.78125","19.15625","14.5625"
"1573702937539","646","-0.2607422","-0.95996094","0.2529297","11.75","9.3125","13.71875"
"1573702937539","647","-0.2783203","-0.97265625","0.22167969","15.96875","4.5625","10.96875"
"1573702937539","648","-0.27929688","-0.96777344","0.2265625","11.28125","0.90625","8.28125"
"1573702937541","649","-0.35742188","-0.92285156","0.2734375","4.0625","5.96875","7.25"
"1573702937935","650","-0.20507812","-0.96777344","0.22070312","12.375","5.71875","9.375"
"1573702937936","651","-0.2998047","-0.95410156","0.29296875","2.84375","-4.28125","9.625"
"1573702937936","652","-0.31835938","-0.9003906","0.28125","-1.46875","-3.125","6.6875"
"1573702937936","653","-0.2783203","-0.9658203","0.23046875","5.78125","2.1875","5.71875"
"1573702937936","654","-0.3076172","-0.9013672","0.2685547","-6.1875","-3.90625","3.46875"
"1573702937937","655","-0.33203125","-0.9296875","0.2578125","3.9375","-4.78125","1.8125"
"1573702937937","656","-0.31347656","-0.9316406","0.2734375","1.8125","0.53125","-0.3125"
"1573702937937","657","-0.28222656","-0.9121094","0.25976562","0.46875","-2.8125","1.28125"
"1573702937937","658","-0.30859375","-0.9316406","0.2607422","2.90625","3.09375","-2.40625"
"1573702937938","659","-0.3046875","-0.9248047","0.23535156","-1.53125","-0.875","-0.4375"
"1573702938334","660","-0.31835938","-0.9355469","0.28125","1.3125","2.3125","0.71875"
"1573702938336","661","-0.30371094","-0.9433594","0.25585938","0.46875","1.75","0.28125"
"1573702938336","662","-0.3232422","-0.9404297","0.2685547","0.09375","2.78125","-1.90625"
"1573702938337","663","-0.32128906","-0.9423828","0.26171875","0.28125","4.0625","-3.875"
"1573702938337","664","-0.30078125","-0.93652344","0.28222656","-0.5","4.75","-4.90625"
"1573702938337","665","-0.31054688","-0.93847656","0.27539062","-2.21875","4.5625","-7.8125"
"1573702938337","666","-0.29492188","-0.9472656","0.25390625","-3.90625","5.84375","-8.0"
"1573702938338","667","-0.3017578","-0.91503906","0.25390625","-6.71875","2.4375","-6.90625"
"1573702938338","668","-0.29003906","-0.9355469","0.25878906","-5.5625","1.5","-6.3125"
"1573702938338","669","-0.265625","-0.9433594","0.23144531","-4.46875","1.3125","-4.84375"
"1573702938731","670","-0.31152344","-0.9453125","0.24511719","-8.1875","-0.9375","-7.59375"
"1573702938732","671","-0.29003906","-0.9394531","0.21289062","-9.40625","4.875","-9.84375"
"1573702938732","672","-0.2841797","-0.9355469","0.20410156","-10.5625","10.3125","-9.84375"
"1573702938734","673","-0.23730469","-0.9609375","0.17382812","-8.0","10.25","-8.8125"
"1573702938734","674","-0.24414062","-0.94921875","0.16503906","-5.875","5.34375","-8.4375"
"1573702938735","675","-0.22949219","-0.9560547","0.16113281","-3.3125","4.125","-7.53125"
"1573702938735","676","-0.2548828","-0.9472656","0.16308594","-4.96875","-3.5","-7.40625"
"1573702938735","677","-0.20605469","-0.9482422","0.15722656","-4.65625","4.875","-12.34375"
"1573702938735","678","-0.17578125","-0.94140625","0.125","-9.21875","-9.84375","-7.65625"
"1573702938736","679","-0.16796875","-0.95703125","0.111328125","-6.78125","-1.65625","-11.25"
"1573702939129","680","-0.13476562","-0.96972656","0.08300781","-14.71875","-13.0625","-6.125"
"1573702939129","681","-0.16210938","-0.9667969","0.078125","-12.96875","-8.6875","-10.03125"
"1573702939130","682","-0.10839844","-0.9941406","0.06738281","-17.96875","-12.15625","-5.3125"
"1573702939130","683","-0.16796875","-0.99609375","0.068359375","-16.875","-15.53125","-9.59375"
"1573702939130","684","-0.13769531","-0.9814453","0.01953125","-10.03125","-15.75","-9.84375"
"1573702939131","685","-0.171875","-0.96484375","0.057617188","-29.625","-12.28125","-17.28125"
"1573702939132","686","-0.10839844","-1.0019531","0.013671875","-10.9375","-2.15625","-12.90625"
"1573702939132","687","-0.09863281","-0.9707031","0.01953125","-19.65625","-15.15625","-6.4375"
"1573702939132","688","-0.14160156","-0.9453125","-0.0068359375","-13.9375","-7.875","-6.90625"
"1573702939133","689","-0.09277344","-1.0166016","-0.015625","-7.875","-0.75","-2.34375"
"1573702939726","690","-0.123046875","-0.9707031","-0.015625","-4.59375","-6.90625","-0.75"
"1573702939727","691","-0.08300781","-1.0097656","9.765625E-4","-1.40625","-0.375","1.5"
"1573702939727","692","-0.12792969","-0.9951172","-0.001953125","-2.03125","-6.53125","-0.1875"
"1573702939728","693","-0.10546875","-1.0019531","0.0126953125","-2.8125","-1.0","-0.75"
"1573702939728","694","-0.13183594","-0.99121094","0.013671875","-6.5","2.3125","-4.21875"
"1573702939728","695","-0.10253906","-1.0136719","0.01953125","-1.25","3.84375","-1.59375"
"1573702939728","696","-0.14746094","-1.0029297","0.055664062","2.71875","6.03125","-0.125"
"1573702939730","697","-0.1953125","-0.9941406","0.0546875","5.0625","12.6875","-2.9375"
"1573702939730","698","-0.171875","-1.0175781","0.053710938","1.09375","24.28125","-4.46875"
"1573702939731","699","-0.17871094","-1.015625","0.053710938","-0.3125","19.28125","-11.25"
"1573702940123","700","-0.15917969","-0.99121094","-0.0078125","-3.0625","21.46875","-20.875"
"1573702940124","701","-0.16601562","-1.0263672","0.05859375","-23.09375","25.0625","-25.96875"
"1573702940124","702","-0.095703125","-1.0078125","-0.009765625","-6.53125","15.65625","-23.5625"
"1573702940125","703","-0.07910156","-0.9921875","-0.013671875","-16.0","5.59375","-24.84375"
"1573702940125","704","-0.10253906","-1.0419922","-0.0107421875","-24.84375","7.375","-25.28125"
"1573702940125","705","-0.056640625","-0.9716797","-0.0546875","-34.5625","7.90625","-29.75"
"1573702940125","706","0.049804688","-0.9824219","-0.12109375","-18.4375","-4.59375","-24.1875"
"1573702940126","707","0.057617188","-0.9892578","-0.13183594","-19.59375","-13.5625","-20.59375"
"1573702940126","708","0.0029296875","-0.9921875","-0.109375","-24.0625","-11.125","-22.84375"
"1573702940127","709","0.034179688","-0.9472656","-0.14355469","-30.90625","5.1875","-27.0625"
"1573702940519","710","0.12011719","-0.99902344","-0.18945312","-18.03125","3.71875","-27.125"
"1573702940520","711","0.13476562","-0.9863281","-0.21386719","-12.78125","2.25","-29.3125"
"1573702940520","712","0.11328125","-1.0019531","-0.19824219","-14.40625","-14.96875","-35.90625"
"1573702940520","713","0.14453125","-0.94921875","-0.20019531","-5.21875","-22.28125","-38.40625"
"1573702940521","714","0.19921875","-1.0166016","-0.1796875","-5.375","-29.875","-42.375"
"1573702940521","715","0.19726562","-1.0361328","-0.16796875","-10.15625","-33.34375","-43.84375"
"1573702940521","716","0.23632812","-0.9609375","-0.21191406","-4.34375","-36.625","-40.375"
"1573702940521","717","0.21582031","-1.0058594","-0.171875","-16.1875","-26.5","-31.375"
"1573702940522","718","0.203125","-0.99316406","-0.22753906","-16.125","-6.84375","-22.0625"
"1573702940522","719","0.24707031","-0.9550781","-0.24511719","-7.9375","-0.4375","-19.0625"
