"# PR data"
"# Start time: 20191114T034014"
"# Subject: teo"
"# Activity type: Shoulder press"
"# Correctness: Correct"
"# Notes: "
""
"timestamp","seq","accel_x","accel_y","accel_z","gyro_x","gyro_y","gyro_z"
"1573702815307","0","0.20410156","-0.984375","-0.3232422","0.53125","-0.5","-3.0"
"1573702815308","1","0.22070312","-0.9423828","-0.34179688","-4.21875","-4.78125","-4.96875"
"1573702815308","2","0.22851562","-0.94921875","-0.32714844","3.59375","-7.46875","-2.9375"
"1573702815308","3","0.24023438","-0.94921875","-0.3173828","0.78125","-11.0625","-5.375"
"1573702815309","4","0.24609375","-0.9423828","-0.3173828","0.84375","-16.6875","-6.90625"
"1573702815310","5","0.23046875","-0.9638672","-0.31347656","3.65625","-19.4375","-8.4375"
"1573702815312","6","0.22363281","-0.9560547","-0.31640625","2.3125","-26.875","-8.0625"
"1573702815313","7","0.2265625","-0.9589844","-0.32910156","6.875","-29.25","-8.0625"
"1573702815313","8","0.21191406","-0.9736328","-0.3251953","11.53125","-27.96875","-5.9375"
"1573702815313","9","0.23339844","-0.984375","-0.31933594","6.6875","-30.15625","-10.09375"
"1573702815901","10","0.29785156","-0.9501953","-0.26660156","10.59375","-37.0625","-17.59375"
"1573702815902","11","0.25195312","-0.9111328","-0.22851562","14.4375","-48.1875","-12.96875"
"1573702815902","12","0.16308594","-0.9355469","-0.25683594","15.625","-42.375","-4.96875"
"1573702815903","13","0.13769531","-0.9628906","-0.30566406","16.03125","-28.21875","-0.9375"
"1573702815904","14","0.15332031","-0.97265625","-0.33984375","15.5625","-20.59375","4.6875"
"1573702815904","15","0.171875","-0.97558594","-0.3466797","11.8125","-17.59375","4.75"
"1573702815904","16","0.15332031","-0.96191406","-0.26953125","21.59375","-14.1875","6.34375"
"1573702815905","17","0.12402344","-0.95214844","-0.2783203","18.125","-7.78125","7.96875"
"1573702815905","18","0.13769531","-1.0761719","-0.27246094","9.4375","-0.625","9.75"
"1573702815905","19","0.13671875","-1.0175781","-0.25195312","8.71875","-0.5","8.09375"
"1573702816103","20","0.16308594","-0.9189453","-0.28320312","2.0","-3.0625","7.0"
"1573702816103","21","0.19628906","-0.96875","-0.3154297","1.875","-6.4375","2.5"
"1573702816103","22","0.119140625","-0.97558594","-0.29785156","-2.625","-7.09375","0.34375"
"1573702816104","23","0.091796875","-0.97265625","-0.29492188","-5.3125","-2.8125","-1.1875"
"1573702816104","24","0.12207031","-0.9951172","-0.2705078","-13.8125","4.875","-3.375"
"1573702816106","25","0.115234375","-0.9873047","-0.2548828","-18.6875","7.6875","-4.90625"
"1573702816106","26","0.1171875","-0.9716797","-0.29589844","-18.03125","7.84375","-4.34375"
"1573702816106","27","0.13964844","-0.98828125","-0.33007812","-12.09375","6.15625","-1.84375"
"1573702816106","28","0.16210938","-0.953125","-0.3486328","-9.0625","4.25","1.3125"
"1573702816107","29","0.171875","-0.95410156","-0.34765625","-2.9375","0.15625","5.21875"
"1573702816500","30","0.17675781","-0.95703125","-0.33691406","1.6875","-1.46875","7.3125"
"1573702816500","31","0.14453125","-0.9580078","-0.3310547","5.46875","-2.15625","5.71875"
"1573702816500","32","0.1328125","-1.0185547","-0.2841797","4.875","-6.1875","8.65625"
"1573702816501","33","0.099609375","-0.94628906","-0.3564453","1.8125","-6.125","4.0625"
"1573702816501","34","0.11621094","-0.9873047","-0.2783203","1.625","6.15625","11.09375"
"1573702816501","35","0.11425781","-0.95410156","-0.32714844","-0.8125","5.0","-0.875"
"1573702816501","36","0.055664062","-0.8466797","-0.2919922","-5.3125","23.125","-6.71875"
"1573702816503","37","0.11621094","-0.95996094","-0.35742188","-5.625","4.375","1.5625"
"1573702816503","38","0.119140625","-0.9707031","-0.3359375","-3.5","15.4375","-0.9375"
"1573702816503","39","0.111328125","-0.9453125","-0.32226562","-12.78125","18.71875","-1.65625"
"1573702816896","40","0.13183594","-0.95996094","-0.34960938","-3.75","13.84375","-2.28125"
"1573702816896","41","0.15234375","-0.98339844","-0.34472656","3.15625","10.25","3.46875"
"1573702816897","42","0.15917969","-0.94628906","-0.32421875","1.75","5.96875","5.0"
"1573702816897","43","0.15136719","-0.953125","-0.3486328","7.96875","0.09375","4.5"
"1573702816897","44","0.18164062","-0.984375","-0.32714844","7.0","-3.75","9.03125"
"1573702816897","45","0.15039062","-0.94140625","-0.33496094","7.0625","-7.78125","7.84375"
"1573702816898","46","0.08105469","-0.9609375","-0.3125","1.9375","-4.90625","3.78125"
"1573702816898","47","0.13183594","-0.9814453","-0.2919922","1.21875","-4.21875","4.375"
"1573702816898","48","0.15234375","-0.9550781","-0.34375","11.21875","-4.46875","1.3125"
"1573702816899","49","0.09863281","-0.96484375","-0.30273438","9.5","0.03125","4.625"
"1573702817295","50","0.11621094","-0.953125","-0.28808594","7.0625","0.59375","3.03125"
"1573702817295","51","0.12207031","-0.96484375","-0.31054688","12.8125","-1.59375","1.875"
"1573702817296","52","0.14160156","-0.98339844","-0.25390625","2.59375","-6.53125","3.03125"
"1573702817296","53","0.12207031","-0.97558594","-0.27734375","3.9375","-12.46875","-0.875"
"1573702817296","54","0.15820312","-1.0263672","-0.27539062","3.59375","-11.84375","3.9375"
"1573702817296","55","0.087890625","-0.9873047","-0.2607422","-1.84375","-9.15625","-0.4375"
"1573702817297","56","0.0625","-0.96484375","-0.28222656","-7.875","-6.125","-2.40625"
"1573702817297","57","0.1484375","-0.984375","-0.30371094","1.3125","-4.53125","0.34375"
"1573702817297","58","0.11328125","-0.97265625","-0.29589844","-0.6875","-3.0625","-1.34375"
"1573702817297","59","0.0859375","-0.9658203","-0.28320312","-1.46875","-6.375","-1.59375"
"1573702817692","60","0.10253906","-0.97265625","-0.2763672","-1.0625","4.75","-3.3125"
"1573702817693","61","0.115234375","-0.9707031","-0.2841797","-11.71875","-2.75","-3.6875"
"1573702817694","62","0.111328125","-1.0048828","-0.29589844","-5.6875","-2.59375","0.03125"
"1573702817694","63","0.14355469","-0.93652344","-0.3486328","1.75","-8.75","4.5"
"1573702817695","64","0.09277344","-0.96972656","-0.2841797","-6.78125","-0.75","-0.5"
"1573702817695","65","0.140625","-0.96972656","-0.3388672","5.28125","-11.90625","4.375"
"1573702817695","66","0.052734375","-0.96777344","-0.25585938","-5.21875","11.15625","-3.875"
"1573702817695","67","0.14746094","-0.9716797","-0.3486328","4.625","-6.25","-0.0625"
"1573702817696","68","0.07128906","-1.0087891","-0.32226562","8.96875","13.34375","1.5"
"1573702817696","69","0.18164062","-0.9189453","-0.2783203","-3.125","-5.4375","1.03125"
"1573702818089","70","0.038085938","-0.99902344","-0.30078125","7.1875","15.5625","-4.84375"
"1573702818089","71","0.11328125","-0.984375","-0.2578125","-4.71875","3.09375","-2.6875"
"1573702818090","72","0.14160156","-1.0039062","-0.30859375","13.34375","15.65625","-0.5"
"1573702818091","73","0.11035156","-0.96875","-0.26757812","4.8125","-1.65625","2.3125"
"1573702818091","74","0.103515625","-0.96191406","-0.28808594","14.75","11.75","3.65625"
"1573702818092","75","0.1796875","-0.9951172","-0.24609375","4.125","8.09375","9.875"
"1573702818092","76","0.14648438","-0.9736328","-0.30566406","11.40625","6.9375","8.09375"
"1573702818092","77","0.11328125","-0.9609375","-0.28710938","10.3125","3.03125","14.09375"
"1573702818092","78","0.11816406","-0.9902344","-0.2626953","1.8125","4.75","10.0"
"1573702818093","79","0.12792969","-0.9824219","-0.265625","10.78125","-0.375","5.78125"
"1573702818487","80","0.08984375","-0.99902344","-0.2685547","1.4375","-4.53125","1.6875"
"1573702818488","81","0.1015625","-0.9951172","-0.26171875","0.71875","-9.40625","2.125"
"1573702818488","82","0.123046875","-0.9736328","-0.24414062","4.75","-3.96875","1.375"
"1573702818488","83","0.09277344","-0.9785156","-0.23535156","7.5625","1.375","2.1875"
"1573702818488","84","0.08300781","-0.9873047","-0.23925781","5.0","-0.5625","3.40625"
"1573702818489","85","0.080078125","-0.9980469","-0.23242188","3.09375","-2.28125","4.0625"
"1573702818490","86","0.05078125","-0.99121094","-0.2265625","2.1875","0.90625","0.46875"
"1573702818490","87","0.0703125","-1.0058594","-0.234375","2.0","0.09375","-2.09375"
"1573702818490","88","0.11328125","-0.99609375","-0.25195312","-0.4375","-2.09375","-3.4375"
"1573702818490","89","0.10839844","-0.9941406","-0.23730469","-1.34375","-0.3125","-4.40625"
"1573702818884","90","0.09375","-0.9863281","-0.23535156","-3.8125","-0.6875","-3.8125"
"1573702818885","91","0.08691406","-0.9824219","-0.24023438","-7.46875","-1.65625","-3.5"
"1573702818885","92","0.08300781","-0.9902344","-0.25585938","-7.15625","-1.84375","-1.71875"
"1573702818885","93","0.08105469","-0.97558594","-0.27246094","-4.46875","-4.28125","-2.03125"
"1573702818885","94","0.07324219","-0.9824219","-0.25976562","-6.90625","-3.5625","-0.4375"
"1573702818886","95","0.080078125","-0.99609375","-0.26757812","3.40625","-1.0625","0.21875"
"1573702818886","96","0.09082031","-0.9814453","-0.24707031","3.28125","-1.1875","1.3125"
"1573702818887","97","0.09765625","-0.98828125","-0.24804688","0.34375","-2.28125","0.46875"
"1573702818889","98","0.08496094","-0.9873047","-0.25097656","0.15625","-1.90625","0.21875"
"1573702818890","99","0.09472656","-1.0039062","-0.24121094","0.71875","-2.8125","1.625"
"1573702819477","100","0.107421875","-0.9921875","-0.24414062","-0.25","-6.0","1.625"
"1573702819477","101","0.10253906","-0.9794922","-0.25878906","-0.9375","-8.3125","1.3125"
"1573702819478","102","0.09375","-0.9863281","-0.25976562","-3.125","-9.84375","0.53125"
"1573702819478","103","0.09277344","-0.9863281","-0.27148438","-1.1875","-10.09375","-0.625"
"1573702819478","104","0.08300781","-0.99121094","-0.2783203","0.90625","-6.65625","-0.1875"
"1573702819478","105","0.07714844","-0.9824219","-0.26757812","0.46875","-3.5625","-1.3125"
"1573702819479","106","0.07910156","-0.98046875","-0.25","2.3125","-3.5","-1.34375"
"1573702819479","107","0.08105469","-0.9814453","-0.25390625","3.09375","-2.6875","-1.71875"
"1573702819479","108","0.0859375","-0.99902344","-0.2529297","4.875","-0.4375","0.03125"
"1573702819480","109","0.08691406","-0.9716797","-0.27148438","3.28125","-3.5625","-1.25"
"1573702820072","110","0.1015625","-1.0019531","-0.23535156","1.875","-3.6875","2.1875"
"1573702820072","111","0.08203125","-0.9814453","-0.2548828","10.53125","-1.34375","1.15625"
"1573702820073","112","0.068359375","-1.0078125","-0.21875","4.25","0.40625","1.09375"
"1573702820073","113","0.06347656","-1.0078125","-0.21289062","-0.375","0.53125","-3.875"
"1573702820073","114","0.06347656","-1.0058594","-0.20117188","-6.90625","6.15625","-7.40625"
"1573702820073","115","0.11425781","-0.9980469","-0.23632812","-7.59375","-3.0","-5.3125"
"1573702820074","116","0.09765625","-0.9863281","-0.26464844","-3.90625","-11.125","-1.96875"
"1573702820074","117","0.09277344","-0.9785156","-0.26464844","4.8125","-9.0625","4.1875"
"1573702820074","118","0.09375","-0.98339844","-0.25683594","7.0","-3.875","4.5"
"1573702820074","119","0.08105469","-0.9785156","-0.24804688","1.5","-2.03125","0.34375"
"1573702820077","120","0.09472656","-0.99902344","-0.25","0.71875","-2.59375","0.09375"
"1573702820078","121","0.072265625","-0.9951172","-0.24902344","10.1875","-5.375","0.65625"
"1573702820079","122","0.07714844","-0.98535156","-0.21289062","16.46875","-5.5625","2.5"
"1573702820079","123","0.095703125","-0.99609375","-0.22363281","14.9375","-3.8125","2.375"
"1573702820079","124","0.09667969","-0.9980469","-0.22460938","12.0","-8.8125","4.4375"
"1573702820079","125","0.059570312","-1.0019531","-0.16894531","1.625","-10.4375","5.65625"
"1573702820080","126","0.06933594","-1.0048828","-0.19824219","6.09375","-1.0","5.96875"
"1573702820080","127","0.018554688","-0.99121094","-0.1796875","-3.625","-3.1875","5.34375"
"1573702820080","128","0.029296875","-0.9873047","-0.19140625","-1.3125","0.03125","3.28125"
"1573702820080","129","0.06542969","-1.0097656","-0.22070312","1.15625","0.65625","4.0625"
"1573702820474","130","0.068359375","-1.0","-0.23144531","11.03125","-5.6875","5.96875"
"1573702820475","131","0.04296875","-0.98046875","-0.19824219","11.03125","-2.875","5.40625"
"1573702820475","132","0.034179688","-0.9863281","-0.19140625","7.4375","-0.0625","2.78125"
"1573702820476","133","0.0625","-1.0097656","-0.19433594","5.78125","-3.4375","2.375"
"1573702820477","134","0.060546875","-1.0263672","-0.19433594","11.34375","-15.03125","3.84375"
"1573702820477","135","0.016601562","-1.0507812","-0.17675781","14.5625","-12.59375","7.90625"
"1573702820478","136","0.0703125","-1.0087891","-0.12597656","4.0625","-8.0625","14.21875"
"1573702820478","137","-0.001953125","-0.9423828","-0.1484375","-1.59375","-9.53125","3.53125"
"1573702820478","138","-0.041992188","-0.97753906","-0.16894531","-5.25","5.53125","-8.5625"
"1573702820479","139","0.068359375","-1.0253906","-0.21582031","-0.375","9.1875","-8.9375"
"1573702820872","140","0.087890625","-1.0517578","-0.1640625","-11.4375","-5.15625","-4.15625"
"1573702820872","141","-0.0048828125","-0.9980469","-0.16796875","0.21875","-9.15625","-1.78125"
"1573702820872","142","-0.037109375","-0.98828125","-0.16894531","-1.34375","3.21875","-4.59375"
"1573702820872","143","0.08105469","-1.0234375","-0.16015625","-6.78125","5.28125","-4.09375"
"1573702820873","144","0.06347656","-0.99121094","-0.18261719","-8.6875","0.0","-5.09375"
"1573702820873","145","0.055664062","-0.9941406","-0.1953125","-7.46875","2.0","0.65625"
"1573702820873","146","0.016601562","-1.0517578","-0.19335938","-1.0","0.96875","-2.8125"
"1573702820873","147","-0.00390625","-0.9902344","-0.16699219","-16.0625","9.875","-8.4375"
"1573702820873","148","0.08203125","-1.0097656","-0.24609375","-0.4375","-0.5","-6.4375"
"1573702820874","149","0.078125","-0.97265625","-0.15136719","-22.0","11.59375","-9.0"
"1573702821270","150","0.09472656","-0.9951172","-0.25683594","-8.6875","-15.59375","-8.125"
"1573702821270","151","-0.013671875","-0.9560547","-0.23828125","-8.1875","-5.5","-17.40625"
"1573702821271","152","0.06738281","-0.97753906","-0.2265625","-18.4375","0.65625","-15.59375"
"1573702821271","153","0.111328125","-0.98046875","-0.2763672","-4.65625","9.5","-8.25"
"1573702821271","154","0.08984375","-0.95410156","-0.3017578","8.46875","-3.1875","-1.78125"
"1573702821271","155","0.15527344","-0.984375","-0.24414062","-4.59375","14.875","10.40625"
"1573702821272","156","0.15429688","-1.0146484","-0.23144531","11.9375","5.90625","20.8125"
"1573702821273","157","0.041992188","-0.9824219","-0.18945312","3.09375","15.5625","15.1875"
"1573702821273","158","0.08300781","-0.9970703","-0.2607422","11.46875","-4.90625","22.125"
"1573702821274","159","0.0390625","-1.0087891","-0.22949219","22.375","-2.15625","13.59375"
"1573702821668","160","0.06640625","-1.0048828","-0.2529297","17.0","-9.15625","14.8125"
"1573702821668","161","0.119140625","-1.0166016","-0.18945312","13.78125","-15.21875","16.9375"
"1573702821668","162","-0.021484375","-0.953125","-0.18261719","7.0625","-17.40625","2.375"
"1573702821669","163","0.01171875","-1.0361328","-0.19921875","10.78125","-5.25","4.0625"
"1573702821669","164","0.0078125","-1.0136719","-0.18554688","3.90625","-6.4375","3.40625"
"1573702821669","165","-0.018554688","-0.984375","-0.203125","12.0625","-7.53125","4.0"
"1573702821669","166","-0.0126953125","-1.0361328","-0.18847656","6.875","-11.71875","2.90625"
"1573702821670","167","-0.03515625","-1.0029297","-0.17089844","-0.4375","-12.53125","6.9375"
"1573702821670","168","0.00390625","-1.0126953","-0.15625","5.71875","-5.5","10.71875"
"1573702821671","169","-0.021484375","-0.99316406","-0.16503906","6.28125","-7.21875","2.84375"
"1573702822064","170","-0.041015625","-0.9921875","-0.16113281","-12.46875","3.40625","-1.1875"
"1573702822064","171","0.01953125","-1.015625","-0.16601562","-2.875","5.71875","-3.5625"
"1573702822065","172","-0.0068359375","-0.9902344","-0.17578125","-2.28125","4.8125","-3.5"
"1573702822065","173","-0.005859375","-0.99316406","-0.1875","-3.3125","-0.75","-7.03125"
"1573702822065","174","-0.0078125","-1.0048828","-0.1953125","-1.34375","1.09375","-7.28125"
"1573702822065","175","-0.0078125","-1.0","-0.17871094","-5.25","2.78125","-7.65625"
"1573702822066","176","0.022460938","-1.0039062","-0.17871094","-4.46875","2.71875","-5.75"
"1573702822066","177","0.020507812","-1.0087891","-0.18457031","-2.46875","-1.125","-2.40625"
"1573702822066","178","0.013671875","-1.0019531","-0.18945312","-2.15625","-1.46875","-0.0625"
"1573702822067","179","0.022460938","-1.0029297","-0.19042969","-2.28125","-1.3125","0.96875"
"1573702822461","180","0.021484375","-0.9951172","-0.18554688","-2.46875","-3.5","-0.1875"
"1573702822462","181","0.01171875","-0.9941406","-0.19140625","-1.3125","-2.53125","-0.875"
"1573702822463","182","0.0107421875","-1.0039062","-0.18945312","-1.84375","-1.0","-1.96875"
"1573702822463","183","0.0146484375","-1.0019531","-0.17773438","-5.03125","5.84375","-5.5"
"1573702822463","184","0.036132812","-0.98046875","-0.22265625","-2.09375","2.5625","-5.8125"
"1573702822463","185","0.022460938","-1.0146484","-0.18164062","-9.78125","3.28125","-4.84375"
"1573702822464","186","0.038085938","-1.0097656","-0.20996094","2.125","2.125","-3.75"
"1573702822464","187","0.021484375","-1.0009766","-0.20703125","2.0","-1.1875","-3.0625"
"1573702822464","188","0.032226562","-0.99902344","-0.19628906","-0.125","0.46875","-3.1875"
"1573702822465","189","0.0390625","-1.0048828","-0.20703125","-0.5625","2.375","-3.1875"
"1573702822860","190","0.038085938","-1.0009766","-0.19824219","-5.625","-0.125","-3.25"
"1573702822860","191","0.051757812","-1.0009766","-0.21679688","-3.96875","-0.25","-0.5625"
"1573702822861","192","0.053710938","-0.99609375","-0.22070312","-1.84375","-2.6875","0.90625"
"1573702822862","193","0.043945312","-0.9970703","-0.21484375","0.40625","-2.21875","1.21875"
"1573702822863","194","0.045898438","-0.9970703","-0.21972656","2.25","-2.875","1.28125"
"1573702822863","195","0.041015625","-1.0","-0.21386719","2.5625","-0.6875","0.28125"
"1573702822863","196","0.040039062","-0.99316406","-0.21484375","0.96875","-1.59375","-0.125"
"1573702822863","197","0.036132812","-1.0","-0.20214844","2.84375","-0.625","-0.3125"
"1573702822864","198","0.045898438","-0.9921875","-0.19726562","0.59375","1.375","-1.53125"
"1573702822864","199","0.049804688","-0.98046875","-0.21191406","-3.4375","1.5","-3.25"
"1573702823652","200","0.04296875","-1.0214844","-0.19042969","-3.4375","-1.59375","-2.46875"
"1573702823653","201","0.07519531","-0.9814453","-0.24023438","-2.21875","0.34375","-2.53125"
"1573702823653","202","0.0625","-1.0039062","-0.21875","-4.90625","-3.4375","-0.25"
"1573702823654","203","0.052734375","-0.9951172","-0.21289062","-0.625","-5.5625","-0.5625"
"1573702823654","204","0.0390625","-1.0126953","-0.21582031","2.96875","-7.40625","-1.34375"
"1573702823655","205","-0.00390625","-0.9951172","-0.20507812","1.21875","-15.9375","-6.3125"
"1573702823655","206","0.0078125","-1.0136719","-0.203125","2.96875","-6.0","-8.625"
"1573702823655","207","0.059570312","-1.0195312","-0.21777344","3.40625","-1.96875","-4.53125"
"1573702823656","208","0.047851562","-0.9970703","-0.21289062","0.96875","-0.8125","-1.34375"
"1573702823656","209","0.06347656","-0.98339844","-0.22363281","1.15625","3.40625","0.84375"
"1573702823850","210","0.08203125","-0.9951172","-0.21582031","-3.3125","3.15625","2.96875"
"1573702823850","211","0.041992188","-0.9902344","-0.234375","-0.6875","-2.625","0.03125"
"1573702823851","212","0.026367188","-1.0009766","-0.22558594","5.40625","-0.8125","-0.75"
"1573702823851","213","0.046875","-1.0058594","-0.21972656","12.375","-1.0","0.21875"
"1573702823851","214","0.047851562","-0.97265625","-0.22949219","8.46875","-1.78125","-2.6875"
"1573702823851","215","0.030273438","-1.0136719","-0.15136719","-6.96875","6.5","-4.34375"
"1573702823852","216","0.072265625","-1.0107422","-0.22265625","8.65625","7.125","0.90625"
"1573702823853","217","0.060546875","-0.9941406","-0.1875","-3.90625","4.375","3.09375"
"1573702823854","218","0.068359375","-0.9902344","-0.22167969","-3.375","-0.875","6.8125"
"1573702823855","219","0.038085938","-1.0039062","-0.22265625","1.5625","-3.3125","7.84375"
"1573702824052","220","0.057617188","-1.0019531","-0.22460938","5.96875","-2.46875","8.40625"
"1573702824053","221","0.056640625","-0.9951172","-0.20019531","10.0","-3.0625","7.5625"
"1573702824053","222","0.036132812","-1.0097656","-0.17480469","10.3125","-5.25","6.5"
"1573702824053","223","0.064453125","-0.9980469","-0.171875","5.59375","-11.5","7.625"
"1573702824054","224","-0.013671875","-1.0048828","-0.16503906","5.71875","-12.59375","1.4375"
"1573702824054","225","0.036132812","-1.0332031","-0.16992188","8.40625","-9.34375","5.53125"
"1573702824054","226","0.033203125","-0.9873047","-0.17382812","7.125","-15.40625","8.28125"
"1573702824054","227","-0.0087890625","-0.99316406","-0.15527344","3.65625","-7.34375","2.375"
"1573702824055","228","-0.0087890625","-0.98828125","-0.13769531","-5.5","1.5625","-2.09375"
"1573702824055","229","-0.026367188","-1.015625","-0.15722656","-3.96875","4.75","-5.375"
"1573702824449","230","0.0146484375","-0.9863281","-0.1953125","-6.53125","3.71875","-3.6875"
"1573702824449","231","0.0146484375","-1.0263672","-0.17480469","0.21875","2.0625","-0.25"
"1573702824449","232","0.016601562","-0.98339844","-0.15820312","-3.875","3.03125","-1.125"
"1573702824449","233","0.028320312","-1.0068359","-0.17480469","-1.96875","2.71875","-3.4375"
"1573702824450","234","-9.765625E-4","-1.0068359","-0.16503906","-0.75","3.15625","-3.25"
"1573702824450","235","0.037109375","-1.0087891","-0.1640625","-5.625","4.4375","-2.875"
"1573702824450","236","0.015625","-1.0058594","-0.18945312","-3.4375","-6.78125","-2.15625"
"1573702824450","237","-0.001953125","-1.0175781","-0.16503906","-3.96875","0.90625","0.0"
"1573702824451","238","0.041015625","-0.98828125","-0.2109375","2.125","-4.21875","1.15625"
"1573702824451","239","9.765625E-4","-0.9941406","-0.1484375","-7.53125","5.71875","-1.46875"
"1573702824848","240","0.052734375","-0.9902344","-0.22363281","-1.78125","4.1875","-3.25"
"1573702824849","241","-0.0107421875","-0.9941406","-0.16308594","-11.3125","15.71875","-4.21875"
"1573702824849","242","0.0546875","-0.9941406","-0.20996094","-10.4375","8.15625","-5.75"
"1573702824850","243","0.02734375","-1.0058594","-0.24707031","3.15625","18.40625","-3.3125"
"1573702824850","244","0.08886719","-0.9873047","-0.18164062","-15.46875","15.1875","0.46875"
"1573702824850","245","0.068359375","-0.984375","-0.24121094","-4.53125","8.34375","-1.40625"
"1573702824850","246","0.045898438","-0.9746094","-0.24707031","-6.84375","4.3125","-0.9375"
"1573702824851","247","0.14453125","-0.9970703","-0.2763672","-8.0","-1.84375","4.0"
"1573702824851","248","0.07421875","-0.9765625","-0.2578125","-5.03125","-4.09375","4.25"
"1573702824851","249","0.057617188","-0.97753906","-0.28125","7.1875","-15.15625","1.9375"
"1573702825439","250","0.005859375","-0.9824219","-0.21875","3.28125","9.6875","1.875"
"1573702825439","251","0.16210938","-1.0117188","-0.2607422","11.9375","-4.78125","8.65625"
"1573702825440","252","-0.09765625","-0.99316406","-0.20019531","4.3125","-0.125","5.1875"
"1573702825441","253","0.037109375","-0.99902344","-0.23242188","2.125","2.71875","7.375"
"1573702825441","254","0.056640625","-1.0371094","-0.21484375","12.75","-9.65625","12.0"
"1573702825441","255","-0.05078125","-0.9658203","-0.16796875","3.03125","-7.09375","3.53125"
"1573702825442","256","-0.028320312","-1.0","-0.22070312","11.34375","0.71875","0.0"
"1573702825442","257","0.0029296875","-0.9863281","-0.23339844","10.0","5.59375","-8.9375"
"1573702825442","258","0.018554688","-1.0625","-0.171875","1.6875","9.3125","-6.1875"
"1573702825442","259","0.057617188","-0.9941406","-0.1875","-6.65625","1.875","-3.625"
"1573702825641","260","-0.018554688","-1.0136719","-0.19726562","-1.40625","-10.03125","-0.5625"
"1573702825641","261","0.033203125","-0.99902344","-0.22167969","1.21875","-11.125","3.84375"
"1573702825642","262","0.048828125","-0.98339844","-0.17871094","-4.90625","-8.0","-0.625"
"1573702825642","263","-0.0078125","-1.0068359","-0.20019531","-4.84375","-4.84375","-1.90625"
"1573702825642","264","0.0078125","-1.0039062","-0.20605469","2.0","-8.375","-0.8125"
"1573702825643","265","0.020507812","-0.9970703","-0.20507812","1.625","-5.375","-1.1875"
"1573702825644","266","0.01953125","-0.9863281","-0.19335938","0.59375","-0.375","-3.5"
"1573702825644","267","0.026367188","-1.0068359","-0.19726562","-0.5625","0.03125","-2.15625"
"1573702825644","268","0.029296875","-1.0","-0.20214844","-2.46875","0.71875","-2.15625"
"1573702825645","269","0.018554688","-0.9980469","-0.20996094","-2.40625","2.4375","-1.71875"
"1573702826039","270","0.032226562","-0.98828125","-0.21484375","-1.1875","4.125","-2.8125"
"1573702826040","271","0.03515625","-0.9921875","-0.21289062","-3.25","4.5","-4.03125"
"1573702826040","272","0.036132812","-1.0009766","-0.22460938","0.90625","3.40625","-5.6875"
"1573702826040","273","0.044921875","-0.9794922","-0.20703125","-11.0","1.8125","-6.3125"
"1573702826040","274","0.037109375","-1.0117188","-0.22167969","-0.25","1.03125","-4.65625"
"1573702826041","275","0.041992188","-0.99609375","-0.22363281","-4.03125","-0.25","-3.0625"
"1573702826041","276","0.041015625","-0.9970703","-0.22558594","-4.46875","-2.09375","-2.625"
"1573702826042","277","0.032226562","-0.9951172","-0.23144531","-1.96875","-1.125","-0.9375"
"1573702826043","278","0.036132812","-0.98828125","-0.2265625","-5.4375","1.09375","-1.34375"
"1573702826043","279","0.0546875","-0.9941406","-0.24707031","-1.1875","1.3125","-0.8125"
"1573702826437","280","0.041015625","-0.9970703","-0.23632812","0.53125","-0.3125","-1.0625"
"1573702826437","281","0.045898438","-0.9863281","-0.24316406","0.78125","1.3125","-2.21875"
"1573702826438","282","0.07128906","-0.99902344","-0.23535156","1.03125","1.4375","-2.21875"
"1573702826438","283","0.056640625","-0.9941406","-0.23632812","-2.53125","-0.125","-3.0625"
"1573702826438","284","0.061523438","-1.0019531","-0.23925781","0.09375","-0.5625","-0.8125"
"1573702826438","285","0.07128906","-0.98535156","-0.24316406","-1.0625","-2.75","-1.0625"
"1573702826439","286","0.05859375","-0.98828125","-0.23925781","-3.1875","-2.59375","-3.125"
"1573702826439","287","0.052734375","-1.0078125","-0.23632812","4.6875","-1.78125","-2.09375"
"1573702826439","288","0.053710938","-0.9638672","-0.23925781","-4.96875","0.78125","-4.78125"
"1573702826440","289","0.06933594","-1.0078125","-0.23730469","0.21875","1.5","-3.3125"
"1573702827029","290","0.07421875","-0.98535156","-0.24316406","0.40625","-2.28125","-0.4375"
"1573702827029","291","0.07324219","-0.9873047","-0.24316406","0.03125","-1.90625","-0.4375"
"1573702827030","292","0.061523438","-0.99316406","-0.23730469","0.90625","-3.75","0.65625"
"1573702827030","293","0.06738281","-0.9824219","-0.24316406","1.3125","-1.84375","-0.125"
"1573702827030","294","0.068359375","-0.9951172","-0.23632812","2.3125","-2.75","0.53125"
"1573702827030","295","0.068359375","-0.9921875","-0.24609375","2.71875","-3.125","1.15625"
"1573702827031","296","0.072265625","-0.984375","-0.24707031","2.3125","-5.4375","1.09375"
"1573702827031","297","0.064453125","-0.9951172","-0.23730469","2.78125","-6.125","1.625"
"1573702827031","298","0.053710938","-0.9951172","-0.2265625","2.375","-3.375","1.21875"
"1573702827031","299","0.0625","-1.0","-0.2265625","3.28125","-8.25","0.96875"
"1573702827232","300","0.048828125","-0.9941406","-0.22167969","2.71875","-13.1875","1.15625"
"1573702827234","301","0.034179688","-0.9941406","-0.22265625","-2.75","-10.34375","-0.0625"
"1573702827235","302","0.020507812","-1.0166016","-0.23046875","12.625","-10.03125","-0.375"
"1573702827235","303","0.057617188","-0.9628906","-0.24511719","1.375","-8.0625","-2.34375"
"1573702827235","304","0.068359375","-1.0283203","-0.19921875","-0.0625","-0.6875","-5.9375"
"1573702827235","305","0.0703125","-0.99121094","-0.22460938","-5.625","-5.3125","-9.65625"
"1573702827236","306","0.080078125","-0.99902344","-0.23632812","-5.25","-4.46875","-8.75"
"1573702827236","307","0.080078125","-0.9980469","-0.23828125","-3.90625","-3.0625","-6.375"
"1573702827236","308","0.08984375","-0.99316406","-0.25097656","-4.65625","-2.28125","-4.21875"
"1573702827236","309","0.08300781","-0.9970703","-0.24609375","-5.8125","-1.0625","-1.3125"
"1573702827630","310","0.060546875","-0.98339844","-0.24023438","-7.09375","0.90625","-1.40625"
"1573702827630","311","0.07421875","-0.9746094","-0.2626953","-2.8125","-4.21875","-0.25"
"1573702827631","312","0.061523438","-0.9736328","-0.24707031","-3.125","0.90625","-2.34375"
"1573702827632","313","0.07324219","-0.98339844","-0.24902344","-2.40625","2.5625","-2.09375"
"1573702827632","314","0.07324219","-0.98339844","-0.25195312","-5.5","-0.625","-2.625"
"1573702827633","315","0.07324219","-0.98828125","-0.25097656","-0.25","4.6875","0.59375"
"1573702827633","316","0.083984375","-0.984375","-0.26757812","1.15625","2.1875","2.0625"
"1573702827633","317","0.06347656","-0.97265625","-0.21972656","-5.15625","2.84375","2.4375"
"1573702827633","318","0.10449219","-0.99902344","-0.28125","8.65625","5.84375","3.15625"
"1573702827634","319","0.091796875","-0.9638672","-0.24414062","1.3125","-0.25","4.625"
"1573702828027","320","0.0390625","-0.96484375","-0.2685547","6.46875","-4.53125","2.3125"
"1573702828027","321","0.07421875","-1.0107422","-0.2705078","6.5625","-3.875","-0.9375"
"1573702828027","322","0.080078125","-1.0","-0.23730469","4.875","1.75","1.28125"
"1573702828028","323","0.06933594","-1.0019531","-0.23535156","12.0625","-3.6875","4.0"
"1573702828028","324","0.08496094","-0.9736328","-0.21875","9.6875","-9.65625","7.6875"
"1573702828029","325","0.046875","-0.9736328","-0.22558594","4.25","-5.625","1.5625"
"1573702828029","326","0.03125","-1.0068359","-0.22167969","-6.0625","-0.75","-2.875"
"1573702828030","327","0.09277344","-1.0126953","-0.22363281","-5.6875","3.71875","-1.0625"
"1573702828030","328","0.083984375","-1.0087891","-0.21972656","-2.40625","-5.5625","4.3125"
"1573702828030","329","0.015625","-0.9667969","-0.21875","-6.84375","-4.40625","0.65625"
"1573702828424","330","0.018554688","-0.98535156","-0.25585938","-7.21875","5.125","-4.09375"
"1573702828424","331","0.06738281","-1.0185547","-0.2529297","5.78125","4.8125","-1.78125"
"1573702828424","332","0.059570312","-0.9638672","-0.22558594","-1.40625","3.03125","-2.9375"
"1573702828425","333","0.068359375","-1.0068359","-0.21875","1.8125","1.15625","-1.59375"
"1573702828425","334","0.036132812","-0.9814453","-0.18847656","-13.125","9.5625","-4.46875"
"1573702828425","335","0.12011719","-0.99902344","-0.25878906","-9.96875","5.40625","-2.34375"
"1573702828425","336","0.047851562","-0.9785156","-0.26757812","-6.84375","-2.625","-1.40625"
"1573702828426","337","0.059570312","-0.98535156","-0.2578125","-4.15625","5.78125","-1.0625"
"1573702828427","338","0.10058594","-0.9824219","-0.28125","2.125","-1.46875","-1.78125"
"1573702828428","339","0.045898438","-0.9746094","-0.25390625","0.40625","10.90625","-6.125"
"1573702828823","340","0.1484375","-0.9892578","-0.26953125","2.0625","3.09375","-0.3125"
"1573702828823","341","0.13378906","-0.9951172","-0.2939453","8.40625","1.15625","2.0625"
"1573702828823","342","0.1015625","-0.9736328","-0.234375","0.78125","-10.28125","6.15625"
"1573702828824","343","0.01953125","-0.9628906","-0.2578125","-13.0625","10.96875","-7.09375"
"1573702828824","344","0.13769531","-0.99316406","-0.27539062","-12.28125","4.8125","-0.0625"
"1573702828824","345","0.103515625","-0.97265625","-0.3310547","0.34375","4.375","0.21875"
"1573702828825","346","0.119140625","-0.9765625","-0.25097656","-3.0625","-6.0","9.4375"
"1573702828825","347","0.036132812","-0.9658203","-0.26953125","3.09375","6.75","4.0625"
"1573702828825","348","0.12109375","-0.984375","-0.27734375","9.5625","-4.84375","13.71875"
"1573702828825","349","0.052734375","-0.9736328","-0.24609375","17.125","0.34375","10.65625"
"1573702829418","350","0.041992188","-0.9667969","-0.2861328","22.09375","-21.375","12.0"
"1573702829418","351","-0.07128906","-1.0253906","-0.20507812","18.125","9.6875","-0.5"
"1573702829419","352","0.0859375","-1.0253906","-0.203125","17.375","9.25","7.5"
"1573702829419","353","0.0029296875","-0.97558594","-0.20898438","16.9375","4.5","4.0"
"1573702829419","354","0.06347656","-1.0058594","-0.18945312","0.53125","12.875","8.34375"
"1573702829419","355","0.056640625","-1.0449219","-0.20996094","7.125","4.25","5.84375"
"1573702829420","356","0.052734375","-1.0009766","-0.22070312","1.09375","-6.71875","8.09375"
"1573702829420","357","0.076171875","-1.0058594","-0.20019531","1.5625","-14.90625","15.3125"
"1573702829420","358","0.041015625","-0.9902344","-0.16210938","0.96875","-13.375","4.375"
"1573702829421","359","-0.0087890625","-1.0029297","-0.20605469","-2.75","-10.21875","-3.1875"
"1573702829617","360","0.029296875","-1.0195312","-0.21582031","-1.3125","-12.96875","-5.5625"
"1573702829619","361","0.024414062","-0.99902344","-0.16503906","-5.75","-14.78125","-6.65625"
"1573702829619","362","0.015625","-0.99316406","-0.20800781","2.90625","-9.65625","-10.21875"
"1573702829619","363","0.01171875","-1.0087891","-0.1953125","-4.59375","-9.84375","-9.0"
"1573702829620","364","0.013671875","-0.9941406","-0.19433594","-6.65625","-5.15625","-8.0"
"1573702829620","365","0.01953125","-1.0029297","-0.20605469","-2.75","0.28125","-9.0"
"1573702829620","366","0.034179688","-1.0068359","-0.20507812","-4.53125","2.59375","-6.5"
"1573702829620","367","0.043945312","-0.99121094","-0.20996094","-3.90625","3.03125","-6.71875"
"1573702829621","368","0.052734375","-0.98535156","-0.21484375","-3.25","4.125","-5.875"
"1573702829621","369","0.057617188","-0.9970703","-0.20898438","-0.3125","4.4375","-5.9375"
"1573702830014","370","0.06347656","-1.0009766","-0.22558594","2.375","1.21875","-4.96875"
"1573702830014","371","0.07128906","-1.0068359","-0.22070312","1.21875","-1.71875","-2.9375"
"1573702830014","372","0.07421875","-1.0048828","-0.21679688","0.71875","-4.21875","-0.5"
"1573702830015","373","0.068359375","-0.9921875","-0.20800781","0.21875","-4.65625","1.28125"
"1573702830015","374","0.060546875","-0.984375","-0.2265625","-1.125","-2.34375","1.5"
"1573702830016","375","0.060546875","-0.9941406","-0.23535156","-2.9375","-1.53125","0.21875"
"1573702830016","376","0.048828125","-1.0195312","-0.21191406","5.1875","-2.9375","1.28125"
"1573702830016","377","0.05859375","-0.96191406","-0.23632812","-1.34375","0.03125","-1.125"
"1573702830016","378","0.07128906","-1.0136719","-0.23046875","5.21875","-0.8125","0.96875"
"1573702830017","379","0.06347656","-0.9921875","-0.21386719","2.125","-3.125","0.28125"
"1573702830411","380","0.06542969","-0.99316406","-0.21191406","3.71875","1.15625","-0.0625"
"1573702830412","381","0.044921875","-1.0078125","-0.19921875","0.0","2.1875","-1.0625"
"1573702830412","382","0.056640625","-0.9902344","-0.20605469","-2.625","2.4375","-2.40625"
"1573702830412","383","0.05859375","-1.0009766","-0.21679688","-2.6875","1.4375","-1.84375"
"1573702830413","384","0.055664062","-0.98828125","-0.20996094","-3.6875","0.96875","-2.40625"
"1573702830413","385","0.068359375","-0.9941406","-0.22265625","-0.6875","-1.3125","-1.84375"
"1573702830415","386","0.06933594","-0.9902344","-0.22167969","0.53125","-1.25","-0.625"
"1573702830415","387","0.0625","-0.99121094","-0.21289062","-1.0","-1.78125","-0.875"
"1573702830415","388","0.061523438","-0.99121094","-0.22265625","0.90625","-0.4375","0.03125"
"1573702830415","389","0.07128906","-0.9970703","-0.21386719","-0.625","-0.6875","0.0"
"1573702831009","390","0.07421875","-1.0078125","-0.21679688","0.21875","-0.6875","0.71875"
"1573702831009","391","0.06738281","-0.9785156","-0.24121094","-2.6875","-0.1875","-1.0"
"1573702831009","392","0.064453125","-1.0146484","-0.19824219","-3.3125","0.78125","0.0"
"1573702831010","393","0.076171875","-0.99121094","-0.24414062","5.59375","4.1875","0.15625"
"1573702831010","394","0.064453125","-0.9970703","-0.22070312","-3.1875","2.0625","0.59375"
"1573702831010","395","0.08203125","-0.98535156","-0.23046875","-4.78125","2.0","0.09375"
"1573702831010","396","0.07910156","-0.98828125","-0.23535156","-4.40625","1.5","-1.0"
"1573702831011","397","0.07519531","-0.99121094","-0.23828125","-3.1875","1.5625","-0.125"
"1573702831012","398","0.08300781","-0.9863281","-0.24316406","-0.9375","0.96875","-1.0"
"1573702831012","399","0.0625","-0.98828125","-0.23925781","-0.1875","2.78125","-1.53125"
"1573702831406","400","0.076171875","-0.9941406","-0.2421875","0.21875","1.625","-1.25"
"1573702831407","401","0.072265625","-0.99121094","-0.23828125","0.40625","1.21875","-1.65625"
"1573702831407","402","0.083984375","-0.99609375","-0.234375","-2.03125","2.71875","-1.0"
"1573702831407","403","0.080078125","-0.9921875","-0.23828125","-1.53125","0.53125","-0.75"
"1573702831408","404","0.051757812","-1.0039062","-0.22558594","-3.6875","0.71875","-2.40625"
"1573702831408","405","0.036132812","-0.99121094","-0.21875","-11.78125","3.53125","-7.8125"
"1573702831408","406","0.095703125","-1.0244141","-0.2529297","-7.9375","-0.75","-6.3125"
"1573702831408","407","0.07519531","-0.9824219","-0.27929688","-8.75","-4.40625","-7.875"
"1573702831409","408","0.09277344","-0.9863281","-0.24609375","-4.46875","-0.8125","-7.65625"
"1573702831410","409","0.15722656","-1.0","-0.28027344","10.84375","-0.25","-5.5"
"1573702831804","410","0.0859375","-0.97753906","-0.24902344","-1.34375","-6.96875","-7.8125"
"1573702831804","411","0.09863281","-0.9785156","-0.26464844","-4.03125","-9.59375","-4.84375"
"1573702831805","412","0.10449219","-0.9873047","-0.2734375","-3.875","-4.15625","-6.5"
"1573702831805","413","0.125","-0.98339844","-0.2861328","-1.1875","0.09375","-3.0625"
"1573702831805","414","0.1328125","-0.97265625","-0.28320312","4.75","-1.3125","2.1875"
"1573702831805","415","0.12792969","-0.9785156","-0.27734375","5.90625","-2.875","5.0625"
"1573702831806","416","0.09375","-0.9892578","-0.25097656","4.9375","1.15625","4.0"
"1573702831806","417","0.1015625","-0.9736328","-0.25097656","3.59375","0.71875","2.84375"
"1573702831806","418","0.0859375","-0.99902344","-0.24316406","-0.75","4.375","0.59375"
"1573702831807","419","0.12988281","-0.9980469","-0.25976562","-4.90625","-1.0","2.96875"
"1573702832202","420","0.11230469","-0.984375","-0.26367188","-4.59375","-2.9375","4.375"
"1573702832203","421","0.103515625","-0.9873047","-0.2548828","-1.71875","-3.375","5.21875"
"1573702832204","422","0.11621094","-0.9863281","-0.26953125","0.15625","-7.875","5.125"
"1573702832204","423","0.09277344","-0.9824219","-0.26660156","-2.875","-6.125","3.71875"
"1573702832204","424","0.078125","-0.98828125","-0.2607422","-2.75","-7.15625","0.40625"
"1573702832205","425","0.10449219","-1.0107422","-0.2998047","10.53125","-7.09375","-1.46875"
"1573702832205","426","0.064453125","-0.9746094","-0.24804688","3.78125","-8.6875","2.71875"
"1573702832205","427","0.060546875","-0.95996094","-0.23730469","0.40625","-3.25","-2.6875"
"1573702832205","428","0.111328125","-0.9785156","-0.2705078","-0.9375","-0.125","-2.8125"
"1573702832206","429","0.055664062","-1.0009766","-0.27246094","0.40625","-2.09375","-5.21875"
"1573702832597","430","0.07421875","-0.9980469","-0.25878906","3.78125","2.96875","-1.25"
"1573702832598","431","0.08886719","-0.9902344","-0.25390625","1.5","7.125","-4.46875"
"1573702832598","432","0.095703125","-0.99121094","-0.25390625","-3.1875","9.1875","-0.6875"
"1573702832599","433","0.09277344","-0.984375","-0.23730469","-10.21875","11.09375","-2.875"
"1573702832599","434","0.1171875","-0.9824219","-0.2685547","-9.21875","1.875","-2.34375"
"1573702832600","435","0.08496094","-0.9921875","-0.28320312","-6.53125","2.84375","0.0"
"1573702832600","436","0.09863281","-0.97558594","-0.2705078","-10.5","5.78125","-3.6875"
"1573702832600","437","0.09667969","-0.9736328","-0.28320312","-8.375","4.4375","-4.53125"
"1573702832600","438","0.119140625","-0.9609375","-0.28320312","-8.9375","3.59375","-6.5"
"1573702832601","439","0.048828125","-0.9609375","-0.29882812","-16.125","1.3125","-17.03125"
"1573702832996","440","0.13378906","-1.0107422","-0.31347656","-0.5","0.96875","-5.875"
"1573702832996","441","0.18359375","-0.9199219","-0.35742188","-0.25","-4.65625","-0.9375"
"1573702832996","442","0.1015625","-0.96875","-0.31152344","5.28125","2.1875","1.625"
"1573702832997","443","0.15234375","-0.9189453","-0.3310547","-1.3125","3.46875","5.78125"
"1573702832997","444","0.16699219","-0.9394531","-0.34472656","-1.78125","-2.625","0.90625"
"1573702832998","445","0.17578125","-0.92578125","-0.3564453","7.8125","-0.6875","2.3125"
"1573702832998","446","0.234375","-0.95996094","-0.3251953","8.21875","-14.59375","7.625"
"1573702832999","447","0.11328125","-0.9667969","-0.29003906","17.625","-7.34375","5.96875"
"1573702832999","448","0.12109375","-0.98046875","-0.2890625","11.40625","-13.125","9.03125"
"1573702832999","449","0.08886719","-1.0078125","-0.28125","13.84375","-9.96875","6.8125"
"1573702833591","450","0.08691406","-0.9658203","-0.25976562","8.53125","-15.46875","9.4375"
"1573702833591","451","9.765625E-4","-0.9794922","-0.28320312","17.25","-5.3125","5.0625"
"1573702833591","452","0.04296875","-1.0058594","-0.2109375","8.28125","9.375","9.03125"
"1573702833592","453","0.06738281","-0.94628906","-0.21875","11.59375","11.28125","12.6875"
"1573702833592","454","0.068359375","-1.0292969","-0.22949219","3.90625","7.0625","11.9375"
"1573702833592","455","0.0234375","-0.9609375","-0.22949219","10.25","9.09375","3.9375"
"1573702833592","456","0.1171875","-1.0615234","-0.22851562","2.375","8.40625","6.15625"
"1573702833593","457","0.0859375","-0.9550781","-0.22949219","1.875","-6.0625","3.21875"
"1573702833594","458","0.049804688","-1.0078125","-0.24023438","-3.0625","-9.21875","-0.4375"
"1573702833594","459","0.060546875","-0.9941406","-0.22070312","-1.84375","-11.4375","0.28125"
"1573702833790","460","0.033203125","-0.9814453","-0.24414062","0.21875","-7.34375","-1.65625"
"1573702833790","461","0.059570312","-1.0097656","-0.23144531","0.65625","-4.78125","-3.0"
"1573702833790","462","0.052734375","-0.99609375","-0.21679688","-2.21875","-6.0625","-1.25"
"1573702833791","463","0.030273438","-0.9736328","-0.23242188","0.59375","-1.40625","-0.9375"
"1573702833791","464","0.060546875","-1.0136719","-0.24511719","0.65625","-0.8125","0.46875"
"1573702833791","465","0.056640625","-0.99316406","-0.23925781","2.96875","-3.375","0.53125"
"1573702833791","466","0.0546875","-0.9863281","-0.22851562","0.34375","-1.96875","0.59375"
"1573702833792","467","0.0546875","-0.99609375","-0.22460938","-1.25","1.625","0.84375"
"1573702833792","468","0.060546875","-0.9921875","-0.24414062","-0.5625","-0.75","-0.3125"
"1573702833793","469","0.04296875","-0.99121094","-0.2529297","1.3125","-3.75","-0.375"
"1573702834189","470","0.041992188","-0.98339844","-0.24316406","0.15625","-2.03125","-1.3125"
"1573702834190","471","0.046875","-0.9980469","-0.234375","-3.90625","0.15625","-3.1875"
"1573702834190","472","0.045898438","-1.0058594","-0.2421875","3.34375","-1.34375","-2.53125"
"1573702834190","473","0.0546875","-0.96777344","-0.23730469","-10.09375","-0.1875","-2.34375"
"1573702834190","474","0.0625","-1.0019531","-0.24023438","-0.5","0.03125","0.71875"
"1573702834191","475","0.060546875","-0.9892578","-0.24316406","-1.1875","-0.9375","1.3125"
"1573702834191","476","0.059570312","-0.98535156","-0.2421875","-1.34375","-1.3125","0.71875"
"1573702834191","477","0.06542969","-0.9902344","-0.234375","0.71875","-3.6875","0.28125"
"1573702834191","478","0.06738281","-0.99316406","-0.24316406","-0.5","-6.71875","1.03125"
"1573702834192","479","0.068359375","-0.9921875","-0.2421875","-1.71875","-7.65625","1.28125"
"1573702834585","480","0.068359375","-0.9941406","-0.25195312","2.3125","-9.53125","1.8125"
"1573702834585","481","0.047851562","-1.0","-0.23535156","0.65625","-11.1875","1.625"
"1573702834586","482","0.02734375","-0.9824219","-0.24511719","-1.40625","-9.65625","-0.625"
"1573702834586","483","0.043945312","-0.9941406","-0.24707031","-2.03125","-6.0625","-0.6875"
"1573702834586","484","0.041015625","-0.9892578","-0.25976562","-1.53125","-5.21875","-1.0625"
"1573702834586","485","0.04296875","-0.99121094","-0.26171875","-1.1875","-4.59375","-0.625"
"1573702834586","486","0.040039062","-0.9863281","-0.25","-1.40625","-2.6875","-0.6875"
"1573702834587","487","0.040039062","-0.99121094","-0.2529297","-1.40625","0.90625","-0.5625"
"1573702834587","488","0.041015625","-0.9785156","-0.27246094","-0.6875","0.65625","-1.40625"
"1573702834587","489","0.05859375","-1.0019531","-0.24414062","-2.75","3.21875","0.71875"
"1573702835180","490","0.057617188","-0.9941406","-0.2578125","3.71875","5.0625","1.8125"
"1573702835180","491","0.072265625","-0.98535156","-0.25585938","0.0","1.5","4.5625"
"1573702835180","492","0.057617188","-0.97753906","-0.26367188","0.40625","0.46875","3.03125"
"1573702835182","493","0.05078125","-0.9941406","-0.26171875","1.8125","-0.875","2.1875"
"1573702835182","494","0.038085938","-0.9941406","-0.25976562","2.90625","-3.3125","1.4375"
"1573702835182","495","0.048828125","-0.9824219","-0.2607422","3.28125","-3.125","-0.625"
"1573702835182","496","0.045898438","-0.98828125","-0.2578125","2.78125","-0.8125","-1.40625"
"1573702835183","497","0.04296875","-0.99121094","-0.2578125","2.3125","-0.375","-1.0"
"1573702835183","498","0.043945312","-0.99316406","-0.2529297","-1.90625","0.0","-1.59375"
"1573702835183","499","0.046875","-0.99121094","-0.2529297","-2.53125","-0.5","-1.65625"
"1573702835381","500","0.04296875","-1.0029297","-0.25195312","-2.75","-1.0","-1.34375"
"1573702835382","501","0.03125","-0.9863281","-0.2529297","-3.5","-0.4375","-1.34375"
"1573702835382","502","0.038085938","-0.9980469","-0.25","-2.28125","0.21875","-1.25"
"1573702835382","503","0.03515625","-0.9941406","-0.23828125","-3.375","3.40625","-1.59375"
"1573702835382","504","0.029296875","-0.9824219","-0.24902344","-8.3125","1.6875","-3.75"
"1573702835383","505","0.034179688","-1.0302734","-0.22753906","-9.65625","-0.75","-3.4375"
"1573702835384","506","0.046875","-0.9765625","-0.28027344","-4.59375","0.96875","-5.25"
"1573702835384","507","0.055664062","-0.98339844","-0.28125","-5.6875","-0.25","-3.75"
"1573702835384","508","0.07324219","-0.9716797","-0.28222656","-1.46875","2.90625","-4.03125"
"1573702835385","509","0.0859375","-0.99902344","-0.28808594","2.59375","2.0","-1.1875"
"1573702835779","510","0.06738281","-0.9892578","-0.27539062","2.1875","-1.59375","-0.3125"
"1573702835779","511","0.0625","-0.9794922","-0.2783203","5.28125","-1.90625","1.5"
"1573702835780","512","0.07128906","-0.9873047","-0.28320312","1.9375","-5.03125","2.65625"
"1573702835780","513","0.045898438","-0.95703125","-0.28515625","1.625","-3.1875","0.15625"
"1573702835780","514","0.057617188","-0.96972656","-0.28808594","5.40625","-1.78125","0.65625"
"1573702835780","515","0.05859375","-0.97558594","-0.27929688","9.3125","0.09375","1.28125"
"1573702835780","516","0.057617188","-0.9785156","-0.27148438","6.40625","0.03125","1.21875"
"1573702835782","517","0.061523438","-0.98339844","-0.23535156","3.03125","3.40625","1.4375"
"1573702835782","518","0.083984375","-0.96875","-0.25390625","2.0","3.40625","1.4375"
"1573702835782","519","0.06347656","-0.98535156","-0.2705078","3.28125","-4.71875","3.84375"
"1573702836177","520","0.046875","-0.9970703","-0.2705078","11.34375","-4.34375","5.71875"
"1573702836177","521","0.049804688","-0.9501953","-0.2548828","2.0","-4.71875","3.9375"
"1573702836177","522","0.052734375","-1.0078125","-0.23339844","12.375","-4.46875","4.4375"
"1573702836178","523","0.034179688","-0.98828125","-0.21386719","3.03125","-6.5","1.375"
"1573702836178","524","0.029296875","-0.9902344","-0.2529297","11.40625","-13.625","1.5"
"1573702836178","525","0.0078125","-1.0136719","-0.21875","14.875","-7.875","-0.3125"
"1573702836178","526","0.053710938","-0.9980469","-0.18847656","7.375","-2.59375","1.375"
"1573702836179","527","0.044921875","-0.984375","-0.17773438","1.6875","-6.78125","-0.125"
"1573702836179","528","0.025390625","-1.0097656","-0.20800781","3.46875","-9.21875","-2.03125"
"1573702836180","529","-0.009765625","-0.9892578","-0.1875","-5.21875","-1.0625","-7.71875"
"1573702836574","530","0.024414062","-0.9814453","-0.19238281","-13.4375","7.375","-13.3125"
"1573702836574","531","0.06640625","-1.0361328","-0.22949219","-9.40625","5.90625","-12.34375"
"1573702836574","532","0.038085938","-0.99902344","-0.23925781","-8.25","3.03125","-4.90625"
"1573702836575","533","0.052734375","-0.9863281","-0.23242188","-5.875","2.3125","-4.34375"
"1573702836575","534","0.033203125","-0.98535156","-0.21582031","-17.34375","10.71875","-10.15625"
"1573702836575","535","0.08105469","-1.0029297","-0.29785156","-1.65625","0.71875","-8.4375"
"1573702836575","536","0.033203125","-0.9824219","-0.20898438","-19.3125","10.59375","-5.5625"
"1573702836575","537","0.18847656","-0.99902344","-0.29296875","-4.28125","3.03125","0.03125"
"1573702836576","538","0.00390625","-0.9501953","-0.25976562","-11.5625","-0.375","-5.6875"
"1573702836576","539","0.18066406","-0.9580078","-0.3095703","-11.0","13.59375","1.875"
"1573702836971","540","0.043945312","-0.9501953","-0.3466797","-4.40625","-7.53125","-3.6875"
"1573702836972","541","0.16796875","-0.98535156","-0.30078125","3.65625","8.03125","6.8125"
"1573702836972","542","0.12792969","-0.98339844","-0.29003906","3.40625","-5.15625","6.21875"
"1573702836972","543","0.13574219","-0.9824219","-0.27734375","7.125","2.5625","11.21875"
"1573702836973","544","0.109375","-0.9765625","-0.2861328","6.8125","-16.96875","10.40625"
"1573702836973","545","-0.0048828125","-0.9707031","-0.2626953","2.90625","-0.5625","2.25"
"1573702836973","546","0.07910156","-1.0224609","-0.27539062","9.03125","-3.4375","6.6875"
"1573702836973","547","-0.0107421875","-0.9892578","-0.23242188","4.5","3.09375","-0.25"
"1573702836975","548","0.06738281","-0.9746094","-0.24609375","0.78125","11.15625","3.28125"
"1573702836975","549","0.053710938","-0.96484375","-0.29003906","6.5","5.1875","2.4375"
"1573702837369","550","0.040039062","-0.99316406","-0.25683594","15.125","12.0","5.65625"
"1573702837369","551","0.046875","-1.015625","-0.234375","5.0625","9.9375","2.375"
"1573702837370","552","0.06347656","-0.9863281","-0.21484375","17.3125","5.21875","0.40625"
"1573702837371","553","0.078125","-1.0595703","-0.21972656","4.9375","-0.75","2.5"
"1573702837371","554","0.06542969","-0.9736328","-0.23242188","-0.6875","-10.03125","0.15625"
"1573702837372","555","0.06347656","-0.98535156","-0.22363281","-1.71875","-4.90625","-0.875"
"1573702837372","556","0.040039062","-0.9921875","-0.23632812","-2.15625","-2.59375","-1.46875"
"1573702837372","557","0.0625","-1.0039062","-0.25097656","2.96875","-5.75","2.25"
"1573702837372","558","0.07714844","-0.99316406","-0.23535156","0.0","-1.90625","0.21875"
"1573702837373","559","0.037109375","-0.9814453","-0.22363281","2.4375","-1.90625","-1.0625"
"1573702837766","560","0.059570312","-1.0019531","-0.23828125","3.65625","-1.3125","0.28125"
"1573702837767","561","0.0625","-0.9980469","-0.23242188","2.1875","-1.125","-1.78125"
"1573702837767","562","0.04296875","-0.9941406","-0.22753906","0.59375","0.0","-1.0"
"1573702837767","563","0.05078125","-0.98535156","-0.22753906","0.0","1.375","-0.875"
"1573702837768","564","0.046875","-0.9863281","-0.24414062","-3.75","3.15625","-2.15625"
"1573702837769","565","0.06347656","-1.0253906","-0.22753906","2.0625","2.1875","0.03125"
"1573702837769","566","0.057617188","-0.9785156","-0.23242188","-3.875","2.0","0.03125"
"1573702837770","567","0.05078125","-1.0","-0.2265625","-1.0625","1.4375","1.21875"
"1573702837770","568","0.055664062","-0.99609375","-0.23632812","-0.6875","-0.25","1.375"
"1573702837770","569","0.049804688","-0.99121094","-0.23242188","0.78125","-0.875","0.59375"
"1573702838164","570","0.043945312","-0.99902344","-0.23242188","1.8125","1.3125","0.0"
"1573702838164","571","0.059570312","-0.9921875","-0.23828125","0.34375","1.15625","-1.84375"
"1573702838164","572","0.07128906","-0.9921875","-0.23339844","1.03125","0.84375","-1.65625"
"1573702838165","573","0.06640625","-0.9941406","-0.22851562","1.8125","1.03125","-1.34375"
"1573702838165","574","0.07128906","-0.9941406","-0.2265625","-0.0625","1.03125","-1.59375"
"1573702838165","575","0.07324219","-0.9951172","-0.2265625","-0.1875","-0.125","-2.15625"
"1573702838165","576","0.061523438","-1.0","-0.22167969","-0.4375","0.28125","-2.09375"
"1573702838167","577","0.06738281","-0.9941406","-0.22363281","0.21875","-1.125","-1.96875"
"1573702838169","578","0.05859375","-0.99316406","-0.21484375","-1.78125","-1.1875","-2.59375"
"1573702838169","579","0.076171875","-1.0019531","-0.22949219","-1.0625","1.625","-2.59375"
"1573702838564","580","0.06542969","-0.9863281","-0.2529297","2.25","-3.96875","-2.75"
"1573702838564","581","0.059570312","-0.98535156","-0.21191406","-8.5625","-1.40625","-2.34375"
"1573702838564","582","0.07910156","-1.0126953","-0.24316406","7.75","0.09375","-1.25"
"1573702838564","583","0.056640625","-0.9902344","-0.21875","-0.3125","-0.5625","-1.65625"
"1573702838565","584","0.08300781","-0.98339844","-0.23828125","-0.25","-0.9375","-2.09375"
"1573702838565","585","0.08203125","-0.99902344","-0.234375","1.5625","-0.4375","-1.0"
"1573702838565","586","0.072265625","-0.9892578","-0.22753906","-1.25","-0.875","-1.34375"
"1573702838565","587","0.08300781","-0.99316406","-0.23632812","1.6875","-0.375","-0.25"
"1573702838566","588","0.07714844","-0.9892578","-0.23632812","2.1875","-0.6875","0.0"
"1573702838567","589","0.083984375","-0.98535156","-0.22167969","0.28125","-0.25","-0.0625"
"1573702838958","590","0.080078125","-0.9892578","-0.23144531","0.21875","-0.625","0.40625"
"1573702838959","591","0.08105469","-0.99316406","-0.23632812","-0.8125","-2.03125","0.90625"
"1573702838959","592","0.068359375","-0.98339844","-0.23242188","-1.1875","-1.3125","0.90625"
"1573702838959","593","0.08203125","-0.9941406","-0.23632812","-0.5","0.46875","1.625"
"1573702838959","594","0.087890625","-0.98828125","-0.22949219","-2.8125","-1.25","1.3125"
"1573702838960","595","0.068359375","-1.0058594","-0.22753906","-1.25","-0.3125","1.5625"
"1573702838960","596","0.056640625","-0.9746094","-0.2685547","3.28125","-2.34375","-0.25"
"1573702838960","597","0.0703125","-0.98535156","-0.20800781","-7.40625","0.90625","-1.0625"
"1573702838960","598","0.0859375","-1.0078125","-0.25097656","7.84375","2.1875","0.84375"
"1573702838961","599","0.057617188","-0.98828125","-0.23925781","-1.34375","-1.71875","0.71875"
"1573702839752","600","0.07910156","-0.9873047","-0.23535156","-1.0625","-0.125","1.09375"
"1573702839753","601","0.091796875","-0.99902344","-0.24707031","0.78125","-0.6875","2.71875"
"1573702839753","602","0.061523438","-0.9873047","-0.23730469","-0.3125","-2.15625","1.875"
"1573702839753","603","0.08496094","-0.9941406","-0.22949219","0.0","-0.0625","1.9375"
"1573702839753","604","0.052734375","-1.0058594","-0.23339844","-0.3125","-2.6875","0.03125"
"1573702839754","605","0.033203125","-1.0078125","-0.20800781","-2.8125","1.4375","-1.84375"
"1573702839754","606","0.064453125","-0.99121094","-0.22558594","-6.96875","-3.90625","-5.09375"
"1573702839754","607","0.07421875","-0.99902344","-0.25195312","-7.09375","-6.90625","-5.8125"
"1573702839756","608","0.07910156","-1.0019531","-0.27148438","-4.03125","-4.90625","-3.75"
"1573702839756","609","0.091796875","-0.9902344","-0.25195312","0.78125","-3.3125","-2.21875"
"1573702839948","610","0.08496094","-0.9765625","-0.23730469","-0.5625","0.0","-4.53125"
"1573702839948","611","0.056640625","-0.9902344","-0.27246094","0.90625","-1.96875","-6.4375"
"1573702839949","612","0.08691406","-0.98339844","-0.27929688","-1.0","2.96875","-4.28125"
"1573702839949","613","0.12792969","-0.98535156","-0.24121094","-12.71875","-2.75","-2.40625"
"1573702839949","614","0.095703125","-0.9794922","-0.2841797","0.59375","-3.25","-1.1875"
"1573702839949","615","0.0625","-0.97558594","-0.27246094","1.5625","-1.0625","-1.0625"
"1573702839950","616","0.10546875","-0.9794922","-0.2841797","5.71875","-2.28125","0.78125"
"1573702839950","617","0.08984375","-0.9873047","-0.24804688","6.6875","-3.8125","-1.71875"
"1573702839950","618","0.07910156","-0.98535156","-0.24902344","2.65625","-6.125","-1.46875"
"1573702839950","619","0.0859375","-0.9873047","-0.24511719","1.375","-3.0","-1.1875"
"1573702840150","620","0.0859375","-0.9863281","-0.25976562","1.8125","-3.625","-0.75"
"1573702840150","621","0.09375","-0.9863281","-0.24707031","-1.0625","-1.40625","1.375"
"1573702840150","622","0.08105469","-0.9785156","-0.23828125","-1.90625","-2.40625","1.375"
"1573702840151","623","0.09082031","-0.9902344","-0.25","0.0","-2.46875","1.625"
"1573702840151","624","0.10449219","-0.98828125","-0.24707031","-4.15625","-1.71875","4.125"
"1573702840152","625","0.087890625","-0.97558594","-0.265625","-0.0625","-8.0","3.78125"
"1573702840152","626","0.076171875","-0.98535156","-0.29785156","7.90625","-9.40625","0.15625"
"1573702840153","627","0.0068359375","-1.0302734","-0.20898438","15.78125","2.4375","-0.1875"
"1573702840153","628","0.103515625","-0.97265625","-0.23046875","15.0","2.78125","3.78125"
"1573702840153","629","0.05859375","-0.95410156","-0.1875","-4.71875","1.09375","-0.375"
"1573702840547","630","0.053710938","-1.0107422","-0.23046875","-5.3125","10.90625","-4.53125"
"1573702840548","631","0.048828125","-1.0039062","-0.24609375","-12.40625","11.03125","-5.8125"
"1573702840548","632","0.07421875","-0.9873047","-0.2421875","-13.5","15.5625","-5.3125"
"1573702840548","633","0.13964844","-1.0029297","-0.2626953","-4.09375","9.5625","-0.9375"
"1573702840548","634","0.061523438","-0.9707031","-0.25097656","-5.4375","6.21875","-2.8125"
"1573702840549","635","0.11035156","-0.9970703","-0.24804688","-4.53125","8.84375","-3.3125"
"1573702840549","636","0.12011719","-0.99609375","-0.2705078","-5.03125","7.25","-4.03125"
"1573702840550","637","0.07910156","-0.9658203","-0.26953125","-4.46875","-0.3125","-6.3125"
"1573702840550","638","0.1015625","-0.9716797","-0.2734375","-2.21875","-0.375","-6.3125"
"1573702840550","639","0.11425781","-0.96972656","-0.30664062","-0.6875","-4.28125","-6.78125"
"1573702840946","640","0.12988281","-0.9746094","-0.32128906","3.34375","-12.34375","-1.84375"
"1573702840947","641","0.18164062","-0.96484375","-0.29785156","19.8125","-4.15625","5.40625"
"1573702840947","642","0.14550781","-0.9482422","-0.25097656","5.40625","-15.625","11.09375"
"1573702840947","643","0.15039062","-0.9746094","-0.25878906","12.75","1.03125","13.90625"
"1573702840947","644","0.13183594","-1.0039062","-0.27441406","20.0","-22.40625","16.40625"
"1573702840948","645","0.001953125","-0.94921875","-0.22753906","6.6875","-12.46875","7.5"
"1573702840948","646","0.044921875","-1.0576172","-0.22363281","22.875","-2.53125","11.34375"
"1573702840948","647","0.0859375","-0.9873047","-0.20507812","9.1875","-13.375","10.65625"
"1573702840948","648","0.018554688","-0.9941406","-0.20507812","8.90625","-8.5625","7.0625"
"1573702840950","649","0.06738281","-0.98535156","-0.20214844","3.84375","-1.65625","11.28125"
"1573702841344","650","0.02734375","-0.98535156","-0.21386719","4.625","0.09375","5.0"
"1573702841345","651","0.022460938","-1.0195312","-0.19433594","3.46875","6.28125","6.15625"
"1573702841345","652","0.046875","-1.0166016","-0.19238281","4.4375","-0.5625","5.125"
"1573702841345","653","-0.04296875","-0.9951172","-0.15722656","5.1875","-1.0625","0.34375"
"1573702841345","654","0.033203125","-0.9941406","-0.21972656","1.4375","-4.84375","2.25"
"1573702841346","655","0.091796875","-1.0058594","-0.16601562","2.5","-4.84375","-2.75"
"1573702841346","656","-0.0029296875","-1.0087891","-0.18261719","-3.625","-3.875","-5.09375"
"1573702841346","657","0.026367188","-1.0146484","-0.1796875","5.53125","-0.9375","-2.46875"
"1573702841347","658","0.047851562","-1.0205078","-0.1875","1.8125","-3.625","3.53125"
"1573702841347","659","0.02734375","-0.9736328","-0.18652344","-1.71875","0.15625","-0.875"
"1573702841938","660","0.0146484375","-1.0292969","-0.17578125","8.21875","-1.53125","0.78125"
"1573702841940","661","0.041992188","-0.9892578","-0.19140625","2.65625","-2.9375","-0.375"
"1573702841940","662","0.029296875","-1.0029297","-0.16796875","3.59375","-4.90625","0.53125"
"1573702841941","663","0.033203125","-1.0019531","-0.17382812","7.96875","-4.59375","0.34375"
"1573702841941","664","0.030273438","-1.0039062","-0.17675781","6.5","-6.375","1.4375"
"1573702841941","665","0.02734375","-1.0048828","-0.17089844","6.5625","-6.125","1.375"
"1573702841941","666","0.020507812","-1.0058594","-0.15527344","7.125","-6.53125","1.6875"
"1573702841942","667","0.0146484375","-1.0009766","-0.15722656","6.03125","-5.875","3.03125"
"1573702841942","668","0.0107421875","-1.0097656","-0.15039062","5.0","-4.28125","2.84375"
"1573702841942","669","0.021484375","-1.0078125","-0.1484375","2.65625","-3.625","2.0625"
"1573702842139","670","0.0107421875","-1.0058594","-0.14746094","0.34375","-3.6875","0.65625"
"1573702842139","671","0.0126953125","-1.0097656","-0.15039062","-0.5","-1.84375","-0.1875"
"1573702842139","672","0.01953125","-1.0107422","-0.15332031","-2.53125","-2.03125","-1.34375"
"1573702842141","673","0.017578125","-1.0097656","-0.15039062","-2.875","-3.0","-0.8125"
"1573702842141","674","0.024414062","-1.0185547","-0.15039062","-0.625","-1.65625","-0.375"
"1573702842141","675","0.020507812","-0.9902344","-0.16601562","-2.6875","-4.46875","-1.65625"
"1573702842142","676","0.015625","-1.0283203","-0.13671875","-3.6875","-1.84375","-0.6875"
"1573702842142","677","0.02734375","-1.0097656","-0.16601562","-2.03125","-0.5","-2.09375"
"1573702842142","678","0.009765625","-1.0058594","-0.15917969","-4.53125","-4.28125","-1.46875"
"1573702842142","679","0.025390625","-1.0126953","-0.1640625","-2.9375","-2.625","-1.78125"
"1573702842535","680","0.016601562","-1.0029297","-0.16699219","-2.03125","-2.21875","-1.59375"
"1573702842536","681","0.0126953125","-1.0117188","-0.16601562","-2.53125","-0.5","-1.34375"
"1573702842536","682","0.0146484375","-1.0","-0.16992188","-3.875","-0.0625","-1.78125"
"1573702842536","683","0.013671875","-1.0029297","-0.1796875","-2.875","1.3125","-1.65625"
"1573702842537","684","0.026367188","-1.0078125","-0.17675781","-1.96875","1.375","-1.84375"
"1573702842538","685","0.02734375","-1.0009766","-0.171875","-1.96875","1.5625","-2.59375"
"1573702842538","686","0.03125","-1.0019531","-0.17773438","-3.75","2.0","-3.125"
"1573702842538","687","0.03515625","-1.0048828","-0.18457031","-3.1875","0.71875","-4.09375"
"1573702842539","688","0.037109375","-0.99902344","-0.19042969","-2.625","0.09375","-4.34375"
"1573702842539","689","0.032226562","-1.0087891","-0.18652344","-1.96875","-0.875","-3.6875"
"1573702842934","690","0.049804688","-1.0048828","-0.18847656","-0.375","2.78125","-2.59375"
"1573702842934","691","0.0390625","-0.98535156","-0.203125","-1.1875","-2.21875","-3.75"
"1573702842935","692","0.034179688","-1.0146484","-0.171875","-10.15625","1.6875","-2.9375"
"1573702842935","693","0.068359375","-0.99316406","-0.21386719","0.21875","3.09375","-3.625"
"1573702842935","694","0.046875","-1.0019531","-0.19824219","-5.5","-2.875","-2.6875"
"1573702842935","695","0.049804688","-0.9921875","-0.20703125","-1.25","-1.84375","-3.6875"
"1573702842936","696","0.06347656","-0.99902344","-0.2109375","2.25","-1.90625","-3.1875"
"1573702842937","697","0.051757812","-0.9951172","-0.20019531","0.40625","-0.6875","-2.9375"
"1573702842937","698","0.053710938","-0.99902344","-0.20605469","2.5625","-0.25","-2.75"
"1573702842938","699","0.053710938","-1.0019531","-0.20605469","3.53125","-0.4375","-0.75"
"1573702843333","700","0.0625","-1.0029297","-0.19140625","0.65625","-1.25","-0.25"
"1573702843333","701","0.051757812","-0.99316406","-0.20996094","3.15625","-0.625","-0.4375"
"1573702843333","702","0.052734375","-1.0029297","-0.19824219","3.46875","-1.0625","0.59375"
"1573702843334","703","0.05859375","-0.9941406","-0.20410156","2.3125","0.46875","-0.4375"
"1573702843334","704","0.0625","-1.0068359","-0.19140625","2.84375","-0.5","-1.1875"
"1573702843334","705","0.05859375","-0.99609375","-0.19238281","-0.375","-1.3125","-1.71875"
"1573702843334","706","0.060546875","-1.0019531","-0.1875","-3.4375","1.15625","-1.1875"
"1573702843335","707","0.044921875","-1.0322266","-0.17773438","4.3125","-2.09375","-1.0"
"1573702843335","708","0.034179688","-0.97753906","-0.17675781","-9.71875","-0.3125","-3.5625"
"1573702843336","709","0.057617188","-1.0195312","-0.18066406","-7.03125","-1.0","-3.3125"
"1573702843729","710","0.0625","-0.99609375","-0.19433594","-10.40625","-2.8125","-4.90625"
"1573702843729","711","0.08984375","-1.0126953","-0.21484375","-9.65625","-1.0625","-4.34375"
"1573702843729","712","0.07910156","-0.9941406","-0.23535156","-2.8125","-4.34375","-1.59375"
"1573702843730","713","0.08105469","-0.96777344","-0.2421875","-0.8125","0.09375","-1.0"
"1573702843730","714","0.0703125","-1.0048828","-0.2109375","3.59375","2.90625","-1.71875"
"1573702843730","715","0.07421875","-0.99121094","-0.20703125","2.5625","1.5625","-0.8125"
"1573702843730","716","0.076171875","-0.9941406","-0.22167969","1.9375","5.96875","-1.125"
"1573702843731","717","0.08300781","-1.0039062","-0.22460938","1.5625","4.4375","1.375"
"1573702843731","718","0.06640625","-0.98828125","-0.22070312","4.6875","2.25","2.4375"
"1573702843731","719","0.091796875","-0.9902344","-0.19042969","3.21875","4.4375","3.9375"
"1573702844125","720","0.08105469","-0.97753906","-0.22070312","6.03125","5.0625","2.25"
"1573702844125","721","0.06542969","-1.0","-0.21582031","4.125","2.0625","5.40625"
"1573702844126","722","0.05078125","-1.0","-0.17578125","7.8125","8.71875","4.0625"
"1573702844126","723","0.053710938","-0.9892578","-0.20410156","4.25","10.0625","0.65625"
"1573702844126","724","0.059570312","-1.0136719","-0.18066406","2.96875","6.15625","2.0625"
"1573702844126","725","0.045898438","-0.98046875","-0.18457031","2.4375","2.25","-0.5625"
"1573702844127","726","0.080078125","-1.0175781","-0.19433594","7.1875","1.875","1.3125"
"1573702844127","727","0.09472656","-1.0029297","-0.15722656","2.0","-5.9375","5.1875"
"1573702844127","728","0.06542969","-0.9921875","-0.18457031","3.65625","-16.125","2.1875"
"1573702844127","729","0.049804688","-1.0361328","-0.19433594","16.34375","-14.71875","3.40625"
"1573702844524","730","0.1015625","-1.0039062","-0.15136719","16.40625","-10.28125","13.15625"
"1573702844524","731","0.044921875","-0.9560547","-0.12402344","6.625","-13.1875","5.78125"
"1573702844524","732","-0.009765625","-1.0","-0.1484375","2.0625","-2.46875","-2.40625"
"1573702844525","733","0.0146484375","-1.0146484","-0.14550781","-3.5","11.21875","-4.90625"
"1573702844526","734","0.022460938","-1.0009766","-0.13378906","-12.09375","4.6875","-7.21875"
"1573702844526","735","0.015625","-1.03125","-0.17089844","-8.875","9.8125","-4.59375"
"1573702844526","736","0.047851562","-1.0019531","-0.1796875","-8.875","13.84375","-6.84375"
"1573702844526","737","0.055664062","-1.0166016","-0.16503906","-9.21875","4.125","-7.03125"
"1573702844527","738","0.05859375","-0.97753906","-0.19042969","-4.84375","23.78125","-12.65625"
"1573702844527","739","0.0859375","-1.0380859","-0.17382812","-3.125","3.78125","-10.28125"
"1573702844921","740","0.10644531","-0.9863281","-0.16210938","-16.5","5.46875","-11.4375"
"1573702844922","741","0.091796875","-1.0117188","-0.2109375","-11.84375","-1.0625","-9.96875"
"1573702844922","742","0.109375","-0.9765625","-0.20996094","-14.25","-0.9375","-6.5"
"1573702844922","743","0.125","-0.98046875","-0.24609375","-10.40625","-4.15625","-3.8125"
"1573702844923","744","0.15625","-0.96484375","-0.25976562","-10.15625","-7.40625","0.15625"
"1573702844924","745","0.15625","-0.96875","-0.2734375","-3.25","-3.875","6.75"
"1573702844924","746","0.19433594","-1.0","-0.2685547","6.625","-12.90625","13.90625"
"1573702844925","747","0.09863281","-0.98535156","-0.22070312","-5.03125","-6.25","9.9375"
"1573702844925","748","0.107421875","-0.99121094","-0.24804688","2.78125","-17.21875","12.875"
"1573702844925","749","0.001953125","-0.96875","-0.21875","-5.3125","-4.65625","3.9375"
"1573702845319","750","0.09667969","-1.0205078","-0.2734375","8.21875","-8.125","8.96875"
"1573702845319","751","-0.0029296875","-0.9501953","-0.2578125","14.5625","-8.625","1.09375"
"1573702845320","752","0.05859375","-0.9873047","-0.20898438","10.90625","1.625","3.90625"
"1573702845320","753","0.04296875","-1.0078125","-0.23242188","21.84375","1.9375","-1.84375"
"1573702845320","754","0.03515625","-1.0117188","-0.14160156","12.25","9.375","4.3125"
"1573702845320","755","0.06933594","-1.0136719","-0.19042969","9.1875","7.125","5.0"
"1573702845321","756","0.053710938","-1.0078125","-0.2109375","2.84375","3.34375","2.125"
"1573702845322","757","-0.0068359375","-1.0058594","-0.1875","0.0","0.15625","5.90625"
"1573702845322","758","0.059570312","-1.0195312","-0.17675781","3.59375","1.6875","8.71875"
"1573702845323","759","0.045898438","-0.9980469","-0.18261719","2.59375","-0.5625","7.8125"
"1573702845716","760","0.021484375","-1.0068359","-0.19238281","1.15625","-1.53125","3.53125"
"1573702845717","761","0.024414062","-1.015625","-0.19335938","4.25","-3.1875","2.5625"
"1573702845717","762","0.045898438","-1.0078125","-0.17089844","3.46875","-3.4375","2.78125"
"1573702845717","763","0.049804688","-1.0097656","-0.17480469","3.71875","-7.21875","0.90625"
"1573702845717","764","0.032226562","-0.9970703","-0.16894531","2.96875","-6.71875","0.90625"
"1573702845718","765","0.03125","-1.0068359","-0.17480469","1.4375","-3.96875","2.78125"
"1573702845718","766","0.025390625","-1.0068359","-0.19042969","6.03125","-4.71875","4.4375"
"1573702845718","767","0.016601562","-0.98339844","-0.16210938","-12.40625","1.75","3.59375"
"1573702845718","768","0.020507812","-1.0322266","-0.1953125","-3.6875","5.46875","7.6875"
"1573702845720","769","0.0068359375","-1.0107422","-0.14941406","-2.59375","4.9375","11.03125"
"1573702846112","770","0.036132812","-1.0078125","-0.15917969","-4.59375","-0.125","11.75"
"1573702846113","771","-0.01171875","-1.0009766","-0.19335938","-3.375","-4.59375","12.3125"
"1573702846113","772","-0.043945312","-1.0117188","-0.20117188","-8.0","-1.71875","13.53125"
"1573702846113","773","-0.016601562","-0.99902344","-0.18945312","-7.46875","5.21875","12.5625"
"1573702846113","774","-0.03515625","-0.98535156","-0.19433594","-7.8125","5.1875","10.65625"
"1573702846114","775","-0.047851562","-0.9658203","-0.20117188","-18.9375","3.34375","10.1875"
"1573702846114","776","-0.04296875","-0.96777344","-0.2265625","-16.25","-2.28125","5.96875"
"1573702846114","777","-0.06347656","-0.9667969","-0.2548828","-7.59375","-10.5","4.1875"
"1573702846114","778","-0.061523438","-0.9716797","-0.27929688","5.84375","-12.21875","1.5"
"1573702846115","779","-0.048828125","-0.9824219","-0.23046875","10.0625","-8.75","0.53125"
"1573702846510","780","-0.053710938","-1.0","-0.19335938","9.875","-5.25","-2.40625"
"1573702846511","781","-0.045898438","-0.99316406","-0.21972656","11.9375","-6.25","-0.0625"
"1573702846512","782","-0.048828125","-0.9902344","-0.19042969","-6.65625","-1.84375","-0.4375"
"1573702846512","783","-0.0390625","-1.0146484","-0.22363281","1.09375","-0.0625","2.78125"
"1573702846512","784","-0.061523438","-0.9824219","-0.20996094","-5.15625","-1.1875","1.21875"
"1573702846512","785","-0.0625","-0.9873047","-0.22753906","-4.15625","0.03125","-1.96875"
"1573702846513","786","-0.060546875","-0.98535156","-0.24023438","0.65625","2.71875","-3.0"
"1573702846513","787","-0.057617188","-0.9824219","-0.22363281","0.21875","2.0","-5.4375"
"1573702846513","788","-0.0390625","-0.99121094","-0.21875","3.59375","1.28125","-6.96875"
"1573702846513","789","-0.041992188","-0.9824219","-0.22265625","2.125","1.8125","-9.0625"
"1573702846909","790","-0.032226562","-1.0019531","-0.21191406","2.5625","1.625","-8.5"
"1573702846910","791","-0.030273438","-0.9921875","-0.21191406","0.59375","-0.8125","-8.875"
"1573702846910","792","-0.016601562","-1.0039062","-0.21679688","4.125","-1.125","-5.25"
"1573702846911","793","-0.0029296875","-1.0039062","-0.21386719","7.0","-6.125","-0.6875"
"1573702846912","794","-0.01953125","-0.984375","-0.21582031","4.125","-8.8125","-0.1875"
"1573702846912","795","-0.038085938","-1.0029297","-0.20898438","5.46875","-6.125","-0.9375"
"1573702846912","796","-0.036132812","-1.0029297","-0.1953125","7.5625","-3.125","-0.875"
"1573702846912","797","-0.025390625","-0.99316406","-0.18457031","4.9375","0.28125","-2.28125"
"1573702846913","798","-0.03515625","-0.99121094","-0.20507812","1.28125","0.71875","-4.84375"
"1573702846913","799","-0.026367188","-1.0224609","-0.18359375","6.75","-0.1875","-3.25"
"1573702847306","800","-9.765625E-4","-0.98828125","-0.203125","0.59375","4.375","-3.8125"
"1573702847307","801","-0.0078125","-1.0048828","-0.19726562","3.53125","-0.125","-1.53125"
"1573702847307","802","-0.0029296875","-1.0019531","-0.18652344","1.75","-1.40625","-0.875"
"1573702847307","803","-0.00390625","-0.9980469","-0.19140625","1.09375","-1.65625","-0.4375"
"1573702847308","804","-0.0068359375","-1.0048828","-0.18945312","3.90625","-2.09375","0.21875"
"1573702847309","805","-0.009765625","-0.99121094","-0.1875","0.59375","-4.65625","-0.0625"
"1573702847309","806","-0.017578125","-1.0","-0.17675781","0.15625","-3.1875","-1.3125"
"1573702847310","807","-0.016601562","-1.0117188","-0.16503906","-3.8125","-2.75","-2.46875"
"1573702847310","808","-0.03125","-1.0175781","-0.15820312","-4.59375","-2.46875","-4.21875"
"1573702847310","809","-0.0107421875","-1.0244141","-0.18554688","-4.90625","-1.0625","-4.46875"
"1573702847704","810","0.030273438","-1.0527344","-0.19824219","5.65625","-1.53125","-0.25"
"1573702847704","811","-0.01953125","-1.0029297","-0.16308594","-0.9375","-3.90625","-5.15625"
"1573702847705","812","-0.009765625","-0.9824219","-0.20898438","8.15625","-4.28125","-6.71875"
"1573702847705","813","0.0146484375","-1.0117188","-0.18066406","5.21875","-7.03125","-3.5625"
"1573702847705","814","0.0107421875","-0.96484375","-0.18554688","2.84375","-7.09375","-5.9375"
"1573702847705","815","0.03125","-0.9980469","-0.19238281","7.8125","-5.09375","-3.875"
"1573702847705","816","0.05078125","-1.0214844","-0.17285156","11.59375","-7.78125","5.28125"
"1573702847707","817","0.0087890625","-0.9814453","-0.16113281","16.46875","-11.4375","8.09375"
"1573702847707","818","-0.026367188","-0.9863281","-0.15136719","18.125","-8.125","4.3125"
"1573702847708","819","-0.044921875","-0.9658203","-0.13183594","3.65625","-1.46875","-0.6875"
"1573702848100","820","-0.005859375","-1.0097656","-0.14160156","6.625","4.375","-4.34375"
"1573702848101","821","-0.00390625","-0.9970703","-0.14257812","3.53125","3.59375","-2.46875"
"1573702848101","822","0.0126953125","-0.9951172","-0.13769531","-4.71875","5.28125","-3.25"
"1573702848102","823","0.029296875","-0.9921875","-0.15039062","4.4375","5.0","-0.4375"
"1573702848102","824","0.013671875","-1.0302734","-0.13671875","7.1875","2.0","1.28125"
"1573702848102","825","0.03125","-1.0273438","-0.13867188","11.8125","-4.09375","5.71875"
"1573702848102","826","0.0","-1.0087891","-0.119140625","17.0","-12.59375","6.21875"
"1573702848102","827","-0.009765625","-1.0263672","-0.09082031","16.9375","-11.5625","7.84375"
"1573702848103","828","0.0146484375","-1.0380859","-0.061523438","9.25","-10.21875","10.90625"
"1573702848104","829","-0.038085938","-1.0019531","-0.080078125","12.5625","-22.59375","11.40625"
"1573702848498","830","-0.09375","-1.0214844","-0.061523438","14.03125","-6.84375","6.875"
"1573702848499","831","-0.0390625","-0.9824219","-0.029296875","-0.6875","2.84375","2.5"
"1573702848499","832","-0.052734375","-1.0068359","-0.056640625","-3.96875","4.0625","-6.25"
"1573702848499","833","-0.053710938","-1.0107422","-0.056640625","-12.28125","7.625","-9.90625"
"1573702848499","834","-0.024414062","-1.0097656","-0.07714844","-14.65625","1.5","-13.4375"
"1573702848500","835","-0.03125","-1.0175781","-0.068359375","-17.59375","4.5625","-14.0"
"1573702848500","836","-0.0146484375","-1.0224609","-0.08300781","-14.0","5.0625","-13.1875"
"1573702848500","837","0.02734375","-1.015625","-0.12988281","-8.0","-0.8125","-9.53125"
"1573702848500","838","-0.009765625","-0.9941406","-0.06738281","-18.03125","-5.09375","-7.03125"
"1573702848501","839","0.022460938","-1.0185547","-0.14550781","-3.90625","2.90625","-7.59375"
"1573702848896","840","-0.01171875","-0.96972656","-0.13867188","-15.09375","-2.15625","-6.78125"
"1573702848898","841","0.060546875","-0.984375","-0.19433594","-10.28125","-1.34375","-8.0"
"1573702848898","842","0.059570312","-0.99121094","-0.21191406","-4.03125","-0.9375","-11.90625"
"1573702848899","843","0.07128906","-1.0400391","-0.17578125","4.25","0.96875","-7.09375"
"1573702848899","844","0.07519531","-0.9892578","-0.14355469","-3.5625","7.375","-8.6875"
"1573702848899","845","0.0859375","-1.0195312","-0.18652344","4.625","-5.03125","-0.1875"
"1573702848900","846","0.056640625","-0.9609375","-0.16699219","-7.9375","9.875","-3.5625"
"1573702848900","847","0.18261719","-1.0244141","-0.24414062","8.34375","-9.96875","9.5"
"1573702848900","848","-0.03125","-0.92871094","-0.15625","-6.65625","-4.96875","1.9375"
"1573702848901","849","0.07714844","-1.0664062","-0.19824219","8.09375","3.40625","4.625"
"1573702849294","850","-0.024414062","-1.0019531","-0.11328125","0.28125","-3.125","6.03125"
"1573702849294","851","-0.0068359375","-1.0146484","-0.14941406","12.1875","10.71875","0.65625"
"1573702849295","852","0.08984375","-1.0058594","-0.15234375","4.5","6.9375","7.84375"
"1573702849296","853","0.036132812","-0.98535156","-0.14453125","6.75","0.28125","7.625"
"1573702849296","854","-0.0078125","-1.0205078","-0.13476562","5.1875","9.25","5.0625"
"1573702849297","855","0.015625","-1.0078125","-0.13574219","6.625","7.6875","7.0625"
"1573702849297","856","-0.016601562","-1.0566406","-0.06347656","10.71875","3.40625","12.1875"
"1573702849297","857","-0.030273438","-0.9609375","-0.10058594","4.5625","-7.8125","15.5"
"1573702849297","858","0.0234375","-1.0253906","-0.12890625","-4.28125","1.15625","7.5"
"1573702849298","859","0.0146484375","-1.0244141","-0.12988281","2.71875","-5.9375","6.6875"
"1573702849690","860","-0.052734375","-0.96972656","-0.123046875","3.34375","-4.78125","4.875"
"1573702849691","861","0.0068359375","-1.046875","-0.15429688","4.625","-6.375","6.15625"
"1573702849691","862","-0.03125","-0.99609375","-0.107421875","4.0","-1.65625","3.65625"
"1573702849691","863","-0.033203125","-0.9951172","-0.11328125","7.25","-0.8125","1.875"
"1573702849691","864","-0.017578125","-1.0253906","-0.12109375","3.03125","-3.1875","0.96875"
"1573702849693","865","-0.032226562","-1.0029297","-0.10546875","0.65625","-0.375","0.71875"
"1573702849693","866","-0.022460938","-1.0126953","-0.107421875","0.21875","3.21875","-0.125"
"1573702849694","867","-0.009765625","-1.0136719","-0.109375","-2.34375","2.5625","1.21875"
"1573702849694","868","-0.03515625","-1.0","-0.10644531","-1.53125","3.28125","1.03125"
"1573702849694","869","-0.032226562","-1.0009766","-0.11035156","0.59375","3.03125","-1.53125"
"1573702850286","870","-0.016601562","-1.0107422","-0.12402344","0.65625","1.9375","-1.78125"
"1573702850286","871","-0.025390625","-1.0107422","-0.12011719","-0.625","0.46875","-1.46875"
"1573702850286","872","-0.0146484375","-1.0175781","-0.10546875","-0.75","1.875","-2.15625"
"1573702850287","873","-0.01953125","-0.99316406","-0.12792969","-2.09375","-2.34375","-1.1875"
"1573702850287","874","-0.0390625","-1.0322266","-0.09667969","-1.78125","0.46875","1.375"
"1573702850287","875","-0.0048828125","-1.0","-0.12890625","2.65625","3.9375","-1.59375"
"1573702850287","876","-0.025390625","-1.0136719","-0.11230469","-1.84375","-0.1875","-0.6875"
"1573702850289","877","-0.017578125","-0.99902344","-0.11816406","-1.25","0.15625","-1.25"
"1573702850289","878","-0.015625","-1.0107422","-0.11621094","-0.5","0.71875","-1.53125"
"1573702850289","879","-0.01953125","-1.0126953","-0.11328125","-0.5","-1.96875","-1.0625"
"1573702850486","880","-0.016601562","-0.99902344","-0.119140625","-2.03125","-0.75","-1.53125"
"1573702850486","881","-0.01171875","-1.0048828","-0.12695312","-2.59375","-1.59375","-2.34375"
"1573702850486","882","-0.017578125","-1.0126953","-0.12890625","-0.9375","-1.65625","-2.09375"
"1573702850487","883","-0.0146484375","-1.0087891","-0.123046875","-1.3125","-2.15625","-1.71875"
"1573702850487","884","-0.0107421875","-1.0078125","-0.13085938","-2.21875","-2.34375","-2.28125"
"1573702850487","885","-0.013671875","-1.0136719","-0.13964844","-2.15625","-2.21875","-1.46875"
"1573702850487","886","-0.0126953125","-1.0058594","-0.13378906","-2.34375","-1.34375","-1.1875"
"1573702850488","887","-0.0126953125","-1.0068359","-0.13574219","-0.25","-0.5625","-1.125"
"1573702850488","888","-0.00390625","-1.015625","-0.140625","1.375","-0.1875","-1.0"
"1573702850489","889","-0.0029296875","-1.0068359","-0.13574219","1.5","0.28125","-0.875"
"1573702851081","890","-0.005859375","-1.0019531","-0.13671875","-0.25","-1.1875","-2.75"
"1573702851081","891","-0.013671875","-1.0283203","-0.1328125","5.0","-1.125","-1.96875"
"1573702851081","892","0.0107421875","-0.98046875","-0.14453125","0.59375","-0.75","-3.75"
"1573702851082","893","-0.001953125","-1.0234375","-0.13476562","2.4375","-2.40625","-2.09375"
"1573702851082","894","-0.005859375","-1.0029297","-0.12792969","0.28125","-2.46875","-2.6875"
"1573702851082","895","0.0107421875","-1.0068359","-0.13671875","0.15625","-1.96875","-2.53125"
"1573702851082","896","0.017578125","-1.0185547","-0.13183594","1.03125","-6.125","1.28125"
"1573702851083","897","0.005859375","-1.0058594","-0.12597656","-2.28125","-6.96875","1.21875"
"1573702851083","898","0.0146484375","-1.0009766","-0.13085938","0.65625","-6.125","1.625"
"1573702851083","899","-0.0048828125","-1.0058594","-0.14550781","2.0","-5.875","0.09375"
"1573702851281","900","-0.0048828125","-1.0068359","-0.13378906","1.5625","-4.21875","-1.0"
"1573702851283","901","-0.005859375","-1.0068359","-0.13085938","4.625","-5.5","-1.0"
"1573702851284","902","-0.0068359375","-1.0107422","-0.1171875","4.25","-3.6875","-1.1875"
"1573702851284","903","-0.015625","-1.0029297","-0.11816406","3.03125","-2.59375","-2.46875"
"1573702851285","904","0.013671875","-1.0087891","-0.119140625","3.03125","-0.6875","-1.34375"
"1573702851285","905","0.0087890625","-1.0087891","-0.10839844","-1.71875","-2.625","-1.84375"
"1573702851285","906","-0.01171875","-1.0185547","-0.10644531","-2.6875","-0.375","-1.78125"
"1573702851285","907","0.0126953125","-1.0029297","-0.14257812","2.5","-2.75","-1.1875"
"1573702851286","908","-0.0078125","-0.99609375","-0.087890625","-10.625","-2.40625","-2.28125"
"1573702851286","909","0.0068359375","-1.0361328","-0.12792969","1.4375","-0.25","-1.25"
"1573702851677","910","-0.0126953125","-0.9951172","-0.107421875","-8.0625","-6.59375","-0.8125"
"1573702851678","911","-0.018554688","-1.0117188","-0.13964844","-9.0","-5.5","-3.6875"
"1573702851678","912","0.0107421875","-1.0322266","-0.13964844","-6.84375","-6.65625","0.0"
"1573702851679","913","0.016601562","-1.0068359","-0.12890625","-9.21875","-2.59375","0.03125"
"1573702851679","914","0.015625","-0.9980469","-0.15917969","-7.21875","-1.1875","-3.875"
"1573702851680","915","0.032226562","-1.0117188","-0.15625","-7.15625","-0.375","-2.03125"
"1573702851680","916","0.0068359375","-0.9970703","-0.1796875","-4.28125","-4.46875","-3.3125"
"1573702851680","917","-0.0087890625","-0.9902344","-0.16796875","-2.53125","-2.09375","-4.46875"
"1573702851680","918","0.0234375","-1.0019531","-0.18261719","2.90625","1.4375","-6.3125"
"1573702851681","919","0.05078125","-1.0166016","-0.16601562","3.40625","-1.40625","-2.53125"
"1573702852075","920","0.041015625","-0.99609375","-0.16113281","3.09375","-0.1875","1.15625"
"1573702852076","921","0.026367188","-1.0146484","-0.16992188","5.34375","2.25","4.0625"
"1573702852076","922","0.026367188","-1.0175781","-0.14648438","0.0","2.96875","8.34375"
"1573702852076","923","0.024414062","-1.0175781","-0.16503906","9.1875","2.78125","9.8125"
"1573702852076","924","0.013671875","-0.96972656","-0.13671875","-5.21875","0.03125","9.3125"
"1573702852078","925","-0.016601562","-1.0078125","-0.13964844","-5.4375","3.59375","3.15625"
"1573702852078","926","-0.040039062","-0.9902344","-0.16503906","-7.875","6.40625","-1.65625"
"1573702852078","927","-0.026367188","-0.9970703","-0.15917969","-5.25","10.375","-4.28125"
"1573702852079","928","-0.0087890625","-1.0087891","-0.16796875","-2.15625","7.6875","-3.8125"
"1573702852079","929","0.0107421875","-1.0078125","-0.17773438","-1.0","7.8125","-2.625"
"1573702852474","930","0.001953125","-1.0097656","-0.1875","6.875","0.15625","0.34375"
"1573702852475","931","0.0234375","-0.99609375","-0.15722656","3.53125","-3.375","2.84375"
"1573702852475","932","-0.0068359375","-1.0068359","-0.15917969","6.5625","-8.375","5.125"
"1573702852475","933","0.0029296875","-0.9921875","-0.16210938","14.28125","-10.8125","8.78125"
"1573702852475","934","0.026367188","-0.9941406","-0.16796875","16.03125","-15.34375","9.9375"
"1573702852476","935","-0.03515625","-1.0058594","-0.13574219","16.90625","-9.0625","7.4375"
"1573702852476","936","-0.025390625","-1.0214844","-0.107421875","14.875","-6.59375","11.53125"
"1573702852477","937","-0.05859375","-1.0009766","-0.061523438","5.59375","-1.84375","6.8125"
"1573702852478","938","-0.060546875","-1.0009766","-0.125","3.59375","-0.125","1.28125"
"1573702852478","939","-0.0703125","-0.9980469","-0.06640625","-16.1875","8.65625","-3.5625"
"1573702852871","940","-0.0146484375","-1.0263672","-0.1328125","-10.28125","1.875","-3.5625"
"1573702852872","941","-0.057617188","-1.0136719","-0.125","-12.65625","3.09375","-4.65625"
"1573702852872","942","-0.051757812","-1.0126953","-0.14550781","-7.71875","3.78125","-6.71875"
"1573702852872","943","0.001953125","-1.0048828","-0.12988281","-8.9375","5.53125","-7.46875"
"1573702852873","944","-0.021484375","-1.0185547","-0.15429688","-7.15625","1.15625","-5.75"
"1573702852873","945","-0.01953125","-1.0087891","-0.15332031","-4.59375","0.78125","-5.03125"
"1573702852873","946","-0.029296875","-0.98339844","-0.18554688","-1.25","-0.1875","-6.84375"
"1573702852873","947","-0.048828125","-0.9785156","-0.16503906","-6.0","10.1875","-16.3125"
"1573702852874","948","0.06640625","-0.98046875","-0.18457031","-12.53125","15.3125","-13.875"
"1573702852875","949","0.10058594","-0.96875","-0.23730469","-10.625","-1.65625","-5.09375"
"1573702853269","950","0.09277344","-0.99121094","-0.18164062","-15.40625","11.71875","-2.6875"
"1573702853269","951","0.111328125","-0.96484375","-0.25976562","-2.46875","-16.8125","11.15625"
"1573702853269","952","-0.022460938","-0.98535156","-0.18359375","0.78125","-4.78125","-1.125"
"1573702853270","953","0.034179688","-1.0458984","-0.19628906","2.125","-4.15625","1.3125"
"1573702853270","954","-0.020507812","-1.0058594","-0.17480469","7.1875","-8.875","-2.8125"
"1573702853270","955","0.029296875","-0.9248047","-0.16894531","-1.25","-3.4375","-2.9375"
"1573702853270","956","-0.07128906","-1.0146484","-0.20898438","3.78125","-2.625","-8.25"
"1573702853271","957","-0.022460938","-1.0058594","-0.16992188","31.84375","20.375","5.71875"
"1573702853271","958","-0.06542969","-0.9970703","-0.095703125","18.96875","14.5625","-32.25"
"1573702853271","959","0.08300781","-1.0371094","-0.18652344","-13.625","-1.96875","24.21875"
"1573702853665","960","0.17675781","-0.98046875","-0.08105469","-9.96875","-4.15625","1.4375"
"1573702853666","961","-0.028320312","-0.94921875","-0.18847656","-10.40625","-22.40625","8.78125"
"1573702853666","962","0.01171875","-1.0126953","-0.23144531","-4.90625","10.84375","-2.875"
"1573702853667","963","0.10644531","-1.0742188","-0.19042969","-6.125","-10.4375","1.28125"
"1573702853667","964","-0.030273438","-0.9794922","-0.14453125","-11.5","-5.375","-2.34375"
"1573702853667","965","0.056640625","-0.953125","-0.19140625","2.96875","-3.1875","-16.125"
"1573702853667","966","0.0703125","-1.0283203","-0.22265625","-1.3125","-10.5625","-6.78125"
"1573702853668","967","0.028320312","-1.0058594","-0.17871094","-5.875","-7.59375","-12.84375"
"1573702853668","968","0.018554688","-1.015625","-0.18554688","-3.0625","-5.3125","-10.28125"
"1573702853668","969","0.026367188","-0.99121094","-0.22363281","6.5625","-7.8125","-4.96875"
"1573702854063","970","0.01953125","-1.0058594","-0.18847656","-6.53125","-2.53125","-6.125"
"1573702854063","971","0.068359375","-1.0146484","-0.21191406","1.5625","0.96875","-6.0"
"1573702854064","972","0.060546875","-1.0107422","-0.15917969","-9.34375","-1.84375","-4.21875"
"1573702854065","973","0.06933594","-0.9824219","-0.19238281","-6.1875","1.15625","-2.6875"
"1573702854065","974","0.0703125","-1.0019531","-0.22460938","-3.90625","2.71875","-1.53125"
"1573702854065","975","0.07910156","-1.0068359","-0.20703125","-5.03125","-3.90625","-1.59375"
"1573702854066","976","0.064453125","-0.984375","-0.21386719","-2.21875","-6.1875","-1.65625"
"1573702854066","977","0.07519531","-0.9941406","-0.20996094","-0.875","-3.75","-2.03125"
"1573702854066","978","0.0859375","-1.0019531","-0.203125","-3.1875","-5.6875","-4.09375"
"1573702854066","979","0.080078125","-0.99316406","-0.20703125","-3.25","-8.375","-3.5"
