"# PR data"
"# Start time: 20191114T034313"
"# Subject: teo"
"# Activity type: Leg slide"
"# Correctness: Correct"
"# Notes: "
""
"timestamp","seq","accel_x","accel_y","accel_z","gyro_x","gyro_y","gyro_z"
"1573702993586","0","-0.08105469","-0.97558594","-0.15039062","7.5","25.125","-19.375"
"1573702993586","1","-0.16113281","-0.8984375","-0.140625","-0.0625","28.0","-7.53125"
"1573702993586","2","-0.07421875","-1.0371094","-0.14160156","-17.78125","52.46875","-10.21875"
"1573702993587","3","0.14355469","-1.2402344","-0.13476562","-46.09375","57.25","-45.84375"
"1573702993587","4","0.087890625","-1.1015625","-0.10839844","-31.9375","0.46875","-22.0625"
"1573702993587","5","9.765625E-4","-0.69433594","-0.17382812","4.1875","-13.0625","-1.0"
"1573702993587","6","0.059570312","-0.921875","-0.2265625","-17.65625","26.40625","-15.8125"
"1573702993588","7","0.016601562","-1.2216797","-0.21875","-24.4375","11.09375","1.375"
"1573702993588","8","0.0107421875","-0.9482422","-0.19042969","-8.25","-7.65625","-1.3125"
"1573702993588","9","0.076171875","-0.91796875","-0.16796875","-2.03125","6.09375","-3.1875"
"1573702993983","10","0.013671875","-1.0898438","-0.17285156","15.0625","6.8125","7.5"
"1573702993983","11","0.0068359375","-0.9609375","-0.171875","4.6875","2.5625","-2.9375"
"1573702993983","12","0.125","-0.9433594","-0.18066406","-1.78125","-0.1875","-11.125"
"1573702993984","13","0.103515625","-1.0273438","-0.20898438","-7.21875","-2.15625","-12.78125"
"1573702993984","14","0.061523438","-1.0224609","-0.20410156","-4.15625","-3.0","-9.21875"
"1573702993985","15","0.08496094","-0.99316406","-0.1875","0.28125","-4.15625","-7.09375"
"1573702993985","16","0.08984375","-0.99121094","-0.17871094","11.15625","-3.375","-3.90625"
"1573702993985","17","0.059570312","-1.0087891","-0.18261719","9.03125","0.78125","-4.53125"
"1573702993986","18","0.09277344","-1.015625","-0.171875","10.375","1.5625","-8.0"
"1573702993986","19","0.12597656","-1.0048828","-0.16503906","14.3125","0.96875","-7.53125"
"1573702994381","20","0.14453125","-0.9892578","-0.13183594","14.9375","-3.125","-6.125"
"1573702994382","21","0.1015625","-0.9970703","-0.111328125","12.6875","-1.46875","-5.15625"
"1573702994382","22","0.046875","-1.0087891","-0.103515625","6.625","2.71875","-3.8125"
"1573702994383","23","0.08105469","-0.9716797","-0.12792969","2.65625","12.0625","0.53125"
"1573702994383","24","0.123046875","-1.0146484","-0.15039062","1.75","17.6875","2.71875"
"1573702994384","25","0.11035156","-1.0527344","-0.11816406","10.96875","10.78125","0.78125"
"1573702994384","26","0.095703125","-0.9863281","-0.12792969","4.3125","8.28125","-0.9375"
"1573702994384","27","0.1484375","-1.0117188","-0.1171875","4.4375","10.78125","-4.59375"
"1573702994385","28","0.19726562","-1.0029297","-0.12011719","1.03125","-3.0","-8.0625"
"1573702994385","29","0.16601562","-1.0234375","-0.099609375","-2.28125","-10.625","-9.59375"
"1573702994778","30","0.14941406","-1.0488281","-0.09375","-5.09375","-17.28125","-8.0"
"1573702994778","31","0.056640625","-1.0234375","-0.12792969","-2.625","-12.03125","-2.6875"
"1573702994778","32","0.095703125","-0.96484375","-0.1328125","3.46875","-0.875","2.1875"
"1573702994779","33","0.16699219","-0.97265625","-0.111328125","1.625","-0.0625","3.15625"
"1573702994779","34","0.17285156","-0.9873047","-0.10644531","-3.5","3.03125","0.09375"
"1573702994779","35","0.17675781","-1.0322266","-0.099609375","-1.0625","1.375","-1.125"
"1573702994779","36","0.13476562","-1.03125","-0.115234375","-0.625","-3.5625","-3.625"
"1573702994781","37","0.15234375","-1.0","-0.12402344","-1.34375","-11.0","-1.78125"
"1573702994781","38","0.16113281","-0.984375","-0.115234375","-2.40625","-8.375","-2.40625"
"1573702994781","39","0.13476562","-0.99316406","-0.12402344","-0.1875","-4.78125","-1.84375"
"1573702995374","40","0.16113281","-0.9980469","-0.10644531","-0.625","-3.5625","-0.875"
"1573702995374","41","0.15136719","-1.0214844","-0.11035156","-4.03125","-6.59375","2.25"
"1573702995374","42","0.125","-1.0097656","-0.10839844","0.90625","-3.75","1.375"
"1573702995375","43","0.20410156","-0.97558594","-0.10839844","5.125","-6.375","-1.25"
"1573702995375","44","0.13964844","-1.0136719","-0.12109375","2.84375","-13.5","3.59375"
"1573702995375","45","0.10449219","-1.0195312","-0.11230469","-1.59375","-5.21875","3.03125"
"1573702995375","46","0.19824219","-0.9951172","-0.12597656","5.28125","-6.71875","1.8125"
"1573702995376","47","0.10546875","-1.0244141","-0.12109375","-5.21875","-12.09375","2.71875"
"1573702995376","48","0.099609375","-0.99316406","-0.12011719","0.34375","-4.40625","2.65625"
"1573702995377","49","0.140625","-1.0126953","-0.13964844","3.59375","-5.4375","3.71875"
"1573702995574","50","0.09375","-1.0419922","-0.15625","-2.53125","-6.84375","6.8125"
"1573702995574","51","0.10546875","-0.9707031","-0.1328125","3.21875","-3.125","10.125"
"1573702995575","52","0.09472656","-1.0146484","-0.13769531","1.875","1.3125","13.09375"
"1573702995575","53","0.068359375","-1.0234375","-0.13476562","-2.09375","5.34375","16.71875"
"1573702995575","54","0.083984375","-0.9794922","-0.12011719","-3.8125","6.40625","17.6875"
"1573702995575","55","0.103515625","-1.0087891","-0.12890625","-8.5625","7.375","13.84375"
"1573702995576","56","0.072265625","-1.0117188","-0.14746094","-10.9375","7.375","7.625"
"1573702995576","57","0.072265625","-1.0205078","-0.16699219","-10.28125","8.34375","4.75"
"1573702995576","58","0.09375","-1.0117188","-0.18066406","-7.9375","11.9375","5.84375"
"1573702995576","59","0.08496094","-1.0078125","-0.16015625","-6.0","10.375","4.625"
"1573702995971","60","0.06640625","-1.0214844","-0.1328125","0.03125","10.53125","8.28125"
"1573702995973","61","0.091796875","-0.9814453","-0.1484375","-2.03125","11.875","7.3125"
"1573702995973","62","0.08691406","-1.0087891","-0.14550781","-7.65625","7.5625","3.90625"
"1573702995974","63","0.07714844","-1.0107422","-0.1640625","-8.5625","5.21875","1.75"
"1573702995974","64","0.083984375","-1.0009766","-0.17089844","-8.3125","5.78125","4.25"
"1573702995974","65","0.06640625","-0.9970703","-0.18164062","-6.0625","4.0625","7.6875"
"1573702995974","66","0.056640625","-0.9902344","-0.16992188","-4.40625","1.3125","12.0625"
"1573702995975","67","0.032226562","-0.9785156","-0.17480469","5.84375","0.96875","14.5"
"1573702995975","68","-0.013671875","-1.0292969","-0.17578125","19.75","8.03125","19.6875"
"1573702995975","69","-0.072265625","-1.0429688","-0.1796875","13.46875","15.90625","26.21875"
"1573702996368","70","-0.08886719","-1.0488281","-0.21972656","6.9375","16.03125","27.28125"
"1573702996368","71","0.015625","-1.0439453","-0.16113281","4.3125","12.0625","19.21875"
"1573702996368","72","-0.07324219","-0.97558594","-0.14648438","2.1875","2.59375","16.28125"
"1573702996370","73","-0.1171875","-0.96484375","-0.21777344","-8.75","-4.21875","21.59375"
"1573702996370","74","-0.0048828125","-0.98535156","-0.17578125","-8.25","8.53125","11.875"
"1573702996370","75","-0.12695312","-0.9863281","-0.16796875","-4.40625","0.78125","12.8125"
"1573702996371","76","-0.14160156","-1.0087891","-0.20800781","-4.59375","-5.03125","24.15625"
"1573702996371","77","-0.07324219","-0.9892578","-0.21582031","-4.53125","2.65625","9.25"
"1573702996371","78","-0.1328125","-0.9970703","-0.15820312","-6.1875","1.3125","8.90625"
"1573702996371","79","-0.107421875","-0.96777344","-0.20996094","6.34375","-6.78125","11.03125"
"1573702996766","80","-0.16796875","-0.95214844","-0.19824219","-1.84375","-13.03125","14.375"
"1573702996766","81","-0.16601562","-0.9765625","-0.20410156","1.9375","-11.5625","13.34375"
"1573702996767","82","-0.17480469","-0.9765625","-0.22363281","-4.84375","-9.59375","5.46875"
"1573702996767","83","-0.19726562","-0.96777344","-0.2109375","-4.78125","-12.53125","3.84375"
"1573702996767","84","-0.19726562","-0.9501953","-0.20898438","3.71875","-13.8125","1.3125"
"1573702996768","85","-0.18261719","-0.9326172","-0.19042969","6.21875","-12.96875","2.125"
"1573702996769","86","-0.21875","-0.9296875","-0.171875","4.4375","-6.71875","2.3125"
"1573702996769","87","-0.21289062","-0.97265625","-0.19824219","1.8125","-3.3125","-0.9375"
"1573702996769","88","-0.15429688","-0.9951172","-0.1875","1.09375","-3.4375","-2.625"
"1573702996770","89","-0.17480469","-0.97558594","-0.19628906","-0.25","-3.875","-4.96875"
"1573702997164","90","-0.17089844","-0.9638672","-0.16601562","1.9375","2.125","-6.96875"
"1573702997165","91","-0.16601562","-0.98339844","-0.16992188","2.25","6.46875","-6.125"
"1573702997165","92","-0.21191406","-0.97265625","-0.1953125","-5.4375","4.625","-1.90625"
"1573702997165","93","-0.1484375","-0.9560547","-0.21191406","-1.78125","10.78125","-2.46875"
"1573702997166","94","-0.1015625","-0.9423828","-0.23632812","10.59375","2.1875","-7.15625"
"1573702997166","95","-0.11816406","-0.95996094","-0.14648438","4.0","9.1875","-8.875"
"1573702997166","96","-0.10058594","-1.0546875","-0.17675781","8.46875","7.1875","-15.6875"
"1573702997168","97","-0.12792969","-1.0273438","-0.15527344","7.4375","2.78125","-14.40625"
"1573702997168","98","-0.09082031","-0.95996094","-0.14746094","5.46875","2.3125","-11.78125"
"1573702997169","99","-0.09472656","-0.9589844","-0.17578125","10.40625","4.4375","-15.6875"
"1573702997563","100","-0.109375","-0.9746094","-0.19335938","11.15625","0.21875","-7.03125"
"1573702997564","101","-0.041992188","-0.97753906","-0.13769531","11.65625","-5.4375","-1.25"
"1573702997564","102","-0.053710938","-0.99316406","-0.091796875","7.84375","-7.53125","-15.21875"
"1573702997564","103","-0.14160156","-1.0400391","-0.13574219","6.15625","-6.375","-16.0625"
"1573702997565","104","-0.080078125","-1.0361328","-0.18652344","-3.1875","-5.625","-5.25"
"1573702997565","105","-0.060546875","-1.0214844","-0.16601562","-5.21875","-4.59375","-8.5625"
"1573702997565","106","-0.11328125","-1.0273438","-0.14941406","-8.75","-3.125","-3.90625"
"1573702997565","107","-0.13183594","-0.97265625","-0.1484375","-14.65625","9.875","-2.875"
"1573702997566","108","-0.068359375","-0.9667969","-0.16015625","-7.78125","12.625","-2.9375"
"1573702997567","109","-0.0048828125","-1.0107422","-0.16796875","-2.53125","10.40625","-7.09375"
"1573702997957","110","-0.0859375","-1.0058594","-0.18164062","-0.5625","1.9375","-9.96875"
"1573702997958","111","-0.072265625","-0.9941406","-0.13476562","-0.125","6.15625","-4.71875"
"1573702997958","112","0.037109375","-0.953125","-0.15429688","14.03125","7.5625","-6.84375"
"1573702997958","113","0.026367188","-1.0185547","-0.14550781","8.96875","-10.28125","-11.0"
"1573702997958","114","-0.0126953125","-1.0341797","-0.171875","10.0","-20.65625","-17.84375"
"1573702997959","115","-0.026367188","-1.0556641","-0.12207031","13.03125","-20.40625","-16.125"
"1573702997959","116","0.03515625","-1.0400391","-0.125","20.3125","-12.65625","-15.28125"
"1573702997959","117","0.13183594","-0.99121094","-0.07128906","20.8125","-18.09375","-17.40625"
"1573702997959","118","0.061523438","-0.9892578","-0.072265625","18.96875","-25.90625","-18.9375"
"1573702997960","119","-0.0859375","-1.0097656","-0.08886719","14.9375","-16.3125","-7.28125"
"1573702998355","120","-0.068359375","-1.0097656","-0.103515625","6.75","3.53125","2.59375"
"1573702998356","121","0.045898438","-1.0419922","-0.08691406","-2.15625","11.75","0.40625"
"1573702998357","122","0.0703125","-1.0380859","-0.08984375","-6.90625","6.40625","-5.5"
"1573702998357","123","0.053710938","-0.9892578","-0.09472656","-1.0","8.21875","-5.5"
"1573702998357","124","0.044921875","-1.0185547","-0.07910156","1.5","12.0625","-3.0625"
"1573702998357","125","0.07910156","-1.0439453","-0.0703125","0.84375","12.1875","-3.96875"
"1573702998358","126","0.10253906","-0.99902344","-0.046875","0.96875","6.5625","-8.375"
"1573702998358","127","0.07324219","-1.0214844","-0.026367188","2.71875","7.625","-2.46875"
"1573702998358","128","0.08691406","-1.0048828","-0.05078125","3.59375","9.9375","-0.4375"
"1573702998359","129","0.09277344","-1.0175781","-0.04296875","0.21875","5.78125","-1.46875"
"1573702998754","130","0.1171875","-1.0","-0.043945312","1.875","3.53125","-1.78125"
"1573702998754","131","0.10546875","-1.0097656","-0.04296875","3.09375","-2.53125","0.53125"
"1573702998755","132","0.08496094","-1.0009766","-0.030273438","2.1875","-3.125","5.0625"
"1573702998756","133","0.07519531","-0.9980469","-0.025390625","-2.34375","-4.40625","4.9375"
"1573702998757","134","0.0859375","-0.98535156","-0.047851562","-2.21875","-8.5","4.5625"
"1573702998757","135","0.076171875","-0.99316406","-0.048828125","-3.4375","-13.0625","5.84375"
"1573702998757","136","0.060546875","-1.0234375","-0.06347656","-0.9375","-12.78125","-0.0625"
"1573702998757","137","0.041992188","-1.0507812","-0.046875","-0.5","-4.53125","-0.125"
"1573702998758","138","0.037109375","-1.0302734","-0.068359375","1.8125","-3.4375","0.65625"
"1573702998758","139","0.076171875","-1.0029297","-0.049804688","3.71875","-6.53125","10.1875"
"1573702999348","140","0.037109375","-0.9921875","-0.041992188","-6.5","-4.84375","9.3125"
"1573702999349","141","-0.01171875","-1.0419922","-0.08691406","-0.8125","-3.0625","12.0"
"1573702999349","142","0.057617188","-1.0058594","-0.080078125","2.4375","-2.9375","19.75"
"1573702999349","143","-0.05078125","-1.0419922","-0.0859375","-7.8125","4.8125","4.75"
"1573702999349","144","-0.015625","-1.0498047","-0.10253906","6.46875","8.71875","6.46875"
"1573702999350","145","0.0625","-0.98535156","-0.07519531","4.9375","1.4375","4.0"
"1573702999351","146","0.051757812","-0.9628906","-0.037109375","3.28125","-3.5625","-0.5625"
"1573702999351","147","0.043945312","-0.98046875","-0.036132812","2.84375","-6.5","2.3125"
"1573702999351","148","-0.0029296875","-1.0175781","-0.048828125","-3.0","-6.4375","0.78125"
"1573702999352","149","-0.024414062","-1.0214844","-0.07324219","-4.03125","-2.21875","4.75"
"1573702999549","150","-0.036132812","-1.0263672","-0.091796875","-6.84375","0.90625","10.125"
"1573702999550","151","-0.018554688","-1.0263672","-0.09082031","-7.28125","3.65625","9.03125"
"1573702999550","152","-0.0029296875","-1.0273438","-0.087890625","-7.40625","4.9375","5.84375"
"1573702999550","153","-0.005859375","-1.0185547","-0.091796875","-4.09375","8.03125","-1.0625"
"1573702999550","154","0.01953125","-1.0029297","-0.08496094","-1.0625","3.21875","-0.125"
"1573702999551","155","0.07324219","-0.9628906","-0.040039062","0.21875","-2.8125","-3.0"
"1573702999551","156","0.00390625","-1.0205078","-0.044921875","-3.875","-5.09375","-3.25"
"1573702999552","157","-0.032226562","-1.0","-0.09667969","-6.84375","-6.84375","-1.125"
"1573702999552","158","-0.0234375","-1.0283203","-0.06738281","-16.125","-0.5","-0.0625"
"1573702999553","159","-0.015625","-1.0371094","-0.13378906","0.34375","-5.6875","6.34375"
"1573702999945","160","-0.064453125","-0.9873047","-0.111328125","-0.125","-5.21875","17.5"
"1573702999946","161","-0.07714844","-1.0175781","-0.08300781","2.90625","1.6875","23.0"
"1573702999946","162","-0.1796875","-1.0","-0.12597656","0.53125","9.625","23.375"
"1573702999946","163","-0.12890625","-1.0214844","-0.14160156","2.4375","11.21875","27.09375"
"1573702999947","164","-0.08496094","-1.0214844","-0.109375","7.4375","11.71875","27.75"
"1573702999947","165","-0.16894531","-1.0117188","-0.12890625","5.34375","13.21875","26.03125"
"1573702999947","166","-0.13671875","-1.0175781","-0.14257812","1.5625","14.03125","21.96875"
"1573702999947","167","-0.048828125","-0.9863281","-0.12890625","0.90625","10.25","13.84375"
"1573702999947","168","-0.06640625","-0.9169922","-0.1015625","2.375","-5.8125","2.5625"
"1573702999949","169","-0.12792969","-0.99316406","-0.13378906","-4.21875","-13.25","3.59375"
"1573703000344","170","-0.15722656","-1.0556641","-0.15332031","-8.9375","-10.6875","1.21875"
"1573703000344","171","-0.1484375","-0.9970703","-0.12402344","-7.03125","-12.65625","2.78125"
"1573703000345","172","-0.2109375","-0.94433594","-0.17578125","-7.65625","-18.5","-0.4375"
"1573703000345","173","-0.18945312","-0.94921875","-0.14550781","-6.3125","-4.78125","1.375"
"1573703000345","174","-0.19335938","-0.9921875","-0.14746094","2.4375","-7.21875","2.5"
"1573703000346","175","-0.2421875","-1.0166016","-0.14453125","-6.4375","-6.53125","2.0"
"1573703000346","176","-0.19726562","-0.96484375","-0.15917969","-6.59375","-9.59375","-0.4375"
"1573703000346","177","-0.17773438","-0.93847656","-0.15234375","1.28125","-12.78125","0.15625"
"1573703000347","178","-0.22558594","-0.98828125","-0.15722656","-1.40625","-7.34375","5.53125"
"1573703000347","179","-0.18066406","-0.95996094","-0.16601562","0.28125","-3.1875","0.90625"
"1573703000938","180","-0.17285156","-0.9482422","-0.13964844","3.53125","-4.21875","1.15625"
"1573703000939","181","-0.22753906","-0.9560547","-0.15136719","8.84375","-2.03125","0.0"
"1573703000940","182","-0.19726562","-0.92578125","-0.13769531","12.75","3.15625","-4.78125"
"1573703000940","183","-0.16699219","-0.95996094","-0.13085938","12.0","4.6875","-9.84375"
"1573703000940","184","-0.16503906","-1.0019531","-0.11425781","7.375","5.78125","-14.34375"
"1573703000940","185","-0.15429688","-1.0371094","-0.11425781","7.84375","1.3125","-13.4375"
"1573703000941","186","-0.12597656","-1.0224609","-0.091796875","1.6875","-1.53125","-13.125"
"1573703000941","187","-0.17285156","-1.0019531","-0.12402344","9.75","-8.3125","-9.71875"
"1573703000941","188","-0.13769531","-0.984375","-0.1015625","1.28125","5.96875","-7.8125"
"1573703000942","189","-0.123046875","-1.0507812","-0.11621094","9.5625","7.5625","-7.03125"
"1573703001139","190","-0.07519531","-0.9951172","-0.07421875","8.28125","3.40625","-9.0"
"1573703001140","191","-0.11328125","-0.9482422","-0.06640625","5.59375","-2.59375","-15.15625"
"1573703001140","192","-0.103515625","-0.9667969","-0.08105469","11.59375","-3.90625","-17.90625"
"1573703001142","193","-0.10546875","-1.0175781","-0.083984375","-1.65625","-8.25","-18.15625"
"1573703001143","194","-0.12988281","-0.9794922","-0.08203125","-7.71875","-4.15625","-13.875"
"1573703001143","195","-0.10449219","-1.0332031","-0.068359375","1.03125","2.25","-9.65625"
"1573703001143","196","-0.020507812","-1.0791016","-0.08886719","-5.3125","4.75","-19.78125"
"1573703001144","197","0.041015625","-1.0244141","-0.0859375","-9.78125","-8.375","-26.1875"
"1573703001144","198","-0.06542969","-1.0244141","-0.13378906","-15.8125","-10.8125","-17.28125"
"1573703001144","199","-0.1328125","-1.0087891","-0.13671875","-7.09375","-1.71875","-3.5"
"1573703001538","200","-0.068359375","-0.94921875","-0.10546875","1.5","-0.4375","7.6875"
"1573703001538","201","-0.037109375","-0.95214844","-0.11816406","0.03125","6.34375","0.21875"
"1573703001539","202","-0.046875","-1.0478516","-0.11621094","6.75","5.84375","-7.40625"
"1573703001539","203","-0.0087890625","-0.9892578","-0.12402344","-0.0625","1.375","-7.59375"
"1573703001539","204","-0.0126953125","-0.98046875","-0.09277344","14.375","0.65625","-9.125"
"1573703001541","205","-0.03125","-0.9326172","-0.072265625","22.625","-2.6875","-7.21875"
"1573703001541","206","0.038085938","-0.9794922","-0.076171875","18.65625","-2.53125","-8.75"
"1573703001541","207","0.09667969","-1.0761719","-0.038085938","15.65625","-7.8125","-15.59375"
"1573703001542","208","0.15625","-1.0966797","9.765625E-4","13.03125","-12.96875","-19.0"
"1573703001542","209","0.06347656","-1.03125","-0.017578125","30.125","-18.8125","-24.5625"
"1573703001932","210","0.034179688","-1.0087891","0.0","28.71875","-19.90625","-14.53125"
"1573703001933","211","-0.0146484375","-1.0410156","0.024414062","14.4375","-7.8125","-9.0625"
"1573703001933","212","0.02734375","-1.0126953","0.0029296875","7.0625","9.6875","-4.28125"
"1573703001933","213","0.11816406","-1.0048828","-0.028320312","-1.59375","12.6875","-7.46875"
"1573703001934","214","0.13183594","-1.0478516","-0.024414062","-14.3125","1.21875","-9.34375"
"1573703001934","215","0.12109375","-1.0292969","-0.00390625","-9.78125","-1.53125","-11.0"
"1573703001934","216","0.13085938","-1.0058594","9.765625E-4","-6.71875","-0.8125","-12.09375"
"1573703001935","217","0.078125","-1.0458984","0.057617188","-10.4375","1.875","-10.28125"
"1573703001935","218","0.07910156","-0.99902344","-0.01171875","-2.625","10.78125","-5.25"
"1573703001936","219","0.11230469","-0.9873047","0.0078125","-11.625","7.5","1.03125"
"1573703002528","220","0.16601562","-0.98339844","0.029296875","-5.4375","4.0","0.71875"
"1573703002528","221","0.14355469","-1.0273438","0.017578125","-5.3125","4.9375","-2.03125"
"1573703002529","222","0.09375","-1.0371094","0.00390625","-1.0","7.5625","-2.46875"
"1573703002529","223","0.140625","-0.99316406","-0.00390625","-2.875","2.5","1.5625"
"1573703002529","224","0.13671875","-0.9824219","-0.0048828125","-1.34375","-3.4375","5.34375"
"1573703002529","225","0.111328125","-0.99316406","0.018554688","-1.53125","-7.78125","5.84375"
"1573703002529","226","0.10546875","-0.9794922","-0.0068359375","-1.0625","-13.625","4.0625"
"1573703002529","227","0.13574219","-1.0068359","0.0068359375","-3.6875","-10.75","6.15625"
"1573703002530","228","0.12109375","-1.0195312","-0.0068359375","-13.4375","-13.0625","5.28125"
"1573703002531","229","0.08105469","-1.0390625","-0.060546875","-7.09375","-14.59375","1.375"
"1573703002730","230","0.07714844","-1.0361328","-0.03515625","-3.25","-11.0625","10.40625"
"1573703002731","231","0.001953125","-1.0146484","-0.083984375","0.84375","-5.4375","9.5625"
"1573703002731","232","0.060546875","-1.0019531","-0.07519531","-12.09375","0.71875","6.28125"
"1573703002731","233","0.12011719","-1.0263672","-0.055664062","1.09375","-1.3125","13.40625"
"1573703002731","234","0.013671875","-1.0117188","-0.06933594","-3.75","3.09375","4.0625"
"1573703002732","235","0.053710938","-1.0166016","-0.08300781","-1.65625","6.15625","8.21875"
"1573703002732","236","0.10644531","-1.0146484","-0.068359375","5.53125","-1.34375","8.53125"
"1573703002732","237","0.055664062","-1.0068359","-0.05859375","1.75","-5.25","3.21875"
"1573703002732","238","0.07910156","-1.0058594","-0.053710938","5.59375","-3.90625","9.25"
"1573703002733","239","0.07714844","-1.0","-0.06933594","1.625","-8.5625","7.90625"
"1573703003127","240","0.026367188","-0.9892578","-0.06542969","-1.84375","-6.125","9.875"
"1573703003128","241","0.0","-1.0029297","-0.07519531","-6.1875","-1.65625","13.0"
"1573703003129","242","0.01953125","-1.0439453","-0.07910156","-10.5","5.46875","10.53125"
"1573703003129","243","0.036132812","-1.0253906","-0.07324219","-8.875","3.53125","6.5"
"1573703003129","244","0.05078125","-1.0234375","-0.1015625","-9.84375","2.90625","1.9375"
"1573703003129","245","0.03125","-1.0068359","-0.09863281","-10.5","-3.1875","1.21875"
"1573703003130","246","0.049804688","-1.0283203","-0.06640625","-7.09375","-4.03125","3.78125"
"1573703003130","247","0.055664062","-1.0","-0.123046875","-5.75","-3.0","3.28125"
"1573703003130","248","0.033203125","-1.0371094","-0.08203125","-6.5","-5.03125","9.375"
"1573703003131","249","-0.0107421875","-1.0029297","-0.10253906","0.78125","-7.28125","10.65625"
"1573703003522","250","-0.08691406","-1.0146484","-0.1328125","3.40625","-6.3125","18.46875"
"1573703003523","251","-0.068359375","-0.99902344","-0.11035156","5.34375","-4.84375","30.125"
"1573703003523","252","-0.11328125","-0.97558594","-0.083984375","7.5","4.1875","29.71875"
"1573703003523","253","-0.18359375","-1.0097656","-0.109375","14.15625","9.875","32.03125"
"1573703003524","254","-0.16601562","-1.046875","-0.125","7.96875","18.53125","27.375"
"1573703003524","255","-0.12890625","-1.0009766","-0.064453125","4.625","23.0","20.8125"
"1573703003524","256","-0.15917969","-0.98828125","-0.07421875","4.625","16.28125","19.625"
"1573703003525","257","-0.16894531","-1.0136719","-0.076171875","5.78125","15.0","18.40625"
"1573703003525","258","-0.14257812","-1.0009766","-0.11230469","0.90625","12.0625","18.53125"
"1573703003526","259","-0.12597656","-0.9941406","-0.10253906","-0.75","10.53125","12.25"
"1573703004316","260","-0.15527344","-0.9863281","-0.107421875","4.0625","-3.96875","15.3125"
"1573703004317","261","-0.18652344","-0.9560547","-0.111328125","-3.96875","-0.8125","16.90625"
"1573703004317","262","-0.21289062","-1.0048828","-0.11230469","-5.3125","-2.09375","8.15625"
"1573703004317","263","-0.22558594","-0.9951172","-0.11328125","-8.6875","-4.96875","10.65625"
"1573703004318","264","-0.2626953","-0.9589844","-0.12597656","-5.625","-6.4375","10.84375"
"1573703004319","265","-0.28222656","-0.97753906","-0.13769531","-7.28125","-1.3125","9.5625"
"1573703004320","266","-0.2529297","-0.93066406","-0.14257812","-9.84375","1.5","10.96875"
"1573703004321","267","-0.24414062","-0.9160156","-0.13378906","-5.15625","-0.125","4.5"
"1573703004321","268","-0.30566406","-0.96875","-0.140625","-4.34375","-1.90625","3.40625"
"1573703004321","269","-0.30859375","-0.9716797","-0.15527344","-6.0","-2.46875","4.5625"
"1573703004714","270","-0.2763672","-0.9394531","-0.17285156","7.6875","-6.25","4.0"
"1573703004715","271","-0.26660156","-0.890625","-0.140625","8.28125","-4.59375","1.5"
"1573703004715","272","-0.2783203","-0.9160156","-0.10058594","9.875","-1.0","4.125"
"1573703004716","273","-0.34277344","-0.96875","-0.14257812","-2.28125","4.1875","4.75"
"1573703004716","274","-0.2421875","-0.92871094","-0.15527344","4.75","0.84375","-0.4375"
"1573703004716","275","-0.26757812","-0.9296875","-0.14160156","-4.28125","0.0","-1.90625"
"1573703004716","276","-0.2578125","-0.984375","-0.14453125","5.71875","-2.03125","-6.4375"
"1573703004718","277","-0.26464844","-0.9394531","-0.107421875","1.03125","-3.3125","-11.3125"
"1573703004718","278","-0.24902344","-0.9580078","-0.125","0.03125","-5.3125","-17.59375"
"1573703004718","279","-0.26171875","-0.9873047","-0.109375","-1.53125","-5.21875","-18.5"
"1573703004719","280","-0.25976562","-0.94921875","-0.09667969","0.21875","-9.53125","-15.625"
"1573703004719","281","-0.24121094","-0.9199219","-0.10839844","4.75","-5.375","-19.4375"
"1573703004719","282","-0.24511719","-0.9267578","-0.11816406","7.1875","4.75","-21.5625"
"1573703004720","283","-0.22558594","-0.95996094","-0.09765625","9.3125","11.59375","-18.25"
"1573703004720","284","-0.18457031","-0.98046875","-0.10839844","7.125","6.15625","-17.40625"
"1573703004720","285","-0.078125","-1.0595703","-0.06738281","8.71875","4.3125","-25.96875"
"1573703004720","286","-0.11621094","-1.0537109","-0.056640625","-3.875","-7.09375","-33.84375"
"1573703004721","287","-0.08496094","-1.0673828","-0.12695312","-11.25","-19.0","-33.46875"
"1573703004721","288","-0.06933594","-1.0283203","-0.16015625","-14.59375","-28.75","-25.59375"
"1573703004721","289","-0.1953125","-0.92871094","-0.13183594","-22.53125","-20.78125","-8.9375"
"1573703005113","290","-0.14257812","-0.9560547","-0.14160156","-2.6875","-3.5625","-8.6875"
"1573703005113","291","-0.10546875","-1.03125","-0.123046875","-1.59375","-8.875","-13.1875"
"1573703005114","292","-0.095703125","-0.9902344","-0.11328125","-2.21875","-11.1875","-12.78125"
"1573703005114","293","-0.060546875","-0.9892578","-0.14257812","-3.3125","-6.59375","-18.6875"
"1573703005114","294","-0.01171875","-0.9667969","-0.13378906","-1.1875","-5.375","-25.03125"
"1573703005115","295","0.041015625","-1.0087891","-0.11816406","1.375","-2.40625","-25.84375"
"1573703005115","296","0.08105469","-1.0839844","-0.11621094","-0.6875","-12.71875","-36.21875"
"1573703005115","297","0.09667969","-1.0302734","-0.080078125","5.28125","-21.375","-32.71875"
"1573703005115","298","0.078125","-1.0263672","-0.08886719","17.0625","-15.28125","-32.3125"
"1573703005115","299","0.0234375","-1.0195312","-0.111328125","16.46875","-7.9375","-24.6875"
"1573703005511","300","0.038085938","-0.9716797","-0.1171875","12.5","-2.875","-11.3125"
"1573703005512","301","0.12109375","-0.9628906","-0.119140625","9.75","8.03125","-9.46875"
"1573703005512","302","0.16601562","-1.0224609","-0.10839844","4.0625","4.25","-11.125"
"1573703005512","303","0.12792969","-1.0839844","-0.057617188","5.53125","5.53125","-12.65625"
"1573703005513","304","0.14550781","-1.0390625","-0.076171875","14.9375","9.8125","-13.03125"
"1573703005513","305","0.16796875","-1.0117188","-0.072265625","10.0625","0.21875","-9.21875"
"1573703005513","306","0.16503906","-0.97558594","-0.053710938","10.25","0.71875","-4.96875"
"1573703005513","307","0.20410156","-0.97265625","-0.013671875","8.71875","1.75","-0.625"
"1573703005514","308","0.21386719","-1.0449219","-0.0107421875","0.71875","-2.03125","-6.3125"
"1573703005514","309","0.18261719","-1.0","-0.044921875","0.59375","-4.28125","-8.75"
"1573703005909","310","0.19433594","-0.9902344","-0.033203125","-4.15625","-6.65625","-2.21875"
"1573703005909","311","0.18066406","-1.0107422","-0.029296875","-2.59375","-9.53125","0.90625"
"1573703005909","312","0.13574219","-0.9902344","-0.03125","0.96875","-6.25","4.3125"
"1573703005910","313","0.17285156","-0.9970703","-0.0087890625","-2.46875","-10.4375","8.21875"
"1573703005911","314","0.14257812","-0.98535156","-0.024414062","-1.46875","-11.96875","6.21875"
"1573703005911","315","0.14160156","-0.99316406","-0.02734375","-4.96875","-4.03125","8.15625"
"1573703005911","316","0.18164062","-1.0126953","-0.033203125","-8.8125","-8.375","10.65625"
"1573703005911","317","0.1171875","-1.0390625","-0.03515625","-3.0625","-5.875","7.625"
"1573703005912","318","0.08203125","-1.0166016","-0.091796875","-1.59375","-5.09375","8.34375"
"1573703005912","319","0.083984375","-1.0224609","-0.0625","-1.34375","0.84375","10.53125"
"1573703006307","320","0.05078125","-1.0136719","-0.07519531","0.78125","2.71875","5.1875"
"1573703006307","321","0.11035156","-1.0029297","-0.061523438","3.84375","4.5","13.15625"
"1573703006307","322","0.15820312","-1.015625","-0.059570312","4.4375","0.96875","7.375"
"1573703006307","323","0.09667969","-1.0117188","-0.048828125","4.125","-3.0625","2.59375"
"1573703006308","324","0.11425781","-1.0048828","-0.043945312","6.75","-3.75","8.40625"
"1573703006309","325","0.078125","-1.0078125","-0.04296875","6.5625","-4.46875","8.40625"
"1573703006309","326","0.01953125","-1.0","-0.026367188","-2.59375","-1.3125","13.15625"
"1573703006310","327","9.765625E-4","-0.99121094","-0.033203125","-6.5","7.375","19.03125"
"1573703006310","328","0.040039062","-0.99609375","-0.064453125","-9.59375","14.28125","18.59375"
"1573703006310","329","0.09277344","-1.03125","-0.056640625","-13.1875","20.75","10.96875"
"1573703006705","330","0.10644531","-1.0576172","-0.08691406","-12.40625","17.625","7.1875"
"1573703006706","331","0.0859375","-1.0458984","-0.08691406","5.96875","19.8125","11.8125"
"1573703006706","332","0.07128906","-0.97753906","-0.060546875","-3.90625","10.375","13.09375"
"1573703006706","333","-0.00390625","-0.9716797","-0.064453125","-0.5625","1.6875","18.65625"
"1573703006707","334","-0.080078125","-0.9873047","-0.072265625","-7.34375","9.625","25.5625"
"1573703006707","335","-0.07421875","-1.0585938","-0.10546875","-2.53125","18.84375","14.875"
"1573703006707","336","-0.10839844","-1.0410156","-0.13476562","3.53125","15.0","22.25"
"1573703006709","337","-0.11621094","-0.9921875","-0.12109375","-1.46875","15.78125","23.71875"
"1573703006709","338","-0.12011719","-0.9824219","-0.13769531","-2.34375","17.5625","22.625"
"1573703006709","339","-0.13867188","-1.015625","-0.115234375","-1.71875","19.09375","29.53125"
"1573703007102","340","-0.16503906","-1.0400391","-0.14355469","-6.25","20.625","34.84375"
"1573703007102","341","-0.19921875","-1.0458984","-0.16699219","-12.09375","20.125","42.28125"
"1573703007102","342","-0.1484375","-0.96777344","-0.16308594","-9.53125","19.53125","40.6875"
"1573703007103","343","-0.10058594","-0.921875","-0.12695312","3.34375","11.46875","26.46875"
"1573703007103","344","-0.14453125","-0.9296875","-0.11328125","6.625","1.28125","12.1875"
"1573703007103","345","-0.21582031","-0.9550781","-0.1484375","4.5625","-5.625","9.5625"
"1573703007103","346","-0.22949219","-0.9765625","-0.1171875","-4.53125","5.96875","2.1875"
"1573703007104","347","-0.22460938","-1.0566406","-0.14160156","-0.5","3.9375","3.65625"
"1573703007104","348","-0.22363281","-1.0117188","-0.15527344","-8.875","-1.96875","3.90625"
"1573703007105","349","-0.234375","-0.99316406","-0.18652344","-11.375","-12.40625","4.1875"
"1573703007498","350","-0.25","-0.9589844","-0.19628906","-5.6875","-21.875","9.09375"
"1573703007498","351","-0.27539062","-0.9003906","-0.19433594","-13.5","-17.90625","7.625"
"1573703007498","352","-0.24804688","-0.8544922","-0.20800781","-6.0","-18.5","1.875"
"1573703007498","353","-0.28515625","-0.9375","-0.17578125","-2.28125","-17.65625","0.40625"
"1573703007499","354","-0.30371094","-0.94433594","-0.17285156","1.6875","-14.25","2.90625"
"1573703007499","355","-0.25976562","-0.9160156","-0.140625","1.5","-9.21875","-1.1875"
"1573703007500","356","-0.3359375","-0.9550781","-0.17480469","-3.8125","-1.0625","2.59375"
"1573703007500","357","-0.29296875","-0.94433594","-0.19628906","-0.8125","7.75","-0.125"
"1573703007500","358","-0.234375","-0.9238281","-0.17773438","3.15625","5.90625","0.71875"
"1573703007500","359","-0.28710938","-0.89746094","-0.19433594","1.6875","2.84375","-6.125"
"1573703007895","360","-0.265625","-0.94921875","-0.12695312","4.5","17.1875","-13.25"
"1573703007896","361","-0.27441406","-1.0263672","-0.18261719","8.96875","3.03125","-9.96875"
"1573703007897","362","-0.24902344","-1.0195312","-0.1171875","4.625","3.71875","-8.6875"
"1573703007903","363","-0.25585938","-0.9716797","-0.140625","3.34375","-7.34375","-9.59375"
"1573703007903","364","-0.19921875","-0.9453125","-0.14257812","4.0625","-1.78125","-7.875"
"1573703007903","365","-0.22070312","-0.98339844","-0.13378906","-3.625","-4.78125","-9.15625"
"1573703007904","366","-0.23925781","-0.9550781","-0.13964844","-2.34375","-8.25","-8.375"
"1573703007904","367","-0.22070312","-0.9111328","-0.15136719","3.84375","-1.0","-11.5"
"1573703007904","368","-0.19238281","-0.9472656","-0.18164062","1.875","-3.75","-18.875"
"1573703007905","369","-0.111328125","-1.0146484","-0.14355469","5.21875","-7.53125","-27.125"
"1573703008491","370","-0.13378906","-0.9863281","-0.087890625","4.25","-21.1875","-27.59375"
"1573703008492","371","-0.26367188","-0.98046875","-0.13085938","4.8125","-20.59375","-21.4375"
"1573703008492","372","-0.22363281","-0.984375","-0.1640625","7.96875","-5.5625","-13.8125"
"1573703008493","373","-0.17089844","-1.0078125","-0.15332031","4.8125","-4.71875","-9.0"
"1573703008493","374","-0.18164062","-1.0283203","-0.13769531","6.09375","-6.84375","-11.1875"
"1573703008493","375","-0.13867188","-0.96484375","-0.15917969","-2.75","-6.78125","-15.34375"
"1573703008494","376","-0.115234375","-0.9296875","-0.1328125","8.84375","-10.40625","-19.0625"
"1573703008494","377","-0.16113281","-1.0009766","-0.14453125","10.3125","-7.78125","-16.25"
"1573703008494","378","-0.12207031","-1.0292969","-0.12011719","10.25","0.0","-11.625"
"1573703008495","379","-0.025390625","-1.0078125","-0.07910156","11.75","-7.59375","-15.75"
"1573703008691","380","-0.0107421875","-1.0058594","-0.064453125","3.34375","-15.8125","-22.90625"
"1573703008692","381","9.765625E-4","-0.97265625","-0.06347656","-6.53125","-21.0","-33.03125"
"1573703008692","382","0.08984375","-0.96875","-0.12402344","-11.0625","-20.65625","-44.3125"
"1573703008692","383","0.083984375","-1.0830078","-0.057617188","10.78125","-29.5625","-47.9375"
"1573703008692","384","0.10644531","-1.0742188","-0.07324219","11.09375","-40.0625","-39.875"
"1573703008694","385","0.087890625","-1.0595703","-0.08203125","9.4375","-34.5","-36.8125"
"1573703008694","386","0.15625","-1.0117188","-0.083984375","9.125","-17.15625","-33.65625"
"1573703008695","387","0.09863281","-1.0097656","-0.07128906","6.34375","-19.0","-11.71875"
"1573703008695","388","0.07910156","-0.9482422","-0.068359375","4.0","-14.84375","4.6875"
"1573703008695","389","0.095703125","-0.9980469","-0.045898438","-13.4375","2.0","5.90625"
"1573703009089","390","0.12792969","-1.1318359","-0.08984375","4.8125","22.09375","-5.375"
"1573703009090","391","0.13769531","-1.0380859","-0.08203125","8.03125","7.0625","-5.03125"
"1573703009090","392","0.18652344","-1.0146484","-0.052734375","12.6875","11.15625","-3.0"
"1573703009090","393","0.21777344","-1.0029297","-0.0107421875","13.09375","14.375","-3.125"
"1573703009090","394","0.19335938","-0.9433594","0.02734375","5.46875","9.5625","4.125"
"1573703009091","395","0.17773438","-0.96777344","0.0","5.1875","8.90625","9.03125"
"1573703009091","396","0.19335938","-0.99121094","0.01171875","-4.46875","14.03125","13.15625"
"1573703009092","397","0.16796875","-1.0214844","0.03125","-8.9375","19.09375","9.625"
"1573703009093","398","0.1171875","-1.0380859","-0.013671875","0.09375","9.625","7.25"
"1573703009093","399","0.11328125","-0.97753906","-0.03125","0.78125","3.03125","15.0"
"1573703009485","400","0.109375","-0.9873047","-0.0048828125","-4.34375","0.90625","10.53125"
"1573703009485","401","0.107421875","-1.0068359","0.018554688","-1.46875","-1.71875","10.3125"
"1573703009486","402","0.09765625","-0.99316406","-0.01171875","5.28125","-6.59375","6.21875"
"1573703009486","403","0.072265625","-0.9970703","0.0","-9.28125","2.71875","3.34375"
"1573703009486","404","0.07128906","-1.0556641","-0.037109375","-7.53125","8.84375","7.25"
"1573703009486","405","0.041992188","-1.0234375","-0.032226562","-5.5625","12.0625","11.21875"
"1573703009487","406","0.047851562","-1.0097656","-0.0625","-10.625","11.75","19.15625"
"1573703009487","407","0.091796875","-1.0078125","-0.09277344","-8.0625","7.0625","17.1875"
"1573703009487","408","0.12988281","-1.015625","-0.09863281","-11.625","9.5","8.15625"
"1573703009488","409","0.044921875","-1.0830078","-0.0859375","-9.78125","6.40625","3.59375"
"1573703009883","410","-0.0087890625","-1.0175781","-0.08105469","-4.34375","1.6875","13.84375"
"1573703009884","411","0.005859375","-0.98828125","-0.068359375","4.9375","2.4375","14.625"
"1573703009884","412","0.046875","-0.9746094","-0.06738281","1.4375","3.84375","15.4375"
"1573703009884","413","-0.0087890625","-1.0136719","-0.041992188","-2.53125","1.375","11.40625"
"1573703009885","414","0.025390625","-0.98046875","-0.033203125","-3.0625","6.6875","13.15625"
"1573703009885","415","0.032226562","-1.0361328","-0.07128906","-6.25","11.09375","13.53125"
"1573703009885","416","-0.017578125","-1.0097656","-0.10058594","-9.65625","10.59375","10.375"
"1573703009885","417","0.028320312","-1.0","-0.087890625","-14.53125","20.1875","11.21875"
"1573703009886","418","0.01171875","-1.0068359","-0.12402344","-5.21875","18.28125","12.0625"
"1573703009886","419","-0.033203125","-1.0039062","-0.10839844","-5.03125","14.8125","19.53125"
"1573703010282","420","-0.09472656","-1.0410156","-0.13183594","-6.90625","21.65625","21.96875"
"1573703010283","421","-0.20800781","-1.0146484","-0.21484375","-14.25","15.4375","26.0"
"1573703010284","422","-0.13085938","-0.97753906","-0.16308594","-19.5","10.125","35.6875"
"1573703010284","423","-0.16113281","-0.98535156","-0.13574219","-13.4375","5.71875","45.46875"
"1573703010284","424","-0.265625","-1.0341797","-0.21582031","-21.3125","12.0","59.25"
"1573703010285","425","-0.20019531","-1.0078125","-0.2783203","-21.6875","15.125","50.65625"
"1573703010286","426","-0.08300781","-0.89941406","-0.23242188","-0.625","0.09375","39.96875"
"1573703010287","427","-0.19433594","-0.87109375","-0.20898438","3.03125","-10.75","21.46875"
"1573703010287","428","-0.31835938","-0.9296875","-0.23730469","3.59375","-3.1875","14.03125"
"1573703010287","429","-0.31054688","-0.94140625","-0.21679688","11.46875","1.3125","14.21875"
"1573703010679","430","-0.33203125","-0.9921875","-0.22558594","-2.53125","3.71875","13.15625"
"1573703010679","431","-0.34472656","-0.99121094","-0.26757812","-12.15625","1.15625","13.21875"
"1573703010680","432","-0.3857422","-0.9316406","-0.28515625","-6.53125","-4.78125","15.0"
"1573703010681","433","-0.35742188","-0.8251953","-0.2685547","3.46875","-5.21875","18.71875"
"1573703010681","434","-0.33398438","-0.78808594","-0.23925781","7.125","-2.46875","11.59375"
"1573703010682","435","-0.3828125","-0.8769531","-0.24023438","2.59375","0.09375","4.0"
"1573703010682","436","-0.38183594","-0.91015625","-0.24414062","5.53125","5.0625","2.90625"
"1573703010682","437","-0.3515625","-0.9033203","-0.18066406","11.28125","4.75","-1.0625"
"1573703010682","438","-0.36621094","-0.9199219","-0.1953125","11.03125","5.71875","-2.59375"
"1573703010683","439","-0.3623047","-0.8925781","-0.1875","9.75","2.65625","-4.84375"
"1573703011076","440","-0.35839844","-0.89453125","-0.19335938","5.28125","1.3125","-4.96875"
"1573703011077","441","-0.38476562","-0.8857422","-0.2109375","5.34375","-1.34375","-7.78125"
"1573703011077","442","-0.3388672","-0.8691406","-0.20214844","10.375","2.4375","-11.375"
"1573703011077","443","-0.35351562","-0.9433594","-0.17578125","15.5","11.53125","-15.9375"
"1573703011078","444","-0.3330078","-0.9316406","-0.16503906","19.53125","3.59375","-20.875"
"1573703011079","445","-0.3076172","-0.9580078","-0.10253906","6.34375","15.125","-19.0625"
"1573703011080","446","-0.2841797","-1.0068359","-0.15429688","11.03125","5.96875","-28.03125"
"1573703011080","447","-0.24121094","-0.9892578","-0.13378906","3.40625","2.84375","-27.84375"
"1573703011081","448","-0.22851562","-0.9580078","-0.16503906","-4.59375","-2.40625","-33.21875"
"1573703011081","449","-0.2109375","-0.9716797","-0.17773438","-7.8125","-3.625","-33.03125"
