"# PR data"
"# Start time: 20191114T033754"
"# Subject: teo"
"# Activity type: Heel raises"
"# Correctness: Correct"
"# Notes: "
""
"timestamp","seq","accel_x","accel_y","accel_z","gyro_x","gyro_y","gyro_z"
"1573702674194","0","0.095703125","-0.9707031","-0.3125","1.6875","-0.875","0.46875"
"1573702674195","1","0.09863281","-0.9707031","-0.3125","1.6875","0.71875","0.96875"
"1573702674196","2","0.099609375","-0.9746094","-0.31640625","3.15625","1.875","1.21875"
"1573702674196","3","0.11035156","-0.9765625","-0.3046875","0.21875","1.8125","2.0625"
"1573702674196","4","0.11035156","-0.9951172","-0.31445312","5.78125","3.03125","3.78125"
"1573702674196","5","0.10644531","-0.9892578","-0.31054688","3.78125","-1.46875","3.03125"
"1573702674197","6","0.091796875","-0.9736328","-0.3095703","-3.96875","-0.25","1.9375"
"1573702674197","7","0.08203125","-0.96972656","-0.3173828","2.0","-2.03125","2.125"
"1573702674197","8","0.091796875","-0.9716797","-0.30078125","-0.3125","-1.59375","1.3125"
"1573702674197","9","0.087890625","-0.9746094","-0.3095703","1.28125","-0.875","-0.875"
"1573702674787","10","0.08105469","-0.9736328","-0.30566406","0.34375","1.03125","-1.40625"
"1573702674788","11","0.083984375","-0.97265625","-0.31054688","1.5625","-1.46875","-1.125"
"1573702674788","12","0.08300781","-0.9736328","-0.30273438","3.03125","-0.9375","0.21875"
"1573702674789","13","0.08300781","-0.9765625","-0.29882812","0.71875","-0.75","0.0"
"1573702674789","14","0.07910156","-0.9736328","-0.296875","1.28125","-0.3125","0.0"
"1573702674790","15","0.078125","-0.97753906","-0.3076172","2.0625","0.21875","-0.25"
"1573702674790","16","0.08496094","-0.98046875","-0.2890625","0.53125","1.21875","-0.625"
"1573702674790","17","0.09277344","-0.9863281","-0.31054688","8.53125","1.21875","0.59375"
"1573702674790","18","0.09375","-0.98828125","-0.29589844","5.0","-0.9375","-0.375"
"1573702674791","19","0.11035156","-0.953125","-0.3095703","-0.4375","1.4375","0.53125"
"1573702674988","20","0.09863281","-0.9873047","-0.31054688","5.84375","1.03125","2.0"
"1573702674989","21","0.103515625","-0.9580078","-0.29882812","-0.375","0.71875","0.65625"
"1573702674989","22","0.111328125","-0.9746094","-0.3251953","3.84375","1.4375","0.21875"
"1573702674989","23","0.12109375","-0.9658203","-0.31152344","1.375","0.84375","0.09375"
"1573702674990","24","0.11230469","-0.9736328","-0.30371094","-0.25","0.09375","-1.3125"
"1573702674991","25","0.09667969","-0.9980469","-0.29101562","-8.4375","5.84375","-6.0"
"1573702674991","26","0.09472656","-1.0166016","-0.296875","-12.09375","11.46875","-13.3125"
"1573702674991","27","0.12695312","-1.0507812","-0.33496094","-8.6875","9.09375","-12.15625"
"1573702674992","28","0.13378906","-1.0791016","-0.3544922","-3.5","9.25","-6.96875"
"1573702674992","29","0.14648438","-1.1269531","-0.3486328","-9.78125","8.15625","-5.9375"
"1573702675386","30","0.20703125","-1.1884766","-0.36328125","-3.375","4.9375","-7.21875"
"1573702675387","31","0.18945312","-1.1181641","-0.27929688","3.28125","-10.28125","-8.5625"
"1573702675387","32","0.09082031","-0.9248047","-0.3232422","6.75","-16.9375","5.0"
"1573702675387","33","0.037109375","-0.8701172","-0.296875","11.03125","-10.15625","12.1875"
"1573702675387","34","0.091796875","-0.7529297","-0.24316406","11.03125","-13.0625","11.21875"
"1573702675388","35","0.09667969","-0.7167969","-0.20214844","15.5625","-10.15625","8.96875"
"1573702675388","36","0.04296875","-0.8076172","-0.20019531","7.5625","-4.71875","3.15625"
"1573702675388","37","0.07421875","-0.90722656","-0.25195312","-2.6875","2.3125","-4.96875"
"1573702675389","38","0.12792969","-0.9296875","-0.24511719","-2.9375","-0.625","-5.5625"
"1573702675389","39","0.12011719","-0.8544922","-0.19628906","-0.875","-12.71875","2.65625"
"1573702675785","40","0.005859375","-0.875","-0.24414062","6.21875","-10.5","9.1875"
"1573702675785","41","0.013671875","-0.9355469","-0.30859375","-3.125","-1.125","9.3125"
"1573702675786","42","0.16699219","-0.91796875","-0.26367188","-8.3125","9.03125","1.75"
"1573702675786","43","0.01953125","-1.0986328","-0.3251953","-3.6875","4.5","-7.8125"
"1573702675786","44","0.1328125","-1.0566406","-0.28027344","-14.25","-6.90625","-13.5"
"1573702675786","45","0.24511719","-0.9736328","-0.22460938","11.65625","-16.375","-4.71875"
"1573702675787","46","-0.076171875","-1.0576172","-0.3154297","10.59375","-11.71875","-3.90625"
"1573702675787","47","0.14648438","-1.0097656","-0.35742188","-12.84375","-3.90625","-5.75"
"1573702675787","48","0.21191406","-1.1689453","-0.38085938","-12.09375","4.25","-11.25"
"1573702675788","49","0.048828125","-1.0556641","-0.33691406","-6.84375","3.28125","-5.25"
"1573702676182","50","0.036132812","-0.95996094","-0.3310547","9.375","0.65625","15.0"
"1573702676182","51","0.09375","-1.0019531","-0.30566406","9.8125","2.65625","9.75"
"1573702676182","52","0.119140625","-0.9111328","-0.265625","5.28125","3.9375","6.09375"
"1573702676183","53","0.107421875","-0.9394531","-0.29101562","4.875","10.3125","4.4375"
"1573702676183","54","0.12988281","-1.0205078","-0.32226562","-1.59375","6.15625","-0.5625"
"1573702676183","55","0.13085938","-0.9785156","-0.3408203","-8.8125","3.59375","-0.6875"
"1573702676183","56","0.13183594","-0.9511719","-0.3173828","4.125","2.65625","2.5625"
"1573702676183","57","0.123046875","-0.99121094","-0.29492188","6.46875","-4.09375","5.34375"
"1573702676184","58","0.09472656","-0.9628906","-0.29589844","2.78125","0.96875","5.71875"
"1573702676184","59","0.10546875","-0.9609375","-0.3173828","0.09375","1.03125","2.65625"
"1573702676779","60","0.140625","-0.9824219","-0.3173828","-2.15625","-2.15625","0.34375"
"1573702676780","61","0.12988281","-0.96191406","-0.32617188","0.78125","-4.65625","0.90625"
"1573702676781","62","0.103515625","-0.96972656","-0.31640625","-0.5","-2.59375","0.71875"
"1573702676781","63","0.12011719","-0.96875","-0.3408203","-2.15625","-2.8125","-0.125"
"1573702676781","64","0.13378906","-0.97265625","-0.33496094","-0.75","-1.1875","-0.0625"
"1573702676782","65","0.1171875","-1.0078125","-0.33691406","-1.3125","-2.625","-1.125"
"1573702676782","66","0.083984375","-1.0488281","-0.3359375","-2.28125","-0.0625","-0.25"
"1573702676782","67","0.083984375","-1.0800781","-0.33789062","-0.9375","0.96875","-0.5"
"1573702676782","68","0.103515625","-1.1455078","-0.31445312","-2.03125","0.21875","-3.0"
"1573702676783","69","0.051757812","-1.1503906","-0.30078125","8.15625","-1.46875","1.8125"
"1573702676976","70","0.021484375","-1.0634766","-0.28222656","7.125","-3.6875","1.875"
"1573702676976","71","0.068359375","-0.96875","-0.27148438","3.59375","-1.0","4.375"
"1573702676976","72","0.07128906","-0.89160156","-0.2626953","5.96875","-5.5625","3.03125"
"1573702676978","73","0.07128906","-0.8330078","-0.23828125","5.0","-4.78125","3.40625"
"1573702676978","74","0.06542969","-0.82421875","-0.23144531","2.96875","-2.75","2.25"
"1573702676978","75","0.060546875","-0.8388672","-0.23828125","-2.34375","2.4375","1.5625"
"1573702676978","76","0.08105469","-0.8720703","-0.26953125","-3.96875","3.34375","-0.6875"
"1573702676979","77","0.11035156","-0.92089844","-0.25878906","-1.46875","1.4375","-1.78125"
"1573702676979","78","0.060546875","-0.93066406","-0.26171875","4.5","0.46875","2.90625"
"1573702676979","79","0.047851562","-0.96972656","-0.26953125","3.34375","2.375","4.4375"
"1573702677572","80","0.080078125","-0.9316406","-0.2548828","5.1875","2.90625","6.46875"
"1573702677572","81","0.045898438","-0.91308594","-0.25097656","10.90625","1.4375","5.78125"
"1573702677573","82","0.060546875","-1.0058594","-0.265625","-3.125","5.40625","0.96875"
"1573702677573","83","0.072265625","-1.0244141","-0.26953125","5.125","5.125","1.28125"
"1573702677573","84","0.044921875","-0.95703125","-0.23925781","5.71875","0.03125","4.375"
"1573702677575","85","0.08984375","-1.0410156","-0.26367188","-5.875","6.28125","-2.8125"
"1573702677575","86","0.028320312","-1.0214844","-0.26757812","8.28125","-1.78125","2.4375"
"1573702677575","87","0.06542969","-0.9316406","-0.24316406","4.875","-2.28125","1.625"
"1573702677576","88","0.10644531","-1.0585938","-0.2734375","-3.375","-1.25","-4.03125"
"1573702677576","89","0.06738281","-1.0693359","-0.28222656","-4.65625","1.28125","-6.5"
"1573702677771","90","0.08105469","-1.0429688","-0.31640625","-5.25","1.03125","-7.65625"
"1573702677771","91","0.1328125","-1.0830078","-0.3251953","-3.90625","-3.3125","-3.3125"
"1573702677772","92","0.08886719","-1.03125","-0.2919922","2.4375","-7.875","-2.59375"
"1573702677772","93","0.06738281","-0.96777344","-0.2783203","2.25","-12.03125","2.59375"
"1573702677772","94","0.080078125","-0.94433594","-0.2841797","1.03125","-7.875","3.71875"
"1573702677772","95","0.099609375","-0.95214844","-0.29003906","-1.3125","-3.25","-1.84375"
"1573702677772","96","0.08984375","-0.9941406","-0.29101562","-2.75","-3.375","-5.5"
"1573702677774","97","0.08496094","-0.9589844","-0.30664062","-0.8125","-5.15625","-3.25"
"1573702677774","98","0.080078125","-0.9794922","-0.29101562","1.875","-1.3125","-2.75"
"1573702677774","99","0.0625","-0.96191406","-0.2685547","-7.8125","0.96875","-3.5"
"1573702678169","100","0.10449219","-0.9941406","-0.29296875","9.8125","3.28125","1.8125"
"1573702678169","101","0.103515625","-0.95996094","-0.27929688","1.09375","0.53125","-0.8125"
"1573702678170","102","0.107421875","-0.9667969","-0.2998047","-1.53125","1.4375","-1.59375"
"1573702678170","103","0.103515625","-0.98046875","-0.30566406","-1.125","2.84375","-0.6875"
"1573702678171","104","0.11425781","-0.95703125","-0.2998047","-4.78125","1.4375","-0.625"
"1573702678171","105","0.12011719","-0.9707031","-0.31445312","-0.6875","2.0","-0.1875"
"1573702678171","106","0.12011719","-0.9824219","-0.31933594","2.5","3.28125","-1.3125"
"1573702678171","107","0.109375","-1.0048828","-0.30859375","0.90625","1.75","-2.21875"
"1573702678172","108","0.076171875","-1.0507812","-0.29003906","2.84375","4.1875","-1.40625"
"1573702678173","109","0.052734375","-1.0703125","-0.296875","-0.375","7.1875","0.40625"
"1573702678567","110","0.044921875","-1.1494141","-0.30664062","-6.5","10.71875","-0.375"
"1573702678567","111","0.09667969","-1.1542969","-0.359375","-8.5","9.5","-2.625"
"1573702678567","112","0.13769531","-1.0429688","-0.33203125","0.03125","3.40625","-1.96875"
"1573702678567","113","0.11230469","-0.97753906","-0.26660156","-2.875","-1.53125","3.28125"
"1573702678568","114","0.06933594","-0.9482422","-0.24121094","13.0","-1.78125","7.625"
"1573702678568","115","0.068359375","-0.8378906","-0.22949219","10.375","-5.5625","8.03125"
"1573702678568","116","0.0859375","-0.79589844","-0.21289062","7.75","-4.15625","9.875"
"1573702678568","117","0.056640625","-0.8339844","-0.23925781","3.84375","0.0","6.9375"
"1573702678569","118","0.07324219","-0.8730469","-0.24804688","-4.53125","3.46875","1.9375"
"1573702678569","119","0.1171875","-0.93066406","-0.26757812","-8.0625","0.34375","-3.125"
"1573702678963","120","0.09472656","-0.9433594","-0.2578125","-3.75","-6.1875","-1.1875"
"1573702678964","121","0.07421875","-0.9111328","-0.22753906","5.0625","-8.875","3.40625"
"1573702678964","122","0.061523438","-0.99609375","-0.24316406","1.875","-8.4375","2.4375"
"1573702678964","123","0.03125","-0.9550781","-0.25","1.8125","-5.625","2.5"
"1573702678965","124","0.0048828125","-0.9267578","-0.25","2.84375","-6.4375","5.28125"
"1573702678965","125","0.047851562","-1.0166016","-0.27246094","-0.6875","0.09375","3.53125"
"1573702678965","126","0.03515625","-1.0029297","-0.26953125","1.15625","-3.1875","-1.71875"
"1573702678965","127","0.055664062","-0.91308594","-0.2548828","-3.375","-5.03125","0.03125"
"1573702678966","128","0.10839844","-0.94628906","-0.21582031","5.21875","-6.96875","-2.09375"
"1573702678966","129","0.020507812","-0.98535156","-0.2841797","2.25","-6.25","-1.65625"
"1573702679363","130","0.08691406","-1.0585938","-0.32714844","-13.6875","-0.875","-8.0625"
"1573702679364","131","0.083984375","-1.0498047","-0.3388672","-4.15625","-1.84375","-3.6875"
"1573702679364","132","0.043945312","-1.0537109","-0.33789062","-2.53125","-0.875","2.71875"
"1573702679366","133","0.15722656","-1.0332031","-0.2626953","14.375","-1.53125","4.0"
"1573702679366","134","0.057617188","-0.9941406","-0.23632812","16.65625","-13.5625","7.0625"
"1573702679366","135","-0.00390625","-1.0205078","-0.2548828","3.90625","-7.40625","-0.5625"
"1573702679367","136","0.08496094","-0.9941406","-0.23632812","3.15625","-8.25","-0.0625"
"1573702679367","137","0.07421875","-0.98046875","-0.24707031","0.90625","-10.5625","-4.40625"
"1573702679367","138","0.041992188","-1.0214844","-0.2841797","-2.59375","-8.875","-4.34375"
"1573702679367","139","0.06640625","-0.98828125","-0.3076172","-6.4375","-1.84375","-4.59375"
"1573702679761","140","0.09667969","-0.9404297","-0.2763672","0.15625","-1.71875","-3.875"
"1573702679762","141","0.08300781","-0.98046875","-0.2529297","2.90625","-2.59375","-1.65625"
"1573702679762","142","0.052734375","-0.9970703","-0.25976562","-0.1875","1.625","-3.8125"
"1573702679762","143","0.07519531","-0.9765625","-0.28515625","1.09375","3.46875","-3.75"
"1573702679763","144","0.09472656","-0.9921875","-0.27734375","0.90625","2.0625","-2.46875"
"1573702679764","145","0.09863281","-0.98046875","-0.29101562","1.5","1.375","-1.71875"
"1573702679764","146","0.08984375","-0.9746094","-0.2841797","0.28125","2.4375","-0.5"
"1573702679765","147","0.10058594","-0.9892578","-0.296875","0.40625","1.375","-1.25"
"1573702679765","148","0.09472656","-1.0097656","-0.29882812","2.78125","1.9375","0.0"
"1573702679765","149","0.06933594","-1.0488281","-0.28027344","3.65625","2.96875","0.59375"
"1573702680156","150","0.038085938","-1.0996094","-0.28808594","1.28125","3.53125","1.8125"
"1573702680156","151","0.03515625","-1.140625","-0.28320312","-2.34375","9.5625","0.40625"
"1573702680156","152","0.0625","-1.1357422","-0.29296875","-1.59375","10.46875","-1.1875"
"1573702680157","153","0.09765625","-1.1015625","-0.2763672","-0.4375","7.6875","-3.1875"
"1573702680157","154","0.09375","-1.0458984","-0.26953125","8.46875","2.3125","-0.25"
"1573702680157","155","0.064453125","-0.9472656","-0.21191406","12.6875","-7.15625","2.125"
"1573702680157","156","0.06542969","-0.8388672","-0.18164062","5.0","-5.25","3.71875"
"1573702680159","157","0.049804688","-0.83691406","-0.17871094","11.40625","-5.5625","6.09375"
"1573702680159","158","0.038085938","-0.80371094","-0.17871094","2.59375","-1.78125","4.625"
"1573702680159","159","0.078125","-0.8359375","-0.22558594","-1.53125","3.78125","-1.0625"
"1573702680553","160","0.10253906","-0.9375","-0.234375","-4.59375","3.09375","-2.21875"
"1573702680554","161","0.07714844","-0.9824219","-0.23828125","-5.21875","2.59375","-3.90625"
"1573702680554","162","0.057617188","-0.9941406","-0.24902344","1.875","1.5625","0.53125"
"1573702680555","163","0.056640625","-0.97558594","-0.20800781","4.8125","-1.53125","4.4375"
"1573702680555","164","0.041992188","-0.9111328","-0.16601562","6.34375","-6.78125","4.8125"
"1573702680555","165","-0.0126953125","-0.79003906","-0.15917969","14.3125","-3.6875","7.8125"
"1573702680555","166","0.037109375","-0.9433594","-0.23535156","2.125","8.40625","-1.3125"
"1573702680556","167","0.15332031","-1.0693359","-0.21386719","-14.84375","11.34375","-13.375"
"1573702680556","168","0.0029296875","-1.0068359","-0.2548828","-4.09375","-7.15625","-1.1875"
"1573702680558","169","0.040039062","-1.0527344","-0.31152344","-6.59375","10.0","-2.75"
"1573702680952","170","0.15136719","-1.0566406","-0.22363281","-9.0","3.65625","3.09375"
"1573702680952","171","0.021484375","-1.0390625","-0.234375","16.28125","-3.8125","8.59375"
"1573702680953","172","0.034179688","-0.9326172","-0.1953125","9.25","-7.03125","7.0625"
"1573702680953","173","0.09277344","-0.953125","-0.18847656","9.3125","-6.84375","6.6875"
"1573702680953","174","0.0703125","-1.0224609","-0.21582031","5.34375","-1.53125","-1.0"
"1573702680953","175","0.12011719","-1.1708984","-0.25976562","-9.59375","0.53125","-9.78125"
"1573702680954","176","0.064453125","-1.1835938","-0.2763672","-9.21875","-6.65625","-5.21875"
"1573702680954","177","-0.034179688","-1.0048828","-0.23339844","1.8125","-9.125","8.90625"
"1573702680954","178","0.040039062","-0.94628906","-0.21777344","6.9375","-6.1875","8.59375"
"1573702680954","179","0.1171875","-0.9042969","-0.20605469","5.59375","-3.0","0.40625"
"1573702681547","180","0.10253906","-0.9433594","-0.23339844","-1.96875","-0.9375","-9.0"
"1573702681548","181","0.057617188","-1.0214844","-0.2626953","-7.21875","0.59375","-9.15625"
"1573702681549","182","0.083984375","-1.0078125","-0.2783203","-8.5","0.59375","-4.15625"
"1573702681549","183","0.107421875","-0.9873047","-0.25390625","0.65625","-1.46875","-0.125"
"1573702681549","184","0.056640625","-1.0087891","-0.22363281","-1.59375","-5.6875","2.71875"
"1573702681550","185","0.064453125","-0.9785156","-0.24902344","2.90625","-0.5625","2.0"
"1573702681550","186","0.076171875","-0.96777344","-0.2578125","-0.9375","-0.6875","-0.875"
"1573702681550","187","0.095703125","-0.9736328","-0.26367188","-3.0625","-1.34375","-1.34375"
"1573702681550","188","0.10058594","-0.99609375","-0.2841797","-1.40625","-1.125","-0.625"
"1573702681551","189","0.09667969","-0.9970703","-0.2763672","-1.78125","0.78125","0.46875"
"1573702681747","190","0.08691406","-1.0","-0.28027344","-4.65625","-0.625","-0.6875"
"1573702681748","191","0.068359375","-1.0136719","-0.28222656","-4.84375","-1.40625","-1.46875"
"1573702681748","192","0.09375","-1.0576172","-0.28027344","-1.84375","0.09375","-5.15625"
"1573702681749","193","0.10253906","-1.0849609","-0.24414062","0.65625","-5.4375","-2.53125"
"1573702681750","194","0.01953125","-1.125","-0.2265625","-0.375","-8.5","0.34375"
"1573702681750","195","0.01171875","-1.1181641","-0.24121094","-2.40625","-7.875","-1.25"
"1573702681750","196","0.08984375","-1.0488281","-0.24609375","-5.375","-9.125","-2.875"
"1573702681751","197","0.057617188","-1.0341797","-0.23242188","-2.40625","-11.78125","-2.59375"
"1573702681751","198","0.025390625","-0.9902344","-0.21582031","0.40625","-12.40625","-0.6875"
"1573702681751","199","0.056640625","-0.9091797","-0.21875","-1.46875","-6.78125","0.03125"
"1573702682144","200","0.038085938","-0.8613281","-0.23242188","1.15625","-9.46875","1.09375"
"1573702682145","201","0.049804688","-0.8203125","-0.234375","0.34375","-4.03125","0.15625"
"1573702682145","202","0.08496094","-0.8359375","-0.25585938","-3.25","-0.8125","-2.09375"
"1573702682145","203","0.08984375","-0.91015625","-0.25097656","-8.3125","3.40625","-4.59375"
"1573702682146","204","0.06738281","-0.9453125","-0.25878906","-2.53125","1.21875","-3.0"
"1573702682147","205","0.0546875","-0.96777344","-0.2626953","0.71875","2.375","-0.4375"
"1573702682147","206","0.064453125","-1.0224609","-0.25878906","-0.25","3.9375","0.34375"
"1573702682148","207","0.06933594","-1.0087891","-0.24414062","-1.65625","1.9375","0.84375"
"1573702682148","208","0.045898438","-0.94140625","-0.22851562","1.3125","0.59375","1.8125"
"1573702682148","209","0.059570312","-0.953125","-0.2578125","-0.6875","2.1875","-0.25"
"1573702682542","210","0.091796875","-0.90625","-0.24121094","-1.53125","1.5","-0.625"
"1573702682542","211","0.072265625","-0.9394531","-0.24804688","3.53125","2.375","1.09375"
"1573702682542","212","0.02734375","-0.96191406","-0.27246094","4.4375","3.59375","-0.5625"
"1573702682542","213","0.12109375","-0.94628906","-0.26757812","-4.84375","7.96875","-2.34375"
"1573702682543","214","0.07714844","-0.96875","-0.24511719","9.125","-1.71875","-1.84375"
"1573702682543","215","0.043945312","-0.9628906","-0.265625","10.25","-2.53125","1.5"
"1573702682543","216","0.09082031","-1.0263672","-0.2626953","2.0","3.84375","-0.9375"
"1573702682544","217","0.0703125","-1.0332031","-0.2421875","5.71875","1.4375","0.65625"
"1573702682544","218","0.017578125","-1.0585938","-0.25097656","3.53125","2.3125","3.84375"
"1573702682545","219","0.0703125","-1.1230469","-0.2763672","-2.9375","8.15625","2.4375"
"1573702683533","220","0.076171875","-1.1767578","-0.2939453","-7.78125","9.625","-4.78125"
"1573702683533","221","0.07910156","-1.0644531","-0.29101562","-12.90625","-0.625","-8.625"
"1573702683533","222","0.107421875","-0.89746094","-0.2734375","5.40625","-10.40625","4.25"
"1573702683534","223","0.103515625","-0.91503906","-0.27539062","3.09375","-7.71875","0.53125"
"1573702683534","224","0.10058594","-0.9472656","-0.296875","-6.3125","0.46875","-3.8125"
"1573702683534","225","0.12207031","-0.93847656","-0.29882812","-13.125","1.09375","-5.15625"
"1573702683535","226","0.1015625","-1.0361328","-0.29492188","-2.625","-1.71875","-0.9375"
"1573702683535","227","0.061523438","-1.0478516","-0.2529297","5.21875","-6.3125","2.25"
"1573702683535","228","0.06933594","-0.97558594","-0.28515625","9.3125","-4.46875","4.75"
"1573702683536","229","0.07910156","-0.9814453","-0.26464844","6.5","-7.28125","4.5625"
"1573702683731","230","0.08105469","-0.9423828","-0.2578125","-4.90625","-5.15625","-0.0625"
"1573702683731","231","0.09667969","-0.9667969","-0.296875","-3.96875","0.0","-2.03125"
"1573702683732","232","0.09765625","-0.99316406","-0.28808594","-0.9375","-0.9375","0.46875"
"1573702683732","233","0.08203125","-0.98828125","-0.28808594","3.34375","-1.71875","2.375"
"1573702683732","234","0.08203125","-0.98535156","-0.28125","6.5625","1.3125","4.5625"
"1573702683733","235","0.087890625","-0.9746094","-0.26464844","14.28125","5.0","3.78125"
"1573702683733","236","0.11621094","-0.97558594","-0.28222656","12.25","2.5","2.5625"
"1573702683733","237","0.10644531","-0.9921875","-0.2783203","5.78125","-0.125","0.0"
"1573702683733","238","0.09082031","-1.0097656","-0.2548828","7.25","-0.375","-1.3125"
"1573702683735","239","0.072265625","-1.0664062","-0.24121094","-0.625","2.0","-1.90625"
"1573702683735","240","0.047851562","-1.1132812","-0.25683594","-0.9375","7.0","-0.9375"
"1573702683735","241","0.056640625","-1.1367188","-0.24414062","2.5","3.34375","-0.625"
"1573702683736","242","0.07324219","-1.0722656","-0.2548828","-6.96875","-0.125","0.21875"
"1573702683737","243","0.059570312","-1.0800781","-0.24121094","1.875","-0.5625","1.03125"
"1573702683737","244","0.049804688","-1.0351562","-0.22949219","-1.96875","-1.25","0.15625"
"1573702683737","245","0.06347656","-1.0009766","-0.2421875","-1.34375","-1.0625","-0.25"
"1573702683738","246","0.048828125","-0.9277344","-0.20703125","5.0625","-4.15625","2.375"
"1573702683738","247","0.038085938","-0.8466797","-0.18945312","4.875","-5.9375","4.8125"
"1573702683738","248","0.038085938","-0.8261719","-0.20800781","3.78125","0.09375","5.40625"
"1573702683738","249","0.064453125","-0.8720703","-0.21289062","-0.75","5.46875","0.65625"
"1573702684132","250","0.0859375","-0.9111328","-0.22070312","-5.21875","3.90625","-1.46875"
"1573702684133","251","0.05859375","-0.9404297","-0.21875","-2.21875","1.875","-0.9375"
"1573702684133","252","0.03125","-0.95410156","-0.23730469","1.4375","0.90625","2.84375"
"1573702684135","253","0.043945312","-0.9560547","-0.23242188","-0.875","3.15625","2.4375"
"1573702684136","254","0.08984375","-1.0078125","-0.22753906","-0.5","5.84375","1.375"
"1573702684136","255","0.0390625","-0.97265625","-0.21484375","6.625","-0.6875","1.5"
"1573702684136","256","0.017578125","-0.92871094","-0.21972656","-5.9375","1.625","1.9375"
"1573702684137","257","0.08691406","-0.9970703","-0.25195312","-2.625","5.28125","0.84375"
"1573702684137","258","0.068359375","-0.9501953","-0.22558594","2.0","1.03125","1.8125"
"1573702684137","259","0.029296875","-0.95996094","-0.23828125","-2.09375","0.90625","0.46875"
"1573702684530","260","0.064453125","-0.984375","-0.23046875","1.15625","-1.59375","1.03125"
"1573702684530","261","0.06933594","-0.98535156","-0.203125","-0.1875","-5.15625","-2.21875"
"1573702684530","262","0.02734375","-0.98339844","-0.22363281","0.0","-4.90625","-1.125"
"1573702684531","263","0.038085938","-1.0175781","-0.25097656","-2.34375","-4.15625","0.84375"
"1573702684531","264","0.07324219","-1.0117188","-0.23730469","-4.53125","-4.15625","-1.59375"
"1573702684532","265","0.07714844","-1.0527344","-0.24511719","-2.59375","-7.28125","-1.65625"
"1573702684533","266","0.08203125","-1.1015625","-0.3046875","-6.78125","-10.75","-5.09375"
"1573702684533","267","0.091796875","-1.1308594","-0.3330078","-10.625","-6.375","-10.6875"
"1573702684534","268","0.0546875","-1.0205078","-0.30664062","2.0","-7.15625","-0.75"
"1573702684534","269","0.0107421875","-0.9277344","-0.25683594","18.96875","-10.28125","11.34375"
"1573702685126","270","0.041992188","-1.0","-0.22558594","3.53125","-0.1875","4.875"
"1573702685127","271","0.07324219","-0.96191406","-0.25195312","-1.96875","2.90625","-3.0625"
"1573702685127","272","0.087890625","-0.94628906","-0.27539062","-3.5625","2.65625","-5.75"
"1573702685127","273","0.08496094","-0.9970703","-0.27929688","-3.625","-0.9375","-2.53125"
"1573702685128","274","0.068359375","-1.0009766","-0.27734375","4.0625","-0.1875","1.8125"
"1573702685128","275","0.06347656","-0.9765625","-0.25976562","2.65625","-1.3125","3.84375"
"1573702685128","276","0.056640625","-0.9980469","-0.25585938","2.4375","0.09375","3.71875"
"1573702685129","277","0.061523438","-0.9794922","-0.2548828","0.78125","1.8125","1.625"
"1573702685130","278","0.07714844","-0.9736328","-0.25976562","1.03125","1.03125","0.28125"
"1573702685130","279","0.08300781","-0.98339844","-0.27441406","0.40625","-0.9375","-0.25"
"1573702685325","280","0.078125","-0.9765625","-0.26953125","0.78125","-1.46875","-0.5"
"1573702685325","281","0.07324219","-0.9794922","-0.26367188","3.28125","-3.96875","0.15625"
"1573702685325","282","0.083984375","-0.9765625","-0.28222656","4.4375","-7.65625","0.21875"
"1573702685325","283","0.08105469","-0.9892578","-0.26367188","4.625","-7.28125","1.5"
"1573702685326","284","0.060546875","-1.0048828","-0.25585938","7.25","-4.84375","0.84375"
"1573702685326","285","0.061523438","-0.99902344","-0.26660156","1.21875","2.65625","0.0"
"1573702685326","286","0.048828125","-1.03125","-0.2685547","0.78125","3.84375","-0.3125"
"1573702685326","287","0.046875","-1.0703125","-0.25390625","0.59375","5.34375","-0.5625"
"1573702685327","288","0.033203125","-1.1064453","-0.2548828","1.8125","8.03125","-0.375"
"1573702685328","289","0.05078125","-1.1435547","-0.23339844","1.375","9.3125","-1.0"
"1573702685723","290","0.040039062","-1.1328125","-0.22949219","4.5625","0.90625","-1.90625"
"1573702685724","291","0.024414062","-1.09375","-0.21972656","5.53125","0.09375","0.90625"
"1573702685724","292","0.026367188","-1.0292969","-0.20605469","4.1875","-0.4375","1.5625"
"1573702685725","293","0.038085938","-0.94628906","-0.19433594","4.625","0.15625","3.09375"
"1573702685725","294","0.041015625","-0.87402344","-0.17773438","6.875","-0.5","2.5625"
"1573702685725","295","0.044921875","-0.8330078","-0.19335938","7.5625","-0.1875","3.46875"
"1573702685725","296","0.061523438","-0.84375","-0.19042969","6.5625","-0.1875","0.40625"
"1573702685725","297","0.07910156","-0.86328125","-0.203125","0.71875","-0.6875","-3.75"
"1573702685726","298","0.08886719","-0.9472656","-0.21191406","-3.25","-0.1875","-6.78125"
"1573702685726","299","0.07128906","-0.9736328","-0.18457031","-7.9375","-0.8125","-6.0625"
"1573702686120","300","0.064453125","-0.9316406","-0.20019531","-1.34375","-3.4375","-3.3125"
"1573702686122","301","0.022460938","-0.97753906","-0.20507812","-1.65625","-5.09375","2.1875"
"1573702686122","302","0.046875","-0.98339844","-0.21289062","-8.75","-3.5","-2.09375"
"1573702686122","303","0.043945312","-0.9033203","-0.19628906","7.625","-4.90625","-0.0625"
"1573702686123","304","0.029296875","-0.94628906","-0.19433594","3.53125","-8.0625","2.65625"
"1573702686123","305","0.06542969","-0.97558594","-0.20605469","-0.5625","-3.375","-5.3125"
"1573702686123","306","0.021484375","-0.9433594","-0.19042969","4.8125","-2.6875","0.71875"
"1573702686123","307","0.056640625","-1.0371094","-0.203125","-2.625","2.25","-5.5625"
"1573702686124","308","0.07324219","-1.0205078","-0.19238281","0.0","-4.71875","-1.1875"
"1573702686124","309","0.005859375","-0.96484375","-0.19335938","5.125","-5.21875","1.5625"
"1573702686517","310","0.03515625","-1.0361328","-0.23046875","2.1875","1.375","1.8125"
"1573702686518","311","0.038085938","-1.0419922","-0.22167969","1.625","3.78125","3.28125"
"1573702686518","312","0.056640625","-1.0898438","-0.20605469","8.96875","3.65625","1.875"
"1573702686519","313","0.033203125","-1.1279297","-0.19726562","6.875","-6.5","1.09375"
"1573702686520","314","0.061523438","-1.0908203","-0.25097656","-8.75","-2.8125","-2.625"
"1573702686520","315","0.08105469","-1.0693359","-0.24121094","-2.625","-3.125","-2.46875"
"1573702686521","316","0.047851562","-0.94628906","-0.2421875","-3.0625","-8.625","4.125"
"1573702686521","317","0.07324219","-0.95703125","-0.23535156","-3.25","-1.46875","1.8125"
"1573702686521","318","0.1015625","-0.9765625","-0.21386719","1.625","0.96875","-3.1875"
"1573702686521","319","0.07324219","-0.9873047","-0.21972656","-1.46875","-0.625","-4.40625"
"1573702686914","320","0.055664062","-1.0195312","-0.24023438","-3.625","2.90625","-1.0625"
"1573702686914","321","0.0703125","-1.0126953","-0.21289062","-0.9375","4.8125","0.34375"
"1573702686915","322","0.078125","-0.98828125","-0.20117188","0.90625","1.6875","-0.25"
"1573702686915","323","0.07714844","-0.9873047","-0.20996094","-0.8125","-0.125","-0.875"
"1573702686915","324","0.080078125","-0.9863281","-0.22460938","-1.125","0.90625","-1.78125"
"1573702686916","325","0.08691406","-0.9902344","-0.22265625","-6.90625","0.28125","-2.625"
"1573702686916","326","0.09082031","-1.0058594","-0.23828125","-2.75","0.71875","-1.0"
"1573702686916","327","0.072265625","-1.0","-0.24316406","3.84375","-3.90625","-0.4375"
"1573702686917","328","0.07324219","-0.9638672","-0.24121094","-9.34375","-0.125","-1.71875"
"1573702686917","329","0.08105469","-1.0","-0.25","0.21875","0.09375","1.21875"
"1573702687510","330","0.09082031","-0.984375","-0.24121094","1.03125","-2.21875","0.71875"
"1573702687510","331","0.087890625","-0.97753906","-0.2548828","0.0","-1.65625","-0.1875"
"1573702687510","332","0.080078125","-0.9941406","-0.26367188","1.75","0.15625","0.65625"
"1573702687511","333","0.08691406","-0.9794922","-0.25683594","-2.46875","0.59375","-0.1875"
"1573702687511","334","0.103515625","-0.9863281","-0.26953125","-3.5625","2.125","-0.5625"
"1573702687511","335","0.11035156","-0.9824219","-0.26757812","-4.65625","1.5","-1.53125"
"1573702687511","336","0.10449219","-0.9824219","-0.27441406","-5.6875","0.84375","-5.03125"
"1573702687512","337","0.09375","-1.0273438","-0.2890625","-4.03125","2.1875","-5.75"
"1573702687513","338","0.08496094","-1.0820312","-0.28320312","-2.625","2.4375","-4.59375"
"1573702687513","339","0.068359375","-1.1289062","-0.24609375","-5.8125","3.15625","-3.125"
"1573702687909","340","0.028320312","-1.1650391","-0.25585938","-3.90625","2.84375","-0.0625"
"1573702687910","341","0.037109375","-1.1142578","-0.25","2.1875","-1.34375","2.90625"
"1573702687910","342","0.049804688","-1.0361328","-0.24121094","-4.46875","2.1875","3.46875"
"1573702687910","343","0.037109375","-1.0009766","-0.234375","0.28125","-0.75","4.0625"
"1573702687910","344","0.057617188","-0.93652344","-0.2265625","1.28125","-0.8125","3.21875"
"1573702687911","345","0.061523438","-0.9033203","-0.21484375","2.25","-3.625","3.59375"
"1573702687911","346","0.037109375","-0.8652344","-0.20800781","4.0625","-2.625","4.4375"
"1573702687911","347","0.060546875","-0.8222656","-0.22070312","0.34375","-3.0","2.375"
"1573702687911","348","0.09863281","-0.8417969","-0.24804688","-0.125","-1.3125","0.03125"
"1573702687913","349","0.09277344","-0.89746094","-0.25390625","-5.75","-1.40625","-3.1875"
"1573702688306","350","0.078125","-0.9189453","-0.2421875","-3.5625","-3.5","-4.03125"
"1573702688307","351","0.07421875","-0.9511719","-0.23144531","-2.75","-5.21875","-0.5625"
"1573702688307","352","0.02734375","-0.9785156","-0.23925781","-2.21875","-3.5","0.34375"
"1573702688307","353","-0.0087890625","-0.8955078","-0.2548828","-2.40625","-0.75","4.9375"
"1573702688308","354","0.07421875","-1.0136719","-0.25976562","-1.90625","6.40625","3.53125"
"1573702688308","355","0.059570312","-1.0009766","-0.2578125","3.21875","-2.21875","-1.40625"
"1573702688308","356","0.041992188","-0.92089844","-0.25390625","-1.96875","-2.625","1.8125"
"1573702688308","357","0.0859375","-1.0556641","-0.24804688","-0.8125","-1.0","-3.5625"
"1573702688309","358","0.0703125","-1.0595703","-0.234375","0.40625","-5.03125","-2.875"
"1573702688309","359","0.025390625","-0.99316406","-0.24511719","-1.65625","-7.21875","-0.0625"
"1573702688703","360","0.013671875","-0.9902344","-0.24902344","2.375","-1.84375","4.0"
"1573702688705","361","0.021484375","-0.9892578","-0.25390625","2.4375","-0.3125","3.21875"
"1573702688705","362","0.109375","-0.9921875","-0.25097656","4.5625","-4.34375","-2.46875"
"1573702688706","363","0.061523438","-1.0058594","-0.24902344","9.09375","-8.8125","-3.0"
"1573702688706","364","0.005859375","-1.1318359","-0.3125","0.78125","2.25","-4.53125"
"1573702688706","365","0.07910156","-1.1435547","-0.31835938","-10.4375","13.71875","-5.875"
"1573702688707","366","0.12695312","-0.99121094","-0.27246094","0.15625","5.28125","-2.28125"
"1573702688707","367","0.07421875","-0.9550781","-0.2626953","9.9375","-7.65625","3.59375"
"1573702688707","368","0.049804688","-0.92089844","-0.24707031","3.65625","-0.75","1.21875"
"1573702688708","369","0.08984375","-0.95214844","-0.2763672","3.03125","10.84375","-1.84375"
"1573702689297","370","0.11035156","-1.0136719","-0.28320312","-1.34375","5.1875","-4.21875"
"1573702689298","371","0.09863281","-0.9863281","-0.26660156","-7.9375","7.25","-0.1875"
"1573702689298","372","0.07421875","-1.0117188","-0.2841797","4.1875","2.4375","3.09375"
"1573702689299","373","0.0859375","-0.9873047","-0.26660156","2.65625","-2.8125","3.21875"
"1573702689300","374","0.08300781","-0.96484375","-0.27539062","1.625","-1.71875","0.40625"
"1573702689300","375","0.07519531","-0.97265625","-0.2685547","0.65625","1.15625","0.09375"
"1573702689300","376","0.099609375","-0.97753906","-0.27441406","0.78125","-0.875","-0.625"
"1573702689301","377","0.0859375","-0.98339844","-0.2763672","2.5625","-3.125","0.71875"
"1573702689301","378","0.06542969","-0.984375","-0.27246094","3.15625","-1.59375","1.03125"
"1573702689301","379","0.0703125","-0.98535156","-0.27148438","1.875","-0.8125","0.90625"
"1573702689695","380","0.07714844","-0.9794922","-0.26660156","1.03125","-0.4375","1.4375"
"1573702689695","381","0.08105469","-0.9736328","-0.2685547","-0.0625","0.59375","1.21875"
"1573702689695","382","0.078125","-0.9873047","-0.2685547","1.8125","1.6875","1.15625"
"1573702689696","383","0.08496094","-0.97265625","-0.27734375","-1.25","1.21875","0.96875"
"1573702689696","384","0.08984375","-0.9794922","-0.27441406","2.1875","4.125","0.53125"
"1573702689698","385","0.09765625","-1.0019531","-0.23632812","4.4375","1.03125","-0.4375"
"1573702689698","386","0.095703125","-0.9902344","-0.2841797","4.3125","0.15625","-0.75"
"1573702689698","387","0.0859375","-0.99902344","-0.26171875","-0.375","-1.59375","-2.75"
"1573702689699","388","0.10058594","-1.0126953","-0.25976562","-5.3125","-3.0625","-4.90625"
"1573702689699","389","0.07910156","-1.0576172","-0.2705078","-4.40625","-3.3125","-4.96875"
"1573702690292","390","0.07519531","-1.0966797","-0.26660156","-7.59375","-2.59375","-4.28125"
"1573702690293","391","0.072265625","-1.1113281","-0.25878906","-6.78125","-3.96875","-3.75"
"1573702690293","392","0.051757812","-1.125","-0.26953125","-1.78125","-3.90625","-1.53125"
"1573702690293","393","0.038085938","-1.0761719","-0.2607422","0.46875","-5.625","1.03125"
"1573702690294","394","0.04296875","-1.0429688","-0.25097656","1.5625","-4.46875","0.65625"
"1573702690294","395","0.05859375","-0.99902344","-0.24316406","1.375","-4.46875","-0.4375"
"1573702690294","396","0.055664062","-0.921875","-0.22460938","6.40625","-6.90625","1.09375"
"1573702690295","397","0.049804688","-0.8564453","-0.19921875","5.53125","-6.25","2.5"
"1573702690295","398","0.055664062","-0.80078125","-0.20703125","11.03125","-4.03125","4.8125"
"1573702690296","399","0.064453125","-0.77441406","-0.22167969","14.28125","-7.03125","2.375"
"1573702690489","400","0.08496094","-0.8388672","-0.22363281","-7.21875","2.375","-2.21875"
"1573702690490","401","0.099609375","-0.9716797","-0.24023438","-7.59375","1.375","-4.84375"
"1573702690490","402","0.08691406","-0.9511719","-0.21582031","-2.75","-4.46875","-4.21875"
"1573702690490","403","0.048828125","-1.0283203","-0.22460938","-1.65625","-7.21875","-1.65625"
"1573702690491","404","0.034179688","-1.0087891","-0.203125","-0.75","-8.0","3.46875"
"1573702690491","405","0.00390625","-0.8613281","-0.18359375","10.3125","-11.3125","8.78125"
"1573702690491","406","0.0126953125","-0.9296875","-0.23242188","-1.46875","-3.5","4.0625"
"1573702690491","407","0.10449219","-0.9921875","-0.25","-8.4375","2.71875","-5.875"
"1573702690492","408","0.013671875","-0.9326172","-0.25878906","0.03125","-7.78125","-1.40625"
"1573702690493","409","0.06933594","-1.0654297","-0.30078125","-9.59375","0.53125","-7.21875"
"1573702690690","410","0.11621094","-1.046875","-0.22753906","1.75","-7.34375","-0.4375"
"1573702690691","411","-0.0146484375","-0.9921875","-0.20507812","7.0625","-10.15625","4.6875"
"1573702690691","412","9.765625E-4","-1.0126953","-0.23730469","3.03125","-3.4375","7.4375"
"1573702690691","413","0.043945312","-0.97558594","-0.25585938","0.78125","-3.4375","1.625"
"1573702690691","414","0.09472656","-1.0888672","-0.30859375","-12.40625","2.71875","-5.8125"
"1573702690692","415","0.072265625","-1.2509766","-0.3359375","-11.5","5.96875","-10.34375"
"1573702690692","416","0.0107421875","-1.0595703","-0.2919922","-3.90625","-2.9375","-0.375"
"1573702690692","417","0.061523438","-0.94140625","-0.24804688","7.625","-7.34375","7.1875"
"1573702690692","418","0.1015625","-0.90234375","-0.26953125","5.0","-4.34375","3.03125"
"1573702690693","419","0.10839844","-0.92578125","-0.27929688","-1.90625","2.84375","-3.1875"
"1573702691088","420","0.111328125","-0.98535156","-0.31054688","-5.8125","3.78125","-7.21875"
"1573702691090","421","0.09082031","-1.0039062","-0.3154297","-8.0625","3.78125","-6.0"
"1573702691090","422","0.103515625","-0.9814453","-0.29003906","-0.1875","3.09375","-0.25"
"1573702691090","423","0.09765625","-0.99316406","-0.26660156","9.3125","-1.125","2.90625"
"1573702691090","424","0.0703125","-0.9941406","-0.26367188","8.96875","1.5","2.0"
"1573702691091","425","0.06933594","-0.9658203","-0.25976562","5.1875","6.09375","-0.875"
"1573702691091","426","0.09375","-0.9902344","-0.26367188","4.5","3.46875","-0.9375"
"1573702691091","427","0.09472656","-0.9863281","-0.2607422","1.15625","0.0","-1.25"
"1573702691091","428","0.06738281","-0.9980469","-0.24707031","5.125","0.21875","-0.625"
"1573702691092","429","0.060546875","-1.0117188","-0.23828125","6.15625","0.21875","-0.5"
"1573702691682","430","0.07910156","-0.984375","-0.24902344","-1.34375","5.0625","-2.8125"
"1573702691683","431","0.07910156","-0.9863281","-0.25585938","2.4375","-0.1875","-1.34375"
"1573702691683","432","0.08984375","-0.98046875","-0.24121094","-0.0625","0.46875","-1.59375"
"1573702691684","433","0.09082031","-0.98046875","-0.26171875","0.46875","2.0625","-2.28125"
"1573702691685","434","0.087890625","-0.9970703","-0.25585938","0.84375","3.65625","-1.3125"
"1573702691685","435","0.099609375","-0.984375","-0.26464844","0.53125","-0.125","-1.1875"
"1573702691685","436","0.09863281","-0.98828125","-0.26953125","1.625","-0.375","-0.125"
"1573702691686","437","0.11621094","-0.9785156","-0.27441406","-0.1875","-1.46875","-0.625"
"1573702691686","438","0.123046875","-0.98046875","-0.27539062","-3.5","-2.28125","-2.75"
"1573702691686","439","0.11621094","-0.9736328","-0.2939453","-5.03125","-2.15625","-4.40625"
"1573702691882","440","0.125","-0.97753906","-0.29003906","-5.03125","-3.1875","-4.34375"
"1573702691883","441","0.12402344","-1.0107422","-0.28808594","-1.59375","-5.09375","-2.9375"
"1573702691883","442","0.10839844","-1.0419922","-0.25683594","-3.625","-7.28125","-1.1875"
"1573702691883","443","0.07910156","-1.0683594","-0.2763672","2.4375","-6.0","2.25"
"1573702691883","444","0.083984375","-1.0996094","-0.24609375","3.84375","-7.09375","1.875"
"1573702691885","445","0.07421875","-1.0615234","-0.26757812","-0.25","-3.5625","1.625"
"1573702691885","446","0.052734375","-1.0683594","-0.24609375","4.8125","-4.59375","4.0625"
"1573702691885","447","0.041992188","-1.0244141","-0.23046875","1.375","-6.1875","3.59375"
"1573702691885","448","0.0390625","-1.0244141","-0.25195312","2.65625","-2.15625","1.5"
"1573702691886","449","0.0625","-1.0185547","-0.24414062","0.09375","-0.75","-1.1875"
"1573702692281","450","0.055664062","-0.9814453","-0.22851562","0.09375","-4.90625","-0.1875"
"1573702692282","451","0.0390625","-0.9160156","-0.22851562","4.1875","-4.53125","2.0625"
"1573702692282","452","0.053710938","-0.8613281","-0.21386719","5.84375","-4.03125","4.75"
"1573702692283","453","0.059570312","-0.80859375","-0.203125","5.1875","-4.53125","3.9375"
"1573702692283","454","0.06640625","-0.8046875","-0.21875","0.0","-2.53125","2.71875"
"1573702692283","455","0.07910156","-0.84277344","-0.22070312","-3.0625","0.71875","0.15625"
"1573702692283","456","0.059570312","-0.88671875","-0.21191406","-4.59375","1.75","1.5625"
"1573702692285","457","0.08105469","-0.98339844","-0.22851562","-6.375","2.5","-2.75"
"1573702692285","458","0.013671875","-0.9511719","-0.2421875","0.0","0.15625","3.53125"
"1573702692286","459","-0.0029296875","-0.9892578","-0.21972656","-7.09375","4.5","6.8125"
"1573702692679","460","0.05859375","-1.0742188","-0.24316406","1.21875","10.40625","3.34375"
"1573702692679","461","0.024414062","-1.0185547","-0.24023438","1.75","0.09375","6.5625"
"1573702692680","462","0.07128906","-1.0195312","-0.24414062","-2.09375","-1.0625","-1.1875"
"1573702692680","463","0.046875","-0.9560547","-0.2109375","7.75","-4.28125","4.75"
"1573702692680","464","0.034179688","-0.97558594","-0.22265625","7.75","-5.5","2.125"
"1573702692680","465","0.046875","-1.0117188","-0.21191406","0.78125","-5.75","-1.0"
"1573702692681","466","0.018554688","-0.8984375","-0.21582031","6.5","-14.46875","3.84375"
"1573702692681","467","0.07128906","-1.1445312","-0.33984375","-13.625","-6.1875","-5.375"
"1573702692681","468","0.10058594","-1.4980469","-0.3876953","-28.46875","11.09375","-24.125"
"1573702692682","469","-0.055664062","-0.9375","-0.25097656","-6.25","-10.28125","-0.9375"
"1573702693075","470","0.024414062","-0.8125","-0.26660156","20.25","-12.03125","19.34375"
"1573702693076","471","0.13671875","-0.96875","-0.27148438","0.40625","-3.5625","-0.4375"
"1573702693076","472","0.10644531","-0.90234375","-0.296875","-1.96875","2.84375","-7.28125"
"1573702693076","473","0.099609375","-0.9472656","-0.328125","-10.4375","4.875","-13.8125"
"1573702693076","474","0.07519531","-1.0791016","-0.3203125","-16.5625","10.25","-4.21875"
"1573702693077","475","0.06738281","-1.0","-0.2919922","1.28125","6.21875","-0.75"
"1573702693077","476","0.095703125","-0.9345703","-0.2861328","7.625","-0.875","5.96875"
"1573702693077","477","0.09082031","-0.99316406","-0.27148438","3.53125","-2.28125","2.71875"
"1573702693077","478","0.0625","-0.95703125","-0.27539062","2.5","4.5625","-2.75"
"1573702693078","479","0.08300781","-0.9707031","-0.2783203","-7.09375","4.4375","-4.28125"
