"# PR data"
"# Start time: 20191114T034437"
"# Subject: teo"
"# Activity type: Step ups"
"# Correctness: Correct"
"# Notes: "
""
"timestamp","seq","accel_x","accel_y","accel_z","gyro_x","gyro_y","gyro_z"
"1573703078255","0","-0.09667969","-1.0224609","-0.2841797","-1.90625","4.25","0.65625"
"1573703078255","1","-0.08984375","-1.0126953","-0.3408203","-12.71875","21.09375","11.34375"
"1573703078256","2","0.14550781","-0.94140625","-0.34277344","-4.78125","21.15625","5.78125"
"1573703078256","3","0.18554688","-0.88964844","-0.203125","8.34375","5.71875","2.1875"
"1573703078256","4","-0.0048828125","-1.0019531","-0.22851562","-0.5625","6.625","-9.40625"
"1573703078256","5","-0.017578125","-1.0185547","-0.29101562","2.5","12.5","-3.75"
"1573703078257","6","0.06738281","-0.9550781","-0.30664062","-3.125","14.5","0.15625"
"1573703078257","7","0.05859375","-0.95996094","-0.30273438","-4.96875","9.5625","2.65625"
"1573703078257","8","0.01953125","-0.98535156","-0.29003906","1.5","7.125","4.75"
"1573703078257","9","0.045898438","-0.95703125","-0.27929688","-1.78125","5.65625","4.125"
"1573703078849","10","0.0625","-0.9707031","-0.2685547","2.65625","3.84375","2.71875"
"1573703078849","11","0.07714844","-0.99316406","-0.24023438","15.625","-6.96875","-0.625"
"1573703078849","12","0.12597656","-0.97558594","-0.19726562","20.75","-19.71875","-2.8125"
"1573703078850","13","0.099609375","-0.96875","-0.17675781","24.59375","-27.0","2.59375"
"1573703078851","14","0.06640625","-1.1035156","-0.22753906","-0.4375","-8.0625","-7.59375"
"1573703078851","15","0.026367188","-1.1025391","-0.32714844","5.46875","5.53125","-9.53125"
"1573703078851","16","0.17382812","-0.921875","-0.328125","27.8125","4.0625","8.15625"
"1573703078851","17","0.21972656","-0.98339844","-0.23632812","18.84375","-5.3125","12.375"
"1573703078852","18","0.0029296875","-0.9580078","-0.1953125","24.46875","-9.53125","9.625"
"1573703078852","19","0.080078125","-0.96777344","-0.18554688","24.71875","6.875","4.5625"
"1573703079047","20","0.16992188","-0.98828125","-0.18164062","16.34375","-1.125","0.40625"
"1573703079048","21","0.115234375","-0.9667969","-0.18359375","6.34375","-3.8125","-0.3125"
"1573703079048","22","0.140625","-0.9501953","-0.21191406","0.65625","-3.1875","-2.03125"
"1573703079048","23","0.22753906","-0.9873047","-0.23046875","-5.3125","-3.3125","2.1875"
"1573703079048","24","0.11621094","-1.0126953","-0.21191406","-4.78125","-2.40625","3.09375"
"1573703079050","25","0.078125","-0.9951172","-0.16503906","0.65625","2.84375","15.78125"
"1573703079050","26","0.0234375","-1.0683594","-0.21289062","-1.0","5.96875","9.375"
"1573703079050","27","0.024414062","-1.2060547","-0.24707031","7.75","12.0","12.375"
"1573703079050","28","0.13867188","-1.4716797","-0.21386719","-3.4375","37.15625","18.53125"
"1573703079051","29","0.0126953125","-1.6318359","-0.111328125","25.75","31.28125","16.90625"
"1573703079446","30","-0.234375","-1.2119141","-0.036132812","21.96875","16.65625","30.4375"
"1573703079446","31","-0.16894531","-0.76171875","-0.09082031","14.28125","8.84375","27.875"
"1573703079447","32","-0.04296875","-0.7949219","-0.0234375","-0.9375","21.40625","20.0"
"1573703079447","33","-0.21191406","-0.9736328","-0.057617188","-28.8125","27.4375","-0.375"
"1573703079447","34","-0.2421875","-0.98535156","-0.17480469","-24.90625","24.75","-12.90625"
"1573703079447","35","-0.08984375","-0.9501953","-0.22265625","-28.40625","28.84375","-15.28125"
"1573703079447","36","-0.020507812","-1.0039062","-0.20410156","-20.84375","13.21875","-8.1875"
"1573703079449","37","-0.0029296875","-0.95410156","-0.14453125","-2.6875","-0.875","-4.90625"
"1573703079449","38","-0.08984375","-0.8125","-0.18457031","3.03125","-11.0","6.28125"
"1573703079449","39","-0.045898438","-0.7705078","-0.16796875","2.90625","-3.375","7.6875"
"1573703080042","40","-0.017578125","-0.7832031","-0.15820312","-5.3125","-8.4375","8.96875"
"1573703080042","41","-0.12792969","-0.8027344","-0.20605469","-11.0625","-13.4375","2.5"
"1573703080042","42","-0.13085938","-0.93652344","-0.2734375","-19.0","-2.03125","-3.90625"
"1573703080042","43","-0.048828125","-0.98339844","-0.3017578","-18.25","-7.34375","-12.59375"
"1573703080043","44","-0.009765625","-1.0019531","-0.26757812","-7.28125","-26.625","-20.03125"
"1573703080043","45","-0.005859375","-0.9394531","-0.26953125","5.40625","-36.5625","-22.0625"
"1573703080043","46","0.0859375","-0.8964844","-0.26171875","8.96875","-50.5625","-28.9375"
"1573703080043","47","0.19628906","-0.9921875","-0.05078125","1.6875","-66.0625","-29.3125"
"1573703080044","48","-0.056640625","-1.1015625","-0.1015625","-6.5","-74.34375","-24.5625"
"1573703080045","49","-0.07714844","-1.0292969","-0.15625","29.59375","-52.625","-8.75"
"1573703080241","50","-0.091796875","-1.0810547","-0.20605469","10.0","-10.8125","7.125"
"1573703080241","51","-0.109375","-1.15625","-0.3017578","-23.4375","25.125","3.59375"
"1573703080241","52","0.20605469","-0.96875","-0.18261719","8.03125","3.84375","7.5"
"1573703080242","53","0.18554688","-0.8261719","-0.09863281","18.96875","-38.53125","-9.28125"
"1573703080242","54","-0.04296875","-0.87890625","-0.09277344","8.34375","-7.21875","-11.84375"
"1573703080243","55","0.030273438","-1.0507812","-0.13964844","-5.75","19.625","-15.03125"
"1573703080243","56","0.059570312","-1.03125","-0.14941406","-23.34375","17.0625","-13.0625"
"1573703080243","57","0.051757812","-0.96875","-0.14355469","-29.4375","18.21875","-12.09375"
"1573703080243","58","0.109375","-0.97265625","-0.20117188","-13.875","17.9375","-4.84375"
"1573703080244","59","0.07128906","-0.8652344","-0.14550781","-2.9375","3.34375","7.5"
"1573703080637","60","0.053710938","-0.7324219","-0.099609375","2.4375","2.0","14.09375"
"1573703080639","61","0.07421875","-0.72753906","-0.056640625","2.5625","2.65625","15.96875"
"1573703080639","62","0.07324219","-0.7558594","-0.029296875","3.03125","0.53125","16.90625"
"1573703080639","63","0.10058594","-0.82421875","-0.028320312","-12.28125","-12.84375","15.96875"
"1573703080640","64","0.030273438","-0.875","-0.028320312","-3.75","-20.875","17.375"
"1573703080640","65","-0.052734375","-0.7949219","-0.017578125","9.25","-28.21875","26.46875"
"1573703080640","66","-0.23339844","-0.86816406","-0.15917969","0.59375","1.75","28.65625"
"1573703080640","67","-0.19042969","-1.2109375","-0.43164062","42.03125","39.34375","13.59375"
"1573703080641","68","-0.13183594","-1.9541016","-0.5332031","-2.6875","39.84375","-5.875"
"1573703080641","69","0.18164062","-1.5244141","-0.43066406","-41.875","15.3125","-10.15625"
"1573703081035","70","-0.044921875","-1.1572266","-0.3095703","8.53125","-22.125","-10.21875"
"1573703081036","71","-0.19726562","-1.0537109","-0.43164062","-6.59375","22.6875","0.65625"
"1573703081036","72","-0.05078125","-1.2089844","-0.31054688","-16.125","11.59375","29.34375"
"1573703081037","73","-0.016601562","-0.78125","-0.3232422","11.15625","-17.84375","21.40625"
"1573703081037","74","-0.22265625","-0.5625","-0.34765625","5.40625","-2.46875","28.375"
"1573703081037","75","-0.13964844","-0.8027344","-0.36035156","18.53125","41.90625","24.21875"
"1573703081038","76","0.0029296875","-0.97558594","-0.36914062","-9.34375","41.90625","10.375"
"1573703081038","77","-0.015625","-1.0039062","-0.31152344","9.625","16.90625","10.46875"
"1573703081038","78","-0.08105469","-0.9560547","-0.28710938","15.96875","17.125","2.84375"
"1573703081038","79","-0.07519531","-1.0488281","-0.3486328","4.4375","18.71875","-2.53125"
"1573703081435","80","-0.036132812","-0.9892578","-0.35253906","6.46875","7.1875","-2.15625"
"1573703081435","81","-0.03125","-0.9091797","-0.30859375","10.59375","3.65625","-2.46875"
"1573703081436","82","-0.09472656","-0.90722656","-0.28808594","11.40625","1.03125","-3.375"
"1573703081436","83","-0.09472656","-0.9091797","-0.26171875","11.53125","3.09375","-5.625"
"1573703081436","84","-0.12890625","-0.9560547","-0.27441406","3.53125","8.15625","-6.78125"
"1573703081437","85","-0.10253906","-0.984375","-0.27441406","2.59375","15.25","-10.8125"
"1573703081438","86","-0.08496094","-0.98339844","-0.24609375","5.34375","4.125","-19.375"
"1573703081438","87","-0.07421875","-1.0322266","-0.24902344","-4.34375","10.84375","-20.09375"
"1573703081438","88","-0.06347656","-1.1591797","-0.25097656","-23.09375","-1.1875","-15.75"
"1573703081439","89","0.04296875","-1.0830078","-0.24023438","-12.78125","-15.75","-18.5"
"1573703081832","90","0.10449219","-0.95996094","-0.203125","7.5","-30.90625","-28.09375"
"1573703081832","91","0.043945312","-0.90234375","-0.15234375","25.375","-34.875","-13.1875"
"1573703081832","92","0.0390625","-1.0439453","-0.15527344","7.25","-22.34375","-11.84375"
"1573703081833","93","-0.022460938","-1.1396484","-0.2421875","3.34375","-7.59375","-19.4375"
"1573703081833","94","0.123046875","-0.95996094","-0.2890625","18.59375","1.6875","-3.96875"
"1573703081833","95","0.2548828","-0.91308594","-0.17871094","14.75","-12.03125","-0.9375"
"1573703081833","96","0.07714844","-0.99316406","-0.18164062","9.875","-25.40625","-6.5"
"1573703081835","97","0.03515625","-0.96484375","-0.17285156","25.3125","-13.5","-8.25"
"1573703081835","98","0.11328125","-0.984375","-0.20605469","15.4375","-7.34375","-4.28125"
"1573703081836","99","0.11621094","-1.0166016","-0.19921875","1.6875","-6.78125","-3.1875"
"1573703082229","100","0.12890625","-0.9970703","-0.19824219","7.96875","-9.34375","1.625"
"1573703082230","101","0.0859375","-0.9951172","-0.22363281","5.34375","-6.5","2.4375"
"1573703082230","102","0.119140625","-0.9785156","-0.22460938","-11.78125","3.03125","3.28125"
"1573703082230","103","0.17871094","-0.9628906","-0.1953125","-1.46875","0.96875","2.71875"
"1573703082231","104","0.09375","-1.0175781","-0.20800781","0.71875","2.5","8.84375"
"1573703082231","105","0.06640625","-1.0498047","-0.16210938","13.09375","5.0625","11.03125"
"1573703082231","106","0.07714844","-1.1855469","-0.22363281","9.625","6.28125","13.78125"
"1573703082231","107","0.125","-1.5947266","-0.21777344","-8.625","34.15625","5.59375"
"1573703082232","108","-0.005859375","-1.6679688","-0.16308594","24.8125","12.375","13.59375"
"1573703082233","109","-0.20117188","-1.0947266","-0.0126953125","46.0","1.375","52.84375"
"1573703082625","110","-0.23730469","-0.7998047","0.0068359375","14.4375","26.84375","34.28125"
"1573703082626","111","-0.2109375","-0.93652344","-0.08203125","-4.78125","28.0625","8.71875"
"1573703082626","112","-0.033203125","-0.94628906","-0.0546875","-23.28125","18.59375","-5.4375"
"1573703082626","113","-0.064453125","-0.9003906","-0.09667969","-28.28125","0.71875","-20.09375"
"1573703082626","114","-0.16015625","-0.8935547","-0.15332031","-12.71875","2.78125","-23.9375"
"1573703082627","115","-0.12207031","-0.9394531","-0.19824219","-8.5","1.03125","-4.40625"
"1573703082627","116","-0.051757812","-0.9003906","-0.17871094","-13.75","3.59375","0.71875"
"1573703082628","117","-0.045898438","-0.81640625","-0.095703125","-11.0","4.8125","2.1875"
"1573703082628","118","-0.10839844","-0.8095703","-0.16699219","0.96875","2.5625","2.84375"
"1573703082629","119","-0.0703125","-0.85546875","-0.16894531","-3.5","1.09375","4.4375"
"1573703083420","120","-0.017578125","-0.8486328","-0.16796875","-4.84375","-9.28125","1.6875"
"1573703083420","121","-0.055664062","-0.89160156","-0.1796875","-4.28125","-14.53125","-7.9375"
"1573703083421","122","-0.06738281","-0.890625","-0.20996094","3.59375","-26.625","-14.84375"
"1573703083421","123","-0.06542969","-0.9277344","-0.21191406","-1.90625","-27.125","-22.0"
"1573703083421","124","-0.048828125","-0.9746094","-0.23144531","2.125","-37.0","-23.5"
"1573703083422","125","0.07714844","-1.0654297","-0.08984375","-10.40625","-37.625","-18.5625"
"1573703083422","126","0.12890625","-1.1845703","0.0029296875","6.34375","-61.96875","-26.125"
"1573703083422","127","-0.021484375","-0.9433594","-0.038085938","33.90625","-109.4375","-8.5"
"1573703083422","128","-0.043945312","-0.7949219","0.0","29.09375","-56.03125","17.9375"
"1573703083423","129","-0.21582031","-1.1191406","-0.09765625","-19.0625","27.8125","-7.65625"
"1573703083617","130","-0.10546875","-1.2626953","-0.18164062","-17.84375","29.03125","-8.4375"
"1573703083617","131","0.14746094","-0.9736328","-0.15625","-4.96875","-3.8125","4.3125"
"1573703083618","132","0.17675781","-0.89941406","-0.08984375","6.6875","-14.78125","-6.65625"
"1573703083619","133","0.10058594","-0.97753906","-0.041992188","13.09375","10.1875","-14.78125"
"1573703083619","134","-0.047851562","-1.0087891","-0.043945312","4.8125","6.5625","-5.6875"
"1573703083619","135","-0.038085938","-0.90234375","-0.06347656","4.4375","16.46875","6.40625"
"1573703083620","136","0.06347656","-0.8466797","-0.041015625","5.1875","23.65625","13.71875"
"1573703083620","137","0.091796875","-0.94921875","-0.038085938","-5.09375","18.46875","14.75"
"1573703083620","138","-0.0234375","-0.8515625","0.02734375","5.28125","10.84375","20.8125"
"1573703083620","139","-0.041992188","-0.6816406","0.017578125","21.15625","8.21875","32.21875"
"1573703083819","140","-0.08203125","-0.640625","-0.0126953125","32.46875","10.0","34.65625"
"1573703083819","141","-0.001953125","-0.70996094","0.11425781","12.75","21.15625","44.28125"
"1573703083820","142","-0.047851562","-0.8720703","0.16894531","-10.34375","21.65625","18.59375"
"1573703083820","143","-0.18261719","-0.9345703","0.0859375","6.625","-3.1875","13.65625"
"1573703083820","144","-0.23632812","-0.9785156","-0.06640625","11.03125","9.09375","18.125"
"1573703083821","145","-0.20214844","-1.5175781","-0.28808594","-32.25","53.34375","7.84375"
"1573703083822","146","-0.0625","-1.8476562","-0.3720703","-46.53125","23.90625","6.875"
"1573703083822","147","-0.20605469","-1.4296875","-0.30566406","-12.78125","-29.96875","0.34375"
"1573703083822","148","-0.19140625","-1.1533203","-0.27734375","-19.375","15.78125","-7.9375"
"1573703083822","149","-0.10253906","-1.2666016","-0.38964844","-2.03125","30.0","13.40625"
"1573703084216","150","0.043945312","-1.1230469","-0.37890625","-3.3125","-11.0","-12.90625"
"1573703084217","151","0.046875","-0.65234375","-0.1640625","0.15625","-34.875","-12.09375"
"1573703084217","152","-0.11621094","-0.5205078","-0.19140625","16.34375","-22.65625","-2.09375"
"1573703084217","153","-0.2705078","-0.9296875","-0.3671875","-6.3125","29.65625","-4.71875"
"1573703084217","154","-0.076171875","-1.2275391","-0.31054688","-5.15625","36.46875","-3.5625"
"1573703084218","155","0.0703125","-0.9375","-0.20214844","8.28125","-9.15625","0.03125"
"1573703084218","156","-0.08691406","-0.9111328","-0.23925781","9.3125","-17.34375","-2.28125"
"1573703084219","157","-0.16503906","-0.9785156","-0.25878906","16.28125","-0.25","-8.25"
"1573703084220","158","-0.026367188","-0.98339844","-0.23632812","3.9375","6.5","-11.0"
"1573703084220","159","-0.07128906","-0.9628906","-0.20410156","-7.65625","-6.0","-12.40625"
"1573703084613","160","-0.123046875","-0.9902344","-0.26464844","-10.34375","-1.90625","-12.84375"
"1573703084614","161","-0.09375","-0.9550781","-0.2841797","-6.4375","-8.0625","-15.6875"
"1573703084614","162","0.0068359375","-0.8828125","-0.24609375","-2.28125","-8.5625","-19.5"
"1573703084614","163","-0.09667969","-1.0380859","-0.16796875","0.09375","-2.75","-22.15625"
"1573703084615","164","-0.17285156","-1.1357422","-0.12109375","-4.28125","-6.0625","-7.9375"
"1573703084615","165","-0.1015625","-1.0175781","-0.14160156","-6.53125","-23.21875","10.90625"
"1573703084615","166","0.076171875","-0.9296875","-0.1328125","11.34375","-14.34375","-1.78125"
"1573703084616","167","0.12988281","-1.0175781","-0.12109375","13.90625","-22.84375","-26.625"
"1573703084617","168","0.01953125","-1.0664062","-0.13867188","9.25","-31.15625","-15.34375"
"1573703084617","169","0.00390625","-1.1083984","-0.18164062","11.09375","-21.3125","-13.5625"
"1573703085210","170","0.05078125","-0.9902344","-0.21191406","9.8125","-14.25","-6.125"
"1573703085211","171","0.16894531","-0.98339844","-0.17285156","3.34375","-14.53125","-3.375"
"1573703085211","172","0.11230469","-1.0019531","-0.13574219","3.84375","-18.03125","-14.59375"
"1573703085211","173","-0.0048828125","-0.9707031","-0.15722656","5.40625","-15.28125","-7.15625"
"1573703085211","174","0.001953125","-0.98535156","-0.16894531","3.78125","-3.75","-3.375"
"1573703085212","175","0.09082031","-0.97558594","-0.16699219","7.75","8.03125","-1.40625"
"1573703085212","176","0.10644531","-0.98046875","-0.16796875","-3.0625","-0.1875","-1.40625"
"1573703085212","177","0.07128906","-1.0195312","-0.14355469","-1.46875","-2.6875","0.15625"
"1573703085213","178","0.05859375","-0.9589844","-0.19628906","1.8125","3.09375","-0.125"
"1573703085213","179","0.15039062","-0.97753906","-0.18652344","6.5625","4.75","3.71875"
"1573703085607","180","0.11035156","-1.0322266","-0.15820312","-7.15625","6.5","5.65625"
"1573703085613","181","-9.765625E-4","-1.0048828","-0.19921875","12.1875","14.4375","3.71875"
"1573703085614","182","0.140625","-1.0332031","-0.15722656","24.46875","11.28125","16.90625"
"1573703085614","183","0.11816406","-1.2236328","-0.17285156","3.09375","17.3125","12.625"
"1573703085614","184","0.0029296875","-1.5996094","-0.15917969","4.5","46.375","-1.84375"
"1573703085615","185","-0.10253906","-1.6494141","-0.115234375","28.78125","22.5","21.96875"
"1573703085615","186","-0.11816406","-1.1171875","0.0703125","42.40625","13.21875","39.34375"
"1573703085615","187","-0.19433594","-0.7734375","0.068359375","17.625","31.65625","15.5"
"1573703085616","188","-0.21679688","-0.89453125","-0.01171875","-13.4375","35.1875","12.4375"
"1573703085616","189","-0.18847656","-0.9472656","0.00390625","-39.0625","28.375","-1.84375"
"1573703086202","190","-0.09863281","-0.91308594","-0.08496094","-15.59375","16.65625","-4.34375"
"1573703086202","191","-0.046875","-0.92089844","-0.1171875","-13.3125","7.375","-23.09375"
"1573703086203","192","-0.06347656","-0.9863281","-0.140625","-23.9375","-9.15625","-17.53125"
"1573703086204","193","-0.06542969","-0.9121094","-0.09667969","-3.25","-10.4375","-12.15625"
"1573703086205","194","-0.12109375","-0.8027344","-0.059570312","0.40625","-9.15625","-2.28125"
"1573703086205","195","-0.095703125","-0.7988281","-0.11230469","-3.375","-5.3125","5.59375"
"1573703086205","196","-0.0087890625","-0.8564453","-0.11230469","-12.40625","-1.78125","0.28125"
"1573703086205","197","-0.048828125","-0.8720703","-0.103515625","-10.28125","-10.28125","-5.09375"
"1573703086206","198","-0.10644531","-0.87890625","-0.1640625","-14.125","-14.40625","-9.65625"
"1573703086206","199","-0.068359375","-0.9375","-0.18847656","-12.53125","-16.375","-18.6875"
"1573703086402","200","-0.041015625","-0.96777344","-0.19140625","-15.53125","-25.90625","-27.125"
"1573703086403","201","-0.015625","-0.97558594","-0.18652344","-20.40625","-32.5625","-25.71875"
"1573703086403","202","0.061523438","-1.1708984","-0.12207031","-21.375","-27.71875","-24.6875"
"1573703086403","203","-0.009765625","-1.1113281","-0.13574219","-11.6875","-50.5625","-17.96875"
"1573703086404","204","0.0048828125","-0.80078125","-0.21289062","21.40625","-72.21875","10.78125"
"1573703086405","205","0.09765625","-0.8310547","-0.13574219","11.34375","-27.0625","-4.21875"
"1573703086405","206","-0.08105469","-1.078125","-0.06542969","-8.375","-25.28125","0.71875"
"1573703086405","207","-0.1015625","-1.09375","-0.14746094","-3.1875","-16.6875","-4.40625"
"1573703086406","208","0.10546875","-1.0029297","-0.16796875","6.03125","-2.59375","-4.71875"
"1573703086406","209","0.15039062","-1.0429688","-0.24511719","4.25","1.8125","-0.75"
"1573703086800","210","0.11816406","-1.0351562","-0.20605469","-7.03125","-4.71875","-6.25"
"1573703086801","211","0.06347656","-0.94628906","-0.12011719","5.84375","-2.53125","-3.375"
"1573703086801","212","0.024414062","-0.953125","-0.09667969","7.90625","8.59375","2.5625"
"1573703086801","213","0.06738281","-0.9316406","-0.08691406","10.1875","14.75","2.5"
"1573703086801","214","0.056640625","-0.9248047","-0.056640625","-3.1875","15.5","2.0"
"1573703086802","215","0.013671875","-0.92871094","-0.055664062","-21.1875","17.5","0.09375"
"1573703086802","216","0.0625","-0.8027344","-0.07519531","-10.28125","11.28125","1.21875"
"1573703086803","217","0.10839844","-0.7841797","-0.115234375","-6.90625","2.375","3.40625"
"1573703086804","218","-9.765625E-4","-0.81347656","-0.056640625","-13.6875","-0.5625","6.03125"
"1573703086804","219","-0.0087890625","-0.8203125","-0.060546875","-9.53125","1.75","9.8125"
"1573703087197","220","-0.017578125","-0.91308594","-0.044921875","-1.78125","-6.125","9.25"
"1573703087198","221","0.0","-0.84375","-0.03515625","2.3125","-13.8125","15.3125"
"1573703087198","222","0.0126953125","-0.6533203","-0.026367188","18.90625","-28.8125","19.6875"
"1573703087198","223","-0.046875","-0.88183594","-0.13574219","5.96875","-5.8125","16.34375"
"1573703087199","224","-0.21289062","-1.28125","-0.33984375","-6.53125","33.75","6.09375"
"1573703087199","225","-0.021484375","-1.9082031","-0.50683594","-33.03125","3.90625","-10.28125"
"1573703087199","226","0.13183594","-1.5449219","-0.35058594","-4.84375","-9.0625","12.125"
"1573703087199","227","-0.12695312","-1.1816406","-0.29296875","23.65625","-26.03125","6.5"
"1573703087200","228","-0.20214844","-1.2177734","-0.3642578","-31.03125","30.4375","6.9375"
"1573703087201","229","0.026367188","-1.4404297","-0.2939453","-3.875","11.9375","19.03125"
"1573703087594","230","0.05859375","-0.8720703","-0.22167969","-0.0625","-25.34375","1.03125"
"1573703087594","231","-0.048828125","-0.5019531","-0.16699219","27.09375","-30.15625","13.78125"
"1573703087594","232","-0.14550781","-0.66796875","-0.31835938","6.75","4.5625","4.0"
"1573703087595","233","-0.16699219","-1.0556641","-0.41503906","-1.90625","41.375","-7.28125"
"1573703087595","234","-0.043945312","-1.1308594","-0.3330078","-19.125","48.625","-13.625"
"1573703087595","235","0.049804688","-1.0634766","-0.3466797","-10.15625","15.625","-0.4375"
"1573703087595","236","0.037109375","-0.97558594","-0.2705078","18.84375","10.3125","-3.6875"
"1573703087596","237","9.765625E-4","-0.859375","-0.25097656","6.09375","4.4375","-1.46875"
"1573703087596","238","0.0068359375","-0.84765625","-0.27246094","11.59375","3.9375","-2.46875"
"1573703087596","239","-0.03125","-0.94921875","-0.2783203","-1.1875","10.125","-3.96875"
"1573703087993","240","-0.038085938","-1.0390625","-0.31152344","0.03125","12.3125","-4.90625"
"1573703087994","241","-0.030273438","-1.0117188","-0.30566406","3.40625","-5.875","-4.96875"
"1573703087994","242","-0.029296875","-0.8935547","-0.24902344","19.625","-7.8125","-4.90625"
"1573703087994","243","-0.04296875","-0.9404297","-0.23339844","21.65625","9.03125","-7.9375"
"1573703087995","244","-0.09277344","-1.0341797","-0.2626953","15.90625","12.1875","-5.03125"
"1573703087995","245","-0.048828125","-1.0117188","-0.19628906","12.375","15.90625","5.65625"
"1573703087995","246","-0.056640625","-1.0439453","-0.16796875","8.28125","25.8125","4.375"
"1573703087996","247","-0.021484375","-1.1533203","-0.10644531","-5.75","23.1875","-1.1875"
"1573703087996","248","0.015625","-1.0341797","-0.18457031","5.96875","-7.09375","-8.0625"
"1573703087996","249","0.16992188","-0.8457031","-0.16699219","14.5","-32.0625","-18.5625"
"1573703088390","250","0.2861328","-0.93359375","-0.11425781","-20.09375","-49.15625","-25.21875"
"1573703088391","251","9.765625E-4","-1.0654297","-0.09375","-32.25","-58.1875","-13.0625"
"1573703088391","252","-0.0068359375","-1.1630859","-0.24121094","-42.1875","-16.5","-19.96875"
"1573703088392","253","0.08105469","-1.09375","-0.3359375","-17.59375","-1.34375","-21.5"
"1573703088393","254","0.16699219","-0.91796875","-0.30566406","25.5","-20.84375","8.28125"
"1573703088393","255","0.09277344","-0.8251953","-0.2109375","7.25","-33.03125","11.8125"
"1573703088393","256","-0.0126953125","-0.9423828","-0.15820312","12.9375","-5.09375","4.875"
"1573703088394","257","0.041015625","-1.0341797","-0.18554688","23.4375","7.1875","1.3125"
"1573703088394","258","0.12695312","-0.9785156","-0.20605469","22.25","-2.15625","0.78125"
"1573703088394","259","0.12988281","-0.99316406","-0.23046875","5.125","-3.75","2.1875"
"1573703088789","260","0.14746094","-0.9902344","-0.22363281","8.65625","-4.40625","-1.84375"
"1573703088789","261","0.125","-0.9873047","-0.22363281","-1.46875","-6.25","1.375"
"1573703088789","262","0.10644531","-0.95996094","-0.24023438","-5.5","-3.1875","2.5625"
"1573703088790","263","0.08203125","-0.9980469","-0.23242188","2.96875","14.375","6.6875"
"1573703088790","264","0.034179688","-1.1201172","-0.18554688","5.21875","22.5625","15.1875"
"1573703088792","265","0.040039062","-1.1884766","-0.22363281","2.5625","26.28125","21.71875"
"1573703088792","266","0.028320312","-1.4580078","-0.18554688","2.375","45.03125","17.75"
"1573703088792","267","-0.055664062","-1.6132812","-0.125","20.5625","43.625","12.6875"
"1573703088793","268","-0.24121094","-1.1181641","-0.036132812","28.90625","3.46875","34.65625"
"1573703088793","269","-0.1875","-0.80371094","-0.025390625","17.0625","13.46875","16.90625"
"1573703089184","270","-0.13671875","-0.875","-0.12890625","-9.59375","21.03125","-4.78125"
"1573703089184","271","-0.0859375","-0.9707031","-0.09863281","-16.5625","20.375","-4.21875"
"1573703089185","272","-0.10253906","-0.94921875","-0.10644531","-19.84375","10.0","-13.6875"
"1573703089185","273","-0.12792969","-0.90527344","-0.17773438","-5.875","7.1875","-8.8125"
"1573703089185","274","-0.07128906","-0.96191406","-0.15136719","-9.59375","12.4375","-2.46875"
"1573703089185","275","-0.0703125","-0.93359375","-0.14355469","-16.75","3.15625","0.71875"
"1573703089185","276","-0.095703125","-0.87890625","-0.15527344","-12.46875","3.46875","4.0625"
"1573703089187","277","-0.01171875","-0.8691406","-0.18847656","-6.0","5.96875","6.09375"
"1573703089187","278","-0.0107421875","-0.8798828","-0.20019531","-5.03125","-3.90625","1.5625"
"1573703089187","279","-0.03125","-0.8857422","-0.22851562","-12.46875","-8.9375","-2.40625"
"1573703089583","280","-0.0234375","-0.90527344","-0.18164062","-1.71875","-15.03125","-4.96875"
"1573703089583","281","-0.09082031","-0.8720703","-0.21875","0.09375","-24.125","-16.625"
"1573703089583","282","-0.08300781","-0.8808594","-0.24609375","-3.5","-26.8125","-19.1875"
"1573703089584","283","0.025390625","-0.8886719","-0.22460938","-0.0625","-29.25","-21.625"
"1573703089584","284","0.091796875","-0.96191406","-0.18652344","-1.96875","-40.3125","-25.90625"
"1573703089584","285","0.051757812","-1.2216797","-0.10449219","-12.71875","-36.34375","-24.5625"
"1573703089584","286","-0.029296875","-1.1816406","-0.16894531","-6.84375","-68.0","-21.5625"
"1573703089585","287","0.0068359375","-0.8144531","-0.20996094","14.4375","-57.28125","8.53125"
"1573703089585","288","-0.00390625","-0.94921875","-0.19921875","8.59375","-10.75","-2.6875"
"1573703089586","289","-0.03125","-1.1113281","-0.16503906","-4.53125","-6.1875","3.9375"
"1573703090375","290","0.07910156","-1.0654297","-0.1171875","2.4375","-21.875","-9.15625"
"1573703090376","291","0.099609375","-0.86816406","-0.06640625","23.53125","-13.625","-3.6875"
"1573703090376","292","-0.009765625","-0.9560547","-0.13867188","-0.0625","-13.1875","-5.25"
"1573703090376","293","-0.0390625","-1.0146484","-0.13671875","-6.96875","8.78125","1.5625"
"1573703090376","294","0.048828125","-0.9169922","-0.15234375","-9.21875","24.59375","4.125"
"1573703090377","295","0.099609375","-0.95996094","-0.14355469","-21.8125","25.75","3.40625"
"1573703090377","296","0.09667969","-0.89941406","-0.09472656","-2.625","5.96875","10.71875"
"1573703090377","297","0.015625","-0.765625","-0.059570312","-7.03125","5.90625","21.03125"
"1573703090377","298","0.021484375","-0.7578125","-0.047851562","-13.3125","13.71875","12.3125"
"1573703090378","299","0.14941406","-0.8095703","-0.020507812","-21.6875","2.0625","8.28125"
"1573703090378","300","0.05078125","-0.84375","-0.0048828125","-10.03125","-12.59375","-1.96875"
"1573703090379","301","-0.095703125","-0.78222656","-0.053710938","4.75","-23.5","0.59375"
"1573703090379","302","-0.022460938","-0.69433594","-0.07324219","16.84375","-31.5","21.09375"
"1573703090380","303","-0.05078125","-1.0126953","-0.1875","50.59375","-1.96875","14.75"
"1573703090380","304","-0.21679688","-1.6591797","-0.43945312","1.28125","19.46875","2.3125"
"1573703090380","305","-0.017578125","-1.7167969","-0.38964844","-4.28125","-12.40625","-3.0625"
"1573703090381","306","0.09472656","-1.2714844","-0.23535156","2.1875","-51.96875","-12.46875"
"1573703090381","307","-0.13867188","-0.9169922","-0.30371094","-8.25","-43.34375","-17.15625"
"1573703090381","308","-0.38964844","-1.1289062","-0.44628906","-32.65625","1.8125","20.125"
"1573703090381","309","0.018554688","-1.2998047","-0.5283203","-5.9375","-4.71875","-2.6875"
"1573703090775","310","0.15722656","-0.859375","-0.2783203","3.53125","-29.875","-8.375"
"1573703090776","311","-0.01953125","-0.63964844","-0.23144531","8.28125","-24.25","-6.53125"
"1573703090776","312","-0.21289062","-0.99121094","-0.3466797","-4.34375","15.0","0.34375"
"1573703090777","313","-0.09277344","-1.0820312","-0.32617188","-9.46875","24.03125","2.1875"
"1573703090778","314","0.061523438","-0.89160156","-0.3154297","-6.84375","15.5","-2.46875"
"1573703090778","315","-0.03125","-0.9355469","-0.3359375","0.09375","2.5625","-4.84375"
"1573703090778","316","-0.06640625","-0.95703125","-0.28808594","8.90625","11.75","-7.53125"
"1573703090778","317","-0.06738281","-0.94628906","-0.31347656","12.375","19.9375","-12.34375"
"1573703090779","318","-0.0390625","-0.98535156","-0.3076172","7.84375","19.9375","-0.0625"
"1573703090779","319","-0.044921875","-0.96484375","-0.2861328","7.3125","31.1875","-4.46875"
"1573703091172","320","0.0048828125","-1.0214844","-0.28710938","-0.4375","29.34375","-4.21875"
"1573703091173","321","-0.00390625","-0.96972656","-0.23144531","2.84375","25.3125","-6.78125"
"1573703091173","322","-0.10839844","-0.91308594","-0.2529297","-8.625","26.65625","-8.9375"
"1573703091173","323","0.04296875","-0.9277344","-0.35742188","2.78125","28.96875","-8.9375"
"1573703091173","324","0.10058594","-1.0625","-0.27929688","-22.21875","23.71875","-12.28125"
"1573703091174","325","0.109375","-1.171875","-0.19824219","-15.34375","0.65625","-16.1875"
"1573703091175","326","0.07324219","-1.0166016","-0.16796875","-12.09375","-38.40625","-14.25"
"1573703091175","327","0.11230469","-0.8984375","-0.17480469","19.9375","-24.5625","-3.0625"
"1573703091176","328","0.03125","-1.0078125","-0.28808594","9.625","14.21875","-6.1875"
"1573703091176","329","0.05078125","-1.1416016","-0.24707031","-2.03125","10.40625","-1.0"
"1573703091570","330","0.10058594","-0.95996094","-0.24804688","0.65625","4.8125","-4.53125"
"1573703091571","331","0.16894531","-0.88378906","-0.2421875","13.34375","10.84375","1.3125"
"1573703091571","332","0.19628906","-0.99316406","-0.24511719","0.0","13.53125","-1.125"
"1573703091571","333","0.1484375","-0.9658203","-0.23925781","10.46875","12.4375","-7.65625"
"1573703091571","334","0.16113281","-0.9970703","-0.22265625","6.15625","6.21875","-7.65625"
"1573703091572","335","0.17773438","-1.0009766","-0.23046875","12.5","-0.5625","-3.375"
"1573703091572","336","0.19238281","-0.92871094","-0.21582031","12.6875","-0.375","-1.96875"
"1573703091573","337","0.18652344","-0.9550781","-0.25683594","-4.53125","2.5","-2.15625"
"1573703091573","338","0.16992188","-0.9941406","-0.2841797","-0.8125","-1.59375","4.25"
"1573703091573","339","0.15625","-0.9560547","-0.2841797","-6.90625","2.78125","6.40625"
"1573703091969","340","0.12207031","-0.9482422","-0.2841797","-3.5625","9.75","10.40625"
"1573703091969","341","0.1640625","-1.0214844","-0.29296875","7.0625","18.0","7.75"
"1573703091970","342","0.16015625","-1.0126953","-0.26367188","26.90625","8.53125","8.34375"
"1573703091970","343","0.18261719","-0.9921875","-0.19042969","28.65625","-5.625","16.34375"
"1573703091970","344","0.17480469","-1.1416016","-0.21582031","40.5625","-1.46875","11.8125"
"1573703091970","345","0.10058594","-1.3330078","-0.17480469","27.09375","25.1875","6.15625"
"1573703091971","346","0.064453125","-1.5537109","-0.16015625","17.75","26.34375","23.4375"
"1573703091971","347","-0.09472656","-1.4130859","0.059570312","24.9375","18.0625","24.9375"
"1573703091971","348","-0.24316406","-0.9814453","0.0078125","14.21875","8.09375","24.40625"
"1573703091973","349","-0.18554688","-0.86328125","-0.06640625","-8.6875","21.90625","22.3125"
"1573703092365","350","-0.0068359375","-0.90722656","-0.041015625","-18.25","9.1875","3.90625"
"1573703092366","351","-0.109375","-0.9042969","-0.06738281","-26.8125","-2.40625","-0.1875"
"1573703092366","352","-0.1640625","-0.8691406","-0.14257812","-14.96875","8.28125","-11.4375"
"1573703092367","353","-0.053710938","-0.9375","-0.16699219","-16.3125","12.5","0.90625"
"1573703092367","354","-0.009765625","-0.97558594","-0.12890625","-15.53125","7.6875","1.75"
"1573703092367","355","-0.09765625","-0.8876953","-0.16015625","-6.78125","0.40625","7.125"
"1573703092367","356","-0.078125","-0.8125","-0.16699219","3.34375","8.09375","13.65625"
"1573703092368","357","0.047851562","-0.8671875","-0.16699219","3.78125","4.1875","6.21875"
"1573703092368","358","-9.765625E-4","-0.8984375","-0.16796875","-1.71875","-12.53125","0.78125"
"1573703092368","359","-0.09082031","-0.890625","-0.16699219","-3.90625","-18.9375","-1.125"
"1573703092763","360","-0.06347656","-0.8828125","-0.18652344","-2.09375","-19.0625","-7.15625"
"1573703092764","361","-0.030273438","-0.90527344","-0.21484375","-1.53125","-28.6875","-20.21875"
"1573703092765","362","-0.0029296875","-0.90625","-0.23144531","2.96875","-41.46875","-23.15625"
"1573703092765","363","0.06542969","-0.9423828","-0.17480469","5.65625","-42.0625","-22.78125"
"1573703092765","364","0.10839844","-1.3007812","-0.061523438","-2.8125","-43.09375","-27.0625"
"1573703092766","365","0.0146484375","-1.1679688","-0.10546875","14.4375","-64.46875","-20.21875"
"1573703092766","366","-0.03515625","-0.8613281","-0.06933594","18.125","-51.09375","12.1875"
"1573703092766","367","-0.08105469","-1.0078125","-0.15332031","-15.59375","4.75","-5.03125"
"1573703092766","368","0.0029296875","-1.1240234","-0.13085938","-12.46875","0.09375","4.1875"
"1573703092767","369","0.15625","-0.96777344","-0.060546875","-10.4375","-24.84375","-11.125"
"1573703093160","370","0.028320312","-0.8876953","-0.06738281","2.3125","-14.84375","-10.09375"
"1573703093160","371","0.0078125","-0.9814453","-0.10546875","0.84375","6.03125","-3.6875"
"1573703093160","372","0.03515625","-1.0048828","-0.13476562","-1.84375","15.625","-2.625"
"1573703093161","373","0.059570312","-0.99121094","-0.13867188","-9.65625","15.5625","0.78125"
"1573703093162","374","0.12890625","-0.9707031","-0.095703125","-6.53125","7.96875","4.125"
"1573703093162","375","0.049804688","-0.9082031","-0.060546875","-1.90625","0.21875","12.1875"
"1573703093162","376","-0.0146484375","-0.9042969","-0.0703125","-5.8125","7.8125","15.71875"
"1573703093162","377","0.0078125","-0.8671875","-0.061523438","-3.75","13.84375","26.28125"
"1573703093163","378","0.0087890625","-0.82128906","-0.068359375","-5.875","21.15625","33.90625"
"1573703093163","379","-0.033203125","-0.86035156","-0.01953125","-18.09375","15.78125","23.71875"
"1573703093558","380","-0.08984375","-0.8125","-0.033203125","-5.75","19.75","19.28125"
"1573703093558","381","-0.09667969","-0.7832031","-0.038085938","5.59375","9.5","26.65625"
"1573703093558","382","-0.046875","-0.6376953","0.017578125","8.15625","6.28125","26.21875"
"1573703093559","383","-0.12597656","-0.6816406","0.053710938","19.75","27.375","31.1875"
"1573703093559","384","-0.18847656","-0.77441406","-0.2861328","27.4375","-2.03125","29.65625"
"1573703093559","385","-0.22167969","-1.7861328","-0.4140625","-54.34375","53.375","-8.6875"
"1573703093560","386","-0.14746094","-1.9228516","-0.38085938","-29.25","34.40625","-0.125"
"1573703093560","387","-0.103515625","-1.28125","-0.41601562","24.75","-46.78125","-13.125"
"1573703093560","388","-0.296875","-1.5380859","-0.5058594","-42.75","7.75","6.875"
"1573703093560","389","-0.11816406","-1.0957031","-0.6542969","2.25","10.59375","15.25"
"1573703093955","390","0.33203125","-0.7109375","-0.14550781","31.46875","-30.15625","-1.71875"
"1573703093955","391","-0.041015625","-0.4794922","-0.25097656","-10.8125","-43.15625","-23.40625"
"1573703093956","392","-0.42578125","-0.88378906","-0.31152344","13.46875","11.59375","19.15625"
"1573703093956","393","-0.029296875","-1.1757812","-0.31445312","23.0625","14.09375","-7.53125"
"1573703093956","394","0.005859375","-0.8798828","-0.27539062","-18.21875","-11.625","0.21875"
"1573703093956","395","-0.22167969","-0.9013672","-0.31835938","5.0625","3.21875","4.0"
"1573703093957","396","-0.033203125","-1.0292969","-0.32128906","22.5","9.5","-7.59375"
"1573703093957","397","0.016601562","-0.93652344","-0.28320312","21.84375","-6.53125","-8.3125"
"1573703093958","398","-0.10546875","-0.9345703","-0.2861328","21.78125","-7.875","-9.40625"
"1573703093958","399","-0.1171875","-0.9658203","-0.2607422","18.125","1.75","-10.875"
"1573703094353","400","-0.080078125","-0.9628906","-0.2109375","12.625","8.46875","-16.9375"
"1573703094353","401","-0.15332031","-0.98828125","-0.2421875","-0.4375","4.8125","-14.53125"
"1573703094354","402","-0.09765625","-0.9326172","-0.22167969","-0.25","16.59375","-10.9375"
"1573703094354","403","-0.03125","-1.0195312","-0.16992188","5.90625","27.28125","-12.71875"
"1573703094354","404","-0.0703125","-1.1748047","-0.12207031","-5.03125","14.03125","-11.3125"
"1573703094354","405","0.026367188","-1.046875","-0.087890625","-14.0625","-39.25","-1.53125"
"1573703094355","406","0.11328125","-0.765625","-0.09082031","14.75","-60.0625","-2.625"
"1573703094355","407","-0.009765625","-0.9658203","-0.09667969","10.59375","-1.0625","-12.15625"
"1573703094355","408","-0.23828125","-1.2792969","-0.2578125","-18.625","30.9375","-23.09375"
"1573703094357","409","0.046875","-1.2744141","-0.23144531","-6.53125","2.5625","-12.59375"
"1573703094749","410","0.28515625","-0.9160156","-0.16015625","13.21875","-29.375","-11.0625"
"1573703094750","411","0.12792969","-0.7939453","-0.14648438","5.65625","-18.625","-9.90625"
"1573703094750","412","0.049804688","-0.9951172","-0.14453125","9.09375","0.78125","-13.8125"
"1573703094750","413","0.041015625","-1.0175781","-0.16992188","8.34375","-5.21875","-5.625"
"1573703094751","414","0.053710938","-0.953125","-0.15039062","0.03125","-7.28125","-1.53125"
"1573703094751","415","0.12207031","-0.99609375","-0.15625","8.40625","-5.875","-3.5"
"1573703094751","416","0.1484375","-0.99902344","-0.15429688","-1.3125","-11.6875","-0.6875"
"1573703094751","417","0.09375","-0.9863281","-0.19042969","-2.46875","-8.3125","-3.6875"
"1573703094752","418","0.111328125","-1.0087891","-0.22949219","-6.96875","-6.4375","0.78125"
"1573703094752","419","0.18164062","-0.96777344","-0.20117188","-11.625","-2.8125","3.84375"
"1573703095147","420","0.055664062","-0.98339844","-0.21679688","6.15625","6.15625","4.375"
"1573703095148","421","-0.0107421875","-1.0273438","-0.22460938","12.0","10.3125","15.5625"
"1573703095149","422","0.15234375","-1.1083984","-0.17382812","3.03125","13.0","17.3125"
"1573703095149","423","0.09375","-1.3183594","-0.14355469","10.46875","16.53125","6.28125"
"1573703095149","424","-0.057617188","-1.5361328","-0.16601562","17.375","43.0625","9.375"
"1573703095149","425","-0.14453125","-1.578125","-0.001953125","20.25","30.125","21.03125"
"1573703095150","426","-0.27148438","-1.0244141","0.024414062","20.96875","2.90625","29.71875"
"1573703095150","427","-0.2607422","-0.7734375","-0.07324219","5.1875","14.375","16.34375"
"1573703095150","428","-0.087890625","-0.88964844","-0.059570312","-8.9375","28.90625","-1.1875"
"1573703095150","429","-0.080078125","-0.97265625","-0.080078125","-11.90625","17.125","-6.1875"
"1573703095544","430","-0.103515625","-0.90625","-0.123046875","-15.9375","7.6875","-18.6875"
"1573703095545","431","-0.10058594","-0.9707031","-0.18554688","-15.8125","9.75","-14.3125"
"1573703095545","432","-0.056640625","-0.95996094","-0.15332031","-10.40625","5.59375","-5.3125"
"1573703095546","433","-0.06347656","-0.84472656","-0.14941406","-4.53125","-4.40625","2.1875"
"1573703095546","434","-0.076171875","-0.80859375","-0.14746094","3.34375","-6.0625","4.375"
"1573703095546","435","-0.07519531","-0.8457031","-0.109375","-5.5","-6.5","1.4375"
"1573703095546","436","-0.036132812","-0.8828125","-0.15917969","3.46875","-8.875","1.03125"
"1573703095546","437","-0.064453125","-0.93359375","-0.14941406","-9.0","-20.46875","-1.78125"
"1573703095547","438","-0.07910156","-0.8857422","-0.16015625","-2.59375","-29.5","-7.40625"
"1573703095547","439","-0.091796875","-0.8847656","-0.123046875","-14.71875","-22.84375","-12.09375"
"1573703095943","440","-0.10058594","-0.9345703","-0.21191406","-10.09375","-25.09375","-23.15625"
"1573703095943","441","0.06738281","-1.0126953","-0.17382812","-15.59375","-36.5","-23.15625"
"1573703095944","442","0.07421875","-1.0996094","-0.072265625","-8.25","-43.40625","-25.09375"
"1573703095944","443","-0.052734375","-1.0292969","-0.14550781","16.78125","-77.09375","-14.0625"
"1573703095944","444","0.0234375","-0.921875","-0.083984375","31.65625","-61.1875","7.5"
"1573703095945","445","-0.17382812","-1.0625","-0.12890625","9.4375","-11.78125","6.5625"
"1573703095946","446","-0.103515625","-1.0966797","-0.10546875","-12.03125","6.5625","3.90625"
"1573703095946","447","0.10644531","-0.99902344","-0.11230469","3.40625","2.59375","-5.15625"
"1573703095946","448","0.103515625","-0.94921875","-0.16113281","7.96875","-12.84375","-2.09375"
"1573703095947","449","0.08886719","-0.9628906","-0.09375","-8.3125","-3.96875","-16.0"
"1573703096342","450","0.020507812","-0.984375","-0.056640625","14.5625","3.78125","-8.0625"
"1573703096342","451","-0.0029296875","-0.9316406","-0.09375","0.65625","6.75","-3.8125"
"1573703096342","452","0.11425781","-0.9472656","-0.1015625","-3.875","8.71875","-0.875"
"1573703096343","453","0.07714844","-0.8466797","-0.04296875","4.5","-1.46875","9.9375"
"1573703096343","454","0.03515625","-0.6748047","0.0029296875","10.78125","-7.34375","21.96875"
"1573703096343","455","0.037109375","-0.8046875","-0.0078125","-6.3125","6.9375","16.03125"
"1573703096343","456","-0.056640625","-1.0195312","-0.041992188","-17.28125","16.84375","9.3125"
"1573703096345","457","-0.07519531","-1.0029297","-0.040039062","-21.625","9.25","12.8125"
"1573703096345","458","-0.047851562","-0.8652344","-0.0068359375","-10.09375","3.34375","2.84375"
"1573703096345","459","0.028320312","-0.7705078","-0.044921875","-0.875","-4.15625","1.15625"
"1573703096738","460","-0.038085938","-0.6699219","-0.034179688","-0.5","-1.96875","1.375"
"1573703096738","461","0.07421875","-0.8017578","-0.16796875","20.0625","-9.28125","-1.0625"
"1573703096739","462","-0.13671875","-1.2246094","-0.20019531","2.65625","49.375","-6.1875"
"1573703096739","463","-0.12109375","-2.0078125","-0.5332031","-16.8125","36.59375","-19.96875"
"1573703096739","464","0.036132812","-1.7568359","-0.4794922","-40.40625","-1.125","-4.65625"
"1573703096739","465","-0.045898438","-1.2587891","-0.2626953","2.0","0.21875","-3.6875"
"1573703096739","466","0.0126953125","-1.2978516","-0.38183594","-24.1875","-6.3125","-6.125"
"1573703096740","467","0.26953125","-0.85058594","-0.25390625","-7.15625","-36.6875","-2.625"
"1573703096740","468","0.09667969","-0.38085938","-0.24902344","9.03125","-63.6875","-9.90625"
"1573703096741","469","-0.22851562","-0.6015625","-0.26367188","17.3125","0.46875","12.75"
"1573703097134","470","-0.15332031","-1.1289062","-0.37890625","-13.1875","38.75","9.625"
"1573703097134","471","0.052734375","-1.2802734","-0.32421875","-15.75","17.25","-2.8125"
"1573703097135","472","0.06933594","-0.94433594","-0.2421875","0.71875","-12.59375","3.71875"
"1573703097135","473","-0.03515625","-0.9003906","-0.31152344","8.84375","-1.59375","-3.75"
"1573703097135","474","0.064453125","-0.9453125","-0.35839844","15.5","6.09375","-0.3125"
"1573703097135","475","0.06347656","-0.90625","-0.34570312","10.71875","5.28125","-10.875"
"1573703097136","476","-0.046875","-0.953125","-0.23535156","0.65625","3.71875","-10.34375"
"1573703097136","477","-0.10253906","-0.9746094","-0.23535156","10.0","5.125","-1.71875"
"1573703097136","478","-0.072265625","-0.9423828","-0.25976562","6.6875","2.59375","-5.15625"
"1573703097136","479","0.060546875","-0.9111328","-0.22753906","4.9375","3.71875","-11.3125"
"1573703097533","480","0.10546875","-1.109375","-0.11425781","-2.75","-3.6875","-6.25"
"1573703097533","481","-0.01953125","-1.1708984","-0.08203125","-4.71875","-39.6875","6.5625"
"1573703097534","482","-0.21386719","-0.94921875","-0.12695312","21.34375","-18.09375","8.84375"
"1573703097534","483","-0.028320312","-0.9316406","-0.29785156","13.40625","14.875","3.03125"
"1573703097534","484","0.13964844","-1.0712891","-0.17578125","2.25","14.21875","5.84375"
"1573703097536","485","0.19335938","-1.1806641","-0.15332031","8.78125","-13.3125","-14.53125"
"1573703097536","486","0.041992188","-0.9980469","-0.19726562","16.71875","-8.6875","-17.53125"
"1573703097537","487","0.11425781","-0.9326172","-0.22851562","2.5","6.21875","-4.15625"
"1573703097537","488","0.25683594","-1.0009766","-0.17480469","11.71875","2.65625","-11.1875"
"1573703097538","489","0.07421875","-0.95214844","-0.16796875","3.03125","-11.5","-6.5"
"1573703097929","490","0.049804688","-0.9355469","-0.13085938","5.46875","3.15625","-2.15625"
"1573703097929","491","0.1171875","-1.0253906","-0.15625","10.84375","3.46875","-4.28125"
"1573703097930","492","0.13867188","-1.0126953","-0.15917969","4.6875","-1.34375","-8.25"
"1573703097931","493","0.17773438","-0.9765625","-0.17089844","-6.1875","-4.21875","-13.5625"
"1573703097933","494","0.14941406","-0.98535156","-0.20605469","-4.96875","-6.59375","-12.65625"
"1573703097934","495","0.12207031","-0.96777344","-0.18359375","-4.28125","-0.875","-2.21875"
"1573703097934","496","0.12890625","-0.9560547","-0.16796875","0.46875","8.28125","6.6875"
"1573703097934","497","0.11816406","-0.9736328","-0.21972656","-3.875","14.5","6.9375"
"1573703097935","498","0.18554688","-1.0263672","-0.22265625","8.40625","10.40625","2.5"
"1573703097935","499","0.13378906","-1.0654297","-0.17285156","32.21875","9.5","10.40625"
"1573703098328","500","0.053710938","-1.1816406","-0.1484375","34.09375","18.40625","17.9375"
"1573703098328","501","0.033203125","-1.2871094","-0.19628906","7.90625","36.53125","12.0625"
"1573703098328","502","0.091796875","-1.5742188","-0.13378906","4.5","45.625","18.78125"
"1573703098329","503","0.0048828125","-1.4345703","0.0625","29.9375","26.53125","25.625"
"1573703098329","504","-0.17285156","-0.9814453","0.0078125","46.125","21.28125","35.875"
"1573703098330","505","-0.23730469","-0.8964844","-0.052734375","-6.84375","24.03125","24.59375"
"1573703098331","506","-0.052734375","-1.0175781","-0.020507812","-30.71875","33.125","6.34375"
"1573703098331","507","-0.025390625","-0.9824219","0.005859375","-17.84375","9.09375","-5.03125"
"1573703098331","508","-0.07519531","-0.8515625","-0.076171875","-23.09375","3.65625","-20.53125"
"1573703098331","509","-0.056640625","-0.8828125","-0.111328125","-19.375","3.71875","-9.59375"
"1573703098724","510","-0.0087890625","-0.90625","-0.083984375","-16.3125","-1.46875","-5.75"
"1573703098724","511","-0.10253906","-0.8261719","-0.055664062","-11.3125","1.9375","-2.09375"
"1573703098724","512","-0.15234375","-0.8232422","-0.11328125","-1.84375","10.46875","9.25"
"1573703098725","513","-0.030273438","-0.8486328","-0.14355469","-4.46875","10.71875","11.21875"
"1573703098725","514","0.020507812","-0.8417969","-0.12109375","-7.34375","-5.25","7.0"
"1573703098725","515","-0.041992188","-0.9121094","-0.13183594","6.875","-12.28125","-1.96875"
"1573703098725","516","-0.059570312","-0.9863281","-0.14550781","-5.5","-21.625","-16.1875"
"1573703098727","517","-0.005859375","-0.9394531","-0.18359375","-4.46875","-29.0625","-28.46875"
"1573703098727","518","0.028320312","-0.8955078","-0.15234375","-0.25","-48.90625","-25.71875"
"1573703098727","519","0.091796875","-1.0439453","-0.078125","-14.84375","-43.71875","-21.9375"
"1573703099121","520","0.041015625","-1.2675781","-0.0546875","-3.875","-50.5","-32.4375"
"1573703099122","521","-0.06347656","-0.97558594","-0.07714844","18.78125","-90.46875","0.84375"
"1573703099122","522","9.765625E-4","-0.7871094","-0.09667969","15.375","-38.15625","9.3125"
"1573703099122","523","-0.0146484375","-1.0722656","-0.12597656","-18.5","6.5625","-2.28125"
"1573703099122","524","0.0078125","-1.1757812","-0.11816406","-10.5625","-5.21875","-3.4375"
"1573703099123","525","0.078125","-0.9863281","-0.12207031","-9.28125","-15.6875","-11.6875"
"1573703099123","526","0.13085938","-0.9345703","-0.14355469","7.5","-4.03125","-3.4375"
"1573703099123","527","0.099609375","-1.046875","-0.12988281","-6.25","-2.53125","-7.71875"
"1573703099123","528","0.043945312","-1.0263672","-0.11816406","-2.875","0.78125","-4.15625"
"1573703099125","529","0.05859375","-0.9482422","-0.09765625","4.1875","7.75","-1.1875"
"1573703099521","530","0.09667969","-0.9375","-0.11425781","-4.65625","8.46875","2.25"
"1573703099522","531","0.07714844","-0.9560547","-0.09472656","3.34375","5.90625","4.0625"
"1573703099522","532","0.032226562","-0.8955078","-0.076171875","4.0","7.25","6.21875"
"1573703099522","533","0.01171875","-0.8925781","-0.060546875","15.3125","15.3125","12.6875"
"1573703099522","534","-0.0078125","-0.87890625","-0.034179688","21.84375","23.125","22.5"
"1573703099523","535","0.052734375","-0.8828125","-0.024414062","19.5625","28.125","20.6875"
"1573703099523","536","-0.0390625","-0.88378906","0.013671875","16.53125","23.3125","19.28125"
"1573703099523","537","-0.026367188","-0.828125","-0.013671875","5.78125","31.78125","28.84375"
"1573703099523","538","0.06738281","-0.90234375","-0.013671875","-12.15625","34.09375","11.53125"
"1573703099523","539","0.040039062","-0.94433594","0.030273438","-11.375","26.40625","4.125"
"1573703099918","540","-0.0146484375","-0.7832031","0.015625","-4.84375","10.40625","9.875"
"1573703099919","541","-0.09472656","-0.8388672","-0.06347656","-3.96875","41.5","6.875"
"1573703099919","542","-0.072265625","-0.9394531","-0.23632812","-10.21875","21.78125","-11.6875"
"1573703099919","543","0.0107421875","-1.4238281","-0.21679688","-14.96875","26.15625","-8.9375"
"1573703099919","544","-0.001953125","-1.7333984","-0.2763672","-33.65625","7.0","-33.15625"
"1573703099919","545","0.07324219","-1.3623047","-0.2861328","3.9375","-29.625","-39.375"
"1573703099920","546","-0.034179688","-1.1914062","-0.36523438","-19.96875","-16.625","-22.90625"
"1573703099920","547","-0.017578125","-1.4052734","-0.4658203","-26.125","-4.65625","2.0"
"1573703099920","548","0.28222656","-0.89160156","-0.3876953","-3.6875","-29.375","-9.34375"
"1573703099920","549","0.14550781","-0.6660156","-0.203125","6.09375","-47.5","-10.28125"
"1573703100315","550","-0.15039062","-0.81933594","-0.32910156","-9.21875","-2.09375","7.625"
"1573703100316","551","0.025390625","-1.140625","-0.36816406","-20.40625","16.71875","1.875"
"1573703100316","552","0.14257812","-0.9794922","-0.2685547","-24.75","-14.0","-12.78125"
"1573703100317","553","-0.04296875","-0.8408203","-0.30371094","-3.1875","-13.3125","2.5625"
"1573703100318","554","0.020507812","-0.9277344","-0.35839844","-4.90625","10.65625","0.90625"
"1573703100318","555","0.15917969","-1.0068359","-0.35742188","9.4375","10.3125","-3.3125"
"1573703100318","556","0.052734375","-0.94921875","-0.30273438","-4.15625","-5.9375","2.4375"
"1573703100319","557","-0.0029296875","-0.92871094","-0.35058594","14.21875","5.71875","6.5"
"1573703100319","558","0.09765625","-0.9921875","-0.2861328","7.84375","4.0","-4.03125"
"1573703100319","559","0.045898438","-0.9296875","-0.26953125","7.0625","-6.0","-7.21875"
"1573703100712","560","0.001953125","-0.9267578","-0.29101562","7.8125","0.96875","-9.40625"
"1573703100713","561","0.048828125","-1.1240234","-0.23535156","-16.875","3.34375","-4.71875"
"1573703100713","562","0.1171875","-1.2314453","-0.19335938","-12.96875","-23.15625","-6.59375"
"1573703100713","563","0.037109375","-0.94433594","-0.14648438","17.9375","-67.03125","0.28125"
"1573703100713","564","0.06347656","-0.73828125","-0.13867188","21.15625","-31.9375","2.25"
"1573703100715","565","-0.060546875","-1.0390625","-0.3408203","6.21875","26.59375","-5.8125"
"1573703100715","566","0.15820312","-1.3076172","-0.31054688","-12.28125","9.875","-1.59375"
"1573703100715","567","0.20410156","-0.9863281","-0.20507812","-10.8125","-19.1875","-12.34375"
"1573703100716","568","0.12109375","-0.85058594","-0.22265625","29.09375","-10.21875","6.875"
"1573703100716","569","0.11621094","-0.98828125","-0.23046875","14.03125","2.4375","5.34375"
"1573703101109","570","0.12011719","-0.9589844","-0.23046875","11.8125","5.0","3.28125"
"1573703101109","571","0.123046875","-0.9638672","-0.18457031","8.15625","-1.25","1.5625"
"1573703101110","572","0.111328125","-1.0087891","-0.21386719","10.90625","-2.59375","-0.9375"
"1573703101110","573","0.15820312","-0.96972656","-0.2421875","4.625","-2.9375","-2.8125"
"1573703101110","574","0.13867188","-0.94433594","-0.23925781","8.28125","-2.28125","4.9375"
"1573703101110","575","0.115234375","-0.96777344","-0.25097656","-1.0625","-1.1875","8.09375"
"1573703101110","576","0.15039062","-0.98828125","-0.24511719","-6.0","2.3125","5.65625"
"1573703101112","577","0.12402344","-0.99121094","-0.25390625","-1.65625","5.40625","5.0"
"1573703101112","578","0.12402344","-0.9970703","-0.2861328","1.15625","10.125","4.0625"
"1573703101112","579","0.15234375","-1.0712891","-0.28222656","19.46875","5.34375","9.625"
"1573703101508","580","0.10253906","-1.1679688","-0.17382812","12.75","0.0","19.09375"
"1573703101509","581","-0.044921875","-1.2890625","-0.12011719","32.09375","32.03125","25.5625"
"1573703101509","582","-0.18652344","-1.5947266","-0.12792969","34.84375","59.4375","29.9375"
"1573703101509","583","-0.20898438","-1.3525391","-0.055664062","5.28125","29.90625","32.9375"
"1573703101509","584","-0.13476562","-0.83691406","-0.018554688","24.21875","6.09375","38.25"
"1573703101510","585","-0.17089844","-0.8486328","-0.109375","0.0","23.0625","12.4375"
"1573703101510","586","-0.12695312","-1.0136719","-0.09375","-22.46875","28.1875","1.875"
"1573703101510","587","-0.045898438","-1.0244141","-0.095703125","-15.21875","3.53125","-11.90625"
"1573703101510","588","-0.119140625","-0.87890625","-0.111328125","-15.53125","-6.4375","-21.625"
"1573703101512","589","-0.14941406","-0.9003906","-0.18945312","-13.4375","3.53125","-9.96875"
"1573703101907","590","-0.064453125","-0.9326172","-0.1640625","-16.96875","8.40625","-4.34375"
"1573703101907","591","-0.07910156","-0.8496094","-0.13183594","-11.5625","-2.03125","0.03125"
"1573703101908","592","-0.09765625","-0.8144531","-0.15234375","-4.78125","-2.28125","3.09375"
"1573703101908","593","-0.053710938","-0.8808594","-0.15917969","-8.1875","-0.375","0.59375"
"1573703101908","594","-0.06738281","-0.89746094","-0.19433594","-3.875","-7.78125","-0.4375"
"1573703101908","595","-0.1015625","-0.8310547","-0.20996094","-5.21875","-13.3125","-4.71875"
"1573703101908","596","-0.057617188","-0.85253906","-0.203125","-3.4375","-1.0625","-4.65625"
"1573703101909","597","-0.07519531","-0.953125","-0.22070312","-8.5","-7.34375","-13.8125"
"1573703101909","598","-0.06542969","-0.9589844","-0.25683594","-3.75","-18.15625","-13.625"
"1573703101909","599","0.0029296875","-0.9345703","-0.2548828","-3.0625","-18.4375","-16.125"
"1573703102303","600","0.068359375","-1.1162109","-0.22558594","-11.6875","-24.125","-20.875"
"1573703102304","601","0.068359375","-1.0869141","-0.12597656","-2.875","-52.625","-19.1875"
"1573703102304","602","0.041992188","-0.89453125","-0.10253906","24.65625","-66.125","-9.65625"
"1573703102304","603","-0.12695312","-0.9394531","-0.1171875","14.3125","-41.875","0.28125"
"1573703102304","604","-0.14160156","-1.0361328","-0.18652344","-3.875","-9.96875","8.96875"
"1573703102305","605","0.06738281","-1.0908203","-0.15527344","-8.1875","12.0","-11.25"
"1573703102305","606","0.15234375","-1.0664062","-0.16601562","4.375","-18.9375","-16.5"
"1573703102305","607","0.04296875","-0.9355469","-0.16308594","8.28125","-20.03125","-13.25"
"1573703102305","608","0.00390625","-0.9765625","-0.13574219","6.15625","0.46875","-8.9375"
"1573703102306","609","0.038085938","-1.03125","-0.119140625","-13.875","10.25","-9.59375"
"1573703102699","610","0.14160156","-0.98535156","-0.13769531","-15.21875","2.375","-12.96875"
"1573703102700","611","0.08496094","-0.9814453","-0.13574219","-2.34375","-6.1875","-12.09375"
"1573703102700","612","0.0126953125","-1.0009766","-0.13671875","1.28125","-4.03125","-9.71875"
"1573703102701","613","0.03125","-0.96972656","-0.14257812","9.25","-2.15625","-4.15625"
"1573703102701","614","0.049804688","-0.95214844","-0.12597656","8.65625","-1.34375","1.21875"
"1573703102702","615","0.052734375","-0.9423828","-0.107421875","8.65625","-0.375","1.5"
"1573703102702","616","0.034179688","-0.9296875","-0.09082031","13.65625","0.03125","8.90625"
"1573703102702","617","0.018554688","-0.9121094","-0.060546875","9.5625","5.0","14.6875"
"1573703102703","618","-0.0107421875","-0.9033203","-0.047851562","4.0625","15.0625","16.78125"
"1573703102703","619","-0.021484375","-0.8544922","-0.05078125","3.65625","15.5","18.1875"
"1573703103096","620","0.001953125","-0.81640625","-0.040039062","-2.40625","14.03125","13.40625"
"1573703103097","621","0.0546875","-0.8183594","-0.018554688","-3.3125","12.0","12.75"
"1573703103097","622","0.043945312","-0.8652344","-0.015625","-18.03125","-1.46875","2.4375"
"1573703103097","623","-0.06347656","-0.7685547","-0.041992188","-17.53125","-4.09375","7.4375"
"1573703103098","624","-0.10449219","-0.84375","-0.14941406","16.65625","22.09375","21.71875"
"1573703103099","625","-0.005859375","-1.109375","-0.19335938","13.34375","37.59375","18.90625"
"1573703103099","626","0.0546875","-1.7568359","-0.4091797","11.21875","9.09375","-10.4375"
"1573703103100","627","-0.041992188","-1.6708984","-0.34472656","-28.46875","-6.65625","-17.71875"
"1573703103100","628","-0.07714844","-1.1611328","-0.23730469","-1.71875","-39.5625","2.0625"
"1573703103100","629","-0.32617188","-1.3710938","-0.43164062","-10.875","50.8125","-1.40625"
"1573703103495","630","0.22851562","-1.1640625","-0.4970703","-19.375","-6.375","14.3125"
"1573703103496","631","0.45507812","-0.609375","-0.1328125","0.46875","-36.15625","-16.375"
"1573703103496","632","-0.16015625","-0.5644531","-0.234375","-24.78125","-22.28125","-17.03125"
"1573703103496","633","-0.25683594","-1.0800781","-0.44628906","-1.40625","44.0","1.21875"
"1573703103497","634","0.25683594","-1.2841797","-0.3046875","0.03125","25.75","-16.125"
"1573703103497","635","0.111328125","-0.8808594","-0.29492188","-11.25","-27.3125","-6.78125"
"1573703103497","636","-0.111328125","-0.78125","-0.38183594","-0.1875","1.625","-0.1875"
"1573703103498","637","0.16796875","-1.0175781","-0.3046875","22.09375","10.46875","-2.6875"
"1573703103499","638","0.0703125","-0.9667969","-0.31933594","6.6875","-9.96875","-2.625"
"1573703103499","639","-0.103515625","-0.91308594","-0.28027344","9.5625","2.125","0.84375"
"1573703103893","640","-0.0107421875","-0.9716797","-0.22070312","16.9375","16.21875","-1.125"
"1573703103893","641","0.09375","-0.95410156","-0.26171875","5.90625","-8.8125","-11.71875"
"1573703103893","642","0.044921875","-0.9609375","-0.22753906","0.09375","1.5","-14.65625"
"1573703103894","643","-0.052734375","-1.2285156","-0.19726562","-21.9375","6.875","-5.25"
"1573703103894","644","-0.02734375","-1.1425781","-0.14355469","-23.875","-22.78125","-0.9375"
"1573703103894","645","0.043945312","-0.72753906","-0.21972656","14.28125","-36.875","11.15625"
"1573703103895","646","0.12792969","-0.91503906","-0.25097656","9.25","14.6875","-13.375"
"1573703103895","647","0.013671875","-1.1621094","-0.22070312","-13.4375","1.4375","-0.25"
"1573703103895","648","0.09375","-1.0800781","-0.17578125","0.03125","-24.125","-0.375"
"1573703103895","649","0.076171875","-0.9658203","-0.19238281","10.59375","5.71875","-10.75"
"1573703104289","650","0.12011719","-0.94628906","-0.29785156","4.8125","12.625","-3.6875"
"1573703104290","651","0.27148438","-1.0332031","-0.2421875","-7.21875","-4.96875","-9.125"
"1573703104290","652","0.12109375","-0.9707031","-0.21289062","4.0","-19.65625","-2.28125"
"1573703104291","653","0.045898438","-0.92285156","-0.22949219","15.65625","-7.53125","3.59375"
"1573703104291","654","0.13769531","-0.98046875","-0.21289062","15.0","-0.25","7.5"
"1573703104291","655","0.14355469","-0.9707031","-0.20410156","11.59375","-6.125","5.78125"
"1573703104291","656","0.11621094","-0.9609375","-0.22070312","10.84375","-5.75","6.28125"
"1573703104291","657","0.13769531","-1.0175781","-0.22558594","2.25","-6.78125","5.96875"
"1573703104292","658","0.125","-0.9736328","-0.2529297","-1.84375","-5.9375","0.0"
"1573703104292","659","0.140625","-0.97753906","-0.28125","4.125","-5.5625","2.5"
"1573703104686","660","0.18945312","-0.99609375","-0.28710938","-1.3125","0.84375","3.59375"
"1573703104688","661","0.18066406","-1.0693359","-0.23632812","4.625","-7.71875","2.84375"
"1573703104688","662","0.080078125","-1.1738281","-0.17480469","12.75","-1.96875","8.03125"
"1573703104688","663","-0.11328125","-1.4101562","-0.1953125","8.46875","30.375","12.6875"
"1573703104688","664","-0.06933594","-1.5957031","-0.12597656","19.9375","41.71875","24.03125"
"1573703104689","665","-0.09863281","-1.2666016","-0.00390625","24.875","7.125","28.4375"
"1573703104689","666","-0.15527344","-0.8417969","-0.05078125","22.5625","-5.6875","20.4375"
"1573703104689","667","-0.15136719","-0.8828125","-0.12988281","-8.6875","13.09375","0.65625"
"1573703104689","668","-0.08105469","-1.0351562","-0.125","-24.0625","18.34375","-11.0625"
"1573703104690","669","-0.099609375","-0.9638672","-0.14355469","-22.59375","0.84375","-16.75"
"1573703105086","670","-0.09472656","-0.86816406","-0.18164062","-13.0625","9.03125","-13.03125"
"1573703105086","671","-0.049804688","-0.9453125","-0.18554688","-0.875","13.71875","-3.4375"
"1573703105087","672","-0.017578125","-0.94921875","-0.13671875","-14.40625","4.6875","0.03125"
"1573703105087","673","-0.095703125","-0.8486328","-0.11425781","-11.90625","4.875","-0.8125"
"1573703105087","674","-0.07421875","-0.86035156","-0.1796875","1.3125","9.6875","5.84375"
"1573703105087","675","0.032226562","-0.89941406","-0.16210938","-2.875","-5.21875","3.65625"
"1573703105088","676","0.0087890625","-0.85058594","-0.1796875","-10.5625","-6.0625","-1.90625"
"1573703105088","677","-0.07910156","-0.9033203","-0.20214844","4.5","-6.59375","-0.75"
"1573703105088","678","-0.037109375","-0.91308594","-0.22460938","-4.46875","-2.09375","-6.0625"
"1573703105088","679","0.026367188","-0.96875","-0.23242188","-10.9375","-9.53125","-18.5"
"1573703105483","680","-0.001953125","-0.9472656","-0.22265625","-10.34375","-22.21875","-25.09375"
"1573703105483","681","-0.0234375","-0.8574219","-0.2265625","-0.0625","-27.78125","-18.9375"
"1573703105484","682","0.0703125","-1.0068359","-0.23339844","3.65625","-20.21875","-14.96875"
"1573703105484","683","0.06542969","-1.1679688","-0.17773438","2.375","-26.0625","-20.65625"
"1573703105484","684","0.051757812","-1.0205078","-0.14257812","12.25","-59.71875","-11.375"
"1573703105485","685","0.07421875","-0.87402344","-0.13085938","35.625","-66.40625","-5.5"
"1573703105486","686","0.059570312","-0.92578125","-0.06933594","28.4375","-43.28125","4.75"
"1573703105486","687","-0.0546875","-1.0400391","-0.11328125","24.21875","-19.84375","7.375"
"1573703105486","688","-0.03125","-1.0878906","-0.09277344","2.25","-7.21875","-1.53125"
"1573703105487","689","0.078125","-1.0214844","-0.12792969","-5.875","-2.03125","-5.8125"
"1573703106076","690","0.125","-1.0107422","-0.18554688","13.78125","0.71875","-1.96875"
"1573703106077","691","0.091796875","-1.0058594","-0.171875","-6.125","2.3125","-4.84375"
"1573703106077","692","0.09472656","-1.0292969","-0.109375","-13.5625","9.03125","-6.59375"
"1573703106077","693","0.08300781","-0.9580078","-0.07128906","1.375","7.125","-0.0625"
"1573703106078","694","0.099609375","-0.91308594","-0.05078125","3.09375","4.625","0.0"
"1573703106078","695","0.08886719","-0.8769531","-0.026367188","3.71875","-2.6875","11.65625"
"1573703106078","696","-0.041015625","-0.7919922","-0.03515625","-5.21875","-8.4375","22.03125"
"1573703106079","697","0.0087890625","-0.7392578","-0.060546875","-10.9375","9.09375","18.90625"
"1573703106079","698","0.07421875","-0.7792969","-0.059570312","-14.0625","12.875","10.40625"
"1573703106079","699","0.005859375","-0.9003906","-0.044921875","-30.71875","15.4375","0.90625"
"1573703106277","700","-0.10253906","-0.9013672","-0.060546875","-13.5625","15.625","-0.625"
"1573703106278","701","-0.047851562","-0.76171875","-0.040039062","-5.75","16.65625","18.46875"
"1573703106278","702","0.017578125","-0.7167969","-0.043945312","-2.75","15.0625","16.40625"
"1573703106278","703","0.04296875","-0.9404297","-0.23144531","21.90625","26.53125","-3.75"
"1573703106279","704","-0.10449219","-1.2597656","-0.19238281","15.5","54.0","11.46875"
"1573703106279","705","0.10253906","-1.8125","-0.36035156","2.4375","19.75","-26.5625"
"1573703106279","706","0.076171875","-1.5371094","-0.34375","-7.875","-5.21875","-8.625"
"1573703106280","707","-0.01953125","-1.171875","-0.32617188","-20.875","-12.03125","-11.78125"
"1573703106280","708","-0.13183594","-1.4111328","-0.41210938","-16.875","33.25","2.78125"
"1573703106281","709","0.1796875","-1.0605469","-0.4658203","-30.46875","-11.625","-3.96875"
"1573703106674","710","0.27148438","-0.7246094","-0.2626953","3.71875","-13.875","-15.40625"
"1573703106674","711","-0.026367188","-0.71484375","-0.33691406","-7.53125","-5.25","-5.03125"
"1573703106674","712","-0.01953125","-1.0947266","-0.36914062","5.34375","23.1875","-3.5625"
"1573703106675","713","0.13867188","-0.98046875","-0.31054688","-0.9375","-3.0625","-4.59375"
"1573703106675","714","0.029296875","-0.7841797","-0.32128906","2.4375","-5.5625","-1.78125"
"1573703106675","715","0.047851562","-0.9814453","-0.3125","7.96875","10.90625","-2.09375"
"1573703106675","716","0.10546875","-1.0458984","-0.3076172","9.25","-0.375","-8.3125"
"1573703106676","717","0.0","-0.9248047","-0.31640625","2.1875","-11.1875","-3.3125"
"1573703106676","718","0.0546875","-0.84277344","-0.27148438","19.53125","-4.46875","-2.59375"
"1573703106676","719","0.08300781","-0.93066406","-0.24804688","29.90625","-0.625","-4.21875"
"1573703107071","720","-0.017578125","-1.1210938","-0.24414062","9.5625","5.53125","-0.75"
"1573703107073","721","0.033203125","-1.1660156","-0.24902344","-2.8125","8.28125","-3.8125"
"1573703107073","722","0.11328125","-1.1054688","-0.20996094","1.21875","3.53125","1.5"
"1573703107074","723","0.15722656","-0.9316406","-0.24511719","1.5625","-14.1875","4.8125"
"1573703107074","724","0.24609375","-0.8720703","-0.17773438","5.21875","-14.40625","-10.9375"
"1573703107078","725","0.1015625","-1.0146484","-0.123046875","0.28125","-22.0625","-14.46875"
"1573703107079","726","-0.06640625","-1.0429688","-0.12792969","1.375","-20.71875","-3.1875"
"1573703107079","727","0.048828125","-0.9716797","-0.15234375","25.1875","-16.0625","0.90625"
"1573703107079","728","0.09863281","-0.9267578","-0.15527344","13.21875","-12.71875","15.625"
"1573703107079","729","0.16503906","-1.1005859","-0.17578125","-21.5625","12.9375","-2.6875"
"1573703107471","730","0.10644531","-1.0771484","-0.23144531","-18.75","10.65625","-21.6875"
"1573703107471","731","0.15039062","-0.9716797","-0.28027344","-3.125","1.75","-7.21875"
"1573703107471","732","0.24609375","-0.97753906","-0.25878906","0.84375","-9.0625","-8.0625"
"1573703107473","733","0.17871094","-0.9355469","-0.17285156","11.59375","-17.03125","-2.75"
"1573703107473","734","0.10644531","-0.9580078","-0.18164062","12.3125","-7.15625","-2.46875"
"1573703107473","735","0.14648438","-0.9892578","-0.20800781","9.375","1.625","1.375"
"1573703107474","736","0.17285156","-0.9980469","-0.2265625","1.4375","-2.09375","4.5625"
"1573703107474","737","0.14941406","-0.9765625","-0.21582031","1.15625","-4.90625","5.21875"
"1573703107474","738","0.13476562","-0.9628906","-0.23828125","0.71875","-5.375","5.0"
"1573703107475","739","0.13964844","-0.96972656","-0.22460938","2.59375","-2.53125","3.34375"
"1573703107868","740","0.18554688","-0.97265625","-0.25097656","0.0","3.21875","-0.9375"
"1573703107869","741","0.13574219","-0.9951172","-0.24511719","7.6875","9.8125","-0.375"
"1573703107869","742","0.16015625","-1.0068359","-0.17675781","-1.34375","5.34375","9.375"
"1573703107869","743","0.125","-1.0820312","-0.17089844","15.4375","5.65625","10.71875"
"1573703107869","744","0.02734375","-1.2099609","-0.19921875","15.4375","16.09375","8.21875"
"1573703107871","745","0.1484375","-1.4394531","-0.19433594","1.09375","33.5625","9.75"
"1573703107871","746","0.1328125","-1.4326172","-0.14453125","12.1875","12.75","17.8125"
"1573703107871","747","-0.09375","-1.1308594","-0.017578125","45.15625","9.9375","26.90625"
"1573703107872","748","-0.2265625","-0.92578125","-0.026367188","23.84375","28.65625","24.65625"
"1573703107872","749","-0.10546875","-0.9941406","-0.10839844","-5.15625","21.34375","11.71875"
"1573703108264","750","0.046875","-1.0488281","-0.03515625","-17.84375","7.5","-5.21875"
"1573703108265","751","-0.09375","-0.94628906","-0.06542969","-26.4375","-9.21875","-8.25"
"1573703108265","752","-0.0625","-0.87597656","-0.12890625","-14.65625","0.78125","-15.15625"
"1573703108265","753","0.013671875","-0.9238281","-0.15332031","-17.40625","-0.125","-10.40625"
"1573703108266","754","-0.0068359375","-0.95996094","-0.1875","-13.0625","-2.53125","-8.6875"
"1573703108266","755","-0.08300781","-0.9033203","-0.10449219","-11.6875","3.15625","-2.75"
"1573703108266","756","-0.06738281","-0.86621094","-0.17382812","-2.28125","13.0","0.96875"
"1573703108267","757","0.02734375","-0.96191406","-0.15722656","-7.53125","8.78125","1.4375"
"1573703108267","758","0.026367188","-0.8925781","-0.15917969","-11.0","-0.0625","-5.875"
"1573703108267","759","0.013671875","-0.8828125","-0.21386719","-6.65625","0.90625","-15.21875"
"1573703108661","760","0.005859375","-0.85546875","-0.22460938","-3.5625","-9.46875","-15.625"
"1573703108662","761","0.07910156","-0.8222656","-0.21972656","-10.21875","-14.96875","-18.09375"
"1573703108662","762","0.09082031","-0.9316406","-0.24707031","-10.21875","-8.625","-22.96875"
"1573703108662","763","0.15429688","-1.1884766","-0.22363281","-31.15625","-16.8125","-28.40625"
"1573703108662","764","0.17675781","-1.2109375","-0.111328125","-15.875","-41.15625","-27.0"
"1573703108663","765","0.018554688","-0.8173828","-0.15429688","19.21875","-66.65625","-1.84375"
"1573703108663","766","0.078125","-0.6904297","-0.18066406","19.09375","-38.71875","17.875"
"1573703108663","767","0.11816406","-0.96875","-0.16015625","7.1875","-14.71875","14.15625"
"1573703108663","768","0.013671875","-1.1240234","-0.15136719","3.59375","-11.3125","4.125"
"1573703108665","769","-0.005859375","-1.0917969","-0.19433594","-9.21875","0.03125","4.5"
"1573703109060","770","0.171875","-1.0439453","-0.19628906","0.96875","3.9375","0.15625"
"1573703109061","771","0.22070312","-0.97753906","-0.23730469","3.21875","-8.0625","-6.375"
"1573703109061","772","0.07910156","-0.94628906","-0.20214844","-1.96875","-3.0","-1.0625"
"1573703109061","773","0.09863281","-0.9902344","-0.16503906","3.09375","7.8125","-0.25"
"1573703109061","774","0.13964844","-0.96191406","-0.12109375","-0.9375","-0.25","8.03125"
"1573703109062","775","0.109375","-0.890625","-0.10839844","-6.59375","-9.53125","10.3125"
"1573703109062","776","0.041992188","-0.8798828","-0.11328125","0.21875","0.09375","15.0625"
"1573703109062","777","-0.045898438","-0.83984375","-0.12402344","-10.21875","8.15625","15.0"
"1573703109062","778","0.009765625","-0.7753906","-0.1328125","-6.96875","20.0625","16.46875"
"1573703109063","779","0.033203125","-0.79003906","-0.099609375","-2.6875","30.4375","22.09375"
"1573703109458","780","0.068359375","-0.8388672","-0.055664062","1.9375","29.65625","21.09375"
"1573703109459","781","-0.005859375","-0.8154297","0.00390625","7.0","15.125","24.53125"
"1573703109460","782","-0.0234375","-0.7080078","-0.0234375","9.6875","17.375","32.40625"
"1573703109460","783","-0.09472656","-0.6875","-0.07421875","6.875","29.15625","34.09375"
"1573703109461","784","-0.0625","-0.92871094","-0.26660156","18.78125","22.09375","17.0"
"1573703109461","785","-0.0068359375","-1.7890625","-0.39941406","12.625","51.875","-6.4375"
"1573703109461","786","0.03515625","-1.8554688","-0.51464844","-14.0","29.34375","-6.96875"
"1573703109461","787","0.0078125","-1.3125","-0.49121094","1.15625","-14.53125","-9.53125"
"1573703109462","788","-0.16503906","-1.5458984","-0.51953125","-41.21875","30.8125","-24.75"
"1573703109462","789","0.17675781","-1.1933594","-0.5234375","-3.3125","2.1875","9.5"
"1573703109854","790","0.46972656","-0.64941406","-0.1015625","37.03125","-63.0","-11.1875"
"1573703109855","791","-0.08886719","-0.44433594","-0.140625","-15.8125","-65.25","-13.5"
"1573703109855","792","-0.3828125","-0.81347656","-0.33691406","14.5","4.4375","13.34375"
"1573703109856","793","0.043945312","-1.1630859","-0.33398438","0.65625","18.90625","-12.28125"
"1573703109857","794","0.09082031","-0.9902344","-0.30566406","-6.5","-15.40625","-2.8125"
"1573703109857","795","-0.12792969","-0.96484375","-0.234375","-1.1875","-19.3125","-6.4375"
"1573703109858","796","-0.0078125","-1.0351562","-0.2998047","22.6875","4.625","-9.0"
"1573703109858","797","0.041015625","-0.9511719","-0.24121094","9.9375","-15.03125","-3.1875"
"1573703109858","798","0.046875","-0.85058594","-0.23535156","-2.21875","-5.6875","-9.53125"
"1573703109858","799","0.0107421875","-1.0478516","-0.3359375","-18.6875","7.4375","-19.4375"
"1573703110251","800","0.038085938","-1.0742188","-0.28222656","-26.5625","-1.125","-15.03125"
"1573703110252","801","-0.034179688","-1.0644531","-0.328125","-24.5625","-3.25","-8.25"
"1573703110252","802","-0.01171875","-1.1816406","-0.29589844","-25.96875","3.03125","3.03125"
"1573703110252","803","-0.015625","-0.86328125","-0.25390625","0.46875","-14.53125","4.1875"
"1573703110253","804","0.109375","-0.6484375","-0.20800781","17.5625","-13.9375","4.1875"
"1573703110253","805","0.028320312","-0.9638672","-0.28515625","-11.84375","16.40625","-15.75"
"1573703110253","806","-0.0390625","-1.2109375","-0.32226562","-21.875","17.75","-19.53125"
"1573703110253","807","0.059570312","-1.0048828","-0.29882812","-10.34375","-3.25","-11.90625"
"1573703110254","808","0.09863281","-0.9121094","-0.24804688","1.21875","-10.15625","-8.8125"
"1573703110255","809","0.048828125","-0.92871094","-0.34570312","2.5625","6.15625","-2.9375"
