"# PR data"
"# Start time: 20191114T222514"
"# Subject: Adela"
"# Activity type: Squats"
"# Correctness: Correct"
"# Notes: "
""
"timestamp","seq","accel_x","accel_y","accel_z","gyro_x","gyro_y","gyro_z"
"1573770314961","0","-0.028320312","-1.0097656","-0.08300781","-4.15625","1.3125","2.0625"
"1573770314962","1","-0.0234375","-0.99609375","-0.10253906","0.96875","1.3125","3.8125"
"1573770314962","2","-0.05078125","-1.0175781","-0.09375","-3.5625","-0.53125","3.5625"
"1573770314962","3","-0.038085938","-0.9951172","-0.10058594","-1.125","-1.4375","1.875"
"1573770314962","4","-0.047851562","-1.0058594","-0.103515625","-1.53125","-3.5","-0.03125"
"1573770314963","5","-0.025390625","-1.0078125","-0.08984375","-1.4375","-4.125","-0.03125"
"1573770314963","6","-0.045898438","-1.0068359","-0.095703125","-1.0","-1.8125","-0.625"
"1573770314963","7","-0.025390625","-1.0097656","-0.10839844","3.34375","1.4375","-0.03125"
"1573770314963","8","-0.02734375","-1.0087891","-0.10644531","0.34375","-2.71875","-0.6875"
"1573770314965","9","-0.051757812","-1.0087891","-0.099609375","-4.15625","-4.4375","-0.09375"
"1573770315359","10","-0.041015625","-1.0068359","-0.099609375","-4.71875","-4.3125","-0.15625"
"1573770315360","11","-0.037109375","-1.0058594","-0.11425781","-2.53125","-2.84375","0.21875"
"1573770315360","12","-0.038085938","-1.0097656","-0.09863281","-3.75","-2.125","-0.28125"
"1573770315364","13","-0.040039062","-1.0058594","-0.11621094","-3.75","-3.8125","0.46875"
"1573770315365","14","-0.041992188","-0.9970703","-0.13085938","-3.5","-1.875","-0.15625"
"1573770315366","15","-0.033203125","-1.0166016","-0.111328125","-0.25","-0.71875","0.21875"
"1573770315366","16","-0.021484375","-0.99609375","-0.11621094","-7.84375","-2.21875","0.40625"
"1573770315366","17","-0.043945312","-1.0048828","-0.12402344","-1.65625","-3.8125","0.09375"
"1573770315372","18","-0.046875","-1.0078125","-0.12109375","-1.96875","-1.4375","0.03125"
"1573770315373","19","-0.043945312","-1.0009766","-0.12988281","1.3125","-0.71875","-0.34375"
"1573770315757","20","-0.033203125","-1.0107422","-0.12890625","2.0625","-0.34375","0.15625"
"1573770315757","21","-0.046875","-1.0185547","-0.12890625","6.375","0.34375","1.0"
"1573770315758","22","-0.016601562","-1.0097656","-0.11816406","3.75","5.34375","2.28125"
"1573770315758","23","-0.024414062","-0.9970703","-0.10644531","4.8125","2.15625","1.6875"
"1573770315758","24","-0.03125","-0.98828125","-0.10839844","4.375","-2.90625","2.65625"
"1573770315760","25","-0.0390625","-0.9765625","-0.103515625","6.625","-2.65625","3.9375"
"1573770315760","26","-0.028320312","-0.94628906","-0.09863281","4.8125","-0.9375","4.8125"
"1573770315760","27","-0.036132812","-0.9140625","-0.09765625","7.71875","-0.9375","4.25"
"1573770315760","28","-0.017578125","-0.89746094","-0.12792969","14.3125","-4.4375","5.34375"
"1573770315761","29","9.765625E-4","-0.91503906","-0.115234375","9.0625","-5.15625","6.6875"
"1573770316155","30","-0.040039062","-0.87597656","-0.11425781","13.34375","-5.21875","7.78125"
"1573770316155","31","-0.06933594","-0.89746094","-0.072265625","10.96875","-14.25","8.21875"
"1573770316155","32","-0.099609375","-0.8623047","-0.060546875","26.21875","-4.125","8.21875"
"1573770316156","33","-0.08691406","-0.8339844","-0.033203125","19.09375","-2.53125","9.25"
"1573770316156","34","-0.068359375","-0.8486328","-0.009765625","13.59375","-7.1875","4.0"
"1573770316156","35","-0.12890625","-0.96191406","-0.03515625","16.15625","-5.84375","5.15625"
"1573770316156","36","-0.10253906","-0.9501953","-0.001953125","7.84375","-0.03125","6.6875"
"1573770316158","37","-0.099609375","-0.93066406","0.04296875","5.40625","1.90625","5.15625"
"1573770316158","38","-0.083984375","-1.0009766","0.01953125","4.4375","-7.1875","3.75"
"1573770316158","39","-0.10644531","-1.0546875","0.02734375","3.875","-6.25","2.90625"
"1573770316552","40","-0.12402344","-1.0244141","0.022460938","5.46875","-6.09375","2.71875"
"1573770316553","41","-0.115234375","-1.0947266","0.0146484375","-7.15625","-11.4375","7.71875"
"1573770316553","42","-0.115234375","-1.1259766","0.02734375","8.90625","-6.3125","3.53125"
"1573770316553","43","-0.14355469","-1.1445312","0.020507812","1.375","0.21875","7.53125"
"1573770316553","44","-0.13183594","-1.2021484","-0.0126953125","4.1875","7.46875","13.84375"
"1573770316553","45","-0.09765625","-1.3212891","0.030273438","23.40625","-11.09375","5.09375"
"1573770316554","46","-0.2265625","-1.3574219","0.06640625","20.84375","-2.84375","6.3125"
"1573770316554","47","-0.10058594","-1.4052734","0.06542969","13.21875","0.09375","10.90625"
"1573770316554","48","-0.20800781","-1.2558594","0.13183594","9.0","-4.8125","2.71875"
"1573770316556","49","-0.23535156","-1.2851562","0.12597656","-8.3125","-11.5","3.15625"
"1573770316949","50","-0.29003906","-1.2128906","0.07714844","-0.5625","-0.21875","2.0"
"1573770316949","51","-0.20996094","-1.1503906","0.09277344","1.8125","7.71875","5.03125"
"1573770316949","52","-0.16015625","-1.0537109","0.07128906","8.9375","2.71875","-0.875"
"1573770316950","53","-0.15917969","-0.9501953","0.1328125","8.53125","5.53125","-0.8125"
"1573770316950","54","-0.16894531","-0.8515625","0.078125","2.1875","5.28125","0.84375"
"1573770316950","55","-0.14160156","-0.8173828","0.080078125","-6.96875","8.8125","3.28125"
"1573770316950","56","-0.16601562","-0.86035156","0.057617188","-17.15625","8.25","-2.46875"
"1573770316951","57","-0.15039062","-0.8642578","0.05078125","-18.09375","9.3125","-4.78125"
"1573770316951","58","-0.15820312","-0.8544922","0.0546875","-21.1875","7.15625","-8.625"
"1573770316951","59","-0.14160156","-0.8652344","0.05078125","-21.25","6.8125","-10.03125"
"1573770317347","60","-0.115234375","-0.8876953","0.024414062","-25.46875","4.125","-10.65625"
"1573770317348","61","-0.09375","-0.95996094","0.016601562","-26.6875","5.15625","-15.84375"
"1573770317348","62","-0.083984375","-0.9316406","-0.037109375","-28.15625","4.78125","-17.46875"
"1573770317349","63","-0.045898438","-0.9375","-0.07519531","-25.59375","0.03125","-14.1875"
"1573770317349","64","-0.068359375","-0.94628906","-0.087890625","-30.0625","-9.875","-11.9375"
"1573770317349","65","-0.11230469","-0.96777344","-0.13378906","-31.09375","-9.375","-13.375"
"1573770317349","66","-0.0625","-0.9355469","-0.10253906","-15.34375","1.5","-13.21875"
"1573770317350","67","-0.0859375","-0.9296875","-0.10839844","-16.75","-6.125","-13.75"
"1573770317350","68","-0.09082031","-0.92089844","-0.21289062","-16.375","-1.5","-11.0"
"1573770317350","69","-0.005859375","-0.9277344","-0.26367188","-13.375","5.6875","-2.9375"
"1573770317744","70","0.01953125","-1.0253906","-0.16308594","-2.53125","16.1875","0.90625"
"1573770317745","71","-0.033203125","-1.0996094","-0.20117188","2.78125","9.3125","0.90625"
"1573770317745","72","-0.016601562","-1.0058594","-0.115234375","-1.125","-5.15625","-3.5625"
"1573770317747","73","-0.09375","-0.90234375","-0.119140625","-0.9375","-5.90625","-0.28125"
"1573770317747","74","-0.009765625","-0.82421875","-0.18847656","1.25","-0.40625","-0.28125"
"1573770317748","75","0.06347656","-0.7363281","-0.13085938","-4.53125","-4.5625","1.0"
"1573770317748","76","-0.048828125","-0.7470703","-0.11621094","-4.90625","-6.25","-0.6875"
"1573770317748","77","-0.03125","-0.8691406","-0.15625","-15.34375","-9.4375","3.40625"
"1573770317748","78","-0.1015625","-0.8144531","-0.119140625","8.71875","-0.53125","-0.21875"
"1573770317749","79","-0.125","-0.8339844","-0.123046875","0.03125","-7.78125","-4.25"
"1573770318143","80","-0.10253906","-0.9560547","-0.17578125","-6.4375","7.71875","-6.0"
"1573770318143","81","-0.015625","-0.86621094","-0.20605469","5.0","14.6875","-7.53125"
"1573770318144","82","0.123046875","-0.9873047","-0.19726562","3.59375","-8.34375","-1.3125"
"1573770318144","83","-0.07714844","-1.1181641","-0.20117188","-1.65625","-1.8125","2.0625"
"1573770318144","84","-0.056640625","-1.1171875","-0.13476562","-4.21875","-1.6875","-1.71875"
"1573770318146","85","-0.055664062","-1.0517578","-0.17675781","3.40625","-5.65625","-4.0"
"1573770318146","86","-0.041992188","-1.0283203","-0.140625","-3.3125","0.28125","-7.21875"
"1573770318146","87","-0.0546875","-0.9746094","-0.16210938","1.625","5.21875","-4.40625"
"1573770318147","88","-0.03515625","-1.0126953","-0.12695312","-8.375","3.4375","-2.28125"
"1573770318147","89","-0.08300781","-1.1191406","-0.16992188","-13.6875","6.96875","-3.375"
"1573770318539","90","0.020507812","-1.1484375","-0.22851562","-13.75","4.40625","-6.6875"
"1573770318539","91","0.00390625","-1.2636719","-0.22753906","-16.625","2.84375","0.34375"
"1573770318539","92","-0.12109375","-1.4833984","-0.24316406","-13.1875","2.03125","3.75"
"1573770318540","93","-9.765625E-4","-1.3994141","-0.41503906","5.40625","10.40625","-3.6875"
"1573770318540","94","0.11230469","-1.3125","-0.25976562","8.21875","0.5625","0.03125"
"1573770318540","95","-0.028320312","-1.0976562","-0.18457031","13.53125","-2.0","-5.21875"
"1573770318540","96","-0.03125","-1.1542969","-0.19921875","-10.8125","-8.875","3.53125"
"1573770318541","97","-0.057617188","-1.1328125","-0.20800781","2.90625","0.4375","7.90625"
"1573770318542","98","-0.017578125","-1.1689453","-0.23144531","1.3125","6.0625","4.6875"
"1573770318542","99","-0.015625","-1.1083984","-0.23242188","-0.03125","-0.78125","1.1875"
"1573770318939","100","-0.018554688","-1.0332031","-0.234375","-0.375","0.6875","2.0"
"1573770318940","101","0.017578125","-1.0732422","-0.22363281","1.5","-2.59375","4.1875"
"1573770318940","102","-0.034179688","-0.9951172","-0.17285156","7.625","-2.78125","-1.78125"
"1573770318940","103","-0.038085938","-0.91015625","-0.14355469","8.28125","-9.3125","3.34375"
"1573770318940","104","-0.0703125","-0.8613281","-0.18554688","5.84375","-5.65625","4.25"
"1573770318941","105","0.0126953125","-0.8417969","-0.21484375","1.9375","-0.71875","-0.875"
"1573770318941","106","0.0146484375","-0.78808594","-0.111328125","5.21875","-10.90625","-0.875"
"1573770318941","107","-0.107421875","-0.7685547","-0.21289062","5.34375","-4.75","3.875"
"1573770318941","108","-0.018554688","-0.83691406","-0.095703125","8.65625","9.25","5.96875"
"1573770318944","109","-0.1015625","-0.8486328","-0.13183594","12.0625","3.5","2.0625"
"1573770319335","110","-0.056640625","-0.90625","-0.107421875","4.6875","12.28125","2.25"
"1573770319336","111","-0.053710938","-0.9199219","-0.12402344","-9.53125","-4.84375","-0.28125"
"1573770319336","112","-0.07519531","-0.92871094","-0.19238281","-0.09375","-3.34375","-3.8125"
"1573770319336","113","-0.034179688","-0.8847656","-0.16601562","0.53125","2.34375","-0.6875"
"1573770319337","114","-0.0390625","-0.8886719","-0.14550781","2.65625","-2.40625","-1.375"
"1573770319337","115","-0.0625","-0.9794922","-0.15136719","-4.21875","-2.125","2.71875"
"1573770319337","116","-0.09472656","-1.1123047","-0.22363281","-9.34375","3.1875","8.53125"
"1573770319338","117","-0.025390625","-1.0791016","-0.24902344","-3.8125","3.25","8.875"
"1573770319338","118","-0.0625","-0.8623047","-0.19042969","0.15625","-10.65625","6.03125"
"1573770319338","119","-0.03515625","-0.65234375","-0.23535156","12.1875","6.90625","7.1875"
"1573770319732","120","0.20019531","-0.5859375","-0.20605469","12.6875","-3.03125","8.59375"
"1573770319733","121","-0.037109375","-0.71875","-0.12402344","4.8125","-15.125","10.28125"
"1573770319733","122","-0.049804688","-0.80566406","-0.13574219","15.96875","-18.90625","20.4375"
"1573770319734","123","-0.17578125","-0.8046875","-0.12011719","21.96875","0.21875","6.15625"
"1573770319734","124","-0.08496094","-0.98046875","-0.056640625","14.25","2.34375","3.875"
"1573770319735","125","-0.09375","-0.9902344","-0.171875","18.59375","-1.5","5.21875"
"1573770319736","126","-0.05859375","-1.1113281","-0.03515625","10.0","-15.96875","2.71875"
"1573770319736","127","-0.21191406","-1.0566406","0.0078125","12.8125","-6.75","4.5625"
"1573770319736","128","-0.1875","-1.0390625","-0.038085938","10.28125","-4.3125","7.1875"
"1573770319737","129","-0.13964844","-1.0185547","-0.0234375","8.9375","-2.78125","7.90625"
"1573770320129","130","-0.15625","-1.0869141","0.0068359375","13.40625","-10.46875","3.6875"
"1573770320130","131","-0.3017578","-1.1005859","-0.030273438","9.0625","-4.1875","6.8125"
"1573770320130","132","-0.21582031","-1.1982422","-0.020507812","-7.28125","10.8125","13.84375"
"1573770320132","133","-0.10253906","-1.2226562","-0.17285156","1.5625","14.125","-3.0"
"1573770320132","134","0.001953125","-1.2636719","-0.09863281","10.1875","6.625","-11.5625"
"1573770320132","135","-0.18457031","-1.2285156","0.033203125","12.125","1.1875","-4.0"
"1573770320132","136","-0.1875","-1.3427734","-0.10058594","1.375","7.40625","-2.84375"
"1573770320133","137","-0.07128906","-1.3193359","-0.005859375","9.0625","14.5625","-6.125"
"1573770320133","138","-0.1328125","-1.2060547","-0.041015625","4.0625","6.90625","-9.96875"
"1573770320133","139","-0.076171875","-1.1435547","-0.017578125","-2.28125","-7.78125","-8.3125"
"1573770320527","140","-0.1875","-1.2167969","-0.005859375","-10.21875","0.09375","0.53125"
"1573770320528","141","-0.15429688","-1.2148438","-0.068359375","-12.34375","11.0","6.09375"
"1573770320528","142","-0.15039062","-1.2080078","-0.07421875","-12.90625","3.1875","0.65625"
"1573770320528","143","-0.10839844","-1.1494141","-0.09277344","-4.96875","4.34375","-2.90625"
"1573770320529","144","-0.10253906","-1.1386719","-0.080078125","-1.0","1.96875","-3.375"
"1573770320529","145","-0.14257812","-1.1025391","-9.765625E-4","-4.40625","6.8125","-3.6875"
"1573770320530","146","-0.17089844","-0.99121094","-0.12207031","-1.125","6.75","-10.34375"
"1573770320530","147","-0.024414062","-0.81640625","-0.09277344","-4.78125","1.25","-7.34375"
"1573770320530","148","-0.07714844","-0.7402344","-0.049804688","-6.375","-3.5625","-8.5625"
"1573770320530","149","-0.09375","-0.74121094","-0.10839844","-7.15625","-5.90625","-11.5625"
"1573770321122","150","-0.059570312","-0.7167969","-0.041015625","-11.6875","-12.78125","-4.78125"
"1573770321122","151","-0.123046875","-0.7792969","-0.02734375","-7.53125","-5.96875","-4.59375"
"1573770321123","152","-0.11816406","-0.8701172","-0.11230469","-16.6875","-4.5","-6.625"
"1573770321123","153","0.045898438","-0.8955078","-0.10546875","-0.25","11.0","-10.875"
"1573770321123","154","-0.125","-0.9082031","-0.13378906","10.0625","12.40625","-9.59375"
"1573770321123","155","-0.005859375","-0.8691406","-0.22265625","-0.9375","27.75","-4.71875"
"1573770321124","156","0.10839844","-0.921875","-0.11621094","-0.1875","19.0","0.59375"
"1573770321125","157","0.036132812","-0.96484375","-0.13574219","15.46875","-4.90625","0.21875"
"1573770321125","158","-0.10253906","-0.9501953","-0.08105469","1.9375","-2.34375","0.28125"
"1573770321126","159","-0.15820312","-1.0761719","-0.076171875","-19.1875","-2.0","4.5625"
"1573770321322","160","-0.05078125","-1.1308594","-0.22558594","-14.4375","1.96875","0.15625"
"1573770321322","161","0.0048828125","-0.890625","-0.171875","-23.15625","-11.875","-6.5625"
"1573770321322","162","-0.053710938","-0.75097656","-0.11425781","-29.5625","-12.96875","-4.65625"
"1573770321323","163","-0.033203125","-0.6347656","-0.2734375","-22.78125","-10.96875","-8.375"
"1573770321323","164","0.123046875","-0.6826172","-0.2529297","-7.21875","-11.09375","-11.4375"
"1573770321323","165","0.048828125","-0.62597656","-0.0859375","-2.8125","-17.3125","-13.75"
"1573770321323","166","-0.10546875","-0.85058594","-0.0068359375","-0.1875","-25.0625","-2.71875"
"1573770321324","167","-0.1328125","-0.88378906","-0.14550781","-5.625","-14.5","4.6875"
"1573770321324","168","-0.064453125","-1.109375","-0.1015625","-5.03125","-16.53125","5.96875"
"1573770321325","169","-0.16210938","-1.0751953","-0.16210938","3.8125","-14.5","5.15625"
"1573770321720","170","0.013671875","-1.2001953","-0.2783203","3.03125","-14.6875","1.375"
"1573770321721","171","0.022460938","-1.1474609","-0.23730469","3.34375","-1.4375","5.21875"
"1573770321721","172","-0.025390625","-1.1396484","-0.21191406","12.125","-11.28125","3.03125"
"1573770321721","173","-0.03125","-1.09375","-0.21972656","9.8125","1.96875","-1.1875"
"1573770321722","174","-0.06933594","-1.1015625","-0.15527344","10.53125","0.5","1.4375"
"1573770321722","175","-0.044921875","-1.0322266","-0.14550781","9.6875","4.84375","2.46875"
"1573770321722","176","-0.09765625","-1.1376953","-0.111328125","6.625","3.875","4.375"
"1573770321722","177","-0.016601562","-1.1972656","-0.20898438","16.21875","13.15625","5.21875"
"1573770321723","178","0.08984375","-1.2773438","-0.22460938","36.59375","14.1875","4.0625"
"1573770321723","179","-0.13867188","-1.2646484","-0.17871094","30.75","12.90625","7.46875"
"1573770322316","180","-0.041992188","-1.2285156","-0.13769531","31.53125","17.0625","17.1875"
"1573770322317","181","-0.059570312","-1.2265625","-0.099609375","32.03125","9.78125","9.125"
"1573770322318","182","-0.10058594","-1.2509766","0.0126953125","13.71875","0.6875","7.46875"
"1573770322318","183","-0.20996094","-1.3398438","0.01171875","5.21875","-4.90625","10.90625"
"1573770322318","184","-0.18164062","-1.2929688","0.0029296875","5.65625","-4.3125","8.46875"
"1573770322319","185","-0.17480469","-1.1181641","0.00390625","6.875","-7.375","3.6875"
"1573770322319","186","-0.11816406","-1.0273438","0.0078125","5.96875","-5.71875","0.46875"
"1573770322319","187","-0.13769531","-0.8544922","0.0107421875","6.4375","-1.3125","-2.71875"
"1573770322319","188","-0.111328125","-0.8027344","0.016601562","5.0","-0.09375","1.3125"
"1573770322320","189","-0.1015625","-0.765625","0.052734375","-2.46875","2.53125","-0.875"
"1573770322514","190","-0.119140625","-0.8203125","0.034179688","4.5","-0.21875","1.0625"
"1573770322514","191","-0.13574219","-0.87597656","-0.018554688","-3.875","3.125","-1.3125"
"1573770322515","192","-0.07714844","-0.8828125","-0.045898438","-10.40625","4.46875","-8.09375"
"1573770322515","193","-0.040039062","-0.8847656","-0.025390625","-2.9375","-5.40625","-12.53125"
"1573770322515","194","-0.083984375","-0.8457031","-0.029296875","-6.84375","-3.46875","-12.65625"
"1573770322516","195","-0.055664062","-0.87597656","-0.024414062","-16.0","-1.625","-10.875"
"1573770322516","196","-0.056640625","-0.8935547","-0.0390625","-23.9375","-2.21875","-9.4375"
"1573770322516","197","-0.032226562","-0.9423828","-0.041992188","-20.65625","-2.71875","-9.1875"
"1573770322517","198","-0.047851562","-0.9433594","-0.09375","-22.59375","-7.84375","-11.125"
"1573770322517","199","0.005859375","-0.89941406","-0.107421875","-17.0","-5.78125","-12.09375"
"1573770322911","200","-0.09375","-0.96972656","-0.083984375","-22.84375","-5.71875","-1.90625"
"1573770322912","201","-0.11816406","-1.2373047","-0.1953125","-27.375","12.59375","7.1875"
"1573770322912","202","0.017578125","-1.0986328","-0.20605469","-16.8125","6.625","-7.53125"
"1573770322912","203","0.044921875","-0.9277344","-0.21386719","-6.6875","-2.53125","-7.53125"
"1573770322913","204","0.024414062","-0.7421875","-0.14355469","4.0","-0.65625","0.84375"
"1573770322914","205","-0.06347656","-0.67871094","-0.17285156","10.125","-10.21875","6.3125"
"1573770322915","206","0.005859375","-0.6582031","-0.17871094","8.15625","-3.5625","5.71875"
"1573770322915","207","0.076171875","-0.7421875","-0.14160156","-5.15625","-11.5","2.40625"
"1573770322915","208","-0.08203125","-0.8095703","-0.091796875","2.0625","-13.46875","6.25"
"1573770322916","209","-0.024414062","-0.7246094","-0.056640625","22.0625","-13.9375","1.875"
"1573770323310","210","-0.095703125","-0.8779297","-0.09082031","2.96875","-5.15625","-3.0625"
"1573770323311","211","-0.09863281","-1.0839844","-0.1015625","-5.625","1.625","10.53125"
"1573770323311","212","-0.07519531","-0.89160156","-0.12890625","7.78125","12.0","3.15625"
"1573770323311","213","-0.059570312","-1.1601562","-0.12988281","5.53125","-0.59375","3.75"
"1573770323311","214","-0.09082031","-1.1230469","-0.16601562","7.78125","3.375","1.0"
"1573770323312","215","-0.10058594","-1.2353516","-0.11816406","4.4375","5.6875","9.375"
"1573770323312","216","-0.14648438","-1.3056641","-0.14746094","5.90625","11.25","6.5"
"1573770323313","217","-0.09863281","-1.4248047","-0.14550781","11.6875","5.59375","4.5"
"1573770323314","218","-0.109375","-1.4082031","-0.08496094","26.03125","7.46875","1.1875"
"1573770323314","219","-0.060546875","-1.4111328","-0.12109375","35.4375","1.5625","3.625"
"1573770323708","220","-0.08886719","-1.2841797","-0.09472656","33.125","8.8125","1.75"
"1573770323709","221","0.034179688","-1.2207031","-0.05859375","21.71875","5.34375","-1.5"
"1573770323709","222","-0.080078125","-1.2519531","0.0625","-2.9375","-12.5","4.25"
"1573770323709","223","-0.1796875","-1.3378906","-0.0078125","-13.1875","-10.15625","5.53125"
"1573770323709","224","-0.19921875","-1.1933594","0.026367188","-1.84375","-2.40625","3.34375"
"1573770323710","225","-0.1328125","-1.0830078","-0.053710938","2.84375","-7.25","8.46875"
"1573770323710","226","-0.061523438","-0.96191406","0.017578125","2.53125","2.34375","2.53125"
"1573770323710","227","-0.1328125","-0.8544922","0.03515625","1.1875","-4.6875","-6.125"
"1573770323710","228","-0.115234375","-0.7792969","0.0234375","7.375","-2.28125","-5.8125"
"1573770323712","229","-0.12597656","-0.7558594","0.0107421875","-0.625","5.59375","-4.90625"
"1573770324104","230","-0.10058594","-0.77441406","0.016601562","-5.09375","6.0","-6.0"
"1573770324104","231","-0.09667969","-0.7841797","0.03125","-2.46875","4.34375","-9.25"
"1573770324104","232","-0.09472656","-0.82421875","-0.001953125","4.8125","5.15625","-12.28125"
"1573770324105","233","-0.060546875","-0.8232422","-0.04296875","-12.71875","3.4375","-10.8125"
"1573770324105","234","-0.00390625","-0.92089844","-0.099609375","-33.46875","0.40625","-11.5"
"1573770324105","235","0.16210938","-0.9091797","-0.16992188","-36.9375","-2.71875","-21.03125"
"1573770324105","236","0.04296875","-0.9091797","-0.051757812","-42.25","-23.53125","-27.5625"
"1573770324106","237","-0.14746094","-0.9111328","-0.15332031","-34.9375","-9.4375","-9.0"
"1573770324106","238","-0.10839844","-1.0683594","-0.07421875","-37.96875","11.875","12.90625"
"1573770324106","239","-0.09082031","-1.1855469","-0.21484375","-23.09375","3.0625","-6.84375"
"1573770324501","240","0.17480469","-0.9248047","-0.3857422","6.5","9.53125","-7.34375"
"1573770324503","241","0.11230469","-0.93359375","-0.24902344","16.46875","-10.40625","2.84375"
"1573770324503","242","-0.11035156","-1.0136719","-0.078125","8.03125","-0.40625","7.25"
"1573770324503","243","-0.041992188","-0.9970703","-0.11425781","-1.1875","-11.9375","9.25"
"1573770324504","244","-0.061523438","-0.9345703","-0.12109375","-11.125","-10.84375","8.40625"
"1573770324504","245","-0.0087890625","-0.82714844","-0.19921875","7.625","-7.65625","8.875"
"1573770324504","246","0.0234375","-0.6748047","-0.16796875","8.53125","-6.875","8.40625"
"1573770324504","247","-0.01953125","-0.65234375","-0.15136719","3.09375","-2.125","4.1875"
"1573770324505","248","0.021484375","-0.7109375","-0.16699219","-11.625","-10.78125","5.21875"
"1573770324505","249","-0.10253906","-0.84472656","-0.08886719","9.125","-1.75","-4.59375"
"1573770325095","250","-0.078125","-0.7558594","-0.109375","21.53125","6.5625","0.40625"
"1573770325095","251","-0.049804688","-0.8486328","-0.07324219","-7.21875","4.78125","0.65625"
"1573770325095","252","0.055664062","-1.0507812","-0.18457031","-13.5625","7.65625","-3.125"
"1573770325096","253","-0.052734375","-1.0498047","-0.18359375","-9.25","-4.96875","-2.65625"
"1573770325096","254","-0.07421875","-1.1054688","-0.17382812","-0.3125","-8.53125","-0.375"
"1573770325097","255","-0.09765625","-1.2177734","-0.13574219","-6.25","4.34375","2.0625"
"1573770325097","256","-0.11328125","-1.203125","-0.20703125","2.59375","4.1875","0.46875"
"1573770325097","257","-0.029296875","-1.2167969","-0.23242188","0.28125","5.53125","-5.34375"
"1573770325097","258","-0.020507812","-1.2802734","-0.19921875","2.125","-6.125","-5.53125"
"1573770325097","259","-0.06738281","-1.3964844","-0.18554688","5.90625","-0.40625","-4.53125"
"1573770325297","260","-0.06738281","-1.3701172","-0.20117188","3.40625","2.34375","-2.34375"
"1573770325298","261","0.0107421875","-1.3554688","-0.23046875","5.84375","-1.8125","6.15625"
"1573770325298","262","-0.0107421875","-1.2353516","-0.15722656","17.1875","-4.375","1.6875"
"1573770325298","263","-0.022460938","-1.1513672","-0.13671875","5.34375","-0.78125","-2.28125"
"1573770325298","264","-0.052734375","-1.1005859","-0.12695312","-5.6875","-4.125","-0.21875"
"1573770325299","265","-0.0703125","-1.2421875","-0.15527344","0.21875","-1.25","8.71875"
"1573770325299","266","-0.115234375","-1.2226562","-0.23828125","-11.6875","1.3125","6.09375"
"1573770325299","267","0.053710938","-1.2177734","-0.18945312","-12.84375","-5.65625","-1.4375"
"1573770325300","268","-0.049804688","-1.09375","-0.14941406","-1.125","-8.03125","-5.46875"
"1573770325301","269","-0.01953125","-1.0244141","-0.15820312","2.375","-11.375","2.71875"
"1573770325695","270","-0.11621094","-0.89941406","-0.11230469","7.71875","-10.09375","3.15625"
"1573770325696","271","-0.10546875","-0.7626953","-0.15136719","21.15625","-0.59375","5.34375"
"1573770325696","272","-0.09472656","-0.67578125","-0.09375","14.8125","-0.78125","4.5625"
"1573770325696","273","-0.06542969","-0.62597656","-0.1015625","30.25","6.375","2.96875"
"1573770325697","274","-0.11328125","-0.7421875","-0.049804688","19.21875","5.28125","0.96875"
"1573770325697","275","-0.12890625","-0.73828125","-0.041015625","21.84375","29.75","-3.875"
"1573770325697","276","-0.14550781","-0.8496094","-0.0703125","13.65625","25.34375","2.40625"
"1573770325698","277","-0.059570312","-0.9501953","-0.17089844","-2.53125","35.5625","0.15625"
"1573770325699","278","0.049804688","-1.0517578","-0.1015625","-9.65625","14.375","-11.25"
"1573770325699","279","-0.040039062","-1.0117188","-0.07421875","-2.40625","19.8125","-16.375"
"1573770326091","280","0.048828125","-0.97558594","-0.080078125","-4.46875","9.4375","-12.53125"
"1573770326091","281","0.038085938","-0.91308594","-0.083984375","-7.53125","-9.3125","-6.25"
"1573770326092","282","-0.009765625","-0.9628906","-0.072265625","-17.84375","-6.09375","-1.3125"
"1573770326092","283","-0.0078125","-1.0","-0.078125","-13.5625","-19.4375","-1.4375"
"1573770326092","284","-0.16113281","-1.0849609","-0.08105469","-14.84375","-14.5","10.0625"
"1573770326092","285","-0.09667969","-1.0898438","-0.1484375","2.125","19.4375","8.03125"
"1573770326093","286","0.061523438","-0.921875","-0.21679688","0.09375","12.65625","2.96875"
"1573770326093","287","0.14550781","-0.8408203","-0.19140625","8.09375","-10.53125","0.96875"
"1573770326093","288","-0.03515625","-0.5810547","-0.11425781","9.4375","-27.75","8.65625"
"1573770326094","289","-0.041992188","-0.6542969","-0.11035156","-17.71875","-21.03125","23.71875"
"1573770326490","290","-0.07324219","-0.7792969","-0.12988281","-5.9375","-4.90625","13.09375"
"1573770326490","291","-0.12792969","-0.95703125","-0.08886719","9.9375","-5.03125","9.75"
"1573770326490","292","-0.068359375","-0.76171875","-0.0107421875","26.59375","-5.96875","-6.6875"
"1573770326491","293","-0.0546875","-0.890625","-0.119140625","9.5625","0.28125","-11.1875"
"1573770326491","294","-0.026367188","-0.9902344","-0.08300781","-3.4375","-7.40625","0.03125"
"1573770326491","295","-0.107421875","-0.921875","-0.08300781","-2.875","-5.53125","1.5625"
"1573770326493","296","-0.043945312","-1.0517578","-0.1171875","5.34375","-8.34375","4.0"
"1573770326494","297","-0.049804688","-1.0371094","-0.049804688","0.78125","-11.75","-1.375"
"1573770326494","298","-0.15820312","-1.1240234","-0.12011719","4.875","-17.0625","0.90625"
"1573770326495","299","-0.043945312","-1.1455078","-0.1328125","6.21875","-4.0","2.53125"
"1573770326888","300","-0.115234375","-1.2626953","-0.020507812","2.25","-6.03125","3.75"
"1573770326889","301","-0.23828125","-1.4453125","-0.043945312","9.75","7.78125","2.25"
"1573770326890","302","-0.06933594","-1.40625","-0.15332031","32.03125","10.65625","1.6875"
"1573770326890","303","-0.0078125","-1.4140625","-0.10253906","43.8125","10.09375","7.90625"
"1573770326890","304","-0.053710938","-1.4257812","0.0029296875","40.5625","20.40625","4.90625"
"1573770326891","305","-0.17089844","-1.2177734","0.01953125","37.34375","30.90625","-6.1875"
"1573770326891","306","-0.04296875","-1.2265625","0.0126953125","7.3125","3.1875","-5.09375"
"1573770326891","307","-0.17480469","-1.2529297","0.19921875","-6.1875","3.6875","-1.0"
"1573770326892","308","-0.19140625","-1.2460938","0.06933594","0.65625","-2.78125","10.28125"
"1573770326892","309","-0.17382812","-1.1767578","0.059570312","-12.71875","-6.09375","1.1875"
"1573770327286","310","-0.06738281","-1.0634766","-0.034179688","1.4375","-4.375","-4.46875"
"1573770327286","311","-0.026367188","-0.9375","-0.016601562","-0.09375","-9.4375","-11.375"
"1573770327287","312","-0.07714844","-0.81347656","0.044921875","-13.3125","-12.0625","-11.3125"
"1573770327288","313","-0.06640625","-0.8154297","0.032226562","-9.125","-13.34375","-12.84375"
"1573770327288","314","-0.13476562","-0.7949219","0.057617188","-8.8125","-8.75","-7.78125"
"1573770327289","315","-0.09277344","-0.7890625","-0.016601562","-8.5625","4.1875","-4.90625"
"1573770327289","316","-0.036132812","-0.8515625","-0.02734375","-15.34375","10.09375","-2.46875"
"1573770327289","317","-0.057617188","-0.83496094","-0.0234375","-9.59375","10.59375","-6.6875"
"1573770327289","318","-0.049804688","-0.82910156","-0.013671875","-2.65625","8.75","-2.21875"
"1573770327290","319","-0.11816406","-0.85058594","-0.043945312","-8.4375","10.8125","-2.09375"
"1573770327882","320","-0.0068359375","-0.88964844","-0.1484375","-16.875","19.8125","-0.8125"
"1573770327882","321","0.12109375","-0.95703125","-0.06640625","-29.875","-2.40625","-9.78125"
"1573770327883","322","-0.0107421875","-0.92285156","-0.044921875","-3.25","-6.09375","-15.46875"
"1573770327883","323","-0.05078125","-0.94140625","-0.036132812","-11.6875","-10.59375","-6.75"
"1573770327883","324","-0.047851562","-0.9873047","-0.109375","-20.96875","-0.59375","3.28125"
"1573770327885","325","-0.103515625","-1.0410156","-0.06542969","-11.3125","1.4375","4.96875"
"1573770327885","326","-0.048828125","-0.9941406","-0.11328125","-8.3125","-8.09375","11.28125"
"1573770327886","327","-0.015625","-0.9580078","-0.11425781","-22.46875","-31.53125","17.625"
"1573770327886","328","-0.034179688","-0.76171875","-0.20800781","-8.125","-15.78125","6.8125"
"1573770327886","329","0.07324219","-0.6152344","-0.20898438","-7.71875","0.15625","0.90625"
"1573770328079","330","0.11230469","-0.6455078","-0.19824219","-8.6875","-13.40625","-4.65625"
"1573770328080","331","-0.04296875","-0.85546875","-0.14453125","-9.28125","-20.0","7.84375"
"1573770328080","332","-0.036132812","-0.81347656","-0.061523438","10.65625","-5.71875","0.34375"
"1573770328080","333","-0.16601562","-0.9160156","0.001953125","5.21875","-12.5625","3.625"
"1573770328081","334","-0.16210938","-0.99902344","-0.095703125","9.3125","13.6875","1.5625"
"1573770328081","335","0.038085938","-0.9716797","-0.20996094","5.90625","-1.9375","-2.59375"
"1573770328081","336","-0.0546875","-1.1064453","-0.17089844","0.46875","6.125","6.4375"
"1573770328082","337","-0.099609375","-1.0458984","-0.12402344","16.59375","2.78125","10.0625"
"1573770328082","338","-0.07324219","-1.1162109","-0.103515625","10.53125","9.1875","6.875"
"1573770328082","339","-0.13769531","-1.1220703","-0.08496094","20.3125","11.625","4.4375"
"1573770328477","340","-0.13769531","-1.1777344","-0.13085938","6.09375","4.46875","10.34375"
"1573770328477","341","-0.1640625","-1.2529297","-0.068359375","6.625","11.125","11.5"
"1573770328477","342","-0.09667969","-1.2519531","-0.12597656","3.8125","1.96875","5.28125"
"1573770328478","343","-0.16601562","-1.3691406","-0.046875","12.625","3.0625","5.53125"
"1573770328478","344","-0.17871094","-1.3691406","-0.045898438","4.75","6.875","7.90625"
"1573770328478","345","-0.1328125","-1.3486328","-0.0625","19.15625","14.6875","-2.84375"
"1573770328478","346","-0.111328125","-1.1552734","0.02734375","16.34375","5.46875","-7.09375"
"1573770328478","347","-0.040039062","-1.1230469","-0.041992188","13.59375","0.34375","-3.375"
"1573770328479","348","-0.12207031","-1.2900391","0.0","-13.875","4.78125","5.78125"
"1573770328480","349","-0.13671875","-1.1806641","-0.037109375","-22.34375","-0.84375","-7.53125"
"1573770328876","350","-0.051757812","-1.1494141","-0.16503906","-25.03125","-29.21875","9.875"
"1573770328876","351","-0.15039062","-1.0273438","-0.095703125","5.15625","-2.90625","-3.3125"
"1573770328877","352","-0.16894531","-0.9921875","-0.08203125","-9.59375","-15.78125","0.09375"
"1573770328877","353","-0.20898438","-0.9375","0.0048828125","4.8125","-4.5","2.1875"
"1573770328877","354","-0.21484375","-0.859375","-0.10449219","7.4375","8.875","-7.21875"
"1573770328877","355","-0.047851562","-0.81933594","-0.059570312","-3.8125","11.5","-10.21875"
"1573770328878","356","-0.10644531","-0.765625","-0.045898438","5.71875","9.375","-19.1875"
"1573770328878","357","-0.060546875","-0.78808594","-0.0625","-2.53125","12.90625","-17.46875"
"1573770328878","358","-0.08984375","-0.79785156","-0.036132812","3.28125","13.09375","-15.21875"
"1573770328878","359","-0.061523438","-0.7470703","-0.103515625","7.65625","16.4375","-8.09375"
"1573770329273","360","-0.0029296875","-0.8652344","-0.12402344","-8.6875","14.71875","-9.0625"
"1573770329274","361","0.09375","-0.9189453","-0.14550781","-13.5","17.3125","-18.5625"
"1573770329274","362","0.11816406","-0.859375","-0.14453125","-22.84375","-10.84375","-17.1875"
"1573770329274","363","0.016601562","-0.9423828","-0.109375","-27.5","7.96875","-0.28125"
"1573770329275","364","0.07324219","-1.1171875","-0.032226562","-13.625","-28.90625","0.84375"
"1573770329275","365","-0.23535156","-1.0234375","-0.0625","-3.125","-25.4375","-2.90625"
"1573770329275","366","-0.11621094","-1.1054688","-0.14648438","-12.15625","8.625","13.09375"
"1573770329276","367","0.034179688","-1.0488281","-0.24902344","7.125","1.78125","-4.46875"
"1573770329276","368","0.03515625","-0.9453125","-0.18066406","4.4375","-17.0","-2.40625"
"1573770329276","369","-0.028320312","-0.8417969","-0.15429688","0.96875","-22.8125","5.46875"
"1573770329670","370","-0.015625","-0.87109375","-0.18847656","-0.875","-24.09375","10.71875"
"1573770329670","371","0.11230469","-0.7470703","-0.13574219","34.28125","-0.71875","7.125"
"1573770329671","372","0.055664062","-0.63964844","-0.11035156","41.3125","-25.0625","12.6875"
"1573770329672","373","0.04296875","-0.6816406","-0.15917969","24.6875","-34.53125","16.53125"
"1573770329672","374","-0.16699219","-0.8017578","0.026367188","12.5625","-22.625","16.59375"
"1573770329673","375","-0.1796875","-0.7783203","0.001953125","33.84375","-7.65625","4.90625"
"1573770329673","376","-0.13085938","-0.8798828","0.030273438","27.9375","14.78125","4.8125"
"1573770329673","377","-0.16210938","-1.015625","-0.0107421875","14.6875","4.3125","1.6875"
"1573770329674","378","-0.1171875","-1.0527344","-0.061523438","-2.46875","-9.9375","10.90625"
"1573770329674","379","-0.20898438","-1.1455078","-0.037109375","-1.53125","26.40625","13.90625"
"1573770330067","380","-0.13671875","-1.0634766","0.08691406","7.375","15.09375","8.9375"
"1573770330068","381","-0.1328125","-1.2597656","0.02734375","12.6875","3.3125","7.59375"
"1573770330068","382","-0.17675781","-1.1376953","0.068359375","34.46875","10.8125","2.46875"
"1573770330068","383","-0.19628906","-1.2460938","0.10058594","-0.875","8.375","1.5"
"1573770330069","384","-0.13671875","-1.3085938","-0.099609375","10.78125","22.65625","0.46875"
"1573770330070","385","-0.03515625","-1.4277344","0.076171875","5.09375","13.15625","13.46875"
"1573770330071","386","-0.25390625","-1.4482422","0.049804688","29.9375","19.9375","5.65625"
"1573770330071","387","-0.20410156","-1.3388672","0.16210938","12.125","8.6875","5.90625"
"1573770330071","388","-0.16210938","-1.1679688","0.18261719","4.9375","4.96875","-1.96875"
"1573770330072","389","-0.20996094","-1.2626953","0.18945312","-10.34375","-12.0","-1.1875"
"1573770330466","390","-0.23339844","-1.1513672","0.10253906","0.78125","5.53125","-4.125"
"1573770330466","391","-0.123046875","-1.1279297","0.07128906","-12.46875","1.5625","-7.90625"
"1573770330466","392","-0.05859375","-1.0263672","0.033203125","-6.125","-1.25","-11.9375"
"1573770330467","393","-0.11230469","-0.9628906","0.056640625","-9.125","-0.09375","-11.875"
"1573770330467","394","-0.203125","-0.92578125","0.1171875","-10.9375","1.0","-10.15625"
"1573770330467","395","-0.15234375","-0.85253906","0.015625","-8.3125","4.71875","-5.875"
"1573770330467","396","-0.052734375","-0.8808594","-0.0068359375","-15.09375","5.625","-8.3125"
"1573770330468","397","-0.08105469","-0.88183594","0.037109375","-21.875","-0.15625","-10.71875"
"1573770330468","398","-0.0390625","-0.89160156","-0.053710938","-17.96875","-0.15625","-5.5625"
"1573770330468","399","-0.051757812","-0.86621094","-0.040039062","-22.1875","-7.0625","-5.09375"
"1573770331060","400","-0.080078125","-0.82421875","-0.028320312","-18.6875","-8.46875","-3.8125"
"1573770331061","401","-0.0859375","-0.84472656","-0.04296875","-16.8125","-6.75","-3.5625"
"1573770331061","402","-0.09082031","-0.8925781","-0.051757812","-18.21875","-3.5625","-6.8125"
"1573770331062","403","-0.07519531","-0.8984375","-0.057617188","-19.25","-4.25","-7.59375"
"1573770331062","404","-0.053710938","-0.8955078","-0.08300781","-21.125","-5.28125","-6.8125"
"1573770331062","405","-0.03125","-0.94921875","-0.10546875","-22.3125","-7.1875","-8.4375"
"1573770331062","406","-0.06738281","-0.91796875","-0.10644531","-21.3125","-11.8125","-7.34375"
"1573770331063","407","-0.09082031","-0.8964844","-0.16796875","-19.6875","-9.75","-3.75"
"1573770331063","408","-0.09667969","-0.94921875","-0.13574219","-26.8125","8.15625","3.53125"
"1573770331064","409","-0.109375","-1.2236328","-0.20507812","-22.90625","3.375","9.75"
"1573770331259","410","-0.0078125","-1.0625","-0.22460938","-1.65625","4.90625","-8.3125"
"1573770331259","411","-0.022460938","-0.97753906","-0.17382812","-0.15625","-3.46875","-1.1875"
"1573770331259","412","-0.034179688","-0.9160156","-0.16992188","7.3125","-2.0","-2.59375"
"1573770331260","413","-0.07421875","-0.88183594","-0.13671875","10.90625","1.375","0.53125"
"1573770331260","414","-0.07910156","-0.84472656","-0.14160156","20.5625","0.4375","-1.375"
"1573770331260","415","0.029296875","-0.67871094","-0.16894531","22.5","2.09375","-7.15625"
"1573770331260","416","0.0546875","-0.6435547","-0.16992188","-0.4375","-20.0625","-5.09375"
"1573770331261","417","-0.0068359375","-0.76953125","-0.13964844","-8.3125","-14.625","1.375"
"1573770331261","418","-0.022460938","-0.75683594","-0.083984375","2.53125","-9.9375","-0.4375"
"1573770331261","419","-0.18554688","-0.82128906","-0.040039062","15.375","-9.125","4.125"
"1573770331656","420","-0.080078125","-0.94628906","-0.072265625","7.65625","2.03125","10.59375"
"1573770331657","421","-0.078125","-1.0986328","-0.16992188","0.34375","-0.59375","7.84375"
"1573770331657","422","-0.043945312","-1.0527344","-0.16699219","8.34375","-0.15625","3.8125"
"1573770331657","423","-0.111328125","-1.0507812","-0.06738281","11.03125","5.21875","6.3125"
"1573770331657","424","-0.08105469","-1.0839844","-0.11035156","9.875","3.375","3.875"
"1573770331657","425","-0.08300781","-1.2080078","-0.10058594","5.71875","1.90625","4.3125"
"1573770331658","426","-0.11621094","-1.2285156","-0.07910156","1.125","9.4375","4.1875"
"1573770331658","427","-0.14355469","-1.3203125","-0.09375","5.65625","1.6875","6.09375"
"1573770331658","428","-0.15234375","-1.4189453","-0.080078125","2.4375","-6.375","-1.78125"
"1573770331658","429","-0.19140625","-1.4287109","-0.16210938","25.3125","4.3125","-8.75"
"1573770332054","430","0.041992188","-1.3623047","-0.06738281","16.8125","18.03125","3.21875"
"1573770332055","431","-0.041015625","-1.25","-0.07128906","12.75","11.625","5.59375"
"1573770332055","432","-0.040039062","-1.1884766","-0.06542969","12.3125","4.71875","-1.1875"
"1573770332056","433","-0.13769531","-1.2363281","-0.017578125","-11.375","-3.46875","4.0625"
"1573770332056","434","-0.21777344","-1.2529297","0.0068359375","-0.8125","7.09375","9.0"
"1573770332056","435","-0.12109375","-1.1455078","-0.029296875","7.5625","1.5","5.71875"
"1573770332056","436","0.0107421875","-1.0556641","-0.10546875","5.46875","0.75","-2.34375"
"1573770332057","437","-0.0146484375","-0.9111328","-0.005859375","9.0625","-5.09375","-7.78125"
"1573770332057","438","-0.0859375","-0.85058594","0.013671875","-2.53125","-7.53125","-0.5625"
"1573770332057","439","-0.07714844","-0.8417969","0.0146484375","-4.71875","-11.75","4.125"
"1573770332454","440","-0.16503906","-0.84472656","-0.013671875","-5.8125","-3.21875","2.0"
"1573770332455","441","-0.1328125","-0.8251953","-0.045898438","-12.03125","5.53125","3.34375"
"1573770332455","442","-0.06933594","-0.8183594","-0.040039062","-18.15625","-6.25","-1.375"
"1573770332455","443","-0.109375","-0.7792969","-0.083984375","-9.84375","-12.71875","-4.90625"
"1573770332456","444","-0.11035156","-0.828125","-0.09277344","-16.0625","-3.28125","-1.84375"
"1573770332457","445","-0.10058594","-0.88671875","-0.07714844","-29.75","1.625","-5.75"
"1573770332457","446","-0.07910156","-0.8359375","-0.095703125","-17.21875","-4.3125","-8.8125"
"1573770332458","447","-0.07421875","-0.8808594","-0.12792969","-24.625","-4.0625","-7.46875"
"1573770332458","448","-0.057617188","-0.88671875","-0.11816406","-19.3125","1.78125","-7.65625"
"1573770332458","449","-0.14453125","-1.0380859","-0.13671875","-25.65625","8.75","4.875"
