"# PR data"
"# Start time: 20191112T203755"
"# Subject: Adela"
"# Activity type: Sit to stand"
"# Correctness: Correct"
"# Notes: "
""
"timestamp","seq","accel_x","accel_y","accel_z","gyro_x","gyro_y","gyro_z"
"1573591075549","0","-0.2607422","-0.9560547","-0.25","32.625","-35.53125","8.6875"
"1573591075550","1","-0.30078125","-0.97265625","-0.21289062","35.1875","-25.21875","-2.96875"
"1573591075550","2","-0.19824219","-0.99902344","-0.18261719","-9.0625","4.125","-13.21875"
"1573591075550","3","-0.09472656","-1.0097656","-0.18945312","-8.59375","5.71875","-9.25"
"1573591075551","4","-0.09765625","-1.046875","-0.25","0.5625","-13.875","2.90625"
"1573591075551","5","-0.18261719","-1.0136719","-0.22753906","-0.03125","-10.3125","15.09375"
"1573591075551","6","-0.22460938","-0.9140625","-0.17871094","2.53125","-6.0625","12.71875"
"1573591075551","7","-0.25390625","-0.89941406","-0.18066406","4.53125","-4.96875","8.375"
"1573591075552","8","-0.2548828","-0.97265625","-0.1953125","-3.46875","-1.40625","2.40625"
"1573591075552","9","-0.25","-1.0136719","-0.17871094","-8.34375","7.5625","-3.15625"
"1573591075948","10","-0.24414062","-1.0107422","-0.20703125","-0.53125","3.53125","-2.59375"
"1573591075949","11","-0.20703125","-0.98339844","-0.22167969","3.96875","-3.4375","-0.21875"
"1573591075949","12","-0.17578125","-0.97558594","-0.20898438","7.9375","-3.625","1.71875"
"1573591075950","13","-0.18164062","-0.96777344","-0.22070312","-2.1875","0.40625","2.90625"
"1573591075950","14","-0.18066406","-0.9785156","-0.22851562","-6.875","-1.34375","0.6875"
"1573591075950","15","-0.21289062","-0.9707031","-0.22265625","-4.25","-2.15625","-0.9375"
"1573591075950","16","-0.22949219","-0.9746094","-0.2265625","-5.40625","0.0","0.21875"
"1573591075951","17","-0.2109375","-0.9658203","-0.22167969","-0.96875","-0.5","0.5"
"1573591075951","18","-0.21289062","-0.9814453","-0.21972656","5.03125","-2.8125","2.59375"
"1573591075951","19","-0.20898438","-0.96484375","-0.22753906","1.84375","-0.9375","2.78125"
"1573591076346","20","-0.21582031","-0.9707031","-0.22167969","-6.21875","2.96875","-0.09375"
"1573591076346","21","-0.20507812","-0.96875","-0.24902344","-0.03125","2.0","1.5"
"1573591076347","22","-0.21191406","-0.99316406","-0.24121094","0.875","-1.59375","3.375"
"1573591076347","23","-0.18652344","-0.98828125","-0.2705078","19.5625","-12.40625","-0.9375"
"1573591076347","24","-0.20703125","-0.8857422","-0.27246094","26.8125","-17.28125","8.375"
"1573591076348","25","-0.24316406","-1.0048828","-0.17675781","25.28125","14.8125","8.5"
"1573591076349","26","-0.25585938","-1.0292969","-0.12988281","3.0","7.0625","-12.0625"
"1573591076349","27","-0.20898438","-0.91796875","-0.15234375","-33.4375","0.65625","-1.1875"
"1573591076349","28","-0.15917969","-0.9199219","-0.23144531","3.5","-8.25","1.71875"
"1573591076350","29","-0.21777344","-1.0322266","-0.2421875","-13.96875","-7.625","1.0625"
"1573591076941","30","-0.23925781","-0.9033203","-0.14746094","9.1875","-0.375","13.34375"
"1573591076942","31","-0.2548828","-1.0263672","-0.20703125","49.03125","-15.6875","12.34375"
"1573591076942","32","-0.22949219","-0.9980469","-0.22949219","18.4375","-16.0625","3.375"
"1573591076942","33","-0.20214844","-0.9638672","-0.20800781","18.875","-9.53125","2.15625"
"1573591076943","34","-0.21972656","-0.97558594","-0.15136719","13.75","-6.46875","0.21875"
"1573591076943","35","-0.21679688","-0.99121094","-0.15625","17.96875","-11.59375","0.75"
"1573591076943","36","-0.23144531","-0.96875","-0.13574219","18.4375","-12.46875","4.34375"
"1573591076945","37","-0.2763672","-0.98046875","-0.109375","23.8125","-2.5625","9.5"
"1573591076945","38","-0.25097656","-0.9638672","-0.111328125","14.65625","0.46875","14.25"
"1573591076945","39","-0.22070312","-0.9345703","-0.0859375","25.96875","2.0625","19.4375"
"1573591077140","40","-0.20800781","-0.9433594","-0.1171875","36.03125","-7.9375","22.78125"
"1573591077141","41","-0.21484375","-1.0048828","-0.111328125","50.84375","-16.78125","32.8125"
"1573591077141","42","-0.29589844","-1.0058594","-0.049804688","46.65625","-12.40625","25.65625"
"1573591077141","43","-0.29785156","-0.9482422","-0.021484375","35.1875","-14.34375","29.375"
"1573591077141","44","-0.24902344","-0.8857422","-0.020507812","34.0625","-6.59375","47.75"
"1573591077142","45","-0.2578125","-0.9345703","-0.029296875","62.5625","-10.9375","46.03125"
"1573591077142","46","-0.41503906","-0.9404297","0.053710938","62.15625","-14.46875","49.28125"
"1573591077142","47","-0.46191406","-0.91308594","0.11230469","60.0625","-13.625","51.53125"
"1573591077142","48","-0.35253906","-0.8769531","0.13183594","65.75","-26.9375","52.40625"
"1573591077143","49","-0.453125","-0.8984375","0.17773438","58.65625","-31.9375","63.8125"
"1573591077735","50","-0.60058594","-0.8359375","0.27246094","55.875","-4.96875","62.40625"
"1573591077735","51","-0.73828125","-0.9091797","0.41601562","74.96875","-26.5","56.53125"
"1573591077736","52","-0.7294922","-0.8105469","0.45703125","67.46875","-20.59375","57.8125"
"1573591077736","53","-0.7832031","-0.8125","0.59765625","58.3125","-3.90625","64.71875"
"1573591077736","54","-0.83984375","-0.7558594","0.62109375","43.96875","-5.0","50.3125"
"1573591077736","55","-0.73828125","-0.70214844","0.5498047","31.875","-12.9375","37.9375"
"1573591077737","56","-0.8652344","-0.7207031","0.6767578","14.71875","9.21875","30.59375"
"1573591077737","57","-0.8798828","-0.6982422","0.6113281","-2.53125","-2.9375","6.25"
"1573591077738","58","-0.828125","-0.7548828","0.57714844","-34.15625","5.90625","6.875"
"1573591077738","59","-0.8876953","-0.7753906","0.5839844","-45.21875","4.03125","-10.03125"
"1573591077935","60","-0.8964844","-0.7988281","0.48339844","-32.21875","-13.8125","-17.6875"
"1573591077937","61","-0.8251953","-0.7763672","0.39648438","-34.21875","-9.84375","-28.78125"
"1573591077938","62","-0.7089844","-0.75","0.32421875","-42.34375","1.5625","-42.625"
"1573591077938","63","-0.5644531","-0.71191406","0.3017578","-51.625","8.90625","-48.1875"
"1573591077938","64","-0.5341797","-0.6386719","0.18847656","-49.65625","4.3125","-46.46875"
"1573591077939","65","-0.52441406","-0.6923828","0.19921875","-48.5","16.03125","-44.46875"
"1573591077939","66","-0.44140625","-0.5966797","0.12988281","-48.375","9.03125","-59.1875"
"1573591077939","67","-0.3984375","-0.6904297","0.18457031","-72.625","19.9375","-62.34375"
"1573591077939","68","-0.39160156","-0.60839844","0.091796875","-70.125","8.96875","-72.59375"
"1573591077940","69","-0.29296875","-0.6376953","0.10253906","-57.0","4.3125","-68.46875"
"1573591078530","70","-0.28808594","-0.64160156","0.107421875","-66.875","3.71875","-71.375"
"1573591078531","71","-0.32226562","-0.61816406","0.10253906","-61.03125","4.5","-64.0"
"1573591078531","72","-0.24902344","-0.6972656","0.060546875","-46.1875","-5.4375","-59.1875"
"1573591078532","73","-0.33007812","-0.8457031","0.09863281","-42.09375","-5.3125","-48.875"
"1573591078532","74","-0.2890625","-0.8769531","0.052734375","-48.4375","-6.53125","-44.46875"
"1573591078533","75","-0.203125","-0.83984375","0.0234375","-43.4375","-20.625","-35.9375"
"1573591078533","76","-0.19628906","-0.87109375","-0.07519531","-34.09375","-0.5625","-44.59375"
"1573591078533","77","-0.18554688","-0.8769531","-0.18847656","-48.75","-17.28125","-32.15625"
"1573591078533","78","-0.26660156","-0.984375","-0.13476562","-28.96875","-29.84375","-7.53125"
"1573591078534","79","-0.30273438","-1.1015625","-0.09765625","-12.6875","1.6875","-17.90625"
"1573591078730","80","-0.32714844","-1.1044922","-0.15332031","-0.53125","15.3125","-6.03125"
"1573591078730","81","0.018554688","-0.9824219","-0.22265625","3.75","-1.0625","-15.0625"
"1573591078730","82","-0.09863281","-0.9814453","-0.16015625","6.84375","-15.21875","-7.65625"
"1573591078731","83","-0.13476562","-0.90527344","-0.16113281","5.28125","-7.09375","1.4375"
"1573591078731","84","-0.16992188","-0.9628906","-0.15039062","-4.375","0.96875","5.03125"
"1573591078733","85","-0.13085938","-1.0615234","-0.16699219","5.375","-3.125","10.9375"
"1573591078733","86","-0.16503906","-1.0146484","-0.19140625","10.03125","-13.625","8.75"
"1573591078734","87","-0.18261719","-0.96191406","-0.16015625","20.03125","-14.59375","11.125"
"1573591078734","88","-0.1484375","-0.91796875","-0.16113281","28.53125","-14.78125","13.875"
"1573591078734","89","-0.14257812","-0.9638672","-0.15039062","25.03125","-4.09375","18.15625"
"1573591079324","90","-0.16601562","-1.0478516","-0.10546875","21.75","-5.75","15.34375"
"1573591079325","91","-0.16992188","-0.9951172","-0.12890625","19.59375","-18.625","17.46875"
"1573591079325","92","-0.17773438","-0.96777344","-0.09277344","27.84375","-21.6875","19.875"
"1573591079326","93","-0.20703125","-0.9453125","-0.09375","25.78125","-27.40625","21.5"
"1573591079326","94","-0.18457031","-0.9628906","-0.076171875","27.375","-26.1875","22.96875"
"1573591079326","95","-0.21289062","-0.9824219","-0.06542969","30.15625","-28.5","24.6875"
"1573591079326","96","-0.26757812","-0.96875","0.043945312","26.875","-8.4375","30.34375"
"1573591079328","97","-0.24609375","-1.0517578","-0.08203125","17.09375","-22.28125","21.6875"
"1573591079328","98","-0.28515625","-1.1005859","-0.026367188","10.40625","-5.0625","17.0"
"1573591079329","99","-0.25","-0.9921875","0.016601562","6.71875","3.09375","8.21875"
"1573591079525","100","-0.28125","-0.8496094","-0.0078125","-4.5625","-2.875","13.8125"
"1573591079525","101","-0.3310547","-0.8955078","0.06542969","7.34375","25.0625","22.0625"
"1573591079525","102","-0.43066406","-0.7675781","0.14257812","17.65625","36.25","27.78125"
"1573591079526","103","-0.40820312","-0.6933594","0.09667969","45.96875","16.65625","49.46875"
"1573591079526","104","-0.29296875","-0.5859375","0.15234375","91.03125","1.09375","57.8125"
"1573591079526","105","-0.265625","-0.4248047","0.064453125","118.59375","-16.25","70.40625"
"1573591079526","106","-0.28125","-0.34179688","0.1171875","115.9375","-12.53125","78.21875"
"1573591079527","107","-0.2607422","-0.40820312","0.19628906","102.4375","-5.875","61.90625"
"1573591079527","108","-0.41503906","-0.55859375","0.22558594","82.15625","-22.53125","59.84375"
"1573591079528","109","-0.6542969","-0.4892578","0.32226562","41.8125","-4.21875","59.96875"
"1573591080318","110","-0.5488281","-0.5390625","0.28320312","44.75","-14.53125","52.34375"
"1573591080318","111","-0.5546875","-0.65527344","0.35253906","30.90625","-20.28125","33.34375"
"1573591080319","112","-0.63964844","-0.42871094","0.45410156","41.34375","-13.375","32.6875"
"1573591080320","113","-0.8798828","-0.77734375","0.49609375","7.21875","-4.40625","18.21875"
"1573591080320","114","-1.0761719","-0.66308594","0.54785156","28.75","-6.84375","-8.8125"
"1573591080320","115","-0.6201172","-0.6845703","0.7421875","-21.90625","7.625","-7.1875"
"1573591080320","116","-0.85839844","-0.8955078","0.6503906","-7.25","-1.46875","-43.875"
"1573591080321","117","-1.0634766","-0.875","0.57714844","-30.5625","15.75","-43.625"
"1573591080321","118","-0.6826172","-1.0546875","0.4716797","-12.1875","3.28125","-59.125"
"1573591080321","119","-0.7685547","-1.0205078","0.5214844","-35.75","46.875","-64.125"
"1573591080516","120","-0.8876953","-1.3300781","0.4736328","-55.53125","54.0625","-82.625"
"1573591080517","121","-0.6376953","-1.3691406","0.27734375","-33.3125","17.4375","-67.46875"
"1573591080517","122","-0.36328125","-1.1074219","0.10058594","-21.96875","2.4375","-46.125"
"1573591080517","123","-0.16796875","-0.94140625","-0.020507812","-24.28125","5.125","-28.78125"
"1573591080518","124","-0.26757812","-0.89746094","0.07910156","-31.78125","16.53125","-29.75"
"1573591080518","125","-0.30566406","-0.78125","0.23144531","-69.75","22.21875","-48.4375"
"1573591080518","126","-0.3623047","-0.7519531","0.0126953125","-42.21875","1.5625","-58.6875"
"1573591080518","127","-0.23242188","-0.7421875","0.06933594","-41.96875","-3.0","-29.875"
"1573591080519","128","-0.3388672","-0.9921875","0.025390625","-5.40625","-0.3125","-6.4375"
"1573591080519","129","-0.4189453","-1.0234375","0.14160156","11.0625","-3.6875","13.625"
"1573591080718","130","-0.39257812","-1.0185547","0.032226562","16.5625","-7.46875","25.125"
"1573591080718","131","-0.2939453","-1.0429688","0.0068359375","30.65625","-13.5625","28.09375"
"1573591080718","132","-0.24902344","-0.9472656","0.048828125","19.5","-6.0","19.125"
"1573591080720","133","-0.31152344","-0.85253906","0.047851562","24.90625","-1.28125","21.25"
"1573591080721","134","-0.31835938","-0.9003906","0.057617188","31.5","2.25","27.75"
"1573591080721","135","-0.32421875","-0.84277344","0.09765625","37.125","-12.53125","47.09375"
"1573591080721","136","-0.46875","-0.8154297","0.23144531","65.625","-14.59375","64.1875"
"1573591080721","137","-0.4560547","-0.8574219","0.20117188","67.09375","-39.5625","68.25"
"1573591080722","138","-0.5234375","-0.83984375","0.2578125","88.28125","-30.03125","74.5"
"1573591080722","139","-0.6279297","-0.8847656","0.28125","79.71875","-18.1875","53.4375"
"1573591081115","140","-0.60253906","-0.7402344","0.4140625","56.78125","-7.28125","39.34375"
"1573591081116","141","-0.6748047","-0.6191406","0.56347656","48.0625","-10.1875","47.8125"
"1573591081116","142","-0.82910156","-0.6298828","0.578125","51.53125","-4.65625","59.40625"
"1573591081116","143","-0.83691406","-0.58984375","0.73535156","57.5625","-10.09375","69.1875"
"1573591081117","144","-0.91015625","-0.63964844","0.7998047","48.28125","-4.21875","46.71875"
"1573591081118","145","-0.8544922","-0.5888672","0.69140625","28.40625","-15.9375","30.84375"
"1573591081118","146","-0.86621094","-0.60546875","0.7011719","30.59375","-17.15625","20.59375"
"1573591081118","147","-0.9042969","-0.6064453","0.7753906","12.21875","-21.75","1.4375"
"1573591081118","148","-0.83984375","-0.5546875","0.6972656","4.15625","-25.875","-6.03125"
"1573591081119","149","-0.79003906","-0.5546875","0.6953125","6.1875","-19.0","-16.8125"
"1573591081513","150","-0.7792969","-0.5751953","0.6669922","24.8125","-32.96875","-19.8125"
"1573591081513","151","-0.73828125","-0.57421875","0.6699219","4.65625","-21.375","-20.96875"
"1573591081514","152","-0.6953125","-0.5859375","0.6035156","-7.0","-15.875","-29.40625"
"1573591081514","153","-0.5859375","-0.54296875","0.5644531","-39.65625","-7.40625","-33.125"
"1573591081514","154","-0.5097656","-0.5878906","0.4892578","-51.125","-9.40625","-32.4375"
"1573591081515","155","-0.48242188","-0.60546875","0.4765625","-70.53125","-1.09375","-44.59375"
"1573591081515","156","-0.5371094","-0.60253906","0.41992188","-76.34375","-0.75","-55.21875"
"1573591081516","157","-0.49804688","-0.5683594","0.38476562","-93.375","15.5","-59.4375"
"1573591081516","158","-0.40820312","-0.59375","0.3125","-88.1875","16.28125","-64.0"
"1573591081516","159","-0.3720703","-0.6123047","0.31640625","-83.28125","6.9375","-62.40625"
"1573591081910","160","-0.41601562","-0.60546875","0.28710938","-72.0625","-5.875","-60.59375"
"1573591081911","161","-0.35546875","-0.5498047","0.18457031","-70.1875","-5.3125","-59.125"
"1573591081911","162","-0.21191406","-0.6660156","0.24609375","-69.5625","-6.0625","-51.84375"
"1573591081911","163","-0.27929688","-0.6308594","0.22949219","-71.875","-10.4375","-54.46875"
"1573591081912","164","-0.3173828","-0.7138672","0.20507812","-65.09375","-17.21875","-39.46875"
"1573591081912","165","-0.31347656","-0.87890625","0.17871094","-80.96875","5.90625","-36.40625"
"1573591081912","166","-0.34277344","-0.8671875","0.11230469","-102.71875","23.125","-42.21875"
"1573591081912","167","-0.13964844","-0.7607422","0.13574219","-154.15625","6.40625","-28.34375"
"1573591081913","168","-0.19433594","-0.8076172","-0.0390625","-103.625","21.0","-28.53125"
"1573591081914","169","-0.3671875","-1.0126953","-0.0390625","-34.84375","8.78125","-8.28125"
"1573591082504","170","-0.3203125","-1.0947266","-0.03125","11.25","0.96875","-13.59375"
"1573591082505","171","-0.1953125","-1.1113281","-0.2109375","-6.6875","-3.90625","-7.65625"
"1573591082505","172","-0.13964844","-0.96972656","-0.21679688","4.96875","-11.53125","-12.25"
"1573591082505","173","-0.17578125","-0.859375","-0.15917969","8.8125","-1.34375","-2.59375"
"1573591082506","174","-0.1875","-0.8964844","-0.14941406","0.03125","6.40625","-1.8125"
"1573591082506","175","-0.16113281","-0.9511719","-0.16503906","-5.0","5.84375","4.90625"
"1573591082507","176","-0.15527344","-1.0800781","-0.16992188","-8.34375","6.8125","8.15625"
"1573591082507","177","-0.13378906","-1.0908203","-0.20019531","1.96875","-3.1875","4.46875"
"1573591082507","178","-0.17578125","-0.96875","-0.18066406","14.71875","-17.34375","7.71875"
"1573591082507","179","-0.18066406","-0.9345703","-0.14648438","18.3125","-13.75","9.96875"
"1573591082705","180","-0.16601562","-0.94433594","-0.15136719","21.0","-12.78125","11.625"
"1573591082705","181","-0.15429688","-0.98046875","-0.15722656","18.3125","-11.71875","12.21875"
"1573591082706","182","-0.21484375","-1.0273438","-0.14355469","24.96875","-18.9375","13.9375"
"1573591082706","183","-0.24707031","-0.9423828","-0.140625","26.3125","-25.40625","19.4375"
"1573591082706","184","-0.2529297","-0.9238281","-0.08886719","36.5625","-27.59375","22.96875"
"1573591082707","185","-0.2783203","-0.91796875","-0.038085938","41.03125","-16.71875","25.90625"
"1573591082707","186","-0.21386719","-0.8779297","0.0029296875","45.375","-13.75","29.5"
"1573591082707","187","-0.22949219","-0.98046875","0.07910156","40.96875","-15.625","29.3125"
"1573591082707","188","-0.36621094","-0.9160156","0.033203125","24.625","-1.53125","29.5625"
"1573591082708","189","-0.41796875","-0.8095703","0.099609375","30.15625","25.25","37.375"
"1573591083101","190","-0.37304688","-0.85546875","0.13085938","51.53125","40.625","47.28125"
"1573591083102","191","-0.49023438","-0.7832031","0.0","56.96875","61.9375","50.0625"
"1573591083102","192","-0.34570312","-0.47265625","0.22851562","98.34375","66.9375","56.1875"
"1573591083103","193","-0.111328125","-0.6064453","0.11328125","147.59375","-42.78125","64.46875"
"1573591083104","194","-0.609375","-0.76660156","0.017578125","74.71875","21.15625","53.96875"
"1573591083104","195","-0.3203125","-0.77246094","0.10253906","37.25","-7.75","47.4375"
"1573591083104","196","-0.3857422","-0.5517578","0.4189453","48.125","-29.78125","57.28125"
"1573591083104","197","-0.67285156","-0.5605469","0.2705078","46.28125","-10.3125","40.1875"
"1573591083105","198","-0.6875","-0.33984375","0.3095703","50.5","12.5","56.125"
"1573591083105","199","-0.3779297","-0.94628906","0.24316406","30.0","-47.75","49.15625"
"1573591083501","200","-0.5996094","-0.5048828","0.4296875","27.53125","-6.53125","8.21875"
"1573591083501","201","-0.75","-0.4765625","0.3408203","3.96875","-1.96875","28.90625"
"1573591083501","202","-0.69433594","-0.73535156","0.39160156","14.84375","-4.46875","20.46875"
"1573591083502","203","-0.62890625","-0.52734375","0.4814453","2.59375","-14.15625","-11.4375"
"1573591083502","204","-0.73339844","-0.66503906","0.48242188","-24.75","3.96875","-18.09375"
"1573591083503","205","-0.7763672","-0.5800781","0.49902344","-20.6875","-1.34375","-28.1875"
"1573591083504","206","-0.82714844","-0.9433594","0.49902344","-54.71875","12.0","-40.8125"
"1573591083504","207","-0.8330078","-1.0136719","0.38183594","-45.875","16.40625","-62.46875"
"1573591083504","208","-0.8203125","-1.0","0.390625","-63.40625","54.0625","-66.25"
"1573591083505","209","-1.140625","-1.5839844","0.50878906","-78.71875","71.03125","-68.46875"
"1573591083898","210","-0.9667969","-1.3427734","0.37109375","-31.96875","45.28125","-73.09375"
"1573591083898","211","-0.29882812","-1.3564453","-0.13378906","-39.84375","-28.875","-71.875"
"1573591083899","212","-0.044921875","-0.96972656","-0.107421875","-45.5625","-5.5625","-62.65625"
"1573591083899","213","-0.1328125","-0.83691406","-0.10449219","-43.5","-9.09375","-49.21875"
"1573591083899","214","-0.25097656","-0.79785156","-0.09277344","-64.75","-5.6875","-49.96875"
"1573591083899","215","-0.171875","-0.7734375","-0.15039062","-46.8125","-10.1875","-60.46875"
"1573591083900","216","-0.14550781","-0.8564453","-0.13378906","-54.96875","-1.65625","-35.625"
"1573591083901","217","-0.27734375","-1.0146484","-0.11816406","-48.3125","5.4375","-22.9375"
"1573591083901","218","-0.32714844","-1.0058594","-0.036132812","-30.125","3.96875","-10.28125"
"1573591083902","219","-0.31054688","-1.0214844","-0.09863281","12.09375","-7.6875","1.625"
"1573591084296","220","-0.2705078","-1.0253906","-0.12109375","11.625","-0.4375","2.28125"
"1573591084296","221","-0.17480469","-0.97265625","-0.13574219","18.5625","-3.5","0.34375"
"1573591084296","222","-0.19140625","-0.9794922","-0.12792969","18.5","-1.71875","2.78125"
"1573591084297","223","-0.30664062","-0.96191406","-0.044921875","4.53125","12.5625","2.15625"
"1573591084297","224","-0.20019531","-0.9824219","-0.13378906","-10.40625","-0.375","0.75"
"1573591084297","225","-0.16015625","-0.94140625","-0.08300781","-14.4375","-1.84375","6.25"
"1573591084297","226","-0.2265625","-0.94628906","-0.095703125","13.5","-10.375","24.9375"
"1573591084297","227","-0.31933594","-1.0166016","-0.12597656","23.9375","-5.625","32.875"
"1573591084298","228","-0.33007812","-1.0107422","-0.09765625","28.71875","-4.90625","25.71875"
"1573591084299","229","-0.2998047","-1.0019531","-0.10546875","32.25","-14.59375","19.1875"
"1573591084692","230","-0.32128906","-0.96191406","-0.07324219","29.8125","-5.8125","22.1875"
"1573591084692","231","-0.3408203","-0.9560547","-0.026367188","35.65625","-1.21875","25.96875"
"1573591084692","232","-0.3857422","-0.93652344","0.051757812","37.6875","-1.09375","31.28125"
"1573591084692","233","-0.37890625","-0.89746094","0.055664062","37.3125","-0.625","32.625"
"1573591084693","234","-0.3544922","-0.8671875","0.043945312","55.9375","-12.46875","35.84375"
"1573591084693","235","-0.4013672","-0.8310547","0.095703125","52.875","-14.09375","40.78125"
"1573591084693","236","-0.4267578","-0.83984375","0.107421875","59.40625","-19.0625","54.21875"
"1573591084693","237","-0.4326172","-0.81347656","0.12597656","74.28125","-24.71875","68.125"
"1573591084694","238","-0.41992188","-0.9121094","0.14648438","99.5","-57.4375","76.8125"
"1573591084694","239","-0.49609375","-0.8330078","0.31933594","97.5","-31.125","74.25"
"1573591085090","240","-0.5703125","-0.9873047","0.3779297","110.0","-43.84375","68.75"
"1573591085091","241","-0.63183594","-0.90625","0.515625","92.5","-44.03125","56.78125"
"1573591085092","242","-1.0830078","-0.5917969","0.99121094","88.8125","-20.15625","71.875"
"1573591085092","243","-1.0507812","-0.83496094","0.8730469","51.21875","-24.84375","40.125"
"1573591085092","244","-0.85839844","-0.6855469","0.84375","31.3125","-26.625","18.625"
"1573591085093","245","-0.88671875","-0.6582031","0.8955078","20.09375","-43.78125","3.0625"
"1573591085093","246","-0.81933594","-0.5830078","0.81347656","-4.5625","-49.4375","-14.6875"
"1573591085093","247","-0.71484375","-0.5605469","0.71777344","-21.71875","-32.125","-23.28125"
"1573591085093","248","-0.69433594","-0.64160156","0.7128906","-46.0625","2.6875","-39.28125"
"1573591085094","249","-0.5751953","-0.69628906","0.61328125","-79.8125","20.125","-42.53125"
"1573591085487","250","-0.55371094","-0.5966797","0.56640625","-81.59375","13.1875","-42.8125"
"1573591085488","251","-0.60546875","-0.68652344","0.43945312","-60.34375","12.1875","-38.5"
"1573591085488","252","-0.5263672","-0.7519531","0.33789062","-84.21875","24.53125","-44.34375"
"1573591085489","253","-0.45507812","-0.6845703","0.3330078","-117.34375","29.15625","-51.625"
"1573591085490","254","-0.41210938","-0.6357422","0.2705078","-105.40625","20.8125","-58.3125"
"1573591085490","255","-0.33496094","-0.6308594","0.23632812","-80.625","10.90625","-58.8125"
"1573591085490","256","-0.27929688","-0.60839844","0.13867188","-79.09375","-0.5625","-57.15625"
"1573591085491","257","-0.22753906","-0.61816406","0.13769531","-95.4375","0.78125","-53.25"
"1573591085491","258","-0.2626953","-0.56640625","0.09667969","-77.125","-12.65625","-48.875"
"1573591085491","259","-0.2421875","-0.6513672","0.057617188","-63.9375","-14.90625","-42.34375"
"1573591085885","260","-0.19628906","-0.7207031","9.765625E-4","-55.71875","-19.59375","-38.125"
"1573591085885","261","-0.26171875","-0.79589844","0.049804688","-65.78125","-10.75","-33.78125"
"1573591085885","262","-0.35839844","-0.8339844","0.0078125","-47.71875","-4.34375","-23.28125"
"1573591085886","263","-0.21679688","-0.8691406","0.038085938","-50.65625","-5.0625","-15.125"
"1573591085886","264","-0.15917969","-0.88183594","0.044921875","-47.15625","-11.125","-21.46875"
"1573591085887","265","-0.20019531","-0.8466797","-0.06347656","-67.375","-13.875","-17.3125"
"1573591085887","266","-0.23046875","-0.9248047","-0.08984375","-54.3125","2.375","-7.59375"
"1573591085887","267","-0.16503906","-1.1416016","-0.13769531","-42.84375","-29.125","-2.0625"
"1573591085888","268","-0.43066406","-1.0107422","-0.13671875","-18.28125","-16.1875","-2.21875"
"1573591085888","269","-0.24902344","-0.91308594","-0.20605469","2.03125","-6.78125","-11.9375"
"1573591086479","270","-0.19042969","-0.9140625","-0.23242188","11.25","-6.125","-6.875"
"1573591086480","271","-0.18554688","-0.9394531","-0.21386719","11.6875","-7.53125","-2.40625"
"1573591086480","272","-0.20703125","-0.94628906","-0.18554688","21.375","-10.875","4.25"
"1573591086480","273","-0.24902344","-1.0126953","-0.13574219","19.84375","-10.03125","12.21875"
"1573591086481","274","-0.27148438","-0.9794922","-0.10449219","21.875","-8.5625","14.90625"
"1573591086481","275","-0.30273438","-0.9013672","-0.041992188","39.03125","-8.625","19.9375"
"1573591086481","276","-0.29589844","-0.83496094","-0.07421875","56.53125","-11.59375","27.125"
"1573591086483","277","-0.26171875","-0.7763672","-0.045898438","60.125","-19.1875","34.6875"
"1573591086483","278","-0.22753906","-0.81640625","-0.0390625","51.53125","7.5","38.90625"
"1573591086484","279","-0.32226562","-0.87597656","0.049804688","41.9375","41.96875","34.75"
"1573591087077","280","-0.36621094","-0.7578125","0.032226562","31.6875","47.09375","41.59375"
"1573591087077","281","-0.25195312","-0.60546875","0.03515625","78.03125","16.96875","53.90625"
"1573591087077","282","-0.14550781","-0.57128906","-0.0625","80.03125","3.21875","59.34375"
"1573591087077","283","-0.17285156","-0.5205078","0.095703125","89.0","2.3125","61.3125"
"1573591087078","284","-0.25683594","-0.7890625","0.026367188","49.53125","-32.3125","53.625"
"1573591087078","285","-0.76171875","-0.8642578","0.015625","7.78125","65.71875","37.8125"
"1573591087078","286","-0.44628906","-0.5761719","0.140625","19.96875","5.78125","42.625"
"1573591087078","287","-0.51464844","-0.73828125","0.14746094","68.5","-51.78125","69.65625"
"1573591087079","288","-0.45507812","-0.9863281","0.16308594","0.75","-18.5625","20.84375"
"1573591087080","289","-0.6064453","-0.59472656","0.16015625","-32.21875","-18.1875","-9.9375"
"1573591087274","290","-0.7548828","-0.72753906","0.18554688","18.3125","-27.84375","10.53125"
"1573591087274","291","-0.7783203","-0.8984375","0.29492188","2.40625","4.3125","7.90625"
"1573591087275","292","-0.6894531","-0.8857422","0.2548828","-5.96875","9.5625","-17.75"
"1573591087275","293","-0.78027344","-1.0810547","0.3544922","-20.1875","9.09375","-53.5"
"1573591087275","294","-0.7998047","-1.2675781","0.33007812","-12.0625","1.625","-55.59375"
"1573591087275","295","-0.8564453","-1.1982422","0.40527344","-56.3125","35.15625","-51.5625"
"1573591087276","296","-1.0332031","-1.6826172","0.20214844","-52.34375","61.03125","-56.1875"
"1573591087276","297","-0.5966797","-1.2988281","0.026367188","10.625","18.375","-61.8125"
"1573591087276","298","-0.09082031","-1.1171875","-0.19726562","18.8125","-30.46875","-46.96875"
"1573591087276","299","-0.001953125","-0.86816406","-0.1640625","-6.28125","0.0","-38.4375"
"1573591087673","300","-0.07910156","-0.9082031","-0.24707031","-11.9375","-4.59375","-40.8125"
"1573591087674","301","-0.091796875","-0.96777344","-0.17382812","-57.78125","-6.25","-32.25"
"1573591087675","302","-0.15625","-0.9140625","-0.13183594","-87.625","2.625","-45.1875"
"1573591087675","303","-0.2421875","-0.9970703","-0.12890625","-48.5","-14.09375","-43.8125"
"1573591087675","304","-0.36621094","-1.0517578","-0.11328125","-41.90625","-16.84375","-36.21875"
"1573591087676","305","-0.49804688","-1.0615234","0.0078125","-59.5625","19.03125","-34.03125"
"1573591087676","306","-0.30664062","-0.8935547","-0.020507812","-62.375","32.59375","-26.03125"
"1573591087676","307","0.015625","-0.8486328","-0.234375","15.8125","9.4375","-2.46875"
"1573591087676","308","0.016601562","-0.9609375","-0.2705078","63.96875","-6.84375","3.8125"
"1573591087677","309","-0.068359375","-1.0048828","-0.2607422","29.5","-6.84375","0.5"
"1573591087871","310","-0.11816406","-1.0507812","-0.24316406","-7.1875","0.90625","-0.59375"
"1573591087872","311","-0.18066406","-1.0449219","-0.17285156","-19.9375","10.625","-5.09375"
"1573591087872","312","-0.23046875","-1.0302734","-0.13671875","-13.21875","7.375","-8.9375"
"1573591087873","313","-0.1796875","-0.94921875","-0.17089844","27.90625","-3.4375","-3.5625"
"1573591087874","314","-0.11425781","-0.94628906","-0.13378906","55.25","-14.28125","6.125"
"1573591087874","315","-0.12792969","-0.98046875","-0.107421875","60.4375","0.34375","19.5"
"1573591087874","316","-0.10644531","-0.9472656","-0.12109375","43.03125","2.0","22.3125"
"1573591087874","317","-0.125","-0.9785156","-0.06640625","44.03125","4.03125","31.28125"
"1573591087875","318","-0.140625","-0.9580078","-0.08300781","43.28125","-1.59375","33.71875"
"1573591087875","319","-0.12597656","-0.9814453","-0.10449219","59.96875","-11.3125","45.375"
"1573591088272","320","-0.18261719","-1.0478516","0.022460938","68.1875","-14.96875","54.65625"
"1573591088272","321","-0.2783203","-1.0117188","0.0859375","63.625","-13.3125","58.0"
"1573591088272","322","-0.35253906","-1.0625","0.18164062","65.15625","-18.125","54.21875"
"1573591088273","323","-0.47851562","-0.99902344","0.23632812","51.78125","-9.09375","39.34375"
"1573591088273","324","-0.46484375","-0.8183594","0.23828125","33.65625","-2.6875","23.03125"
"1573591088274","325","-0.37695312","-0.703125","0.28320312","55.375","-5.625","39.21875"
"1573591088275","326","-0.42578125","-0.6875","0.3046875","50.25","-16.0625","50.8125"
"1573591088275","327","-0.5126953","-0.6044922","0.33496094","70.15625","-6.0625","61.4375"
"1573591088275","328","-0.46875","-0.5654297","0.39648438","87.125","-10.75","71.3125"
"1573591088276","329","-0.53125","-0.5986328","0.421875","95.65625","-25.46875","65.5625"
"1573591088667","330","-0.48242188","-0.6191406","0.4560547","100.78125","-32.59375","77.1875"
"1573591088667","331","-0.6347656","-0.765625","0.58691406","108.84375","-47.9375","70.65625"
"1573591088667","332","-0.6503906","-0.6982422","0.68847656","108.59375","-39.6875","68.5"
"1573591088668","333","-1.0722656","-0.5126953","1.0644531","91.4375","-27.125","92.625"
"1573591088668","334","-0.94921875","-0.7001953","1.1591797","56.34375","0.46875","47.8125"
"1573591088668","335","-0.93652344","-0.56152344","1.0820312","12.59375","-9.90625","19.125"
"1573591088668","336","-0.9140625","-0.5078125","0.9404297","-52.78125","24.78125","-4.6875"
"1573591088670","337","-0.796875","-0.36035156","0.8339844","-48.375","-11.3125","-19.8125"
"1573591088670","338","-0.7128906","-0.47070312","0.6503906","36.34375","-20.875","-21.09375"
"1573591088671","339","-0.6855469","-0.4482422","0.7294922","-8.21875","1.6875","-26.40625"
"1573591089064","340","-0.6591797","-0.33398438","0.70214844","-8.78125","-1.0","-24.5625"
"1573591089065","341","-0.6015625","-0.47851562","0.6621094","11.1875","-5.4375","-21.09375"
"1573591089065","342","-0.53027344","-0.5673828","0.6972656","-9.3125","-8.6875","-26.9375"
"1573591089065","343","-0.5888672","-0.546875","0.6953125","-42.78125","5.65625","-30.8125"
"1573591089065","344","-0.6152344","-0.55371094","0.6308594","-54.4375","-0.9375","-40.1875"
"1573591089066","345","-0.5527344","-0.61035156","0.48632812","-69.125","0.40625","-40.6875"
"1573591089066","346","-0.42382812","-0.6328125","0.4658203","-85.375","17.03125","-50.34375"
"1573591089067","347","-0.41503906","-0.5576172","0.39257812","-96.71875","13.78125","-69.3125"
"1573591089067","348","-0.35253906","-0.51464844","0.31835938","-107.78125","13.28125","-68.6875"
"1573591089068","349","-0.34375","-0.5800781","0.30566406","-107.78125","14.625","-66.625"
"1573591089463","350","-0.29589844","-0.5214844","0.23925781","-96.40625","10.0625","-71.625"
"1573591089463","351","-0.25","-0.5175781","0.2763672","-108.375","17.625","-60.21875"
"1573591089464","352","-0.30859375","-0.6640625","0.29589844","-83.84375","0.59375","-59.125"
"1573591089464","353","-0.33691406","-0.765625","0.22460938","-83.71875","-16.84375","-57.90625"
"1573591089465","354","-0.32421875","-0.8173828","0.2109375","-92.8125","-6.40625","-48.5625"
"1573591089465","355","-0.31445312","-0.8339844","0.19824219","-86.46875","-0.75","-41.96875"
"1573591089465","356","-0.32128906","-0.8720703","0.103515625","-74.875","11.28125","-38.25"
"1573591089466","357","-0.22851562","-0.8935547","0.001953125","-75.78125","-12.03125","-31.21875"
"1573591089466","358","-0.22949219","-0.8183594","-0.08496094","-95.8125","13.28125","-25.1875"
"1573591089466","359","-0.26660156","-0.79785156","-0.18164062","-49.3125","24.09375","-15.96875"
"1573591089860","360","-0.16015625","-1.0478516","-0.16015625","-1.4375","7.4375","-6.25"
"1573591089862","361","-0.15039062","-1.1933594","-0.17578125","-23.90625","-3.90625","-10.15625"
"1573591089863","362","-0.21972656","-1.0371094","-0.12695312","0.8125","-14.21875","-11.21875"
"1573591089863","363","-0.140625","-0.96777344","-0.20605469","-0.84375","-9.34375","-6.6875"
"1573591089863","364","-0.14160156","-0.90234375","-0.18261719","1.53125","-6.125","1.78125"
"1573591089863","365","-0.15917969","-0.9941406","-0.18652344","2.46875","-9.46875","6.3125"
"1573591089864","366","-0.21484375","-0.98828125","-0.16992188","7.53125","-9.15625","7.03125"
"1573591089864","367","-0.16601562","-1.0185547","-0.18164062","11.75","-14.53125","3.5"
"1573591089865","368","-0.19921875","-0.9560547","-0.15429688","13.09375","-16.5625","7.90625"
"1573591089865","369","-0.20117188","-0.97558594","-0.115234375","23.625","-20.875","17.65625"
"1573591090455","370","-0.21875","-0.96972656","-0.061523438","31.21875","-23.9375","25.34375"
"1573591090455","371","-0.26171875","-0.9033203","-0.025390625","44.5","-26.375","35.1875"
"1573591090456","372","-0.29785156","-0.81640625","0.0068359375","66.90625","-27.84375","46.40625"
"1573591090456","373","-0.28027344","-0.74316406","0.034179688","79.65625","-30.03125","59.15625"
"1573591090457","374","-0.36132812","-0.62597656","0.1640625","75.15625","23.84375","63.375"
"1573591090457","375","-0.234375","-0.58691406","0.09375","106.84375","18.84375","59.09375"
"1573591090457","376","-0.2998047","-0.7236328","0.07128906","93.65625","6.34375","66.6875"
"1573591090457","377","-0.34570312","-0.62109375","0.18164062","83.21875","27.21875","61.5"
"1573591090458","378","-0.26757812","-0.47265625","0.18847656","90.96875","13.40625","49.34375"
"1573591090458","379","-0.20605469","-0.51464844","0.22265625","96.03125","-23.15625","57.9375"
"1573591090857","380","-0.40625","-0.72753906","0.29296875","52.9375","-22.84375","44.40625"
"1573591090857","381","-0.6669922","-0.6113281","0.04296875","67.71875","-0.5","33.46875"
"1573591090858","382","-0.24414062","-0.9238281","0.36132812","48.40625","-27.90625","43.84375"
"1573591090858","383","-0.6972656","-0.7216797","0.4453125","2.65625","-26.0","3.625"
"1573591090858","384","-0.859375","-0.7207031","0.34765625","21.125","-7.875","-11.75"
"1573591090860","385","-0.59765625","-0.7861328","0.4248047","12.09375","-11.96875","-16.53125"
"1573591090860","386","-0.6308594","-0.81933594","0.47558594","-1.3125","-8.0625","-20.0625"
"1573591090860","387","-0.71972656","-0.8251953","0.6035156","-15.78125","14.8125","-35.0"
"1573591090861","388","-0.6298828","-1.09375","0.7060547","-47.53125","5.3125","-59.96875"
"1573591090861","389","-0.84472656","-1.2412109","0.625","-59.0625","-10.625","-68.46875"
"1573591091052","390","-0.67089844","-0.796875","0.52441406","-64.0","-5.0625","-37.09375"
"1573591091052","391","-0.5136719","-1.2568359","0.41992188","-122.46875","26.78125","-49.0625"
"1573591091052","392","-0.5625","-1.1982422","0.3701172","-65.65625","36.0","-60.40625"
"1573591091053","393","-0.42773438","-1.1621094","0.17089844","-58.34375","36.125","-54.0625"
"1573591091053","394","-0.1796875","-1.1357422","0.016601562","-24.65625","7.1875","-44.65625"
"1573591091053","395","-0.103515625","-0.9423828","-0.08105469","-40.3125","11.21875","-30.90625"
"1573591091053","396","-0.1171875","-1.0439453","-0.22363281","-16.9375","-0.25","-37.8125"
"1573591091054","397","-0.078125","-0.9296875","-0.12988281","-53.875","-7.59375","-46.0625"
"1573591091055","398","-0.01953125","-1.0332031","-0.19433594","-37.46875","-13.125","-46.46875"
"1573591091056","399","-0.1015625","-0.8486328","-0.041992188","-53.75","13.90625","-42.15625"
"1573591091451","400","-0.23730469","-1.0","-0.16601562","-38.1875","2.625","-23.53125"
"1573591091451","401","-0.14257812","-0.99316406","-0.12988281","-18.21875","1.15625","-15.0"
"1573591091451","402","-0.14648438","-1.0585938","-0.15722656","-5.71875","4.5","-4.96875"
"1573591091452","403","-0.1015625","-1.0400391","-0.13574219","0.3125","-3.5","-0.46875"
"1573591091452","404","-0.09082031","-1.0205078","-0.18359375","-5.78125","-6.0","0.6875"
"1573591091452","405","-0.060546875","-0.9863281","-0.18554688","4.71875","-9.53125","6.125"
"1573591091452","406","-0.17285156","-0.9355469","-0.18164062","-7.78125","-4.40625","7.09375"
"1573591091453","407","-0.26757812","-1.0390625","-0.018554688","-29.28125","24.34375","14.4375"
"1573591091453","408","-0.16601562","-0.8642578","-0.20214844","-39.96875","23.5","-4.25"
"1573591091454","409","-0.06738281","-0.95214844","-0.19042969","40.1875","-24.375","-0.65625"
"1573591092045","410","-0.087890625","-1.0234375","-0.1328125","26.5","-17.71875","8.6875"
"1573591092045","411","-0.08496094","-1.0517578","-0.21679688","47.5","-31.8125","23.15625"
"1573591092045","412","-0.23925781","-1.0585938","-0.10253906","21.5625","-14.34375","21.03125"
"1573591092046","413","-0.19238281","-0.95214844","-0.099609375","24.84375","-4.34375","17.84375"
"1573591092046","414","-0.21679688","-1.0146484","-0.020507812","29.6875","1.75","12.90625"
"1573591092046","415","-0.16210938","-0.953125","-0.038085938","47.9375","-2.15625","15.53125"
"1573591092046","416","-0.13378906","-0.93359375","-0.02734375","46.46875","-7.6875","25.125"
"1573591092047","417","-0.19628906","-0.93847656","0.001953125","56.28125","-3.1875","44.65625"
"1573591092047","418","-0.22167969","-0.8408203","-0.0048828125","69.84375","1.15625","54.21875"
"1573591092047","419","-0.2578125","-0.91796875","0.041015625","94.4375","-8.3125","67.46875"
"1573591092246","420","-0.21679688","-1.0986328","0.08984375","169.6875","-45.0625","80.09375"
"1573591092248","421","-0.31347656","-0.9277344","0.2548828","113.25","-29.6875","86.28125"
"1573591092249","422","-0.47265625","-0.96875","0.38867188","65.8125","-27.21875","81.1875"
"1573591092249","423","-0.55566406","-0.82714844","0.3984375","55.75","-11.125","76.6875"
"1573591092249","424","-0.5751953","-0.79296875","0.4609375","69.40625","-1.78125","79.75"
"1573591092250","425","-0.7783203","-0.66503906","0.77246094","84.25","8.34375","76.0"
"1573591092250","426","-0.97753906","-0.7294922","0.8300781","74.0","8.40625","56.71875"
"1573591092250","427","-0.86816406","-0.640625","0.79003906","40.25","26.78125","36.71875"
"1573591092251","428","-0.7998047","-0.53222656","0.74609375","45.84375","0.0625","27.5625"
"1573591092251","429","-0.80566406","-0.5292969","0.77734375","41.53125","-4.78125","25.21875"
"1573591092643","430","-0.8095703","-0.5097656","0.7294922","35.0","-3.0625","26.6875"
"1573591092644","431","-0.66503906","-0.46875","0.63964844","48.25","-36.5625","23.40625"
"1573591092644","432","-0.69433594","-0.52246094","0.7050781","33.84375","-32.0625","27.4375"
"1573591092645","433","-0.85546875","-0.43652344","0.7597656","37.75","-34.5625","15.28125"
"1573591092645","434","-0.80078125","-0.44140625","0.7265625","14.0625","-19.3125","-1.5"
"1573591092645","435","-0.71777344","-0.44335938","0.69921875","-11.9375","-9.65625","-23.03125"
"1573591092646","436","-0.640625","-0.40722656","0.5957031","-32.40625","-7.9375","-41.53125"
"1573591092646","437","-0.515625","-0.4404297","0.5683594","-46.1875","-3.0625","-44.21875"
"1573591092646","438","-0.5078125","-0.48242188","0.52734375","-80.625","12.25","-47.71875"
"1573591092647","439","-0.49023438","-0.5205078","0.40722656","-101.84375","23.4375","-58.25"
"1573591093235","440","-0.45410156","-0.49414062","0.39648438","-117.59375","28.875","-64.1875"
"1573591093235","441","-0.4873047","-0.48828125","0.35839844","-102.28125","21.71875","-67.40625"
"1573591093236","442","-0.34472656","-0.4736328","0.32128906","-88.53125","-2.15625","-63.21875"
"1573591093236","443","-0.33691406","-0.53125","0.32421875","-85.5","-0.375","-63.625"
"1573591093236","444","-0.42285156","-0.60058594","0.23925781","-82.125","2.5625","-66.625"
"1573591093237","445","-0.33203125","-0.6816406","0.28320312","-83.96875","-4.03125","-56.1875"
"1573591093238","446","-0.3564453","-0.7138672","0.22363281","-66.6875","-15.5625","-51.84375"
"1573591093238","447","-0.37695312","-0.79589844","0.22851562","-77.0625","0.78125","-45.1875"
"1573591093240","448","-0.38671875","-0.8574219","0.19238281","-64.6875","-7.8125","-38.125"
"1573591093240","449","-0.3173828","-0.8769531","0.15820312","-61.625","-5.6875","-38.5625"
"1573591093437","450","-0.30273438","-0.9003906","0.087890625","-61.1875","-4.03125","-41.90625"
"1573591093438","451","-0.29492188","-0.9033203","0.030273438","-83.71875","-19.59375","-39.78125"
"1573591093438","452","-0.19042969","-0.85546875","-0.052734375","-113.625","-4.09375","-29.34375"
"1573591093438","453","-0.22070312","-0.8388672","0.043945312","-71.8125","17.5625","-32.625"
"1573591093439","454","-0.26367188","-0.9472656","-0.17089844","-45.6875","2.625","-13.09375"
"1573591093439","455","-0.25683594","-1.2236328","-0.19726562","-10.46875","-10.625","1.78125"
"1573591093439","456","-0.2548828","-1.1123047","-0.16699219","-11.65625","-22.09375","-12.125"
"1573591093441","457","-0.18164062","-0.86621094","-0.20605469","-2.78125","-14.40625","-10.03125"
"1573591093441","458","-0.11816406","-0.9091797","-0.14941406","4.84375","-15.03125","-1.3125"
"1573591093442","459","-0.1875","-0.94140625","-0.17382812","7.46875","-11.59375","7.78125"
"1573591093836","460","-0.13671875","-1.046875","-0.14257812","9.28125","-8.90625","12.59375"
"1573591093836","461","-0.26171875","-1.0253906","-0.115234375","18.625","-20.9375","20.84375"
"1573591093836","462","-0.26367188","-0.9248047","-0.07324219","36.6875","-30.21875","30.71875"
"1573591093837","463","-0.3017578","-0.8095703","0.0390625","56.0625","-19.84375","36.46875"
"1573591093837","464","-0.2578125","-0.77246094","0.0234375","80.09375","-7.40625","42.5625"
"1573591093837","465","-0.32128906","-0.78222656","0.055664062","85.53125","-10.625","59.09375"
"1573591093837","466","-0.38183594","-0.6425781","0.09863281","85.46875","30.875","64.84375"
"1573591093838","467","-0.31054688","-0.51660156","0.06542969","125.875","27.28125","65.9375"
"1573591093838","468","-0.24707031","-0.7753906","0.111328125","104.75","15.125","76.9375"
"1573591093839","469","-0.34179688","-0.67871094","0.14355469","88.09375","35.625","64.0"
"1573591094231","470","-0.24707031","-0.62890625","0.2783203","108.71875","-8.625","55.6875"
"1573591094232","471","-0.37109375","-0.6611328","0.19824219","90.15625","-31.75","54.21875"
"1573591094232","472","-0.515625","-0.80566406","0.24707031","51.40625","7.0","35.71875"
"1573591094232","473","-0.484375","-0.62890625","0.1875","55.9375","-18.375","35.1875"
"1573591094233","474","-0.29589844","-0.64453125","0.32714844","36.5625","-30.53125","44.6875"
"1573591094233","475","-0.43652344","-0.57910156","0.3798828","34.875","-35.40625","10.78125"
"1573591094233","476","-0.8671875","-0.53808594","0.4951172","0.5","-17.21875","13.75"
"1573591094233","477","-0.7138672","-0.7470703","0.43847656","13.4375","-22.78125","13.40625"
"1573591094234","478","-0.8144531","-0.71777344","0.6660156","-6.875","5.71875","1.625"
"1573591094234","479","-0.8076172","-0.6484375","0.5830078","-15.59375","11.34375","-15.21875"
"1573591094629","480","-0.703125","-0.875","0.6982422","-49.0","19.75","-23.40625"
"1573591094630","481","-0.8261719","-0.9091797","0.55078125","-59.0","18.4375","-53.4375"
"1573591094631","482","-0.5761719","-0.91308594","0.45214844","-61.3125","32.03125","-86.53125"
"1573591094631","483","-0.7578125","-1.1494141","0.5029297","-102.65625","64.5625","-82.6875"
"1573591094631","484","-1.1455078","-1.7490234","0.62402344","-83.125","62.90625","-86.21875"
"1573591094632","485","-0.70410156","-1.3369141","0.26953125","5.28125","-8.96875","-86.78125"
"1573591094632","486","-0.15039062","-1.0253906","-0.07910156","-14.15625","-17.21875","-48.8125"
"1573591094632","487","0.059570312","-0.7832031","-0.06738281","-42.09375","-3.375","-49.90625"
"1573591094632","488","-0.0087890625","-0.6923828","-0.10546875","-59.1875","-19.34375","-38.375"
"1573591094633","489","-0.0126953125","-0.71875","-0.06738281","-52.90625","-27.125","-41.71875"
"1573591095028","490","-0.23535156","-0.9091797","-0.13085938","-50.21875","-0.3125","-49.90625"
"1573591095029","491","-0.26953125","-0.8886719","0.080078125","-63.40625","14.53125","-41.59375"
"1573591095029","492","-0.34765625","-1.0751953","-0.009765625","-36.84375","-1.21875","-40.0"
"1573591095030","493","-0.23535156","-1.1201172","-0.09082031","-25.125","-3.5","-27.125"
"1573591095031","494","-0.115234375","-1.1611328","-0.11328125","-20.96875","-8.1875","-12.5"
"1573591095031","495","-0.11230469","-0.9921875","-0.1796875","-15.1875","-2.375","-2.90625"
"1573591095031","496","-0.0078125","-0.99902344","-0.21289062","-5.34375","-5.6875","1.71875"
"1573591095031","497","0.005859375","-0.9277344","-0.21875","-9.3125","-7.34375","-6.375"
"1573591095032","498","-0.0703125","-0.96484375","-0.17578125","-10.3125","-11.84375","-2.40625"
"1573591095032","499","-0.12207031","-0.9453125","-0.17675781","-9.875","-3.90625","4.84375"
"1573591095426","500","-0.20117188","-1.046875","-0.15527344","2.75","0.28125","11.8125"
"1573591095426","501","-0.16699219","-1.0351562","-0.15917969","8.125","-0.5","8.625"
"1573591095426","502","-0.18261719","-1.0126953","-0.10644531","13.5","0.53125","4.40625"
"1573591095427","503","-0.12011719","-1.0","-0.16308594","20.65625","-5.75","14.4375"
"1573591095427","504","-0.080078125","-0.96972656","-0.15332031","26.1875","-6.34375","19.9375"
"1573591095428","505","-0.11816406","-0.9248047","-0.14257812","28.46875","-10.375","25.0625"
"1573591095429","506","-0.16601562","-0.9267578","-0.123046875","88.21875","-31.125","38.96875"
"1573591095429","507","-0.26660156","-0.96191406","-0.08203125","108.0","-66.40625","53.4375"
"1573591095429","508","-0.21289062","-0.9970703","0.017578125","90.53125","-27.59375","54.84375"
"1573591095429","509","-0.3330078","-0.97265625","0.123046875","72.90625","3.34375","40.625"
"1573591095823","510","-0.29101562","-0.9667969","0.17480469","75.21875","0.125","44.03125"
"1573591095824","511","-0.28125","-0.9375","0.16796875","66.59375","9.875","38.59375"
"1573591095824","512","-0.3330078","-0.8886719","0.22070312","68.0625","1.8125","45.75"
"1573591095824","513","-0.41015625","-0.8183594","0.265625","80.46875","0.71875","55.125"
"1573591095824","514","-0.4326172","-0.8203125","0.29101562","86.0625","1.875","60.8125"
"1573591095825","515","-0.47460938","-0.7705078","0.4560547","82.09375","-2.6875","62.03125"
"1573591095825","516","-0.37890625","-0.7451172","0.45703125","109.8125","-27.84375","69.65625"
"1573591095826","517","-0.64453125","-0.6044922","0.81152344","125.5","-37.59375","95.78125"
"1573591095826","518","-0.9951172","-0.375","1.0410156","103.40625","-13.625","89.875"
"1573591095826","519","-0.84277344","-0.7236328","0.9921875","84.1875","-24.78125","53.6875"
"1573591096220","520","-0.76464844","-0.4970703","0.93652344","37.5","-14.71875","22.59375"
"1573591096220","521","-0.8222656","-0.48632812","0.9863281","35.28125","-35.28125","3.25"
"1573591096220","522","-0.6855469","-0.48339844","0.97265625","-3.9375","-27.46875","-7.25"
"1573591096221","523","-0.7675781","-0.5048828","0.9013672","-36.78125","-10.6875","-22.625"
"1573591096221","524","-0.6738281","-0.484375","0.69628906","-81.46875","5.96875","-18.84375"
"1573591096221","525","-0.47753906","-0.5996094","0.7001953","-40.6875","12.875","-2.71875"
"1573591096221","526","-0.63671875","-0.5878906","0.6328125","-38.8125","-6.0","-27.75"
"1573591096221","527","-0.61816406","-0.54003906","0.56347656","-58.03125","5.84375","-29.53125"
"1573591096222","528","-0.6044922","-0.61328125","0.5371094","-94.65625","29.28125","-39.78125"
"1573591096223","529","-0.5419922","-0.6660156","0.45703125","-96.46875","28.875","-47.03125"
"1573591096617","530","-0.39453125","-0.64746094","0.4111328","-73.84375","3.96875","-55.28125"
"1573591096617","531","-0.4423828","-0.6152344","0.37402344","-102.53125","10.0","-57.96875"
"1573591096617","532","-0.4267578","-0.6201172","0.28222656","-98.25","16.28125","-62.09375"
"1573591096618","533","-0.29882812","-0.6611328","0.22558594","-90.375","-2.15625","-61.8125"
"1573591096618","534","-0.328125","-0.63378906","0.19238281","-111.4375","1.15625","-54.46875"
"1573591096618","535","-0.2998047","-0.60253906","0.20214844","-101.375","15.96875","-49.65625"
"1573591096618","536","-0.26757812","-0.65722656","0.17480469","-74.4375","6.9375","-49.90625"
"1573591096619","537","-0.30566406","-0.7138672","0.078125","-63.21875","-0.1875","-38.65625"
"1573591096619","538","-0.2626953","-0.7324219","0.099609375","-59.0","0.90625","-34.03125"
"1573591096619","539","-0.203125","-0.8251953","0.083984375","-42.21875","4.4375","-27.0"
"1573591097212","540","-0.23925781","-0.9169922","-0.00390625","-40.3125","17.25","-29.5625"
"1573591097214","541","-0.22753906","-0.90722656","0.041992188","-40.5","10.65625","-25.90625"
"1573591097214","542","-0.2109375","-0.8857422","0.0078125","-40.625","-11.71875","-21.9375"
"1573591097214","543","-0.16992188","-0.8779297","-0.20605469","-62.46875","-1.78125","-21.28125"
"1573591097215","544","-0.11425781","-0.9345703","-0.20996094","-35.125","-8.25","-11.375"
"1573591097215","545","-0.19824219","-0.9580078","-0.01953125","-19.75","-21.90625","-3.40625"
"1573591097216","546","-0.2763672","-1.0546875","-0.07324219","-16.84375","-14.46875","-3.75"
"1573591097216","547","-0.17871094","-1.1337891","-0.1171875","10.21875","-9.09375","-4.5625"
"1573591097216","548","-0.20605469","-1.0048828","-0.095703125","13.03125","-17.28125","-4.125"
"1573591097216","549","-0.21972656","-0.9423828","-0.12792969","15.9375","-12.59375","-1.0625"
"1573591097413","550","-0.15234375","-0.93652344","-0.13378906","25.28125","-1.96875","4.34375"
"1573591097413","551","-0.19335938","-0.96875","-0.10839844","19.5","-4.46875","11.4375"
"1573591097413","552","-0.23535156","-0.9638672","-0.040039062","21.0625","-8.75","15.78125"
"1573591097415","553","-0.2734375","-0.96191406","0.0234375","16.5625","-43.53125","21.21875"
"1573591097415","554","-0.20800781","-0.90527344","0.056640625","50.0625","-11.78125","24.8125"
"1573591097416","555","-0.29589844","-0.953125","0.016601562","57.5625","-13.125","29.1875"
"1573591097416","556","-0.2421875","-0.76660156","0.038085938","75.59375","-37.90625","45.0"
"1573591097416","557","-0.22851562","-0.546875","0.08691406","66.0625","-11.125","47.09375"
"1573591097416","558","-0.34472656","-0.44726562","-0.091796875","103.59375","9.375","56.59375"
"1573591097418","559","-0.35742188","-0.5751953","0.047851562","118.5625","31.1875","75.90625"
"1573591098009","560","-0.27148438","-0.625","0.15039062","112.625","15.0625","78.6875"
"1573591098010","561","-0.29882812","-0.64746094","0.28808594","112.125","0.40625","65.34375"
"1573591098010","562","-0.49609375","-0.6220703","0.2705078","99.1875","-11.0","64.78125"
"1573591098010","563","-0.5234375","-0.75390625","0.29296875","70.9375","11.84375","56.375"
"1573591098010","564","-0.4248047","-0.75390625","0.26367188","76.25","-18.75","38.46875"
"1573591098012","565","-0.5595703","-0.55078125","0.4091797","22.78125","-7.21875","36.875"
"1573591098012","566","-0.63671875","-0.54589844","0.26953125","69.96875","-20.9375","19.0625"
"1573591098012","567","-0.68066406","-0.6435547","0.34277344","38.09375","15.125","21.3125"
"1573591098013","568","-0.69921875","-0.5800781","0.70410156","47.0","30.625","20.28125"
"1573591098013","569","-0.68066406","-0.6894531","0.75","38.78125","2.84375","-12.71875"
"1573591098406","570","-0.71777344","-0.73535156","0.68652344","-0.46875","4.1875","-36.65625"
"1573591098407","571","-1.0537109","-0.8359375","0.93066406","-46.0","16.59375","-37.5"
"1573591098407","572","-0.80371094","-0.95703125","0.7167969","-42.28125","1.8125","-65.40625"
"1573591098407","573","-0.6669922","-0.9248047","0.6611328","-84.9375","-1.28125","-67.1875"
"1573591098408","574","-0.6621094","-1.1816406","0.5839844","-62.375","1.5625","-76.5625"
"1573591098408","575","-0.64160156","-1.1347656","0.46777344","-78.15625","21.78125","-77.71875"
"1573591098408","576","-0.5625","-1.1162109","0.41796875","-68.9375","1.46875","-64.4375"
"1573591098410","577","-0.35839844","-1.0947266","0.16796875","-67.125","-4.03125","-58.15625"
"1573591098410","578","-0.19824219","-0.9189453","0.06347656","-64.0625","-4.21875","-60.34375"
"1573591098410","579","-0.10058594","-0.88183594","0.083984375","-52.78125","-26.5","-55.53125"
"1573591098604","580","-0.15820312","-0.82910156","-0.040039062","-52.71875","-42.0","-57.71875"
"1573591098605","581","-0.234375","-0.59375","0.040039062","-71.53125","16.46875","-61.8125"
"1573591098605","582","-0.23046875","-0.85058594","-0.06542969","-36.71875","17.9375","-25.71875"
"1573591098605","583","-0.1328125","-0.98828125","0.032226562","-19.8125","-0.375","-23.15625"
"1573591098606","584","-0.24707031","-1.0546875","-0.005859375","-9.375","2.96875","-8.71875"
"1573591098606","585","-0.18945312","-1.1474609","-0.025390625","-14.09375","-1.46875","-1.375"
"1573591098606","586","-0.17773438","-1.0791016","-0.026367188","-11.40625","-1.78125","-4.5"
"1573591098606","587","-0.12402344","-1.0712891","-0.06640625","-9.1875","-5.8125","-2.0625"
"1573591098607","588","-0.060546875","-1.0097656","-0.10644531","-9.6875","-4.90625","-9.0"
"1573591098607","589","-0.078125","-0.9667969","-0.0859375","-11.46875","-8.125","-6.4375"
"1573591099003","590","-0.13867188","-0.94628906","-0.048828125","-15.90625","-1.78125","-2.40625"
"1573591099004","591","-0.16796875","-0.92871094","-0.0703125","1.46875","-3.5625","3.25"
"1573591099004","592","-0.10644531","-0.99316406","-0.022460938","6.375","-3.78125","8.5"
"1573591099004","593","-0.17480469","-0.9609375","-0.037109375","6.125","-0.375","7.46875"
"1573591099004","594","-0.18847656","-0.9892578","-0.00390625","13.09375","-1.96875","11.3125"
"1573591099005","595","-0.12207031","-1.0","-0.09472656","26.75","-13.9375","12.34375"
"1573591099005","596","-0.14160156","-0.94140625","-0.06933594","34.0625","-15.15625","22.59375"
"1573591099005","597","-0.19335938","-0.9355469","-0.13671875","51.78125","-19.46875","27.375"
"1573591099006","598","-0.16601562","-0.9863281","-0.09375","63.3125","-10.625","37.0625"
"1573591099006","599","-0.09863281","-1.0029297","-0.055664062","99.0625","-13.6875","55.125"
"1573591099401","600","-0.08300781","-1.1279297","-0.0087890625","127.03125","-20.28125","77.34375"
"1573591099402","601","-0.19921875","-0.984375","0.20214844","134.90625","-1.0","97.625"
"1573591099403","602","-0.40625","-1.0751953","0.34375","115.3125","-5.75","96.34375"
"1573591099403","603","-0.4111328","-0.87597656","0.43945312","84.78125","-29.96875","80.96875"
"1573591099403","604","-0.5966797","-0.7792969","0.46875","86.125","-35.28125","87.125"
"1573591099403","605","-0.74316406","-0.47753906","0.7285156","80.78125","-6.59375","88.59375"
"1573591099404","606","-0.8203125","-0.5830078","0.8671875","76.8125","3.15625","70.28125"
"1573591099404","607","-0.8144531","-0.60546875","0.95410156","71.96875","-7.03125","63.3125"
"1573591099405","608","-0.8779297","-0.57714844","0.8222656","45.625","4.375","60.4375"
"1573591099405","609","-0.81152344","-0.63183594","0.84472656","-6.03125","21.09375","34.15625"
"1573591099996","610","-0.75390625","-0.6230469","0.7675781","-43.75","12.4375","6.75"
"1573591099997","611","-0.78222656","-0.5654297","0.7421875","-61.625","25.875","-7.40625"
"1573591099997","612","-0.81152344","-0.5576172","0.6503906","-59.0","21.96875","-32.03125"
"1573591099999","613","-0.75878906","-0.57714844","0.6044922","-29.9375","10.71875","-25.71875"
"1573591100000","614","-0.73046875","-0.6347656","0.5605469","-8.15625","2.75","-28.71875"
"1573591100000","615","-0.7265625","-0.5810547","0.4970703","-9.375","0.71875","-20.3125"
"1573591100001","616","-0.62402344","-0.48632812","0.42871094","0.6875","10.1875","-23.28125"
"1573591100001","617","-0.5263672","-0.66796875","0.3642578","-13.53125","-1.28125","-29.34375"
"1573591100002","618","-0.5703125","-0.49316406","0.41308594","-35.4375","-24.25","-32.5625"
"1573591100002","619","-0.5517578","-0.5214844","0.28320312","-51.8125","-4.03125","-41.46875"
"1573591100195","620","-0.42089844","-0.5048828","0.3642578","-69.375","1.40625","-48.625"
"1573591100195","621","-0.49316406","-0.5722656","0.24121094","-64.875","-6.25","-49.28125"
"1573591100196","622","-0.41601562","-0.63671875","0.2626953","-75.71875","15.4375","-54.78125"
"1573591100196","623","-0.4013672","-0.546875","0.21386719","-73.53125","7.0","-56.5"
"1573591100196","624","-0.35351562","-0.6464844","0.22851562","-82.9375","6.03125","-52.28125"
"1573591100197","625","-0.4013672","-0.6875","0.1875","-73.15625","2.8125","-55.875"
"1573591100197","626","-0.3857422","-0.6933594","0.13378906","-71.21875","5.84375","-53.0"
"1573591100197","627","-0.31445312","-0.7753906","0.13378906","-58.15625","9.5","-47.15625"
"1573591100197","628","-0.3203125","-0.84277344","0.07910156","-53.5625","5.96875","-42.875"
"1573591100198","629","-0.30859375","-0.8798828","0.038085938","-45.40625","2.5","-39.03125"
"1573591100593","630","-0.265625","-0.92578125","0.015625","-23.25","6.09375","-33.0625"
"1573591100593","631","-0.25","-0.9501953","0.032226562","-27.625","-1.0625","-26.21875"
"1573591100594","632","-0.23144531","-0.9296875","0.015625","-16.40625","6.71875","-26.78125"
"1573591100594","633","-0.27734375","-0.9501953","-0.05078125","-12.3125","-4.71875","-13.9375"
"1573591100594","634","-0.1875","-1.0458984","0.0126953125","-5.90625","6.15625","-11.375"
"1573591100595","635","-0.3232422","-0.9707031","-0.051757812","-11.15625","-3.90625","-5.96875"
"1573591100595","636","-0.22363281","-1.0117188","-0.036132812","-14.09375","12.9375","-6.5625"
"1573591100596","637","-0.2529297","-0.9345703","-0.078125","-4.0","6.53125","-5.28125"
"1573591100596","638","-0.18945312","-1.0087891","-0.0703125","-6.4375","5.71875","-5.84375"
"1573591100596","639","-0.21191406","-0.9580078","-0.08691406","-1.8125","5.65625","-6.09375"
"1573591100990","640","-0.20410156","-0.99121094","-0.05859375","-2.125","-2.875","-2.96875"
"1573591100991","641","-0.24609375","-0.9824219","-0.053710938","2.53125","-7.03125","1.78125"
"1573591100991","642","-0.28710938","-0.9658203","-0.056640625","3.75","-12.28125","7.15625"
"1573591100991","643","-0.25585938","-0.9326172","-0.061523438","9.0625","-11.25","11.75"
"1573591100991","644","-0.28125","-0.9296875","-0.0126953125","27.84375","-11.78125","19.0"
"1573591100992","645","-0.31445312","-0.9111328","-0.024414062","24.84375","-11.78125","23.46875"
"1573591100992","646","-0.2919922","-0.88378906","0.029296875","36.21875","-11.25","28.09375"
"1573591100992","647","-0.23242188","-0.8769531","0.041015625","42.1875","-28.5625","36.46875"
"1573591100992","648","-0.26464844","-0.8769531","0.0546875","34.0","-34.4375","43.46875"
"1573591100994","649","-0.30371094","-0.8652344","0.15527344","31.09375","0.46875","43.1875"
"1573591101388","650","-0.40234375","-0.828125","0.1875","64.53125","-5.25","31.59375"
"1573591101389","651","-0.3310547","-0.7216797","0.13867188","87.78125","-13.3125","27.25"
"1573591101389","652","-0.24121094","-0.6591797","0.16894531","118.5","-12.78125","24.375"
"1573591101389","653","-0.2783203","-0.53515625","0.22949219","73.875","20.6875","31.9375"
"1573591101390","654","-0.29003906","-0.5136719","0.2626953","98.40625","13.59375","51.71875"
"1573591101390","655","-0.14550781","-0.53808594","0.2578125","117.5","-14.84375","64.0625"
"1573591101390","656","-0.38183594","-0.5234375","0.36914062","63.125","-27.15625","70.21875"
"1573591101390","657","-0.5957031","-0.54785156","0.4169922","85.96875","13.0625","57.40625"
"1573591101390","658","-0.61816406","-0.7939453","0.4736328","76.875","-4.03125","51.1875"
"1573591101391","659","-0.4794922","-0.7236328","0.515625","61.40625","-33.6875","45.875"
"1573591101784","660","-0.63183594","-0.5673828","0.43945312","16.125","-10.9375","22.375"
"1573591101785","661","-0.60058594","-0.5703125","0.50878906","31.21875","-9.71875","39.15625"
"1573591101785","662","-0.5332031","-0.5625","0.58203125","5.03125","-22.40625","19.125"
"1573591101786","663","-0.67089844","-0.4375","0.5986328","46.90625","-48.96875","5.6875"
"1573591101786","664","-0.6269531","-0.5644531","0.6064453","-26.96875","-27.40625","-13.65625"
"1573591101786","665","-0.765625","-0.73535156","0.78222656","-51.9375","-7.8125","-39.96875"
"1573591101786","666","-0.7871094","-0.8203125","0.84375","-85.90625","16.78125","-62.09375"
"1573591101787","667","-0.8027344","-0.9238281","0.9638672","-76.65625","31.25","-77.0625"
"1573591101787","668","-0.66015625","-0.9160156","0.61621094","-104.65625","36.5","-75.40625"
"1573591101787","669","-0.76464844","-1.2714844","0.68359375","-107.40625","77.25","-84.4375"
"1573591102182","670","-0.71484375","-1.1875","0.6015625","-72.25","65.25","-104.84375"
"1573591102183","671","-0.4560547","-1.1621094","0.28515625","-66.28125","9.28125","-97.5"
"1573591102183","672","-0.029296875","-1.0546875","0.0146484375","-59.125","-37.84375","-89.03125"
"1573591102183","673","0.1640625","-0.91015625","-0.115234375","-75.0","-17.65625","-84.5625"
"1573591102184","674","-0.044921875","-0.796875","-0.15527344","-83.0","-6.25","-59.96875"
"1573591102184","675","-0.041015625","-0.8300781","-0.09375","-85.8125","12.625","-48.375"
"1573591102184","676","-0.0107421875","-0.8417969","-0.068359375","-64.3125","6.875","-35.5"
"1573591102185","677","-0.08886719","-0.93066406","-0.10839844","-39.40625","16.21875","-28.28125"
"1573591102185","678","-0.041015625","-1.0488281","-0.08984375","-29.46875","14.09375","-19.6875"
"1573591102186","679","-0.1015625","-1.1630859","-0.078125","-19.5","14.625","-17.5625"
"1573591102580","680","-9.765625E-4","-1.0322266","-0.1875","-11.21875","-4.71875","-10.90625"
"1573591102581","681","0.005859375","-1.0986328","-0.19433594","-8.21875","-9.96875","-7.40625"
"1573591102581","682","0.080078125","-1.0273438","-0.21582031","1.59375","-7.46875","2.96875"
"1573591102581","683","0.028320312","-1.0019531","-0.23144531","-3.59375","-6.96875","3.5625"
"1573591102582","684","0.018554688","-0.92285156","-0.17285156","-5.46875","-5.125","2.09375"
"1573591102583","685","-0.06933594","-0.97265625","-0.05859375","-19.875","-1.40625","5.53125"
"1573591102584","686","0.009765625","-0.8310547","-0.23828125","4.28125","-7.46875","10.03125"
"1573591102584","687","-0.060546875","-0.96972656","-0.25","39.25","-16.375","26.15625"
"1573591102584","688","-0.013671875","-1.0458984","-0.22753906","62.8125","-24.375","40.6875"
"1573591102584","689","-0.040039062","-1.0703125","-0.18847656","83.9375","-26.4375","46.65625"
"1573591102978","690","-0.01953125","-1.0166016","-0.18164062","92.0","-17.34375","55.875"
"1573591102979","691","-0.07421875","-1.0097656","-0.072265625","109.9375","-21.90625","66.90625"
"1573591102979","692","-0.1015625","-0.92871094","0.03125","106.15625","-8.0625","82.1875"
"1573591102979","693","-0.123046875","-0.8564453","0.030273438","124.03125","-11.0625","108.90625"
"1573591102979","694","-0.34277344","-1.078125","0.23925781","151.625","0.96875","120.25"
"1573591102980","695","-0.5205078","-0.9824219","0.46777344","127.9375","-17.40625","104.8125"
"1573591102980","696","-0.45703125","-0.9482422","0.6582031","141.9375","-2.21875","90.90625"
"1573591102981","697","-0.71191406","-0.6533203","1.015625","105.4375","-1.09375","99.21875"
"1573591102982","698","-1.1376953","-0.6796875","1.0419922","82.40625","-1.21875","92.84375"
"1573591102982","699","-0.98339844","-0.66796875","1.0117188","34.9375","7.0625","45.625"
"1573591103375","700","-0.6816406","-0.45214844","0.7998047","28.875","-30.21875","20.71875"
"1573591103375","701","-0.53125","-0.47753906","0.66796875","-9.625","-40.40625","49.9375"
"1573591103376","702","-0.83496094","-0.53515625","0.7480469","6.0","-37.59375","45.9375"
"1573591103376","703","-0.84277344","-0.50683594","0.79589844","-42.9375","14.34375","5.53125"
"1573591103376","704","-0.89941406","-0.546875","0.68359375","-35.625","-6.34375","-31.46875"
"1573591103377","705","-0.7480469","-0.50097656","0.5996094","-63.71875","8.40625","-47.34375"
"1573591103377","706","-0.56152344","-0.5419922","0.6542969","-101.5","27.875","-46.96875"
"1573591103377","707","-0.64941406","-0.7578125","0.4873047","-74.625","1.6875","-55.9375"
"1573591103378","708","-0.6064453","-0.56347656","0.35058594","-81.71875","24.90625","-65.65625"
"1573591103379","709","-0.42578125","-0.48535156","0.32910156","-91.09375","32.9375","-62.0625"
"1573591103772","710","-0.31445312","-0.4892578","0.29785156","-59.75","23.4375","-73.46875"
"1573591103772","711","-0.30078125","-0.50878906","0.25683594","-67.3125","11.9375","-71.15625"
"1573591103773","712","-0.31933594","-0.46875","0.25097656","-78.09375","10.375","-57.65625"
"1573591103773","713","-0.27148438","-0.59765625","0.17285156","-80.5625","12.25","-43.125"
"1573591103773","714","-0.32910156","-0.5996094","0.13964844","-70.34375","8.15625","-45.15625"
"1573591103773","715","-0.35253906","-0.60058594","0.140625","-64.625","12.8125","-45.5"
"1573591103774","716","-0.30664062","-0.67089844","0.078125","-57.65625","17.9375","-47.03125"
"1573591103774","717","-0.36816406","-0.8613281","-0.07421875","-66.21875","42.90625","-37.34375"
"1573591103774","718","-0.4013672","-0.88671875","0.03125","-105.5625","100.9375","-52.53125"
"1573591103774","719","-0.18164062","-0.79296875","0.20410156","-153.59375","47.15625","-54.0"
"1573591104170","720","-0.07421875","-1.0322266","-0.07519531","-27.6875","-15.28125","-19.375"
"1573591104171","721","-0.22949219","-0.9433594","-0.19726562","-29.15625","-8.375","-20.65625"
"1573591104171","722","-0.3486328","-0.9580078","-0.06640625","-9.4375","-36.75","-7.65625"
"1573591104172","723","-0.3095703","-1.0048828","-0.2626953","-5.28125","-15.8125","-8.8125"
"1573591104172","724","-0.20898438","-0.9560547","-0.203125","-0.65625","-9.90625","-8.65625"
"1573591104172","725","-0.24023438","-0.9345703","-0.16308594","7.59375","-28.34375","-2.125"
"1573591104172","726","-0.24804688","-0.9189453","-0.19824219","17.03125","-17.65625","1.1875"
"1573591104173","727","-0.24511719","-0.9121094","-0.18554688","19.96875","-18.9375","8.6875"
"1573591104173","728","-0.26757812","-1.0126953","-0.15820312","19.1875","-13.5625","14.84375"
"1573591104173","729","-0.2685547","-1.09375","-0.103515625","21.625","-10.9375","17.84375"
"1573591104568","730","-0.35546875","-0.9033203","-0.05859375","32.0","-21.3125","16.9375"
"1573591104568","731","-0.28320312","-0.8076172","-0.07714844","44.21875","-9.09375","21.75"
"1573591104569","732","-0.24121094","-0.79589844","-0.09082031","61.1875","-21.75","39.15625"
"1573591104570","733","-0.20605469","-0.7089844","0.0126953125","70.4375","-39.0625","61.96875"
"1573591104571","734","-0.31640625","-0.5205078","0.07910156","91.6875","-40.46875","70.15625"
"1573591104571","735","-0.30859375","-0.4951172","0.11425781","98.09375","-6.59375","67.71875"
"1573591104571","736","-0.3720703","-0.53515625","0.19628906","88.40625","29.65625","62.78125"
"1573591104571","737","-0.28808594","-0.515625","0.17285156","155.28125","1.40625","64.0625"
"1573591104572","738","-0.3466797","-0.76953125","0.19433594","92.59375","0.0","70.71875"
"1573591104572","739","-0.3330078","-0.8046875","0.32714844","40.25","11.90625","46.03125"
"1573591105164","740","-0.35253906","-0.5878906","0.35742188","52.375","-25.59375","28.40625"
"1573591105164","741","-0.43945312","-0.66308594","0.33007812","53.46875","-52.5625","48.90625"
"1573591105165","742","-0.63671875","-0.71875","0.43847656","17.21875","-6.53125","25.46875"
"1573591105165","743","-0.98339844","-0.515625","0.43359375","17.0","6.40625","29.9375"
"1573591105165","744","-0.6669922","-0.6699219","0.3544922","38.21875","-5.3125","26.28125"
"1573591105166","745","-0.53222656","-0.8359375","0.44921875","33.78125","12.5625","-9.8125"
"1573591105166","746","-0.7890625","-0.7441406","0.5722656","-47.40625","38.5625","-33.0"
"1573591105166","747","-0.7949219","-1.0986328","0.5410156","-125.78125","69.5","-60.65625"
"1573591105167","748","-0.94628906","-1.2734375","0.50390625","-44.84375","16.09375","-81.40625"
"1573591105167","749","-0.5830078","-1.0009766","0.42773438","-85.96875","-0.125","-104.84375"
"1573591105759","750","-0.8125","-1.4765625","0.43359375","-94.28125","27.625","-97.5"
"1573591105760","751","-0.90527344","-1.5234375","0.4609375","-23.90625","24.15625","-65.84375"
"1573591105760","752","-0.37597656","-1.1552734","0.12207031","-52.78125","-2.75","-57.65625"
"1573591105760","753","-0.18164062","-0.92285156","-0.2705078","-26.65625","-10.5","-61.9375"
"1573591105760","754","-0.12402344","-0.75683594","-0.19238281","-24.28125","8.21875","-52.59375"
"1573591105760","755","-0.07421875","-0.83203125","-0.10546875","-35.5625","7.6875","-45.75"
"1573591105761","756","-0.0107421875","-0.84765625","-0.12109375","-12.75","0.71875","-56.8125"
"1573591105762","757","-0.08691406","-0.83691406","-0.16992188","-32.09375","8.65625","-66.375"
"1573591105762","758","-0.16601562","-1.0029297","-0.09277344","-46.625","20.4375","-47.03125"
"1573591105762","759","-0.14941406","-1.2753906","0.047851562","-47.09375","8.34375","-24.03125"
"1573591105959","760","-0.07910156","-1.0898438","-0.13964844","-36.3125","-19.1875","-22.8125"
"1573591105960","761","0.078125","-1.1669922","-0.14550781","-29.9375","-26.75","1.4375"
"1573591105960","762","-0.18261719","-1.0283203","-0.23925781","-8.21875","-35.65625","-2.0"
"1573591105960","763","-0.12207031","-0.9345703","-0.15625","-36.46875","-20.6875","-11.375"
"1573591105960","764","-0.01953125","-0.91503906","-0.234375","-19.9375","-14.21875","-14.5"
"1573591105961","765","-0.0234375","-0.7578125","-0.21875","-15.0625","0.96875","-14.25"
"1573591105961","766","-0.028320312","-0.9472656","-0.2548828","5.8125","1.8125","4.25"
"1573591105961","767","-0.0234375","-1.1005859","-0.17773438","11.4375","-5.0","3.75"
"1573591105961","768","-0.16601562","-1.0595703","-0.19042969","17.84375","-2.6875","7.28125"
"1573591105963","769","-0.099609375","-1.0605469","-0.1796875","12.40625","-2.4375","8.09375"
"1573591106357","770","-0.09667969","-0.9707031","-0.1328125","10.9375","4.03125","7.59375"
"1573591106357","771","-0.05859375","-0.91015625","-0.18652344","19.0","-6.0","15.03125"
"1573591106357","772","-0.076171875","-0.9003906","-0.23535156","41.09375","-16.90625","15.53125"
"1573591106358","773","-0.0625","-0.95996094","-0.17675781","61.59375","-19.34375","30.46875"
"1573591106358","774","-0.083984375","-1.0205078","-0.12695312","76.375","-14.71875","37.3125"
"1573591106358","775","-0.07324219","-1.0595703","-0.140625","89.90625","-13.3125","47.5625"
"1573591106359","776","-0.0126953125","-1.0664062","-0.119140625","107.6875","-10.25","57.28125"
"1573591106359","777","-0.0029296875","-1.0029297","-0.0390625","125.3125","-18.3125","82.53125"
"1573591106359","778","-0.17382812","-1.0488281","0.09472656","178.84375","-35.84375","127.90625"
"1573591106359","779","-0.22265625","-1.1269531","0.38476562","178.84375","-43.96875","122.9375"
"1573591106754","780","-0.45898438","-0.9375","0.5205078","134.90625","-16.3125","100.84375"
"1573591106755","781","-0.54785156","-0.85546875","0.71191406","105.96875","-33.75","76.6875"
"1573591106755","782","-0.71972656","-0.48632812","0.9658203","96.625","-35.71875","80.59375"
"1573591106756","783","-1.1035156","-0.484375","1.0107422","72.21875","-1.15625","85.53125"
"1573591106756","784","-0.65722656","-0.49023438","0.90527344","85.34375","-34.875","45.1875"
"1573591106756","785","-0.6816406","-0.3935547","0.9082031","85.90625","-54.21875","38.84375"
"1573591106757","786","-0.6894531","-0.29785156","0.9248047","48.28125","-20.53125","37.0"
"1573591106757","787","-0.6357422","-0.34960938","0.96484375","29.0625","0.53125","22.4375"
"1573591106757","788","-0.6875","-0.37402344","0.88378906","29.3125","-20.6875","10.53125"
"1573591106757","789","-0.5810547","-0.39160156","0.87890625","-4.0625","-4.40625","-1.625"
"1573591107150","790","-0.52734375","-0.48535156","0.8671875","-25.5625","-0.8125","-11.375"
"1573591107151","791","-0.59277344","-0.32617188","0.8066406","-47.96875","3.96875","-30.5"
"1573591107151","792","-0.53808594","-0.4501953","0.7451172","-55.71875","3.21875","-14.625"
"1573591107152","793","-0.46289062","-0.45898438","0.6015625","-68.9375","-0.25","-27.5"
"1573591107152","794","-0.39453125","-0.453125","0.5703125","-81.21875","11.59375","-41.34375"
"1573591107152","795","-0.45996094","-0.45117188","0.52246094","-89.15625","19.34375","-50.5"
"1573591107152","796","-0.4267578","-0.5292969","0.4873047","-120.09375","34.0","-52.15625"
"1573591107153","797","-0.37597656","-0.5058594","0.453125","-106.1875","17.4375","-69.5625"
"1573591107153","798","-0.36035156","-0.4921875","0.36523438","-105.5625","7.6875","-67.34375"
"1573591107153","799","-0.32421875","-0.5029297","0.35351562","-107.28125","10.65625","-59.0"
"1573591107549","800","-0.2998047","-0.58203125","0.31347656","-94.09375","8.34375","-55.53125"
"1573591107550","801","-0.3232422","-0.6386719","0.3076172","-87.375","4.25","-54.71875"
"1573591107550","802","-0.3046875","-0.72265625","0.23730469","-76.21875","-5.0625","-42.9375"
"1573591107550","803","-0.23046875","-0.79003906","0.22949219","-68.71875","1.34375","-35.875"
"1573591107551","804","-0.3310547","-0.82714844","0.17480469","-67.90625","16.03125","-36.96875"
"1573591107552","805","-0.359375","-0.8515625","0.13867188","-59.0","24.71875","-30.6875"
"1573591107552","806","-0.3779297","-0.8779297","0.11328125","-85.6875","34.90625","-35.4375"
"1573591107553","807","-0.2626953","-0.75390625","0.15722656","-86.40625","49.375","-29.34375"
"1573591107553","808","-0.23046875","-0.9550781","0.013671875","-39.34375","25.3125","-17.0625"
"1573591107553","809","-0.16699219","-1.1035156","0.013671875","-7.84375","18.65625","-10.53125"
"1573591107947","810","-0.15527344","-1.0966797","-0.1015625","-9.4375","-10.6875","-1.875"
"1573591107948","811","-0.12890625","-0.9658203","-0.0859375","-3.34375","-14.28125","-0.71875"
"1573591107948","812","-0.16699219","-0.92871094","-0.07421875","-4.9375","-21.90625","3.125"
"1573591107948","813","-0.19433594","-1.0078125","-0.08105469","-0.03125","-14.15625","4.96875"
"1573591107949","814","-0.20117188","-0.9794922","-0.017578125","-0.34375","-15.75","8.03125"
"1573591107949","815","-0.22167969","-1.0322266","-0.06738281","-0.34375","-12.03125","10.8125"
"1573591107949","816","-0.13769531","-0.9873047","0.032226562","10.03125","-26.75","16.3125"
"1573591107951","817","-0.31152344","-0.87890625","0.09082031","43.59375","-58.1875","33.71875"
"1573591107951","818","-0.29785156","-0.8261719","0.053710938","66.53125","-31.125","41.59375"
"1573591107951","819","-0.3642578","-0.6953125","0.1171875","85.21875","-35.40625","61.96875"
"1573591108543","820","-0.32226562","-0.5732422","0.10839844","100.34375","-30.65625","75.59375"
"1573591108544","821","-0.29589844","-0.4326172","0.18261719","104.5","-1.71875","75.09375"
"1573591108544","822","-0.24609375","-0.4345703","0.20605469","118.0","-10.625","69.375"
"1573591108544","823","-0.34375","-0.4375","0.16308594","88.46875","9.6875","72.65625"
"1573591108545","824","-0.23925781","-0.3984375","0.25683594","95.84375","10.0625","57.75"
"1573591108545","825","-0.37695312","-0.52734375","0.34570312","86.875","-24.25","65.5625"
"1573591108545","826","-0.84277344","-0.58691406","0.30566406","48.90625","33.375","60.625"
"1573591108545","827","-0.7998047","-0.7441406","0.27148438","57.5625","43.15625","42.03125"
"1573591108546","828","-0.25195312","-0.9160156","0.3671875","47.75","3.71875","6.0625"
"1573591108546","829","-0.5800781","-0.6142578","0.70703125","15.46875","-4.28125","1.0625"
"1573591108740","830","-0.8623047","-0.45703125","0.5263672","29.75","-42.96875","32.875"
"1573591108741","831","-1.0058594","-0.6699219","0.66796875","-30.4375","30.5625","47.4375"
"1573591108741","832","-0.9902344","-0.5205078","0.7246094","15.59375","20.0625","-11.15625"
"1573591108741","833","-0.75878906","-0.77734375","0.46289062","14.96875","-7.09375","-63.625"
"1573591108742","834","-0.79589844","-0.9140625","0.43847656","-66.625","4.03125","-43.375"
"1573591108742","835","-0.75878906","-0.7548828","0.50683594","-39.09375","27.75","-53.25"
"1573591108742","836","-0.8886719","-1.3017578","0.58691406","-70.125","25.9375","-67.125"
"1573591108742","837","-0.8857422","-1.1914062","0.5996094","-63.28125","53.59375","-101.40625"
"1573591108743","838","-0.7294922","-1.3388672","0.45898438","-53.15625","41.90625","-110.625"
"1573591108743","839","-0.36035156","-1.3076172","0.24511719","-72.84375","1.6875","-116.3125"
"1573591109139","840","-0.17773438","-1.0078125","0.06640625","-58.46875","5.46875","-106.3125"
"1573591109139","841","-0.020507812","-0.8886719","-0.09863281","-54.78125","-15.09375","-72.4375"
"1573591109140","842","0.12890625","-0.8125","-0.08203125","-59.8125","-19.40625","-61.5625"
"1573591109140","843","0.09082031","-0.8378906","0.09375","-55.03125","-41.21875","-29.75"
"1573591109140","844","-0.2939453","-0.7470703","-0.10644531","-54.5625","-16.0625","-42.34375"
"1573591109140","845","-0.5810547","-0.7167969","-0.20898438","-35.125","-10.6875","-30.96875"
"1573591109141","846","-0.091796875","-0.9980469","0.07519531","-26.71875","-5.3125","-12.71875"
"1573591109141","847","-0.1484375","-0.96484375","-0.119140625","-11.59375","-11.4375","-25.3125"
"1573591109141","848","-0.17871094","-1.1259766","-0.030273438","-14.21875","2.5","-6.625"
"1573591109142","849","-0.0048828125","-1.1708984","-0.12695312","-9.0625","-11.3125","-8.9375"
"1573591109537","850","-0.060546875","-1.0732422","-0.15332031","-9.625","-6.34375","-9.625"
"1573591109537","851","-0.08886719","-1.0664062","-0.14746094","-9.625","-0.8125","-4.75"
"1573591109538","852","-0.095703125","-1.0292969","-0.15234375","-6.5","3.96875","-5.53125"
"1573591109539","853","-0.07324219","-0.9589844","-0.14550781","-16.65625","-0.75","-6.5625"
"1573591109539","854","-0.06738281","-0.921875","-0.11328125","-7.25","-7.53125","4.65625"
"1573591109540","855","-0.14746094","-0.89160156","-0.07128906","-8.90625","-8.96875","7.59375"
"1573591109540","856","-0.14355469","-0.9267578","-0.109375","21.5","-26.25","14.0"
"1573591109540","857","-0.109375","-0.96875","-0.10839844","44.03125","-26.3125","18.28125"
"1573591109540","858","-0.083984375","-0.9794922","-0.20800781","72.21875","-31.125","23.65625"
"1573591109541","859","-0.041992188","-1.0117188","-0.20019531","85.40625","-22.84375","38.46875"
"1573591109934","860","-0.03515625","-1.0791016","-0.16503906","96.5","-5.8125","55.375"
"1573591109935","861","-0.068359375","-1.1113281","0.028320312","118.4375","1.875","70.28125"
"1573591109935","862","-0.03515625","-1.0488281","0.005859375","129.34375","-9.34375","83.21875"
"1573591109935","863","-0.21582031","-1.0449219","0.24414062","129.28125","-14.84375","101.96875"
"1573591109936","864","-0.40722656","-1.0527344","0.3642578","148.75","-39.0","107.875"
"1573591109936","865","-0.30371094","-1.1816406","0.45214844","128.75","-60.4375","80.40625"
"1573591109936","866","-0.7089844","-0.52441406","1.1396484","152.96875","-49.4375","105.8125"
"1573591109937","867","-1.3515625","-0.62890625","1.3837891","115.8125","-0.3125","93.96875"
"1573591109937","868","-0.41601562","-0.6953125","0.95410156","13.125","-30.96875","58.3125"
"1573591109938","869","-0.54589844","-0.5576172","0.9267578","38.09375","-44.625","35.4375"
"1573591110330","870","-0.78222656","-0.40820312","0.8935547","24.5625","-62.9375","24.4375"
"1573591110331","871","-0.7919922","-0.63183594","0.8105469","2.03125","-11.3125","-4.84375"
"1573591110331","872","-0.6640625","-0.5830078","0.8779297","-61.5625","34.40625","-38.0625"
"1573591110331","873","-0.5410156","-0.57421875","0.7548828","-64.25","44.59375","-53.9375"
"1573591110331","874","-0.5332031","-0.5097656","0.59472656","-80.5","32.78125","-49.59375"
"1573591110332","875","-0.42285156","-0.65527344","0.49023438","-38.875","18.4375","-39.78125"
"1573591110332","876","-0.2734375","-0.6816406","0.5361328","-84.6875","16.28125","-46.96875"
"1573591110333","877","-0.4375","-0.5205078","0.33789062","-91.96875","3.15625","-44.84375"
"1573591110334","878","-0.32714844","-0.5810547","0.36914062","-117.59375","25.875","-35.4375"
"1573591110334","879","-0.35546875","-0.5205078","0.3125","-90.75","14.09375","-53.0625"
"1573591110729","880","-0.29003906","-0.53515625","0.23046875","-95.375","16.90625","-52.21875"
"1573591110729","881","-0.2626953","-0.5390625","0.24414062","-101.71875","21.96875","-62.34375"
"1573591110730","882","-0.30078125","-0.54003906","0.19824219","-85.8125","18.78125","-68.625"
"1573591110730","883","-0.2919922","-0.6074219","0.17871094","-61.75","4.8125","-48.1875"
"1573591110730","884","-0.28222656","-0.79003906","0.21289062","-22.625","-7.6875","-31.53125"
"1573591110730","885","-0.19335938","-0.9169922","0.07324219","-70.59375","-9.40625","-20.96875"
"1573591110731","886","-0.25878906","-0.7841797","0.09863281","-54.0625","-3.90625","-36.53125"
"1573591110731","887","-0.30273438","-0.70703125","0.11328125","-64.0","-10.25","-28.53125"
"1573591110731","888","-0.39941406","-0.71777344","0.048828125","-50.875","19.9375","-17.25"
"1573591110732","889","-0.11816406","-0.8925781","0.13769531","-14.09375","52.34375","-12.4375"
"1573591111127","890","-0.27734375","-1.1533203","-0.0126953125","-15.125","11.59375","-8.15625"
"1573591111127","891","-0.30566406","-1.2578125","-0.034179688","-18.90625","15.0","-5.53125"
"1573591111128","892","-0.16796875","-1.03125","-0.0146484375","-10.65625","-1.71875","-10.59375"
"1573591111128","893","-0.19433594","-0.94433594","-0.07519531","-1.625","-7.75","-2.71875"
"1573591111128","894","-0.15136719","-0.8955078","-0.064453125","8.3125","3.34375","-2.96875"
"1573591111128","895","-0.1796875","-0.94140625","-0.09863281","10.28125","-2.8125","0.75"
"1573591111129","896","-0.10546875","-1.0332031","-0.12988281","13.09375","-4.15625","1.90625"
"1573591111129","897","-0.11621094","-1.0214844","-0.11328125","10.9375","-8.125","1.84375"
"1573591111129","898","-0.22070312","-0.9951172","-0.0703125","8.25","-8.8125","1.84375"
"1573591111130","899","-0.17382812","-1.0527344","-0.09277344","22.71875","-5.0625","7.59375"
"1573591111525","900","-0.19335938","-0.96191406","-0.03515625","17.34375","4.75","4.84375"
"1573591111525","901","-0.19433594","-0.9169922","-0.052734375","20.46875","1.75","8.625"
"1573591111526","902","-0.17578125","-0.95410156","-0.024414062","28.9375","6.09375","13.40625"
"1573591111526","903","-0.19628906","-0.98535156","-0.018554688","32.71875","6.71875","20.90625"
"1573591111527","904","-0.20507812","-0.99902344","-0.013671875","38.71875","-0.25","24.5625"
"1573591111527","905","-0.17382812","-0.96191406","0.009765625","42.125","-2.5","31.21875"
"1573591111527","906","-0.19140625","-0.9423828","0.060546875","42.0","-2.6875","31.21875"
"1573591111528","907","-0.23046875","-0.9248047","0.061523438","42.125","-7.15625","31.40625"
"1573591111528","908","-0.24023438","-0.9941406","0.1015625","44.03125","-11.3125","32.75"
"1573591111528","909","-0.28710938","-1.0078125","0.13574219","32.5625","-14.53125","24.6875"
"1573591111922","910","-0.3017578","-1.0205078","0.14550781","16.25","-18.8125","18.6875"
"1573591111922","911","-0.34179688","-1.0185547","0.16894531","4.65625","-9.40625","9.78125"
"1573591111923","912","-0.34960938","-0.9765625","0.13085938","-11.15625","-4.15625","4.0625"
"1573591111924","913","-0.25","-0.9716797","0.076171875","-1.15625","-12.71875","6.25"
"1573591111925","914","-0.3466797","-1.0078125","0.12402344","-7.90625","-5.625","-3.9375"
"1573591111925","915","-0.45898438","-0.9794922","0.18359375","-12.5","6.28125","-18.59375"
"1573591111925","916","-0.31640625","-1.0058594","0.11816406","-12.0","9.9375","-22.25"
"1573591111926","917","-0.18261719","-0.9433594","0.11425781","-20.4375","-1.40625","-19.6875"
"1573591111926","918","-0.27246094","-0.9423828","0.11230469","-36.65625","1.75","-13.9375"
"1573591111926","919","-0.2939453","-0.9941406","0.05859375","-37.21875","-0.4375","-12.90625"
"1573591112318","920","-0.27734375","-0.9824219","0.059570312","-32.03125","-3.5","-16.5625"
"1573591112318","921","-0.26464844","-0.953125","0.068359375","-39.09375","-8.25","-22.3125"
"1573591112319","922","-0.25","-0.9189453","-0.015625","-25.8125","4.6875","-19.5"
"1573591112319","923","-0.2607422","-0.9667969","0.0068359375","-12.375","-6.65625","-16.875"
"1573591112319","924","-0.22949219","-0.9345703","0.025390625","-6.9375","-6.46875","-6.875"
"1573591112320","925","-0.22460938","-0.9199219","0.009765625","2.9375","-3.375","-6.5625"
"1573591112320","926","-0.2265625","-0.96484375","-0.021484375","-0.65625","4.6875","2.21875"
"1573591112321","927","-0.19335938","-0.9785156","-0.02734375","6.96875","1.53125","5.59375"
"1573591112321","928","-0.15429688","-0.9980469","0.001953125","10.8125","-4.65625","7.59375"
"1573591112321","929","-0.22070312","-1.1074219","-0.0068359375","-4.375","-8.1875","6.25"
"1573591112913","930","-0.2109375","-0.9707031","-0.025390625","-5.21875","-13.875","6.6875"
"1573591112914","931","-0.21972656","-0.9189453","-0.06933594","-7.4375","-12.46875","3.875"
"1573591112914","932","-0.2109375","-1.0722656","-0.11425781","-9.3125","-9.40625","1.375"
"1573591112914","933","-0.21777344","-0.93847656","-0.083984375","-10.25","-5.5","-8.09375"
"1573591112914","934","-0.21289062","-0.9902344","-0.08300781","-4.375","-9.15625","-3.6875"
"1573591112915","935","-0.22558594","-1.0097656","-0.07421875","1.53125","-6.125","-5.15625"
"1573591112915","936","-0.19726562","-0.9404297","-0.07519531","7.78125","-12.15625","-4.90625"
"1573591112917","937","-0.18847656","-0.9951172","-0.076171875","9.21875","-7.40625","0.5"
"1573591112917","938","-0.2109375","-0.9814453","-0.0625","8.375","-2.875","-2.53125"
"1573591112918","939","-0.24707031","-0.96972656","-0.05078125","-2.53125","1.5625","-1.5"
"1573591113114","940","-0.18945312","-0.9785156","-0.053710938","0.9375","6.75","-2.90625"
"1573591113114","941","-0.20605469","-1.0195312","-0.08105469","5.03125","-3.0625","2.40625"
"1573591113115","942","-0.20800781","-0.9873047","-0.043945312","5.21875","1.5625","1.625"
"1573591113115","943","-0.18066406","-1.0029297","-0.043945312","5.375","-2.75","4.34375"
"1573591113115","944","-0.22558594","-0.9892578","-0.047851562","3.5","1.40625","1.90625"
"1573591113115","945","-0.19726562","-1.0087891","-0.030273438","4.15625","4.1875","5.28125"
"1573591113116","946","-0.22265625","-0.96484375","-0.024414062","4.71875","-1.09375","1.71875"
"1573591113116","947","-0.2421875","-0.9980469","0.022460938","8.25","4.8125","8.25"
"1573591113116","948","-0.2763672","-0.95996094","0.0078125","14.40625","5.25","6.5"
"1573591113117","949","-0.28710938","-0.9404297","0.06347656","20.09375","7.375","11.75"
"1573591113512","950","-0.31835938","-0.9111328","0.13085938","29.25","8.40625","21.15625"
"1573591113512","951","-0.31152344","-0.8408203","0.1640625","37.8125","-1.40625","25.53125"
"1573591113513","952","-0.37109375","-0.734375","0.1484375","54.03125","-2.75","41.21875"
"1573591113513","953","-0.35742188","-0.5527344","0.14941406","61.71875","-4.59375","56.65625"
"1573591113513","954","-0.28710938","-0.36035156","0.12792969","86.375","0.1875","77.34375"
"1573591113513","955","-0.265625","-0.33496094","0.14160156","83.34375","15.3125","92.0"
"1573591113514","956","-0.21191406","-0.36621094","0.2109375","96.34375","-0.75","82.71875"
"1573591113514","957","-0.2626953","-0.4716797","0.16113281","115.5","-21.375","69.53125"
"1573591113514","958","-0.34375","-0.5810547","0.22167969","70.4375","-18.4375","60.75"
"1573591113514","959","-0.5498047","-0.54003906","0.36132812","66.78125","-14.0","44.40625"
"1573591113910","960","-0.6015625","-0.80371094","0.32421875","32.5625","-8.1875","43.125"
"1573591113912","961","-0.34179688","-0.6748047","0.46484375","19.0625","-12.28125","13.09375"
"1573591113912","962","-0.42382812","-0.88964844","0.67089844","-3.15625","-47.1875","21.3125"
"1573591113913","963","-0.7792969","-0.5800781","0.6425781","-30.375","-84.59375","13.5625"
"1573591113913","964","-1.1865234","-0.3154297","0.6542969","-18.53125","-26.625","52.09375"
"1573591113913","965","-0.8378906","-0.90527344","0.83984375","-26.90625","-15.28125","-12.5625"
"1573591113913","966","-0.8310547","-1.2685547","0.5439453","-6.15625","5.1875","-87.6875"
"1573591113914","967","-1.1738281","-1.2783203","1.0830078","-40.15625","40.15625","-111.65625"
"1573591113914","968","-1.1308594","-1.625","1.1708984","-38.6875","89.65625","-154.28125"
"1573591113915","969","-0.27148438","-1.3056641","0.4169922","-52.03125","-8.5","-115.40625"
"1573591114305","970","0.25976562","-1.0361328","-0.119140625","-55.71875","10.25","-33.90625"
"1573591114306","971","-0.07128906","-0.8730469","0.017578125","-78.40625","29.46875","-24.03125"
"1573591114306","972","-0.08203125","-0.7363281","-0.1484375","-96.59375","-9.84375","-53.75"
"1573591114307","973","-0.033203125","-0.7207031","-0.16308594","-110.625","2.4375","-63.6875"
"1573591114308","974","-0.16601562","-0.9111328","-0.16308594","-115.8125","28.6875","-61.4375"
"1573591114308","975","-0.22265625","-1.0605469","0.009765625","-126.6875","48.21875","-61.1875"
"1573591114308","976","-0.30859375","-1.1132812","-0.09472656","-71.625","19.59375","-47.71875"
"1573591114308","977","-0.20214844","-1.1738281","-0.12695312","3.5625","-4.90625","-16.5625"
"1573591114309","978","-0.0087890625","-0.99121094","-0.25976562","27.375","-10.5625","3.1875"
"1573591114309","979","-0.07128906","-0.9628906","-0.21386719","22.28125","-8.0625","6.125"
"1573591114703","980","-0.08105469","-0.93847656","-0.23339844","23.46875","0.90625","2.46875"
"1573591114703","981","-0.048828125","-0.9169922","-0.26660156","30.59375","4.09375","0.8125"
"1573591114703","982","-0.015625","-0.9238281","-0.21386719","32.3125","-5.6875","5.9375"
"1573591114704","983","-0.041992188","-0.9667969","-0.12207031","51.03125","-11.25","14.4375"
"1573591114704","984","-0.20019531","-1.0927734","-0.0029296875","67.21875","-7.53125","28.78125"
"1573591114705","985","-0.23828125","-1.1083984","0.061523438","55.9375","3.09375","37.4375"
"1573591114706","986","-0.32226562","-1.078125","0.15820312","55.875","23.25","41.28125"
"1573591114706","987","-0.30273438","-1.0429688","0.19238281","53.25","35.15625","38.15625"
"1573591114706","988","-0.28808594","-0.9423828","0.17089844","29.0625","46.5","33.53125"
"1573591114706","989","-0.32421875","-0.8808594","0.21191406","47.3125","54.96875","35.71875"
