"# PR data"
"# Start time: 20191027T154117"
"# Subject: seb"
"# Activity type: Step ups"
"# Correctness: Correct"
"# Notes: "
""
"timestamp","seq","accel_x","accel_y","accel_z","gyro_x","gyro_y","gyro_z"
"1572190877663","0","-0.06933594","-1.0078125","0.005859375","-7.375","1.46875","4.8125"
"1572190877663","1","-0.08886719","-0.99609375","-0.018554688","-1.1875","-3.125","6.46875"
"1572190877664","2","-0.125","-0.98535156","-0.041992188","-1.03125","-0.96875","5.71875"
"1572190877664","3","-0.111328125","-0.98339844","-0.038085938","-2.40625","5.4375","4.6875"
"1572190877664","4","-0.07714844","-0.9951172","-0.030273438","1.78125","2.0625","4.6875"
"1572190877664","5","-0.07128906","-1.0039062","-0.029296875","3.5","-0.4375","3.65625"
"1572190877664","6","-0.08496094","-1.0","-0.0107421875","4.0","-2.1875","3.59375"
"1572190877665","7","-0.1015625","-0.9765625","-0.030273438","4.28125","-0.78125","4.75"
"1572190877665","8","-0.11328125","-0.9736328","-0.0087890625","-2.53125","2.3125","3.53125"
"1572190877665","9","-0.09375","-1.015625","-0.036132812","8.125","4.5625","4.1875"
"1572190878060","10","-0.10058594","-0.9863281","-0.01171875","-3.15625","7.9375","0.34375"
"1572190878060","11","-0.09472656","-1.0234375","-0.051757812","5.875","2.125","2.84375"
"1572190878060","12","-0.09375","-1.0019531","-0.04296875","2.09375","-0.0625","3.59375"
"1572190878063","13","-0.123046875","-0.98535156","-0.037109375","3.625","-0.125","3.59375"
"1572190878064","14","-0.12207031","-1.0009766","-0.040039062","0.625","-0.6875","3.40625"
"1572190878064","15","-0.12402344","-0.9863281","-0.04296875","5.34375","-1.34375","3.78125"
"1572190878064","16","-0.13671875","-0.98535156","-0.0390625","5.9375","-7.21875","4.625"
"1572190878065","17","-0.125","-0.9970703","-0.034179688","3.25","-4.28125","3.09375"
"1572190878065","18","-0.12792969","-0.9873047","-0.03125","8.375","-5.625","5.65625"
"1572190878065","19","-0.13378906","-0.9794922","-0.028320312","6.4375","-9.28125","6.28125"
"1572190878457","20","-0.13867188","-0.9814453","-0.030273438","5.875","-4.03125","6.5"
"1572190878458","21","-0.10546875","-1.0117188","-0.0234375","7.28125","-4.09375","4.3125"
"1572190878458","22","-0.13476562","-1.0078125","-0.0048828125","4.65625","-3.46875","5.28125"
"1572190878458","23","-0.12988281","-1.0048828","-0.009765625","6.84375","-2.375","5.40625"
"1572190878458","24","-0.17675781","-0.9814453","9.765625E-4","0.25","0.5","1.5625"
"1572190878459","25","-0.16308594","-1.0","-0.0126953125","3.0625","2.9375","5.28125"
"1572190878460","26","-0.15527344","-0.9765625","0.018554688","-0.09375","5.75","3.46875"
"1572190878460","27","-0.13964844","-1.0009766","-0.032226562","7.78125","0.59375","3.46875"
"1572190878460","28","-0.13183594","-0.98046875","-0.0126953125","7.53125","-4.15625","3.65625"
"1572190878460","29","-0.13476562","-0.9980469","0.0078125","6.84375","-4.03125","1.21875"
"1572190878853","30","-0.15332031","-0.98535156","0.0029296875","6.1875","-6.03125","1.03125"
"1572190878854","31","-0.17480469","-1.0019531","-0.0048828125","2.875","-3.59375","0.59375"
"1572190878854","32","-0.14746094","-0.98046875","0.0107421875","3.1875","-2.375","0.65625"
"1572190878854","33","-0.13574219","-0.96875","0.032226562","6.75","-8.96875","2.375"
"1572190878855","34","-0.109375","-0.9970703","0.041015625","9.65625","-6.71875","1.375"
"1572190878855","35","-0.123046875","-0.99609375","0.08886719","5.40625","-2.8125","-0.3125"
"1572190878855","36","-0.13964844","-1.0068359","0.07421875","1.90625","-5.625","2.3125"
"1572190878856","37","-0.119140625","-1.0107422","0.029296875","2.03125","-2.03125","2.125"
"1572190878856","38","-0.115234375","-0.9902344","0.029296875","-2.53125","1.78125","7.25"
"1572190878857","39","-0.17382812","-0.9658203","0.047851562","-1.5","-4.75","7.5"
"1572190879252","40","-0.19433594","-0.9746094","0.024414062","8.4375","0.375","8.96875"
"1572190879252","41","-0.20800781","-0.9609375","0.04296875","-0.03125","2.125","6.09375"
"1572190879252","42","-0.14160156","-0.9707031","0.0","11.625","3.15625","7.375"
"1572190879253","43","-0.17089844","-1.0078125","0.033203125","6.1875","1.65625","5.125"
"1572190879253","44","-0.17382812","-0.9628906","0.049804688","2.59375","1.59375","5.34375"
"1572190879253","45","-0.22851562","-1.0214844","0.043945312","2.84375","4.40625","7.125"
"1572190879253","46","-0.26171875","-0.9863281","0.055664062","3.1875","11.03125","11.875"
"1572190879254","47","-0.29003906","-0.921875","0.03125","7.21875","13.125","18.28125"
"1572190879254","48","-0.2861328","-0.953125","-0.0078125","16.0","23.25","14.9375"
"1572190879255","49","-0.20507812","-1.0615234","-0.0546875","12.34375","26.3125","7.8125"
"1572190879649","50","-0.14550781","-1.015625","-9.765625E-4","10.75","19.40625","10.375"
"1572190879650","51","-0.16699219","-0.9980469","0.001953125","12.34375","22.21875","8.59375"
"1572190879650","52","-0.16992188","-1.0029297","-0.0087890625","9.0625","19.71875","11.21875"
"1572190879650","53","-0.19433594","-0.94921875","-0.005859375","5.8125","16.53125","12.375"
"1572190879651","54","-0.2109375","-0.96484375","-0.0068359375","5.625","15.125","13.15625"
"1572190879651","55","-0.23339844","-0.9404297","-0.034179688","4.65625","11.03125","11.75"
"1572190879651","56","-0.234375","-0.9736328","-0.016601562","6.3125","8.84375","10.125"
"1572190879651","57","-0.23339844","-0.9501953","-0.036132812","0.9375","10.0","5.90625"
"1572190879651","58","-0.21777344","-0.96191406","-0.076171875","6.0","8.78125","2.4375"
"1572190879652","59","-0.23339844","-0.97265625","-0.0703125","2.46875","6.78125","-0.625"
"1572190880048","60","-0.26757812","-0.9746094","-0.03515625","8.9375","2.125","-3.375"
"1572190880050","61","-0.23730469","-0.9746094","0.009765625","20.59375","-2.8125","0.09375"
"1572190880050","62","-0.3359375","-1.0107422","0.018554688","24.8125","-3.53125","-1.59375"
"1572190880051","63","-0.23925781","-1.140625","0.029296875","23.59375","-7.5","-0.6875"
"1572190880051","64","-0.29785156","-1.2626953","0.061523438","19.4375","-11.28125","-10.34375"
"1572190880051","65","-0.41308594","-1.3798828","0.15234375","15.84375","-16.0","-9.96875"
"1572190880051","66","-0.36523438","-1.2958984","0.1875","12.46875","-32.53125","-7.15625"
"1572190880052","67","-0.15917969","-0.96191406","0.22851562","9.0","-47.0625","-1.53125"
"1572190880052","68","-0.28125","-0.80078125","0.34277344","-4.5625","-43.21875","-3.1875"
"1572190880052","69","-0.30078125","-0.8955078","0.23632812","-2.78125","-26.125","-17.34375"
"1572190880445","70","-0.21972656","-0.8847656","0.23535156","-20.375","-22.875","-20.78125"
"1572190880445","71","-0.20214844","-0.8964844","0.19921875","-17.4375","-21.375","-16.5"
"1572190880446","72","-0.15039062","-0.88671875","0.16601562","-17.5","-24.78125","-23.875"
"1572190880447","73","-0.123046875","-0.85546875","0.10546875","-12.5625","-31.875","-20.40625"
"1572190880448","74","-0.11621094","-0.79296875","0.11230469","-14.625","-28.125","-14.96875"
"1572190880448","75","-0.11035156","-0.7763672","0.111328125","-17.5625","-22.03125","-12.78125"
"1572190880448","76","-0.119140625","-0.8339844","0.12011719","-10.53125","-17.53125","-14.0"
"1572190880448","77","-0.14941406","-0.8964844","0.123046875","-12.75","-4.53125","-16.625"
"1572190880449","78","-0.091796875","-0.9394531","0.111328125","-16.46875","5.84375","-15.9375"
"1572190880449","79","-0.07324219","-0.9628906","0.11425781","-22.375","7.375","-17.90625"
"1572190880841","80","-0.0234375","-0.9951172","0.109375","-17.125","5.5625","-20.53125"
"1572190880842","81","-0.16210938","-1.1240234","0.001953125","-13.96875","13.5","-18.03125"
"1572190880842","82","-0.07519531","-1.0126953","-0.02734375","-8.09375","0.84375","-4.34375"
"1572190880842","83","-0.032226562","-0.8886719","0.001953125","-1.625","-11.71875","11.9375"
"1572190880842","84","-0.064453125","-0.98535156","0.12695312","0.8125","3.71875","4.5"
"1572190880844","85","-0.07128906","-0.92578125","0.09277344","16.5625","2.875","4.875"
"1572190880844","86","-0.10839844","-1.0185547","0.11328125","2.40625","1.78125","3.65625"
"1572190880844","87","-0.09863281","-0.96484375","0.10253906","3.3125","9.21875","8.46875"
"1572190880844","88","-0.12207031","-1.0292969","0.08691406","13.375","10.9375","6.46875"
"1572190880845","89","-0.13183594","-1.015625","0.0625","9.65625","17.21875","13.21875"
"1572190881239","90","-0.23144531","-0.94921875","0.076171875","7.78125","31.375","22.3125"
"1572190881239","91","-0.27441406","-0.8769531","0.109375","17.90625","31.96875","42.96875"
"1572190881240","92","-0.23242188","-0.8144531","0.095703125","35.65625","43.09375","56.3125"
"1572190881240","93","-0.14257812","-1.0175781","0.0068359375","39.28125","44.1875","32.53125"
"1572190881240","94","-0.11230469","-1.1855469","-0.08496094","16.625","15.5625","12.875"
"1572190881240","95","-0.140625","-0.95703125","0.072265625","11.96875","7.0625","21.09375"
"1572190881241","96","-0.20605469","-1.0253906","0.03125","10.53125","5.84375","10.46875"
"1572190881242","97","-0.19726562","-0.9453125","0.0146484375","1.84375","-2.4375","8.84375"
"1572190881242","98","-0.2548828","-0.88378906","0.021484375","-0.21875","-7.25","5.78125"
"1572190881242","99","-0.22753906","-0.7890625","0.08691406","-0.28125","-15.125","9.5625"
"1572190881637","100","-0.29785156","-0.70703125","0.06738281","10.46875","-17.40625","7.5625"
"1572190881638","101","-0.25878906","-0.71484375","0.12695312","5.28125","-14.03125","7.4375"
"1572190881638","102","-0.23046875","-0.6328125","0.0546875","8.375","-22.53125","0.40625"
"1572190881638","103","-0.1328125","-0.5830078","0.03125","33.65625","-30.53125","-4.71875"
"1572190881639","104","-0.3046875","-0.51464844","0.15722656","30.53125","-32.21875","12.0"
"1572190881639","105","-0.36328125","-0.7421875","0.15625","28.40625","-22.46875","5.125"
"1572190881639","106","-0.38671875","-1.3447266","0.43652344","24.9375","8.84375","-9.46875"
"1572190881639","107","-0.7392578","-1.4707031","0.54589844","24.875","16.28125","-2.53125"
"1572190881640","108","0.0078125","-1.6191406","0.25683594","40.1875","47.59375","5.40625"
"1572190881641","109","0.0078125","-1.5302734","0.3828125","19.3125","-36.8125","-26.5"
"1572190882035","110","-0.2421875","-1.2744141","0.3095703","-2.40625","-26.625","-13.875"
"1572190882035","111","-0.05078125","-0.9609375","0.30566406","-13.46875","-16.375","0.59375"
"1572190882036","112","-0.125","-0.9902344","0.22167969","-23.1875","-20.375","-14.71875"
"1572190882036","113","-0.103515625","-0.8847656","0.19335938","-27.1875","-16.1875","-12.09375"
"1572190882036","114","-0.1875","-0.87402344","0.19140625","-29.59375","-12.40625","-12.71875"
"1572190882036","115","-0.087890625","-0.8857422","0.16992188","-14.5","-15.0625","-10.9375"
"1572190882036","116","-0.12792969","-0.9736328","0.23046875","-25.5","-13.4375","-13.375"
"1572190882037","117","-0.12792969","-0.94140625","0.20214844","-19.15625","-4.75","-11.125"
"1572190882037","118","0.025390625","-0.99121094","0.19433594","-14.9375","-9.28125","-7.34375"
"1572190882037","119","-0.14550781","-0.9433594","0.17871094","-30.75","-3.65625","-9.71875"
"1572190882433","120","-0.068359375","-0.890625","0.14746094","-33.5","-0.96875","-6.96875"
"1572190882435","121","-0.13378906","-1.1191406","0.15234375","-24.6875","16.28125","-15.03125"
"1572190882435","122","-0.43164062","-1.1152344","0.016601562","-39.96875","33.6875","-3.8125"
"1572190882435","123","-0.15917969","-1.0517578","-0.13085938","-18.40625","10.1875","11.59375"
"1572190882436","124","0.14160156","-0.8417969","0.001953125","-10.96875","-7.5625","16.90625"
"1572190882436","125","-0.25683594","-0.8515625","0.13476562","-2.65625","0.0","11.15625"
"1572190882436","126","-0.23339844","-0.9824219","0.06640625","1.5","3.0","4.0625"
"1572190882436","127","-0.15332031","-1.0585938","-0.028320312","-9.8125","0.0","6.03125"
"1572190882437","128","-0.15625","-0.96191406","-0.020507812","-7.84375","-7.21875","7.0"
"1572190882437","129","-0.16308594","-0.9589844","-0.015625","-1.875","-3.0625","1.5"
"1572190882829","130","-0.19726562","-0.9824219","-0.055664062","10.8125","-1.28125","1.28125"
"1572190882829","131","-0.2529297","-0.9550781","0.0107421875","-0.84375","4.9375","1.375"
"1572190882830","132","-0.20898438","-0.95703125","-0.041992188","6.0625","4.21875","4.5625"
"1572190882831","133","-0.16015625","-0.97265625","-0.016601562","4.46875","7.1875","1.21875"
"1572190882831","134","-0.17480469","-0.9375","-0.0048828125","7.96875","5.84375","-2.28125"
"1572190882831","135","-0.12402344","-0.9609375","0.045898438","19.5","-9.78125","-2.46875"
"1572190882832","136","-0.091796875","-1.0009766","0.09277344","32.3125","-28.5625","3.78125"
"1572190882832","137","-0.13769531","-0.9345703","0.09863281","29.625","-38.875","11.15625"
"1572190882832","138","-0.09472656","-0.98046875","0.11425781","12.09375","-26.84375","18.34375"
"1572190882832","139","-0.17578125","-1.1914062","0.171875","9.25","-1.03125","2.5"
"1572190883228","140","-0.10253906","-1.0595703","0.056640625","7.84375","-14.90625","9.4375"
"1572190883228","141","-0.028320312","-1.0556641","0.041015625","9.25","-15.3125","5.84375"
"1572190883229","142","-0.15234375","-0.94140625","0.10546875","1.4375","-14.46875","3.78125"
"1572190883229","143","-0.10546875","-0.93359375","0.111328125","12.09375","-10.125","4.0625"
"1572190883229","144","-0.15917969","-0.9453125","0.115234375","-4.96875","-5.125","-1.96875"
"1572190883230","145","-0.07714844","-0.984375","0.15234375","9.46875","-11.0","2.125"
"1572190883230","146","-0.140625","-0.92285156","0.15429688","4.53125","-11.0625","-1.40625"
"1572190883231","147","-0.07128906","-1.0009766","0.095703125","14.90625","-9.59375","0.90625"
"1572190883231","148","-0.08203125","-1.0771484","0.123046875","3.375","-2.3125","-1.0625"
"1572190883231","149","-0.06738281","-1.0644531","0.18359375","-0.21875","2.5","-0.4375"
"1572190883624","150","-0.16113281","-1.0693359","0.16992188","-2.1875","-8.5","2.375"
"1572190883624","151","-0.2626953","-1.2128906","0.21777344","-7.5","14.78125","6.28125"
"1572190883625","152","-0.24414062","-1.3398438","0.2734375","-0.15625","12.875","3.65625"
"1572190883625","153","-0.43359375","-1.3291016","0.2890625","0.03125","15.0","-1.1875"
"1572190883625","154","-0.3828125","-1.0556641","0.18847656","4.96875","14.34375","13.34375"
"1572190883626","155","-0.3388672","-0.9042969","0.043945312","0.625","19.96875","17.0"
"1572190883626","156","-0.19921875","-1.0546875","0.07324219","3.5625","36.25","-7.21875"
"1572190883626","157","-0.22265625","-0.8564453","0.12890625","-6.5","17.34375","-4.15625"
"1572190883627","158","-0.12890625","-0.84472656","0.029296875","-7.1875","17.09375","-5.15625"
"1572190883627","159","-0.11230469","-0.80859375","0.07128906","-17.25","9.65625","-6.5"
"1572190884023","160","-0.123046875","-0.74121094","0.02734375","-0.28125","3.65625","-3.4375"
"1572190884023","161","-0.17871094","-0.7705078","0.10449219","-11.625","6.21875","-6.0625"
"1572190884024","162","-0.1875","-0.84375","0.037109375","-11.15625","3.21875","-5.8125"
"1572190884024","163","-0.2109375","-0.89160156","0.0146484375","-10.78125","3.125","-4.03125"
"1572190884024","164","-0.17382812","-0.8984375","-9.765625E-4","-13.71875","-2.875","-0.8125"
"1572190884024","165","-0.18066406","-0.91308594","-0.016601562","-16.09375","-8.125","0.03125"
"1572190884025","166","-0.16894531","-0.9296875","-0.028320312","-10.71875","-13.5","-4.34375"
"1572190884025","167","-0.20507812","-1.1806641","0.09082031","-7.84375","-1.71875","-8.75"
"1572190884025","168","-0.19140625","-0.9003906","0.14746094","-13.59375","-9.15625","-1.96875"
"1572190884027","169","-0.16210938","-0.95996094","-0.041015625","-2.0625","-20.21875","-4.71875"
"1572190884420","170","-0.16992188","-0.9638672","0.0068359375","-2.53125","-9.15625","-4.15625"
"1572190884421","171","-0.2548828","-0.9140625","0.059570312","-9.8125","-5.75","-3.4375"
"1572190884421","172","-0.18945312","-0.9394531","0.05078125","5.21875","-6.15625","-0.25"
"1572190884421","173","-0.22070312","-0.96777344","0.041015625","3.9375","-7.03125","2.65625"
"1572190884421","174","-0.17773438","-0.9863281","0.028320312","6.25","-0.125","3.03125"
"1572190884421","175","-0.24121094","-0.95996094","0.06347656","-0.03125","-0.125","7.625"
"1572190884422","176","-0.24414062","-0.9560547","9.765625E-4","8.1875","9.34375","17.8125"
"1572190884422","177","-0.23730469","-0.95410156","0.0390625","4.125","15.3125","11.53125"
"1572190884422","178","-0.2548828","-0.9404297","0.0048828125","16.25","11.78125","11.8125"
"1572190884423","179","-0.23730469","-1.0166016","0.009765625","15.71875","10.1875","12.625"
"1572190884816","180","-0.17382812","-0.96484375","0.0068359375","9.0625","15.0","10.25"
"1572190884820","181","-0.20117188","-0.9863281","0.025390625","14.375","14.15625","8.34375"
"1572190884821","182","-0.19042969","-0.98828125","0.022460938","9.78125","8.0625","5.125"
"1572190884821","183","-0.21289062","-0.93652344","0.029296875","10.875","4.9375","4.75"
"1572190884822","184","-0.23242188","-0.9355469","0.018554688","11.5625","3.40625","10.71875"
"1572190884822","185","-0.2421875","-0.91503906","0.030273438","14.0625","1.03125","12.125"
"1572190884823","186","-0.22851562","-0.86328125","0.0390625","18.625","-0.5625","17.125"
"1572190884823","187","-0.20117188","-0.828125","0.059570312","16.625","-3.40625","16.21875"
"1572190884823","188","-0.23046875","-0.75","0.08300781","15.40625","-8.4375","19.03125"
"1572190884823","189","-0.2841797","-0.7919922","0.09082031","16.4375","-4.6875","14.5"
"1572190885216","190","-0.25195312","-0.78515625","0.06933594","11.3125","-14.28125","13.53125"
"1572190885216","191","-0.2939453","-0.82910156","0.07910156","26.5625","-13.5","6.34375"
"1572190885217","192","-0.32910156","-0.71972656","0.103515625","13.875","-27.09375","16.65625"
"1572190885217","193","-0.24121094","-0.7714844","0.16894531","20.09375","-24.1875","20.125"
"1572190885217","194","-0.41210938","-0.7753906","0.16503906","10.34375","-9.71875","6.34375"
"1572190885218","195","-0.3251953","-1.0214844","0.16992188","10.8125","-14.03125","-3.125"
"1572190885218","196","-0.359375","-1.3515625","0.25097656","-0.40625","-8.375","-30.34375"
"1572190885218","197","-0.4453125","-1.2470703","0.3720703","-4.375","5.0625","-8.0"
"1572190885218","198","-0.39648438","-1.5341797","0.29296875","26.03125","23.1875","-12.09375"
"1572190885219","199","-0.21386719","-1.2080078","0.09863281","2.03125","-27.34375","-2.40625"
"1572190885612","200","-0.08691406","-1.1054688","0.041015625","2.46875","-17.34375","-11.25"
"1572190885613","201","-0.23339844","-0.90722656","0.20996094","1.84375","-13.1875","-4.40625"
"1572190885613","202","-0.09863281","-0.94921875","0.234375","-2.46875","-17.9375","-8.9375"
"1572190885613","203","-0.18261719","-0.9785156","0.19238281","-4.96875","-12.21875","-19.1875"
"1572190885614","204","-0.29589844","-0.9902344","0.15039062","-18.09375","1.875","-11.375"
"1572190885615","205","-0.20507812","-0.99609375","0.1015625","-15.78125","5.78125","-13.6875"
"1572190885615","206","-0.1796875","-0.98535156","0.14746094","-7.84375","3.34375","-14.3125"
"1572190885616","207","-0.12011719","-0.97558594","0.1640625","-2.1875","3.53125","-10.875"
"1572190885616","208","-0.09472656","-0.94921875","0.16308594","-1.5","2.125","-15.6875"
"1572190885616","209","-0.09472656","-0.94921875","0.20117188","-10.28125","-6.09375","-10.09375"
"1572190886010","210","-0.076171875","-0.92089844","0.1875","-14.875","-1.21875","-16.625"
"1572190886010","211","-0.072265625","-0.90625","0.13183594","-15.90625","-4.03125","-15.09375"
"1572190886011","212","-0.07910156","-1.0625","0.23535156","-0.84375","-0.125","-16.375"
"1572190886011","213","-0.26660156","-1.0869141","0.16113281","-14.4375","-9.53125","-10.625"
"1572190886011","214","-0.2607422","-1.1064453","-0.0048828125","-18.90625","-3.59375","0.53125"
"1572190886011","215","-0.036132812","-0.74902344","0.099609375","-10.90625","-21.5625","17.625"
"1572190886011","216","-0.13964844","-0.8701172","0.072265625","18.15625","-13.5625","8.96875"
"1572190886013","217","-0.25390625","-1.0263672","0.1015625","13.3125","-5.875","6.28125"
"1572190886013","218","-0.15820312","-1.0117188","0.12207031","0.4375","-3.3125","9.5625"
"1572190886014","219","-0.109375","-1.0419922","0.11621094","1.53125","-6.21875","9.3125"
"1572190886803","220","-0.20898438","-0.99902344","0.11035156","4.15625","-4.28125","11.28125"
"1572190886804","221","-0.26953125","-0.96484375","0.07910156","-0.78125","7.125","18.40625"
"1572190886804","222","-0.23046875","-0.95214844","0.12988281","5.15625","13.1875","23.4375"
"1572190886804","223","-0.21582031","-0.9091797","0.13769531","7.96875","13.5","21.96875"
"1572190886804","224","-0.30566406","-0.91503906","0.14257812","11.75","15.1875","19.875"
"1572190886805","225","-0.29003906","-0.890625","0.07128906","25.46875","23.6875","25.1875"
"1572190886805","226","-0.23242188","-1.0947266","0.030273438","13.75","24.28125","8.65625"
"1572190886805","227","-0.16308594","-1.1230469","0.029296875","5.9375","12.5625","0.96875"
"1572190886805","228","-0.1953125","-1.0322266","0.08203125","-0.21875","0.5625","7.625"
"1572190886807","229","-0.21875","-0.9609375","0.057617188","-8.71875","3.90625","3.40625"
"1572190887000","230","-0.24023438","-0.9296875","0.02734375","-8.03125","4.5","4.875"
"1572190887001","231","-0.2578125","-0.9355469","0.0146484375","-6.4375","1.65625","6.8125"
"1572190887001","232","-0.27929688","-0.9296875","0.025390625","-13.84375","2.25","5.59375"
"1572190887001","233","-0.24414062","-0.94628906","0.016601562","-11.40625","3.90625","5.125"
"1572190887002","234","-0.2783203","-0.9091797","-0.0107421875","-6.5","-1.40625","6.625"
"1572190887002","235","-0.23925781","-0.9355469","-0.001953125","1.5","1.40625","7.125"
"1572190887002","236","-0.28222656","-0.95410156","-0.009765625","3.9375","10.96875","0.71875"
"1572190887002","237","-0.2998047","-0.9345703","0.01171875","8.1875","10.3125","-1.59375"
"1572190887003","238","-0.30566406","-0.93847656","0.03125","11.0625","8.78125","2.3125"
"1572190887003","239","-0.28515625","-0.98339844","0.009765625","11.625","16.28125","-5.09375"
"1572190887201","240","-0.26171875","-1.0488281","0.0146484375","13.09375","10.1875","-0.8125"
"1572190887203","241","-0.3017578","-1.0878906","-9.765625E-4","17.59375","12.3125","-3.90625"
"1572190887203","242","-0.37304688","-1.2568359","0.14453125","9.59375","11.59375","-13.125"
"1572190887204","243","-0.42382812","-1.4257812","0.053710938","10.09375","3.0625","-11.71875"
"1572190887204","244","-0.28808594","-1.3310547","0.072265625","-1.875","-12.875","-8.3125"
"1572190887204","245","-0.17578125","-0.9863281","0.18554688","3.625","-44.3125","-7.34375"
"1572190887204","246","-0.24804688","-0.77734375","0.31347656","-1.1875","-45.96875","-4.84375"
"1572190887205","247","-0.32714844","-0.83984375","0.20410156","5.4375","-27.59375","-10.625"
"1572190887205","248","-0.16796875","-0.9277344","0.20996094","0.9375","-24.125","-7.8125"
"1572190887205","249","-0.19238281","-0.91015625","0.14257812","-5.90625","-21.0625","-11.71875"
"1572190887600","250","-0.14257812","-0.9238281","0.099609375","-4.875","-18.875","-11.90625"
"1572190887600","251","-0.16796875","-0.8886719","0.09667969","5.28125","-34.25","-12.03125"
"1572190887600","252","-0.16113281","-0.7421875","0.140625","-7.71875","-32.53125","-6.0"
"1572190887602","253","-0.064453125","-0.6699219","0.14257812","-0.78125","-16.40625","-10.21875"
"1572190887602","254","-0.14550781","-0.7636719","0.18652344","-10.53125","-5.375","-15.875"
"1572190887603","255","-0.17480469","-0.90625","0.16015625","-16.03125","6.96875","-22.125"
"1572190887603","256","-0.18164062","-0.9863281","0.14746094","-23.40625","27.46875","-23.875"
"1572190887603","257","-0.16210938","-1.2626953","0.115234375","-15.59375","30.34375","-30.59375"
"1572190887604","258","-0.21875","-1.0693359","0.025390625","-37.46875","10.625","-16.8125"
"1572190887604","259","-0.0703125","-0.8105469","-0.02734375","-20.375","9.9375","-1.53125"
"1572190888194","260","-0.123046875","-0.81152344","0.08496094","-5.53125","9.15625","-1.71875"
"1572190888194","261","-0.12207031","-0.95410156","0.09277344","7.46875","11.59375","-4.34375"
"1572190888194","262","-0.115234375","-0.984375","0.041015625","1.96875","5.90625","-7.09375"
"1572190888195","263","-0.107421875","-1.0380859","0.06542969","-1.5","2.1875","-2.28125"
"1572190888195","264","-0.12988281","-0.96875","0.046875","-2.65625","4.6875","-0.0625"
"1572190888196","265","-0.13378906","-0.9921875","0.001953125","6.78125","0.78125","3.03125"
"1572190888197","266","-0.103515625","-0.98535156","0.0029296875","1.84375","2.125","5.59375"
"1572190888197","267","-0.13183594","-0.96875","0.016601562","10.03125","0.65625","5.90625"
"1572190888198","268","-0.10253906","-0.9892578","0.0234375","13.875","-6.40625","9.375"
"1572190888198","269","-0.13378906","-0.9902344","0.024414062","12.09375","-6.53125","10.0625"
"1572190888393","270","-0.123046875","-0.9355469","0.048828125","14.5","-9.28125","12.375"
"1572190888394","271","-0.12011719","-0.98339844","0.06542969","22.90625","-12.28125","16.78125"
"1572190888394","272","-0.119140625","-0.94628906","0.051757812","33.03125","-16.78125","17.25"
"1572190888394","273","-0.099609375","-0.9140625","0.14355469","27.5","-33.3125","26.65625"
"1572190888394","274","-0.14941406","-0.8457031","0.22070312","24.25","-34.0625","27.75"
"1572190888395","275","-0.234375","-1.0009766","0.20507812","27.125","-17.21875","18.46875"
"1572190888395","276","-0.18554688","-1.0283203","0.15039062","18.09375","-9.59375","15.90625"
"1572190888396","277","-0.20019531","-1.1220703","0.111328125","13.5","-1.71875","15.125"
"1572190888396","278","-0.19335938","-1.0195312","0.15429688","4.78125","-6.71875","10.25"
"1572190888397","279","-0.14257812","-0.953125","0.17675781","14.1875","-7.03125","6.21875"
"1572190888791","280","-0.1015625","-0.88964844","0.16992188","13.21875","-9.71875","2.5625"
"1572190888791","281","-0.13574219","-0.8251953","0.16210938","6.375","-8.84375","1.8125"
"1572190888791","282","-0.20996094","-0.90234375","0.22558594","1.125","4.34375","-0.8125"
"1572190888792","283","-0.27929688","-0.7421875","0.30273438","-8.71875","14.875","11.71875"
"1572190888792","284","-0.14355469","-0.7441406","0.1796875","14.84375","16.28125","11.9375"
"1572190888793","285","-0.15820312","-0.6826172","0.13769531","4.125","10.5","15.90625"
"1572190888793","286","-0.12695312","-0.6894531","0.26171875","-4.875","15.875","18.125"
"1572190888793","287","-0.28320312","-0.640625","0.2685547","5.4375","4.28125","14.03125"
"1572190888793","288","-0.26464844","-0.83203125","0.2890625","23.03125","30.875","15.96875"
"1572190888795","289","-0.6015625","-1.3173828","0.34472656","18.5","49.25","-13.3125"
"1572190889190","290","-0.38867188","-1.6191406","-0.08203125","-7.84375","20.125","10.46875"
"1572190889190","291","-0.234375","-1.2285156","0.24414062","-19.09375","5.84375","15.96875"
"1572190889191","292","-0.6796875","-1.3632812","0.18066406","7.21875","28.9375","5.0"
"1572190889191","293","-0.23339844","-1.2607422","0.04296875","2.34375","10.875","12.75"
"1572190889191","294","-0.296875","-1.0166016","0.083984375","-19.75","6.71875","3.71875"
"1572190889191","295","-0.19726562","-0.8574219","0.013671875","-12.0","-1.03125","-18.3125"
"1572190889191","296","-0.19238281","-0.8847656","0.0087890625","-14.5","2.375","-17.59375"
"1572190889192","297","-0.2578125","-0.8564453","0.0625","-23.71875","-7.6875","-14.53125"
"1572190889192","298","-0.28125","-0.88183594","0.0625","-11.9375","-10.0625","-16.875"
"1572190889192","299","-0.3046875","-0.96972656","0.021484375","-2.59375","-9.71875","-2.625"
"1572190889587","300","-0.33496094","-0.9863281","0.037109375","-3.8125","-2.875","3.90625"
"1572190889589","301","-0.26660156","-0.93066406","0.029296875","3.8125","-13.25","-3.0"
"1572190889589","302","-0.2548828","-0.88183594","0.13769531","-0.09375","-13.5","-0.3125"
"1572190889590","303","-0.23925781","-0.8984375","0.0126953125","6.6875","-17.75","-10.4375"
"1572190889590","304","-0.25878906","-0.91015625","0.028320312","-12.78125","-9.15625","-17.53125"
"1572190889590","305","-0.29492188","-0.9199219","0.0107421875","0.09375","-2.5","-17.21875"
"1572190889591","306","-0.265625","-1.1865234","0.115234375","-3.75","4.03125","-9.96875"
"1572190889591","307","-0.34472656","-1.0703125","0.28808594","11.125","-14.90625","-11.375"
"1572190889591","308","-0.08691406","-0.8251953","0.1328125","27.65625","-32.15625","1.4375"
"1572190889591","309","-0.076171875","-0.99609375","0.00390625","2.9375","-24.84375","-19.4375"
"1572190889985","310","-0.17089844","-0.9550781","0.1015625","-7.0","-6.53125","-14.3125"
"1572190889986","311","-0.25390625","-0.8925781","0.17675781","-8.46875","-2.1875","-14.0625"
"1572190889986","312","-0.18652344","-0.99121094","0.10839844","-0.96875","-1.21875","-9.84375"
"1572190889987","313","-0.24707031","-0.97558594","0.08105469","-4.6875","12.28125","-4.71875"
"1572190889988","314","-0.20996094","-0.91015625","0.1015625","3.1875","12.03125","4.6875"
"1572190889988","315","-0.11816406","-0.9355469","0.10546875","15.71875","6.21875","1.03125"
"1572190889988","316","-0.15429688","-0.98046875","0.103515625","21.8125","-3.0","-0.5625"
"1572190889989","317","-0.09472656","-0.95703125","0.12207031","28.53125","-16.78125","0.65625"
"1572190889989","318","-0.12792969","-0.9355469","0.1484375","29.875","-25.09375","1.9375"
"1572190889989","319","-0.115234375","-1.0214844","0.2265625","21.75","-18.8125","5.0"
"1572190890381","320","-0.19726562","-1.0253906","0.20214844","9.59375","-5.5625","6.34375"
"1572190890381","321","-0.07714844","-1.0517578","0.15625","11.375","-2.8125","14.03125"
"1572190890381","322","-0.06640625","-1.0947266","0.1796875","9.125","-13.125","8.90625"
"1572190890382","323","-0.10644531","-1.0039062","0.19628906","10.59375","-20.03125","9.4375"
"1572190890382","324","-0.11328125","-1.0224609","0.14453125","7.40625","-19.53125","5.78125"
"1572190890383","325","-0.12695312","-0.9658203","0.14746094","0.03125","-19.21875","7.4375"
"1572190890384","326","-0.11230469","-0.9511719","0.17773438","-2.1875","-17.40625","6.6875"
"1572190890384","327","-0.14941406","-0.9355469","0.17578125","-3.28125","-16.125","7.1875"
"1572190890384","328","-0.13183594","-0.9628906","0.16601562","0.75","-16.0","7.125"
"1572190890384","329","-0.12792969","-0.9472656","0.17675781","0.21875","-16.46875","6.75"
"1572190890779","330","-0.13476562","-0.9550781","0.17285156","1.84375","-12.40625","6.625"
"1572190890779","331","-0.14550781","-1.0253906","0.18652344","-1.875","-1.78125","3.59375"
"1572190890780","332","-0.15820312","-1.0244141","0.1484375","-2.46875","5.5625","1.375"
"1572190890780","333","-0.13183594","-1.0166016","0.23046875","0.09375","-3.40625","7.375"
"1572190890780","334","-0.29296875","-1.1787109","0.28027344","-5.34375","12.03125","10.71875"
"1572190890780","335","-0.31347656","-1.2119141","0.32714844","-6.9375","16.40625","9.25"
"1572190890780","336","-0.3466797","-1.3310547","0.3671875","7.46875","22.8125","5.59375"
"1572190890782","337","-0.49609375","-1.109375","0.2998047","2.875","24.71875","11.53125"
"1572190890782","338","-0.31835938","-0.8955078","0.13183594","9.71875","27.90625","18.96875"
"1572190890782","339","-0.22460938","-0.94140625","0.14648438","9.90625","34.0","6.875"
"1572190891178","340","-0.38183594","-0.91796875","0.20410156","-6.4375","32.65625","-5.3125"
"1572190891178","341","-0.20117188","-0.88671875","0.12695312","-2.78125","16.96875","-4.90625"
"1572190891179","342","-0.17382812","-0.8535156","0.123046875","-11.625","22.03125","-8.75"
"1572190891179","343","-0.19628906","-0.8378906","0.11425781","-15.84375","21.3125","-11.96875"
"1572190891179","344","-0.1953125","-0.7861328","0.103515625","-16.53125","12.5625","-7.8125"
"1572190891179","345","-0.17480469","-0.79296875","0.091796875","-14.875","7.0625","-7.03125"
"1572190891180","346","-0.30664062","-0.85546875","0.0625","-25.4375","15.375","-10.4375"
"1572190891180","347","-0.20898438","-0.8964844","0.026367188","-20.125","13.1875","-9.28125"
"1572190891180","348","-0.20996094","-0.8935547","-0.021484375","-16.21875","7.75","-10.6875"
"1572190891182","349","-0.23535156","-0.93066406","0.048828125","-29.71875","7.0625","-6.53125"
"1572190891575","350","-0.1796875","-0.90527344","9.765625E-4","-18.40625","-3.96875","-8.6875"
"1572190891575","351","-0.23925781","-0.98828125","0.001953125","-12.5","-5.0625","-10.09375"
"1572190891576","352","-0.26757812","-0.9550781","0.041015625","-15.53125","2.9375","-12.78125"
"1572190891576","353","-0.13183594","-1.0263672","0.047851562","-3.53125","-2.03125","-7.53125"
"1572190891576","354","-0.20214844","-0.88671875","-0.0029296875","0.3125","-17.09375","-4.78125"
"1572190891577","355","-0.18066406","-0.953125","0.0126953125","2.53125","-5.5","-5.9375"
"1572190891577","356","-0.22558594","-0.9267578","0.0703125","1.96875","-3.0625","-4.71875"
"1572190891577","357","-0.22265625","-0.98046875","0.037109375","6.25","-9.53125","-5.3125"
"1572190891577","358","-0.20117188","-0.9863281","-0.0068359375","3.625","-7.9375","-3.8125"
"1572190891578","359","-0.22753906","-0.97265625","0.02734375","1.96875","-0.1875","-0.5625"
"1572190891972","360","-0.19921875","-0.9707031","0.029296875","3.125","1.03125","-1.125"
"1572190891973","361","-0.1953125","-0.9638672","0.040039062","4.125","-1.96875","-0.125"
"1572190891974","362","-0.21972656","-0.9667969","0.07714844","5.40625","-0.3125","2.65625"
"1572190891974","363","-0.21679688","-0.9765625","0.048828125","18.46875","3.21875","12.5625"
"1572190891974","364","-0.29492188","-0.9296875","0.09277344","2.53125","9.28125","15.5625"
"1572190891975","365","-0.26757812","-0.9501953","0.040039062","18.6875","12.03125","22.1875"
"1572190891975","366","-0.25","-0.9638672","0.068359375","21.1875","11.03125","30.1875"
"1572190891975","367","-0.29589844","-0.9003906","0.103515625","33.21875","16.46875","32.8125"
"1572190891975","368","-0.2783203","-0.86328125","0.051757812","36.875","16.1875","30.9375"
"1572190891976","369","-0.19433594","-1.0898438","-0.0048828125","36.59375","18.5","6.5"
"1572190892369","370","-0.22167969","-0.98828125","0.08105469","13.25","11.28125","2.1875"
"1572190892369","371","-0.21679688","-0.9433594","0.1171875","18.46875","4.21875","-0.25"
"1572190892370","372","-0.21191406","-0.9189453","0.107421875","13.875","0.125","-0.1875"
"1572190892371","373","-0.2265625","-0.87109375","0.08496094","7.21875","-2.5625","1.15625"
"1572190892371","374","-0.24121094","-0.78808594","0.08984375","10.03125","-8.1875","4.25"
"1572190892371","375","-0.296875","-0.78125","0.11621094","9.59375","-2.125","9.5625"
"1572190892372","376","-0.28710938","-0.83496094","0.0859375","9.84375","-0.96875","7.8125"
"1572190892372","377","-0.21777344","-0.796875","0.12207031","8.3125","-10.5625","9.1875"
"1572190892372","378","-0.25683594","-0.7753906","0.109375","19.84375","-14.59375","4.0"
"1572190892372","379","-0.27441406","-0.76171875","0.17089844","5.5625","-25.15625","0.21875"
"1572190892768","380","-0.2607422","-0.74609375","0.16015625","11.9375","-33.28125","-0.8125"
"1572190892774","381","-0.3310547","-0.7910156","0.16699219","7.09375","-35.15625","-0.4375"
"1572190892774","382","-0.30371094","-1.0205078","0.22753906","1.84375","-19.59375","-5.03125"
"1572190892775","383","-0.45214844","-1.2861328","0.35839844","3.875","-15.03125","-23.5"
"1572190892775","384","-0.4423828","-1.2587891","0.2421875","-5.65625","-11.0625","-3.875"
"1572190892775","385","-0.20605469","-1.5625","0.3935547","9.0625","-0.5625","-7.53125"
"1572190892776","386","-0.4189453","-1.1318359","0.16308594","-9.3125","-33.875","-12.28125"
"1572190892776","387","0.0048828125","-1.1806641","0.036132812","3.3125","-3.25","2.1875"
"1572190892776","388","-0.17578125","-0.95703125","0.24804688","-4.96875","-25.28125","-11.375"
"1572190892777","389","0.024414062","-0.9199219","0.22070312","-0.09375","-25.9375","-0.375"
"1572190893164","390","0.026367188","-0.95214844","0.17675781","-18.59375","-36.125","-27.78125"
"1572190893165","391","-0.3466797","-1.0419922","0.14355469","-34.9375","-13.375","-12.78125"
"1572190893165","392","-0.2998047","-0.8847656","0.13183594","-36.34375","10.5","1.5"
"1572190893165","393","-0.1171875","-1.0136719","0.08203125","-3.9375","19.65625","-0.375"
"1572190893166","394","-0.12792969","-0.93847656","0.16699219","-13.40625","10.875","-4.53125"
"1572190893166","395","-0.028320312","-0.96484375","0.12109375","7.71875","-4.40625","-7.46875"
"1572190893166","396","0.030273438","-1.0302734","0.14355469","6.96875","-21.4375","-14.71875"
"1572190893168","397","-0.09375","-0.9824219","0.1875","-18.15625","-12.28125","-16.3125"
"1572190893168","398","-0.061523438","-0.95410156","0.10058594","-13.84375","-3.84375","-16.375"
"1572190893170","399","-0.015625","-0.99609375","0.04296875","-20.25","-13.125","-3.625"
"1572190893563","400","-0.055664062","-1.0859375","0.21679688","-39.65625","6.96875","-13.625"
"1572190893563","401","-0.30078125","-1.1142578","0.171875","-10.46875","15.25","-9.96875"
"1572190893563","402","-0.16210938","-0.7470703","-0.040039062","4.125","-29.3125","32.46875"
"1572190893564","403","-0.09667969","-0.9980469","0.034179688","-16.09375","13.0","2.90625"
"1572190893564","404","-0.16992188","-0.95410156","0.10546875","-8.78125","10.8125","2.375"
"1572190893564","405","-0.11816406","-1.0859375","0.0126953125","-0.59375","9.21875","-2.875"
"1572190893565","406","-0.17773438","-0.98339844","0.041015625","-15.375","-5.6875","11.03125"
"1572190893565","407","-0.19433594","-0.8935547","-0.0029296875","4.78125","0.96875","15.625"
"1572190893565","408","-0.26660156","-0.93652344","0.053710938","-1.625","12.28125","17.5"
"1572190893565","409","-0.20214844","-0.99316406","0.009765625","-0.15625","19.46875","15.84375"
"1572190893960","410","-0.17871094","-1.0322266","-0.017578125","4.71875","11.03125","16.53125"
"1572190893961","411","-0.10644531","-1.0048828","0.016601562","0.6875","6.28125","8.59375"
"1572190893961","412","-0.23730469","-0.96484375","0.04296875","11.8125","5.375","6.75"
"1572190893961","413","-0.25976562","-0.9794922","-0.021484375","10.46875","9.9375","10.125"
"1572190893961","414","-0.23144531","-1.0644531","-0.056640625","0.75","26.59375","7.25"
"1572190893962","415","-0.1796875","-0.9902344","-0.0068359375","2.03125","21.71875","7.0625"
"1572190893962","416","-0.203125","-0.9980469","-0.0087890625","4.65625","18.84375","7.375"
"1572190893962","417","-0.1640625","-0.96484375","0.0048828125","7.65625","17.5","4.8125"
"1572190893962","418","-0.2265625","-0.92578125","0.0048828125","9.53125","12.4375","7.90625"
"1572190893962","419","-0.22265625","-0.9482422","-0.009765625","8.625","13.90625","8.59375"
"1572190894358","420","-0.18359375","-0.9658203","-0.034179688","6.4375","10.5","7.625"
"1572190894359","421","-0.20019531","-0.9580078","-0.037109375","6.625","5.125","9.4375"
"1572190894360","422","-0.21972656","-0.9267578","-0.08886719","17.40625","7.3125","12.5"
"1572190894360","423","-0.23144531","-0.9638672","-0.025390625","3.375","10.1875","4.0"
"1572190894360","424","-0.24023438","-0.96777344","-0.049804688","15.53125","8.375","3.40625"
"1572190894361","425","-0.20898438","-0.9970703","-0.030273438","17.0625","6.53125","5.40625"
"1572190894361","426","-0.23339844","-0.99121094","0.015625","18.09375","8.59375","1.15625"
"1572190894361","427","-0.27929688","-1.0166016","0.024414062","18.75","4.5","0.0"
"1572190894361","428","-0.21191406","-1.1484375","0.04296875","28.78125","-2.625","-2.40625"
"1572190894362","429","-0.31640625","-1.1953125","0.06542969","16.625","-7.21875","-3.8125"
"1572190894755","430","-0.43164062","-1.3720703","0.091796875","11.6875","-4.40625","-2.6875"
"1572190894756","431","-0.31347656","-1.3242188","0.140625","2.21875","-12.875","0.65625"
"1572190894756","432","-0.20019531","-1.0351562","0.17871094","4.84375","-34.0625","4.125"
"1572190894757","433","-0.22363281","-0.82421875","0.24609375","3.875","-41.5625","10.59375"
"1572190894757","434","-0.27734375","-0.8876953","0.24511719","12.96875","-39.3125","0.03125"
"1572190894757","435","-0.1953125","-0.93652344","0.25195312","0.25","-36.375","-4.96875"
"1572190894758","436","-0.22753906","-0.9482422","0.203125","-9.5","-29.59375","-8.875"
"1572190894758","437","-0.18359375","-0.85839844","0.099609375","1.0625","-25.625","-3.96875"
"1572190894758","438","-0.17285156","-0.8388672","0.13867188","-10.53125","-28.375","-8.25"
"1572190894758","439","-0.18164062","-0.78027344","0.14746094","-0.03125","-29.84375","-3.875"
"1572190895152","440","-0.16015625","-0.8066406","0.13867188","-5.65625","-20.6875","-6.0625"
"1572190895153","441","-0.15039062","-0.7792969","0.1796875","-3.9375","-17.875","-9.65625"
"1572190895153","442","-0.18261719","-0.85253906","0.17675781","-4.1875","-9.71875","-14.3125"
"1572190895154","443","-0.16796875","-0.89160156","0.19238281","-17.625","2.375","-13.75"
"1572190895154","444","-0.09472656","-0.9765625","0.1875","-18.28125","5.125","-23.40625"
"1572190895156","445","-0.15722656","-1.0097656","0.17480469","-26.09375","-2.1875","-21.875"
"1572190895157","446","-0.21191406","-1.1171875","0.051757812","-30.5625","12.5","-23.8125"
"1572190895158","447","-0.18652344","-1.0234375","0.08203125","-32.9375","10.5625","-7.875"
"1572190895158","448","-0.19824219","-0.875","0.08691406","-15.90625","-4.15625","4.5"
"1572190895159","449","-0.17675781","-0.8642578","0.12988281","5.21875","1.84375","8.84375"
"1572190895945","450","-0.14257812","-0.9160156","0.12890625","7.21875","5.90625","3.84375"
"1572190895945","451","-0.09863281","-1.0195312","0.10058594","3.625","3.53125","-4.34375"
"1572190895946","452","-0.16503906","-1.0087891","0.06542969","1.71875","5.625","-2.03125"
"1572190895946","453","-0.13671875","-0.9746094","0.12109375","-7.375","6.71875","-2.28125"
"1572190895946","454","-0.18652344","-0.9580078","0.06640625","7.03125","9.65625","0.59375"
"1572190895946","455","-0.15332031","-1.0136719","0.036132812","2.53125","13.0625","6.46875"
"1572190895947","456","-0.20996094","-0.98339844","0.053710938","-0.90625","17.15625","9.03125"
"1572190895948","457","-0.20898438","-0.9433594","0.049804688","5.75","22.21875","16.15625"
"1572190895949","458","-0.17480469","-0.95996094","0.052734375","7.84375","19.59375","21.09375"
"1572190895949","459","-0.24414062","-0.9091797","0.076171875","12.34375","27.15625","22.3125"
"1572190896143","460","-0.23144531","-0.9345703","0.10839844","16.8125","33.875","28.0625"
"1572190896143","461","-0.3046875","-0.9296875","0.10253906","16.125","39.3125","29.65625"
"1572190896144","462","-0.2841797","-0.91503906","0.07421875","24.3125","37.0","33.125"
"1572190896144","463","-0.1875","-0.93847656","0.016601562","31.625","26.0625","31.65625"
"1572190896144","464","-0.16113281","-1.0546875","-0.022460938","29.6875","15.625","14.9375"
"1572190896144","465","-0.16699219","-1.0371094","0.02734375","12.59375","4.03125","7.3125"
"1572190896145","466","-0.2265625","-0.97265625","0.09667969","10.40625","-0.1875","10.3125"
"1572190896145","467","-0.22558594","-0.89746094","0.041015625","16.75","-5.625","7.8125"
"1572190896145","468","-0.2705078","-0.88964844","0.11230469","3.1875","-5.9375","3.46875"
"1572190896145","469","-0.25","-0.8388672","0.0625","10.75","-9.09375","3.78125"
"1572190896344","470","-0.24902344","-0.8574219","0.10644531","8.03125","-10.3125","4.8125"
"1572190896345","471","-0.37109375","-0.7558594","0.13085938","8.03125","-9.40625","7.0"
"1572190896345","472","-0.30664062","-0.8300781","0.12402344","15.40625","-6.40625","5.28125"
"1572190896345","473","-0.29589844","-0.86816406","0.109375","13.625","-6.59375","4.125"
"1572190896345","474","-0.30273438","-0.7910156","0.119140625","6.25","-16.375","-1.3125"
"1572190896346","475","-0.28027344","-0.7714844","0.16015625","12.09375","-26.84375","-1.25"
"1572190896346","476","-0.3388672","-0.7470703","0.171875","11.875","-31.375","-1.53125"
"1572190896346","477","-0.3076172","-0.8330078","0.22167969","4.71875","-25.5625","-0.375"
"1572190896346","478","-0.4033203","-1.1494141","0.28320312","-5.59375","-7.3125","-14.78125"
"1572190896347","479","-0.484375","-1.1699219","0.3359375","-15.53125","-14.59375","-7.875"
"1572190896743","480","-0.18066406","-1.6308594","0.46484375","18.9375","13.59375","-11.6875"
"1572190896743","481","-0.38378906","-1.0976562","0.12988281","-36.78125","-42.25","-10.40625"
"1572190896744","482","0.07324219","-1.3330078","-0.0048828125","-5.28125","-8.84375","-7.03125"
"1572190896745","483","-0.2626953","-0.99609375","0.23632812","-7.90625","-25.875","-13.375"
"1572190896745","484","-0.10546875","-0.95703125","0.25","2.78125","-24.96875","-2.46875"
"1572190896745","485","-0.09667969","-0.97558594","0.1171875","-6.625","-26.0625","-20.71875"
"1572190896746","486","-0.20507812","-0.9814453","0.12109375","-16.75","-13.75","-8.5625"
"1572190896746","487","-0.17578125","-0.90234375","0.13085938","-13.40625","-7.3125","-8.875"
"1572190896746","488","-0.17675781","-0.93359375","0.1328125","-7.5625","-4.53125","-8.8125"
"1572190896747","489","-0.14550781","-0.95996094","0.13085938","-5.28125","-0.4375","-7.59375"
"1572190897140","490","-0.12402344","-0.984375","0.12011719","-4.6875","-0.25","-8.375"
"1572190897140","491","-0.12109375","-0.95410156","0.15722656","-6.09375","-3.96875","-8.0"
"1572190897141","492","-0.10058594","-0.98046875","0.17285156","-7.375","-1.21875","-9.78125"
"1572190897142","493","-0.09082031","-0.9580078","0.15917969","-9.8125","-0.0625","-13.6875"
"1572190897142","494","-0.11621094","-0.96777344","0.14453125","-11.9375","3.78125","-9.15625"
"1572190897143","495","-0.15234375","-0.9863281","0.15527344","-17.4375","11.21875","-8.1875"
"1572190897143","496","-0.18066406","-1.0292969","0.10839844","-18.21875","12.5625","-8.25"
"1572190897143","497","-0.0546875","-1.0195312","0.099609375","-5.78125","6.71875","2.25"
"1572190897144","498","-0.140625","-0.9433594","0.13378906","-12.90625","-0.3125","-1.40625"
"1572190897144","499","-0.15527344","-0.9736328","0.037109375","0.03125","-2.03125","3.84375"
"1572190897538","500","-0.14355469","-0.96875","0.043945312","-6.15625","-0.125","6.5"
"1572190897538","501","-0.19335938","-0.9560547","0.041992188","-2.125","-1.21875","5.78125"
"1572190897539","502","-0.20507812","-1.0126953","0.017578125","6.0","1.875","6.34375"
"1572190897539","503","-0.17285156","-0.9550781","0.037109375","3.4375","1.71875","5.71875"
"1572190897539","504","-0.15820312","-0.9638672","0.02734375","9.78125","1.875","4.875"
"1572190897541","505","-0.13769531","-0.9746094","0.02734375","14.71875","-2.375","2.96875"
"1572190897541","506","-0.1328125","-0.9794922","0.049804688","13.375","-5.5625","0.71875"
"1572190897541","507","-0.13476562","-0.9550781","0.10839844","15.03125","-14.40625","3.34375"
"1572190897541","508","-0.11425781","-0.95996094","0.1328125","19.75","-23.375","2.71875"
"1572190897542","509","-0.12792969","-0.94921875","0.12792969","15.59375","-30.65625","8.09375"
"1572190897933","510","-0.13378906","-1.0058594","0.15625","4.0625","-18.8125","11.59375"
"1572190897934","511","-0.15722656","-1.140625","0.16894531","-7.25","4.09375","8.34375"
"1572190897934","512","-0.07128906","-1.0595703","0.009765625","5.5625","-9.46875","9.8125"
"1572190897934","513","-0.033203125","-1.0449219","0.10839844","-2.71875","-20.6875","1.4375"
"1572190897934","514","-0.14355469","-0.96191406","0.0859375","2.15625","-18.125","-1.53125"
"1572190897935","515","-0.111328125","-0.9511719","0.09863281","0.3125","-11.34375","0.46875"
"1572190897935","516","-0.14746094","-0.9609375","0.115234375","-6.75","-3.40625","-3.0625"
"1572190897936","517","-0.10058594","-0.97265625","0.107421875","-3.15625","-6.78125","-2.875"
"1572190897936","518","-0.1015625","-0.9707031","0.10058594","-0.15625","-7.875","-2.40625"
"1572190897937","519","-0.07324219","-0.9580078","0.091796875","4.125","-4.9375","-0.25"
"1572190898530","520","-0.043945312","-1.0234375","0.10546875","2.28125","-3.53125","0.28125"
"1572190898531","521","-0.10839844","-1.0800781","0.13867188","1.25","2.375","-1.1875"
"1572190898531","522","-0.12402344","-1.078125","0.12207031","-4.5","11.65625","2.5625"
"1572190898531","523","-0.17871094","-1.1210938","0.16601562","5.625","3.34375","8.71875"
"1572190898532","524","-0.37402344","-1.2558594","0.19824219","-8.40625","42.53125","8.90625"
"1572190898532","525","-0.27246094","-1.2958984","0.19140625","7.96875","26.25","17.3125"
"1572190898532","526","-0.36035156","-1.203125","0.20996094","4.125","27.28125","16.15625"
"1572190898532","527","-0.3359375","-0.96484375","0.171875","14.96875","23.25","25.9375"
"1572190898533","528","-0.32128906","-0.86816406","0.05859375","4.0","26.125","19.75"
"1572190898534","529","-0.2421875","-0.9892578","0.11328125","12.71875","31.375","0.53125"
"1572190898928","530","-0.3125","-0.8701172","0.12597656","3.3125","19.15625","1.8125"
"1572190898929","531","-0.15820312","-0.8964844","0.080078125","10.40625","9.65625","-5.9375"
"1572190898929","532","-0.20605469","-0.8496094","0.099609375","-1.875","12.09375","-5.25"
"1572190898930","533","-0.1796875","-0.8310547","0.09667969","-3.46875","13.0625","-8.125"
"1572190898930","534","-0.21484375","-0.77734375","0.08886719","-3.9375","9.875","-7.21875"
"1572190898930","535","-0.20898438","-0.8359375","0.06347656","-2.96875","11.15625","-6.96875"
"1572190898930","536","-0.1953125","-0.87890625","0.0546875","-7.4375","9.03125","-8.1875"
"1572190898931","537","-0.19433594","-0.8955078","0.04296875","-8.46875","2.9375","-8.5"
"1572190898931","538","-0.20703125","-0.8955078","0.047851562","-6.15625","1.9375","-9.0625"
"1572190898931","539","-0.20019531","-0.8984375","0.02734375","-8.53125","-9.09375","-11.375"
"1572190899325","540","-0.15625","-0.9628906","-0.0087890625","-11.15625","-11.84375","-15.8125"
"1572190899326","541","-0.17675781","-1.1347656","0.01171875","-13.46875","-4.28125","-18.21875"
"1572190899326","542","-0.25390625","-0.9902344","0.24609375","-43.5625","-4.875","-22.90625"
"1572190899326","543","-0.12011719","-0.85253906","0.1015625","11.96875","-44.375","-1.53125"
"1572190899327","544","-0.18359375","-0.9951172","-0.087890625","-9.5625","-20.6875","-16.5"
"1572190899327","545","-0.171875","-0.9169922","0.052734375","-13.71875","-2.03125","2.1875"
"1572190899327","546","-0.22558594","-0.9296875","0.06347656","-7.65625","0.59375","-7.71875"
"1572190899328","547","-0.14550781","-1.0302734","0.028320312","2.65625","-4.53125","-6.0625"
"1572190899328","548","-0.14355469","-1.0078125","-0.0107421875","-1.125","-4.03125","-1.90625"
"1572190899328","549","-0.08496094","-0.96875","0.028320312","2.84375","-4.8125","2.25"
"1572190899723","550","-0.12597656","-0.96777344","0.06347656","2.53125","-6.65625","-0.4375"
"1572190899723","551","-0.13867188","-1.0068359","0.026367188","5.40625","-4.40625","-2.75"
"1572190899724","552","-0.115234375","-1.0195312","0.0068359375","3.125","-5.125","-1.0625"
"1572190899725","553","-0.11230469","-0.9892578","0.015625","1.3125","-6.40625","0.15625"
"1572190899725","554","-0.12695312","-0.9824219","0.040039062","2.28125","-5.25","1.5625"
"1572190899726","555","-0.15136719","-1.0009766","0.015625","6.1875","-2.375","2.5"
"1572190899726","556","-0.13183594","-0.98046875","0.0029296875","4.71875","-2.375","-1.53125"
"1572190899726","557","-0.14355469","-1.0048828","0.044921875","-0.34375","-6.84375","2.375"
"1572190899727","558","-0.14453125","-0.9169922","0.08300781","3.6875","-6.84375","1.625"
"1572190899727","559","-0.17871094","-0.93847656","0.0390625","17.59375","-14.40625","9.6875"
"1572190900121","560","-0.107421875","-0.92285156","0.048828125","17.0625","-27.59375","16.84375"
"1572190900122","561","-0.14453125","-0.87109375","0.1328125","33.40625","-39.75","23.46875"
"1572190900122","562","-0.04296875","-0.84277344","0.20507812","35.25","-40.59375","25.1875"
"1572190900122","563","-0.2783203","-0.9863281","0.32226562","2.78125","-12.03125","11.40625"
"1572190900122","564","-0.38378906","-0.9609375","0.15625","1.78125","3.28125","10.0625"
"1572190900124","565","-0.1171875","-1.0175781","0.017578125","14.65625","18.0625","17.4375"
"1572190900124","566","-0.14160156","-0.98046875","0.040039062","-4.4375","11.46875","6.6875"
"1572190900125","567","-0.13769531","-0.8457031","0.17871094","10.75","3.59375","11.8125"
"1572190900125","568","-0.15234375","-0.8730469","0.16894531","11.3125","-2.25","7.1875"
"1572190900125","569","-0.12402344","-0.7734375","0.17285156","6.0625","-0.4375","7.4375"
"1572190900519","570","-0.16992188","-0.71972656","0.15234375","3.0","5.0","7.3125"
"1572190900519","571","-0.15429688","-0.63183594","0.20117188","0.375","6.28125","21.15625"
"1572190900519","572","-0.14160156","-0.63964844","0.16992188","8.6875","11.03125","16.65625"
"1572190900520","573","-0.24414062","-0.58203125","0.2939453","4.59375","10.875","20.375"
"1572190900520","574","-0.40625","-1.171875","0.29003906","49.71875","64.09375","-4.40625"
"1572190900520","575","-0.48828125","-1.7207031","-0.1328125","6.90625","-9.15625","5.53125"
"1572190900520","576","-0.2265625","-1.4804688","0.2626953","-4.3125","-0.1875","5.84375"
"1572190900522","577","-0.7050781","-1.3271484","0.09765625","-7.65625","-1.15625","13.0"
"1572190900523","578","-0.09082031","-1.2304688","0.15136719","-0.53125","30.75","5.40625"
"1572190900523","579","-0.3125","-1.1777344","-0.013671875","-9.25","5.6875","-13.5625"
"1572190900915","580","-0.3173828","-0.94921875","0.072265625","-12.4375","-3.25","3.34375"
"1572190900916","581","-0.3330078","-0.890625","0.0234375","-9.125","14.34375","3.21875"
"1572190900916","582","-0.16796875","-0.9824219","-0.05078125","-8.34375","10.5625","-18.21875"
"1572190900916","583","-0.1953125","-0.9121094","0.013671875","-19.625","6.28125","-15.75"
"1572190900916","584","-0.20605469","-0.89746094","0.057617188","-9.0","5.6875","-16.3125"
"1572190900917","585","-0.14160156","-0.94921875","0.06738281","-1.4375","-3.90625","-15.625"
"1572190900917","586","-0.20898438","-0.9638672","0.049804688","-9.4375","-10.5","-15.875"
"1572190900917","587","-0.15625","-0.97558594","0.026367188","-2.40625","-17.40625","-8.25"
"1572190900917","588","-0.2705078","-0.9082031","0.044921875","-5.34375","-10.125","-4.15625"
"1572190900919","589","-0.2998047","-0.8925781","-0.001953125","7.59375","-7.5625","0.71875"
"1572190901312","590","-0.24414062","-0.8828125","0.013671875","9.40625","-1.84375","1.28125"
"1572190901312","591","-0.2109375","-0.9589844","0.0146484375","4.15625","1.53125","-2.8125"
"1572190901313","592","-0.14355469","-0.9609375","-0.0048828125","3.625","-4.09375","-12.71875"
"1572190901313","593","-0.20117188","-1.1914062","0.056640625","-4.1875","1.34375","-19.1875"
"1572190901313","594","-0.30078125","-1.1640625","0.24316406","-4.625","6.28125","-16.8125"
"1572190901313","595","-0.10253906","-0.75097656","0.08105469","5.5625","-21.0625","10.0625"
"1572190901314","596","-0.055664062","-0.97265625","-0.057617188","-0.78125","-1.53125","-16.0625"
"1572190901314","597","-0.16113281","-0.9658203","0.040039062","-10.28125","0.125","-4.15625"
"1572190901314","598","-0.26367188","-0.9580078","0.109375","-11.28125","0.25","-7.40625"
"1572190901314","599","-0.15136719","-1.0273438","0.053710938","3.5","-8.5","-5.5625"
"1572190901711","600","-0.16992188","-0.9628906","0.04296875","-3.34375","-9.21875","1.5"
"1572190901712","601","-0.14355469","-0.9638672","0.06347656","0.5","-5.5","1.09375"
"1572190901712","602","-0.15039062","-0.95703125","0.041015625","8.75","-6.90625","0.0"
"1572190901712","603","-0.17285156","-1.0009766","0.08691406","-2.46875","-9.71875","-4.46875"
"1572190901713","604","-0.14355469","-0.9345703","0.0703125","8.03125","-11.40625","-0.25"
"1572190901713","605","-0.20605469","-0.9658203","0.064453125","10.28125","-5.625","5.71875"
"1572190901713","606","-0.15332031","-0.9121094","0.072265625","14.71875","-5.1875","9.25"
"1572190901715","607","-0.107421875","-0.9589844","0.080078125","19.3125","-9.84375","9.8125"
"1572190901715","608","-0.08691406","-1.0107422","0.08691406","23.21875","-17.09375","7.0625"
"1572190901715","609","-0.15136719","-1.0615234","0.11328125","20.28125","-22.28125","3.84375"
"1572190902109","610","-0.12792969","-0.98828125","0.1171875","6.375","-21.0625","9.125"
"1572190902110","611","-0.13476562","-1.0673828","0.12792969","1.65625","-11.65625","5.34375"
"1572190902110","612","-0.15039062","-1.1230469","0.10253906","-2.84375","-5.5625","-1.78125"
"1572190902111","613","-0.1171875","-1.0136719","0.068359375","-2.90625","-13.125","4.75"
"1572190902112","614","-0.1171875","-0.984375","0.0703125","-3.875","-14.65625","-0.3125"
"1572190902112","615","-0.10839844","-0.93359375","0.10449219","-0.59375","-12.09375","-1.65625"
"1572190902112","616","-0.08105469","-0.9550781","0.103515625","0.75","-6.03125","-3.4375"
"1572190902113","617","-0.13183594","-0.90625","0.13476562","-2.84375","-6.03125","-4.09375"
"1572190902113","618","-0.087890625","-0.9765625","0.13769531","0.375","-6.84375","-1.1875"
"1572190902113","619","-0.12792969","-0.9375","0.10839844","-0.53125","0.5625","-2.21875"
"1572190902507","620","-0.11035156","-1.0078125","0.05078125","7.59375","0.65625","0.84375"
"1572190902507","621","-0.043945312","-1.1025391","0.061523438","-1.5","2.0625","-2.21875"
"1572190902508","622","-0.056640625","-1.1064453","0.12011719","-1.875","2.8125","-1.65625"
"1572190902508","623","-0.17773438","-1.1123047","0.14941406","4.65625","-4.40625","5.84375"
"1572190902508","624","-0.3095703","-1.2392578","0.1953125","-6.15625","27.84375","10.53125"
"1572190902510","625","-0.2626953","-1.4248047","0.17285156","5.15625","26.4375","10.84375"
"1572190902510","626","-0.23339844","-1.3671875","0.19042969","10.40625","7.03125","12.0625"
"1572190902511","627","-0.36816406","-1.0732422","0.24414062","8.9375","15.5625","8.34375"
"1572190902511","628","-0.40234375","-0.75878906","0.14941406","11.625","18.5625","22.09375"
"1572190902511","629","-0.26464844","-0.9902344","0.05078125","10.03125","37.96875","5.21875"
"1572190902903","630","-0.23828125","-0.90234375","0.11425781","-12.125","18.96875","1.8125"
"1572190902904","631","-0.11425781","-0.8251953","0.07714844","1.4375","7.8125","-6.71875"
"1572190902904","632","-0.18554688","-0.72753906","0.0625","-2.53125","-4.21875","-6.5"
"1572190902904","633","-0.08886719","-0.7949219","0.07421875","-7.5","-6.34375","-5.4375"
"1572190902904","634","-0.22167969","-0.71777344","0.09863281","-14.875","2.3125","-2.9375"
"1572190902905","635","-0.22558594","-0.8261719","0.047851562","-4.5","2.6875","-2.6875"
"1572190902905","636","-0.24121094","-0.8847656","0.04296875","-12.5625","-1.59375","-3.875"
"1572190902906","637","-0.18652344","-0.87402344","0.045898438","-13.65625","-3.53125","-1.1875"
"1572190902909","638","-0.20605469","-0.9472656","0.03125","-11.625","-4.21875","-9.125"
"1572190902909","639","-0.16210938","-0.93066406","-0.0029296875","-16.34375","-10.875","-12.28125"
"1572190903301","640","-0.19238281","-1.0908203","0.059570312","-18.21875","-7.03125","-16.5625"
"1572190903302","641","-0.36816406","-0.95996094","0.06640625","-25.75","-4.9375","-14.59375"
"1572190903302","642","-0.09667969","-1.0126953","0.057617188","0.6875","-14.59375","-6.71875"
"1572190903302","643","-0.22460938","-0.8857422","-0.022460938","-6.5","-19.28125","-3.90625"
"1572190903303","644","-0.21191406","-0.96972656","0.029296875","3.5","-2.0625","-1.71875"
"1572190903303","645","-0.23828125","-0.91503906","0.06933594","4.53125","-4.28125","3.09375"
"1572190903303","646","-0.22167969","-0.95996094","0.0390625","14.125","-6.40625","0.15625"
"1572190903303","647","-0.22949219","-0.9316406","0.045898438","8.375","-6.65625","2.1875"
"1572190903304","648","-0.20019531","-0.9873047","0.043945312","11.8125","-2.5625","6.15625"
"1572190903304","649","-0.15332031","-0.9667969","0.08203125","3.875","-0.3125","2.96875"
"1572190903698","650","-0.10644531","-0.9980469","0.057617188","15.40625","-14.15625","4.1875"
"1572190903699","651","-0.12597656","-0.9316406","0.09667969","15.71875","-25.34375","6.15625"
"1572190903699","652","-0.12597656","-0.8857422","0.1328125","20.09375","-37.1875","10.0625"
"1572190903700","653","-0.18847656","-0.8544922","0.14355469","25.21875","-36.4375","10.46875"
"1572190903700","654","-0.19628906","-0.94628906","0.09472656","29.4375","-31.625","15.25"
"1572190903700","655","-0.13769531","-0.9746094","0.13769531","18.34375","-26.0625","16.15625"
"1572190903700","656","-0.21679688","-1.0732422","0.23144531","20.28125","-12.28125","12.9375"
"1572190903701","657","-0.28027344","-1.1074219","0.15332031","14.3125","-0.1875","6.28125"
"1572190903701","658","-0.19042969","-1.1103516","0.119140625","2.78125","8.0","4.5"
"1572190903701","659","-0.19042969","-1.0537109","0.1640625","-6.75","13.84375","-3.75"
"1572190904096","660","-0.19433594","-1.0224609","0.15917969","-6.03125","16.78125","-11.6875"
"1572190904098","661","-0.140625","-0.94921875","0.15136719","-10.71875","15.125","-13.03125"
"1572190904098","662","-0.08496094","-0.8691406","0.16601562","-12.3125","10.1875","-12.53125"
"1572190904098","663","-0.15917969","-0.79296875","0.14257812","-9.4375","11.59375","-10.28125"
"1572190904099","664","-0.18847656","-0.7392578","0.20605469","-17.375","12.8125","-0.0625"
"1572190904099","665","-0.125","-0.6542969","0.19628906","1.3125","18.3125","8.59375"
"1572190904099","666","-0.12109375","-0.60058594","0.13574219","14.125","14.84375","19.5625"
"1572190904100","667","-0.072265625","-0.57421875","0.16699219","11.375","8.84375","30.0625"
"1572190904100","668","-0.2265625","-0.6142578","0.2109375","0.03125","10.5625","29.53125"
"1572190904100","669","-0.39746094","-0.625","0.24707031","6.84375","27.78125","34.65625"
"1572190904494","670","-0.48339844","-1.2275391","0.18164062","61.96875","95.875","3.28125"
"1572190904495","671","-0.48535156","-1.9082031","-0.23535156","-2.0","17.8125","26.03125"
"1572190904495","672","0.06542969","-1.3085938","0.2578125","-14.25","-5.25","21.78125"
"1572190904496","673","-1.1865234","-1.5361328","-0.0234375","27.59375","9.875","3.65625"
"1572190904497","674","0.18945312","-1.1582031","0.11816406","14.0625","-5.6875","32.6875"
"1572190904497","675","-0.36523438","-0.89746094","0.046875","-14.75","8.78125","1.8125"
"1572190904497","676","-0.16894531","-1.1513672","-0.1015625","4.40625","4.34375","-24.3125"
"1572190904498","677","-0.11328125","-0.98535156","0.001953125","-40.6875","-15.03125","-23.09375"
"1572190904498","678","-0.3544922","-0.82714844","0.08984375","-23.46875","-20.625","-21.125"
"1572190904498","679","-0.24316406","-0.96972656","0.08496094","-10.34375","-18.3125","-17.21875"
"1572190904890","680","-0.2890625","-0.91015625","0.024414062","-19.21875","-11.34375","-12.96875"
"1572190904891","681","-0.32617188","-0.9326172","-0.0234375","-5.90625","-9.09375","-9.65625"
"1572190904891","682","-0.31152344","-0.9267578","0.016601562","-9.8125","-9.28125","-5.6875"
"1572190904891","683","-0.3017578","-0.91308594","0.0625","-2.46875","-1.21875","-4.34375"
"1572190904891","684","-0.2763672","-0.93652344","0.0107421875","3.1875","-7.3125","-5.25"
"1572190904892","685","-0.24316406","-0.8984375","0.034179688","1.71875","-10.3125","-5.09375"
"1572190904893","686","-0.23828125","-0.98339844","0.047851562","5.9375","-4.53125","-8.5"
"1572190904893","687","-0.24707031","-1.0683594","0.12890625","7.09375","5.78125","-13.03125"
"1572190904893","688","-0.24511719","-0.94921875","0.16894531","12.40625","-6.78125","0.0"
"1572190904894","689","-0.13671875","-0.9628906","0.14355469","14.84375","-13.3125","-4.65625"
"1572190905289","690","-0.19726562","-0.890625","0.1171875","11.25","-10.9375","-2.59375"
"1572190905289","691","-0.1953125","-0.9267578","0.076171875","2.9375","-1.46875","-3.25"
"1572190905289","692","-0.16992188","-1.0273438","0.08105469","0.5625","2.625","-5.09375"
"1572190905290","693","-0.19335938","-0.9707031","0.07128906","4.71875","-0.75","-4.53125"
"1572190905290","694","-0.20117188","-1.0253906","0.13085938","-5.53125","-2.1875","-4.84375"
"1572190905290","695","-0.17382812","-0.9658203","0.12597656","1.96875","-2.9375","-2.15625"
"1572190905290","696","-0.15722656","-0.9970703","0.07910156","3.0","-4.8125","3.03125"
"1572190905292","697","-0.17480469","-0.9667969","0.099609375","-2.3125","-2.3125","3.15625"
"1572190905292","698","-0.20117188","-0.97265625","0.13378906","-2.96875","-0.75","5.1875"
"1572190905293","699","-0.24707031","-0.9863281","0.119140625","0.03125","5.125","8.34375"
"1572190905686","700","-0.35058594","-0.92089844","0.11035156","-0.71875","11.59375","16.9375"
"1572190905687","701","-0.3564453","-0.83984375","0.10546875","5.6875","15.75","31.65625"
"1572190905687","702","-0.26757812","-0.97265625","0.07714844","22.90625","34.0625","24.09375"
"1572190905687","703","-0.3154297","-0.98339844","0.030273438","23.40625","31.84375","15.96875"
"1572190905687","704","-0.20117188","-1.1396484","0.0234375","28.84375","32.15625","4.1875"
"1572190905688","705","-0.19628906","-1.0410156","0.06542969","8.25","22.75","-3.375"
"1572190905688","706","-0.17675781","-0.9892578","0.057617188","2.34375","16.90625","2.3125"
"1572190905688","707","-0.20703125","-0.95703125","0.0126953125","-0.28125","14.53125","-1.1875"
"1572190905688","708","-0.24902344","-0.93652344","0.0029296875","-7.125","11.40625","-2.6875"
"1572190905690","709","-0.26171875","-0.9667969","0.02734375","-8.65625","8.46875","1.6875"
"1572190906084","710","-0.24804688","-0.94433594","0.0","-9.3125","8.78125","-1.96875"
"1572190906085","711","-0.25","-0.93066406","-0.029296875","4.40625","-3.46875","5.90625"
"1572190906085","712","-0.23632812","-0.90527344","9.765625E-4","1.96875","-0.96875","3.65625"
"1572190906085","713","-0.2763672","-0.96484375","-0.0068359375","7.28125","5.75","-2.625"
"1572190906085","714","-0.24414062","-0.984375","-0.0390625","7.03125","5.84375","-3.1875"
"1572190906086","715","-0.20214844","-0.94921875","0.025390625","6.75","2.75","-2.34375"
"1572190906086","716","-0.28027344","-0.9970703","0.049804688","6.6875","7.6875","-3.75"
"1572190906086","717","-0.31835938","-1.140625","9.765625E-4","16.5","5.6875","-10.40625"
"1572190906086","718","-0.27441406","-1.1455078","0.053710938","10.28125","-4.15625","-10.9375"
"1572190906087","719","-0.2890625","-1.2197266","0.09765625","5.21875","0.96875","-11.625"
"1572190906481","720","-0.3876953","-1.3222656","0.1015625","2.71875","-3.0","-13.125"
"1572190906481","721","-0.296875","-1.1806641","0.15039062","12.09375","-27.34375","-7.28125"
"1572190906482","722","-0.15820312","-0.9941406","0.18554688","20.34375","-44.375","-2.15625"
"1572190906482","723","-0.24414062","-0.80859375","0.23828125","-5.78125","-39.5625","-1.78125"
"1572190906482","724","-0.24609375","-0.89941406","0.25097656","-6.09375","-27.03125","-7.28125"
"1572190906482","725","-0.22070312","-0.88671875","0.2421875","-10.21875","-29.25","-9.65625"
"1572190906483","726","-0.19335938","-0.9550781","0.13476562","-5.09375","-30.9375","-9.53125"
"1572190906483","727","-0.14257812","-0.91796875","0.12011719","-14.875","-34.375","-8.625"
"1572190906484","728","-0.14257812","-0.85839844","0.12109375","-11.34375","-29.78125","-10.09375"
"1572190906485","729","-0.11816406","-0.8017578","0.103515625","-4.5","-35.71875","-8.1875"
"1572190906877","730","-0.1328125","-0.7988281","0.12011719","-10.53125","-29.78125","-3.4375"
"1572190906877","731","-0.18847656","-0.828125","0.16503906","-14.75","-14.15625","-6.25"
"1572190906878","732","-0.18261719","-0.91308594","0.15039062","-12.96875","-2.03125","-9.28125"
"1572190906879","733","-0.103515625","-0.96972656","0.140625","-19.15625","-0.625","-16.125"
"1572190906879","734","-0.17773438","-0.99316406","0.08984375","-27.8125","0.71875","-16.0"
"1572190906879","735","-0.21386719","-1.0458984","0.04296875","-19.5","16.71875","-18.15625"
"1572190906880","736","-0.18554688","-0.95410156","0.025390625","-15.59375","13.3125","2.71875"
"1572190906880","737","-0.13183594","-0.96875","0.059570312","-5.71875","10.9375","2.0"
"1572190906880","738","-0.15722656","-0.8691406","0.06640625","8.875","-6.53125","11.71875"
"1572190906880","739","-0.18652344","-0.9091797","0.11328125","3.5","2.4375","5.84375"
"1572190907276","740","-0.16113281","-0.9863281","0.057617188","10.9375","6.78125","6.75"
"1572190907277","741","-0.12402344","-1.0068359","0.037109375","4.125","4.9375","8.34375"
"1572190907277","742","-0.11621094","-0.953125","0.064453125","2.34375","3.21875","7.3125"
"1572190907277","743","-0.14648438","-0.95214844","0.0703125","10.21875","-3.40625","5.71875"
"1572190907278","744","-0.15917969","-1.0039062","0.06542969","11.5","-2.3125","5.34375"
"1572190907279","745","-0.16796875","-0.9873047","0.045898438","7.40625","2.25","5.53125"
"1572190907279","746","-0.15917969","-0.9970703","0.049804688","8.75","3.40625","10.1875"
"1572190907280","747","-0.24804688","-0.9394531","0.099609375","12.90625","4.875","17.4375"
"1572190907280","748","-0.25683594","-0.94921875","0.09667969","21.03125","20.125","23.25"
"1572190907280","749","-0.33007812","-0.95703125","0.10839844","25.40625","25.875","26.90625"
"1572190907673","750","-0.30078125","-0.7441406","0.087890625","27.78125","20.625","46.90625"
"1572190907674","751","-0.17285156","-0.8828125","0.087890625","43.90625","26.96875","35.15625"
"1572190907674","752","-0.18164062","-1.0693359","0.068359375","30.78125","8.0","13.15625"
"1572190907675","753","-0.25","-0.9560547","0.12988281","24.875","-1.78125","13.46875"
"1572190907675","754","-0.23535156","-0.98828125","0.140625","13.375","-5.0","8.96875"
"1572190907675","755","-0.22265625","-0.9501953","0.08300781","6.5625","-9.59375","2.96875"
"1572190907675","756","-0.2529297","-0.9189453","0.10253906","0.25","-8.96875","1.3125"
"1572190907676","757","-0.2783203","-0.8671875","0.11425781","-2.90625","-14.78125","-4.46875"
"1572190907676","758","-0.30664062","-0.83984375","0.15722656","-3.75","-20.21875","-0.8125"
"1572190907676","759","-0.36621094","-0.8515625","0.1484375","-8.53125","-12.5","-1.40625"
"1572190908071","760","-0.28320312","-0.7910156","0.12792969","-4.0625","-18.5625","-2.75"
"1572190908072","761","-0.2685547","-0.8457031","0.17089844","4.65625","-16.59375","-4.90625"
"1572190908072","762","-0.33203125","-0.77734375","0.15527344","-1.0625","-29.40625","-3.5"
"1572190908072","763","-0.2734375","-0.73828125","0.19140625","3.0","-27.46875","3.03125"
"1572190908072","764","-0.33789062","-0.84375","0.20898438","9.3125","-25.15625","-0.6875"
"1572190908073","765","-0.4345703","-1.0732422","0.3154297","-4.8125","-9.53125","-6.53125"
"1572190908073","766","-0.46191406","-1.1572266","0.29492188","-9.75","-5.125","-1.34375"
"1572190908073","767","-0.13867188","-1.2451172","0.15625","1.3125","-0.125","-4.59375"
"1572190908074","768","-0.38867188","-1.4580078","0.31640625","12.90625","-9.21875","-15.09375"
"1572190908075","769","-0.28027344","-1.1416016","0.15429688","1.59375","-14.46875","1.5625"
"1572190908467","770","0.08691406","-1.1582031","0.034179688","-19.09375","-10.3125","-11.125"
"1572190908468","771","-0.16601562","-1.0478516","0.11621094","-17.0","-22.34375","-15.75"
"1572190908468","772","-0.11425781","-0.8769531","0.16210938","-19.375","-16.0","-14.0"
"1572190908468","773","-0.13867188","-0.9707031","0.11425781","-11.6875","-6.21875","-17.65625"
"1572190908468","774","-0.16015625","-1.0751953","0.0859375","-21.78125","6.40625","-13.875"
"1572190908469","775","-0.12109375","-0.98828125","0.060546875","-31.53125","2.6875","-19.5"
"1572190908469","776","-0.16699219","-0.9667969","0.08496094","-20.3125","7.5","-10.875"
"1572190908469","777","-0.08203125","-0.9375","0.08105469","-10.0","1.9375","-9.96875"
"1572190908469","778","-0.10058594","-0.9658203","0.087890625","-7.96875","5.625","-9.0"
"1572190908470","779","-0.0390625","-0.92285156","0.08691406","-10.1875","-1.28125","-10.8125"
"1572190908866","780","-0.053710938","-0.9453125","0.06542969","-11.5625","-5.125","-11.25"
"1572190908867","781","-0.17675781","-1.0878906","0.2265625","-20.4375","19.09375","-13.0625"
"1572190908867","782","-0.24902344","-1.0292969","0.022460938","-0.21875","16.0625","-9.84375"
"1572190908868","783","-0.21972656","-0.94921875","-0.06738281","15.59375","5.4375","8.84375"
"1572190908868","784","-0.24023438","-0.9013672","0.020507812","-11.03125","6.59375","13.46875"
"1572190908868","785","-0.028320312","-0.87109375","0.03515625","10.65625","12.875","10.53125"
"1572190908868","786","-0.059570312","-1.0107422","0.09277344","18.03125","6.21875","7.5625"
"1572190908868","787","-0.27441406","-1.0986328","0.060546875","9.46875","-7.5625","5.71875"
"1572190908869","788","-0.18652344","-0.9921875","-0.0234375","0.3125","-11.46875","9.375"
"1572190908869","789","-0.1640625","-0.9736328","-0.033203125","0.5625","2.3125","4.125"
"1572190909264","790","-0.18164062","-0.984375","0.018554688","5.9375","14.34375","-1.34375"
"1572190909264","791","-0.18652344","-0.98535156","0.026367188","9.0","8.125","1.8125"
"1572190909264","792","-0.20117188","-0.9746094","0.044921875","9.125","5.5625","5.125"
"1572190909266","793","-0.17675781","-0.96972656","0.064453125","11.6875","8.3125","3.78125"
"1572190909266","794","-0.16113281","-0.97753906","0.049804688","10.75","11.15625","-0.125"
"1572190909266","795","-0.14257812","-0.96875","0.059570312","11.8125","7.75","-0.0625"
"1572190909267","796","-0.13964844","-0.9238281","0.09472656","9.96875","0.375","1.375"
"1572190909267","797","-0.10546875","-0.9433594","0.12207031","17.28125","-11.40625","5.21875"
"1572190909267","798","-0.0859375","-0.890625","0.107421875","19.375","-29.125","2.0"
"1572190909268","799","-0.13476562","-0.9824219","0.18261719","9.71875","-35.78125","6.875"
"1572190909662","800","-0.22265625","-1.0058594","0.115234375","1.0","-13.75","9.625"
"1572190909662","801","-0.107421875","-1.2695312","0.061523438","12.46875","15.25","1.21875"
"1572190909663","802","-0.1015625","-1.0859375","0.046875","-0.09375","-13.0625","9.1875"
"1572190909663","803","-0.038085938","-1.03125","0.059570312","7.71875","-23.75","0.78125"
"1572190909663","804","-0.095703125","-0.9316406","0.12695312","9.78125","-23.25","2.90625"
"1572190909664","805","-0.15136719","-0.91015625","0.11035156","6.125","-10.4375","0.65625"
"1572190909666","806","-0.09375","-0.9814453","0.10839844","1.78125","-3.1875","-0.1875"
"1572190909666","807","-0.11230469","-0.97265625","0.1171875","0.375","-9.59375","-0.6875"
"1572190909666","808","-0.07324219","-0.9501953","0.10839844","3.6875","-8.59375","-0.625"
"1572190909666","809","-0.025390625","-1.0234375","0.109375","4.40625","-10.25","-0.3125"
"1572190910059","810","-0.078125","-1.0771484","0.1328125","-6.375","-0.0625","-1.96875"
"1572190910060","811","-0.09472656","-1.1015625","0.18164062","0.09375","-5.0","0.96875"
"1572190910060","812","-0.2763672","-1.0732422","0.15234375","3.9375","-8.5625","10.125"
"1572190910060","813","-0.36328125","-1.3085938","0.27539062","6.75","17.15625","10.90625"
"1572190910060","814","-0.25097656","-1.5166016","0.3203125","9.65625","18.90625","9.09375"
"1572190910061","815","-0.44335938","-1.1796875","0.25","-7.375","12.9375","13.0"
"1572190910061","816","-0.2841797","-0.8515625","0.12695312","10.21875","22.53125","25.0"
"1572190910062","817","-0.27441406","-0.8876953","0.10644531","14.96875","31.25","11.59375"
"1572190910063","818","-0.2529297","-0.9316406","0.15234375","-0.09375","24.21875","-5.6875"
"1572190910063","819","-0.18164062","-0.8720703","0.14941406","10.8125","19.15625","-5.375"
"1572190910455","820","-0.18945312","-0.8095703","0.11328125","-6.375","12.21875","-4.09375"
"1572190910455","821","-0.140625","-0.8066406","0.10644531","-11.09375","19.09375","-8.0625"
"1572190910455","822","-0.20410156","-0.75878906","0.05859375","-12.0","15.5625","-3.8125"
"1572190910456","823","-0.17871094","-0.77441406","0.048828125","-8.15625","10.875","-4.59375"
"1572190910456","824","-0.18652344","-0.8359375","0.052734375","-4.96875","1.15625","-3.3125"
"1572190910456","825","-0.22363281","-0.85546875","0.06933594","-6.8125","3.15625","-5.6875"
"1572190910456","826","-0.23535156","-0.8925781","0.08203125","-18.0","2.875","-6.78125"
"1572190910457","827","-0.29589844","-0.90527344","0.015625","-19.28125","8.53125","-10.9375"
"1572190910457","828","-0.18847656","-0.9628906","-0.00390625","-11.28125","3.34375","-12.59375"
"1572190910458","829","-0.09765625","-1.2460938","0.0390625","-11.75","18.625","-18.4375"
"1572190910852","830","-0.2919922","-1.0166016","0.22753906","-29.03125","4.09375","-21.375"
"1572190910853","831","-0.07910156","-0.85546875","0.05859375","11.9375","-27.40625","5.28125"
"1572190910853","832","-0.1328125","-0.9511719","-0.0068359375","-10.90625","-6.78125","-14.96875"
"1572190910853","833","-0.24414062","-0.95703125","0.055664062","-18.09375","9.03125","-9.90625"
"1572190910854","834","-0.24023438","-0.9345703","0.04296875","-11.15625","3.90625","-7.46875"
"1572190910854","835","-0.17285156","-0.9785156","0.0234375","-3.03125","-4.53125","-0.625"
"1572190910854","836","-0.18945312","-0.94140625","0.017578125","0.09375","-1.53125","2.1875"
"1572190910854","837","-0.14941406","-0.92285156","0.032226562","7.28125","-1.46875","8.28125"
"1572190910855","838","-0.16699219","-0.9482422","0.048828125","12.40625","-6.96875","9.8125"
"1572190910855","839","-0.15136719","-0.9482422","0.0390625","17.53125","-12.03125","8.96875"
"1572190911251","840","-0.07324219","-0.9550781","0.07421875","25.40625","-22.03125","8.59375"
"1572190911253","841","-0.15429688","-0.9169922","0.083984375","29.3125","-33.5","7.1875"
"1572190911253","842","-0.17675781","-0.9902344","0.11621094","27.0","-31.6875","17.6875"
"1572190911253","843","-0.16015625","-1.0253906","0.11035156","12.46875","-28.5","17.875"
"1572190911254","844","-0.16015625","-0.89941406","0.09082031","27.96875","-35.28125","23.0"
"1572190911254","845","-0.23535156","-1.0429688","0.21191406","11.75","-22.78125","16.90625"
"1572190911254","846","-0.2841797","-1.0244141","0.18847656","3.0","-9.71875","8.46875"
"1572190911255","847","-0.20703125","-1.1142578","0.109375","5.03125","0.0","10.40625"
"1572190911255","848","-0.15234375","-1.0517578","0.099609375","-2.65625","-2.625","8.09375"
"1572190911255","849","-0.18652344","-0.98339844","0.1171875","-8.40625","-6.65625","7.5625"
"1572190911648","850","-0.13867188","-0.8984375","0.13085938","-0.46875","-4.34375","3.78125"
"1572190911648","851","-0.1796875","-0.8066406","0.1484375","-1.5","-6.59375","5.71875"
"1572190911648","852","-0.22460938","-0.7597656","0.17382812","2.34375","0.25","7.0"
"1572190911650","853","-0.140625","-0.56933594","0.1328125","4.15625","-2.6875","12.5625"
"1572190911650","854","-0.11035156","-0.5810547","0.16503906","-0.65625","15.5","19.5625"
"1572190911651","855","-0.19726562","-0.6777344","0.23925781","-2.59375","22.15625","7.375"
"1572190911651","856","-0.24804688","-0.67578125","0.23828125","11.1875","10.6875","7.84375"
"1572190911651","857","-0.2939453","-0.7519531","0.30664062","16.875","17.625","13.65625"
"1572190911652","858","-0.37402344","-1.1054688","0.21679688","31.5","26.375","-3.0"
"1572190911652","859","-0.56640625","-1.5039062","-0.0546875","26.375","21.96875","-6.53125"
"1572190912046","860","-0.27929688","-1.2792969","0.17773438","-31.40625","9.46875","11.21875"
"1572190912046","861","-0.5214844","-1.1972656","0.2265625","6.0625","30.9375","3.40625"
"1572190912046","862","-0.6015625","-1.6621094","-0.034179688","29.75","29.53125","-4.96875"
"1572190912047","863","0.15722656","-1.1298828","0.14355469","-34.03125","-6.96875","15.1875"
"1572190912047","864","-0.484375","-0.9121094","0.13964844","-5.09375","18.78125","-9.71875"
"1572190912048","865","-0.34277344","-1.0039062","0.0126953125","16.875","23.75","-0.625"
"1572190912049","866","-0.10546875","-1.03125","-0.16308594","-17.0","12.6875","-18.9375"
"1572190912049","867","-0.080078125","-0.9003906","0.0126953125","-20.71875","0.96875","-20.09375"
"1572190912049","868","-0.24609375","-0.9140625","0.07519531","-1.4375","-3.34375","-20.46875"
"1572190912050","869","-0.16210938","-0.98535156","0.048828125","-6.3125","-7.875","-15.75"
"1572190912442","870","-0.1640625","-0.9892578","0.001953125","-7.3125","-13.75","-17.65625"
"1572190912442","871","-0.1875","-0.9785156","9.765625E-4","-12.3125","-17.65625","-10.40625"
"1572190912443","872","-0.18164062","-0.9716797","0.0068359375","-10.40625","-17.875","-8.9375"
"1572190912443","873","-0.23828125","-0.9248047","0.0","-0.34375","-23.1875","-6.59375"
"1572190912443","874","-0.26757812","-0.8798828","-0.0048828125","-3.6875","-10.3125","1.3125"
"1572190912443","875","-0.21679688","-0.9482422","0.020507812","0.6875","-8.71875","0.84375"
"1572190912444","876","-0.22558594","-0.9140625","0.0087890625","-4.0","-13.84375","-0.1875"
"1572190912445","877","-0.22167969","-1.0927734","0.0","-1.1875","-3.25","-2.46875"
"1572190912446","878","-0.21289062","-1.0615234","0.11425781","-10.59375","0.5625","-6.5"
"1572190912446","879","-0.23828125","-0.99609375","0.099609375","-4.25","-6.15625","-1.1875"
"1572190912840","880","-0.19628906","-0.87402344","-0.03125","2.21875","-3.65625","5.53125"
"1572190912841","881","-0.0546875","-1.0205078","-0.053710938","-1.375","4.46875","-5.03125"
"1572190912841","882","-0.1796875","-0.9746094","0.041015625","-5.46875","2.3125","-6.53125"
"1572190912841","883","-0.17675781","-0.9404297","0.06347656","-11.46875","-3.65625","-2.625"
"1572190912841","884","-0.15625","-0.9765625","0.048828125","-2.3125","-2.125","-2.75"
"1572190912842","885","-0.22070312","-0.9658203","0.015625","0.625","-1.59375","-1.59375"
"1572190912842","886","-0.16601562","-1.0","-0.009765625","4.34375","2.3125","-2.34375"
"1572190912842","887","-0.12207031","-0.9980469","0.017578125","-0.96875","-0.84375","-3.875"
"1572190912843","888","-0.16503906","-0.96191406","0.060546875","2.21875","-3.84375","-1.59375"
"1572190912843","889","-0.16699219","-1.0107422","0.05859375","2.34375","-1.84375","0.28125"
"1572190913240","890","-0.17578125","-0.9736328","0.009765625","8.6875","6.65625","6.28125"
"1572190913240","891","-0.25390625","-0.9892578","0.07519531","-9.125","10.125","6.6875"
"1572190913241","892","-0.2548828","-0.9169922","0.020507812","5.9375","7.375","15.90625"
"1572190913241","893","-0.2841797","-0.90722656","-0.0048828125","14.25","5.4375","29.21875"
"1572190913241","894","-0.25390625","-0.953125","0.03125","6.6875","26.3125","19.21875"
"1572190913241","895","-0.34570312","-0.9550781","-0.057617188","21.3125","32.03125","10.59375"
"1572190913242","896","-0.14453125","-1.1630859","-0.025390625","16.5","33.09375","9.125"
"1572190913242","897","-0.13378906","-1.0488281","-0.0048828125","9.53125","20.75","3.84375"
"1572190913242","898","-0.13183594","-0.96875","-0.0029296875","15.59375","11.90625","2.78125"
"1572190913242","899","-0.20019531","-0.92285156","0.0029296875","12.46875","15.8125","5.84375"
"1572190913637","900","-0.20800781","-0.9658203","-0.030273438","4.53125","15.9375","3.65625"
"1572190913638","901","-0.21972656","-0.9433594","-0.048828125","2.15625","12.03125","3.71875"
"1572190913639","902","-0.20800781","-0.9814453","-0.045898438","1.1875","10.1875","3.59375"
"1572190913639","903","-0.22949219","-0.94628906","-0.029296875","-1.1875","7.625","1.5"
"1572190913639","904","-0.1640625","-0.9814453","-0.038085938","9.1875","4.21875","2.0"
"1572190913639","905","-0.21484375","-0.9189453","-0.06933594","13.5625","3.71875","-2.28125"
"1572190913640","906","-0.20898438","-1.0117188","-9.765625E-4","8.6875","1.875","-0.375"
"1572190913640","907","-0.16601562","-1.0048828","-0.033203125","9.90625","4.8125","-6.1875"
"1572190913640","908","-0.2734375","-1.0166016","0.0087890625","17.40625","3.84375","0.46875"
"1572190913640","909","-0.2998047","-1.0996094","0.026367188","13.5","8.25","0.03125"
"1572190914032","910","-0.2548828","-1.3349609","0.06933594","20.15625","-5.75","-10.5"
"1572190914032","911","-0.44335938","-1.4101562","0.10644531","9.53125","-13.0625","-1.0625"
"1572190914033","912","-0.33398438","-1.3076172","0.115234375","1.125","-33.28125","-4.34375"
"1572190914033","913","-0.18847656","-1.0341797","0.21777344","-0.40625","-42.53125","5.28125"
"1572190914034","914","-0.2607422","-0.83496094","0.27929688","-2.25","-52.3125","9.25"
"1572190914034","915","-0.2919922","-0.88183594","0.27734375","0.9375","-41.4375","-2.6875"
"1572190914034","916","-0.18066406","-0.94628906","0.17285156","-4.625","-37.1875","-9.28125"
"1572190914035","917","-0.1640625","-0.86816406","0.09765625","-6.375","-34.84375","-8.9375"
"1572190914035","918","-0.1484375","-0.7939453","0.08300781","-9.4375","-39.6875","-6.1875"
"1572190914035","919","-0.10449219","-0.72753906","0.103515625","-3.59375","-38.6875","-3.96875"
"1572190914430","920","-0.22851562","-0.7158203","0.13183594","-12.125","-24.46875","-8.5"
"1572190914430","921","-0.17285156","-0.7861328","0.16015625","-4.0625","-12.75","-5.75"
"1572190914431","922","-0.1796875","-0.8408203","0.17480469","-10.28125","-4.03125","-14.34375"
"1572190914431","923","-0.14941406","-0.96875","0.11816406","-4.5","1.40625","-14.3125"
"1572190914431","924","-0.099609375","-1.0527344","0.14941406","-17.4375","-0.1875","-21.875"
"1572190914432","925","-0.10058594","-1.0048828","0.10449219","-27.5625","2.375","-19.25"
"1572190914433","926","-0.15820312","-1.0166016","0.022460938","-27.5625","13.375","-18.5625"
"1572190914433","927","-0.1171875","-0.9003906","0.06347656","-20.71875","5.375","-6.53125"
"1572190914433","928","-0.26367188","-1.0283203","0.06933594","-3.59375","8.0625","-3.75"
"1572190914434","929","-0.27441406","-0.9248047","0.030273438","-11.21875","-2.75","15.0"
"1572190914829","930","-0.08203125","-0.8515625","0.099609375","11.1875","1.03125","13.46875"
"1572190914829","931","-0.15332031","-0.94140625","0.109375","12.59375","-3.71875","12.25"
"1572190914829","932","-0.20605469","-0.96484375","0.09277344","12.28125","3.59375","10.375"
"1572190914830","933","-0.19628906","-1.0400391","0.060546875","12.21875","5.125","11.46875"
"1572190914830","934","-0.20898438","-1.0126953","0.0625","6.375","9.53125","16.15625"
"1572190914830","935","-0.203125","-0.95410156","0.07421875","6.0","16.0625","27.75"
"1572190914830","936","-0.26953125","-0.9033203","0.06347656","17.59375","17.75","38.5"
"1572190914832","937","-0.34472656","-0.88378906","0.10644531","14.5625","31.75","36.25"
"1572190914832","938","-0.28222656","-0.86816406","0.016601562","39.4375","38.5625","35.625"
"1572190914832","939","-0.27929688","-0.95410156","0.095703125","42.4375","32.90625","36.25"
"1572190915226","940","-0.31152344","-0.8876953","0.07421875","35.53125","28.875","25.125"
"1572190915227","941","-0.22460938","-1.0732422","0.028320312","29.375","19.46875","8.03125"
"1572190915227","942","-0.16796875","-1.0380859","0.08300781","10.40625","11.53125","1.15625"
"1572190915227","943","-0.2734375","-0.9638672","0.13085938","3.0","1.34375","1.21875"
"1572190915227","944","-0.2919922","-0.93066406","0.07421875","-0.90625","1.875","-5.25"
"1572190915228","945","-0.29296875","-0.9482422","0.07519531","-1.4375","1.78125","-3.1875"
"1572190915228","946","-0.32421875","-0.86328125","0.08105469","-3.8125","-4.03125","-1.65625"
"1572190915228","947","-0.34375","-0.8359375","0.087890625","2.03125","-4.46875","4.375"
"1572190915228","948","-0.24707031","-0.7949219","0.09375","7.15625","-7.3125","4.25"
"1572190915230","949","-0.34375","-0.71484375","0.11816406","8.1875","-23.25","9.125"
"1572190915623","950","-0.33203125","-0.7089844","0.11816406","11.9375","-15.25","7.25"
"1572190915624","951","-0.390625","-0.7109375","0.09765625","0.21875","-14.53125","4.5"
"1572190915624","952","-0.29101562","-0.7910156","0.13085938","6.96875","-12.40625","5.84375"
"1572190915624","953","-0.37402344","-0.671875","0.16308594","7.28125","-17.75","1.625"
"1572190915625","954","-0.40234375","-0.83984375","0.203125","13.375","-11.90625","9.6875"
"1572190915625","955","-0.3984375","-1.1123047","0.20019531","-14.5625","7.375","-14.25"
"1572190915625","956","-0.5488281","-1.2382812","0.26757812","-8.59375","-4.21875","-9.0625"
"1572190915626","957","-0.5439453","-1.6660156","0.26953125","-12.96875","36.8125","-13.375"
"1572190915626","958","-0.24121094","-1.1533203","0.14746094","-11.15625","-20.3125","-10.21875"
"1572190915626","959","-0.16699219","-1.2431641","-0.020507812","-3.03125","-26.3125","-18.5625"
"1572190916019","960","-0.42578125","-0.99609375","0.11425781","-1.8125","1.28125","-4.96875"
"1572190916021","961","-0.23144531","-0.98046875","0.17382812","-1.9375","-11.84375","1.3125"
"1572190916021","962","-0.0234375","-0.9375","0.09667969","6.3125","-24.0625","-16.0"
"1572190916021","963","-0.038085938","-1.0039062","0.16992188","-11.5","-28.3125","-17.15625"
"1572190916022","964","-0.17382812","-0.9970703","0.12597656","-14.8125","-28.625","-26.875"
"1572190916022","965","-0.12890625","-0.9707031","0.053710938","-13.78125","-23.3125","-24.3125"
"1572190916022","966","-0.17773438","-0.9472656","0.052734375","-22.6875","-14.65625","-18.5625"
"1572190916023","967","-0.17382812","-1.0087891","0.068359375","-18.03125","-6.34375","-16.25"
"1572190916023","968","-0.14941406","-0.90625","0.12792969","-12.375","-8.0","-17.78125"
"1572190916024","969","-0.14550781","-0.9736328","0.05859375","-1.5625","-2.125","-11.96875"
"1572190916417","970","-0.12890625","-0.95703125","0.111328125","-13.34375","6.21875","-8.8125"
"1572190916417","971","-0.001953125","-0.9736328","0.12988281","-6.75","2.4375","-13.03125"
"1572190916418","972","-0.10644531","-1.0136719","0.09277344","-12.125","2.3125","-14.0"
"1572190916419","973","-0.123046875","-1.0009766","0.09765625","-18.40625","4.9375","-5.3125"
"1572190916419","974","-0.16308594","-1.1191406","0.038085938","-9.6875","4.5625","-11.1875"
"1572190916419","975","-0.26171875","-1.0429688","0.00390625","-1.4375","-9.03125","4.1875"
"1572190916420","976","-0.12890625","-0.78222656","0.013671875","-7.65625","-22.03125","21.28125"
"1572190916420","977","-0.19238281","-0.9277344","0.041015625","6.25","0.96875","5.59375"
"1572190916420","978","-0.19238281","-0.9921875","0.043945312","3.9375","5.96875","0.84375"
"1572190916421","979","-0.11621094","-1.0439453","-0.0107421875","1.375","5.4375","-7.15625"
