"# PR data"
"# Start time: 20191027T153550"
"# Subject: seb"
"# Activity type: Squats"
"# Correctness: Correct"
"# Notes: "
""
"timestamp","seq","accel_x","accel_y","accel_z","gyro_x","gyro_y","gyro_z"
"1572190550718","0","-0.16308594","-0.96191406","0.14355469","-3.59375","2.625","-7.09375"
"1572190550718","1","-0.16894531","-0.95410156","0.103515625","5.15625","-1.84375","-6.0"
"1572190550719","2","-0.15234375","-1.0029297","0.09277344","6.90625","-1.46875","-2.40625"
"1572190550719","3","-0.17382812","-1.0097656","0.1015625","2.15625","4.21875","-0.25"
"1572190550719","4","-0.10449219","-1.0058594","0.14257812","2.59375","1.53125","1.6875"
"1572190550720","5","-0.10449219","-0.9863281","0.14746094","5.03125","-4.8125","1.875"
"1572190550720","6","-0.140625","-0.95996094","0.14941406","2.40625","-1.28125","2.1875"
"1572190550720","7","-0.13183594","-0.9814453","0.13671875","2.15625","1.40625","1.5"
"1572190550720","8","-0.12792969","-0.99902344","0.13769531","1.84375","2.375","1.8125"
"1572190550721","9","-0.13964844","-0.97558594","0.13476562","1.96875","1.40625","1.375"
"1572190551115","10","-0.12890625","-0.9716797","0.13183594","3.0625","-1.09375","1.3125"
"1572190551115","11","-0.12011719","-0.9609375","0.15136719","2.03125","-0.84375","1.5625"
"1572190551115","12","-0.13378906","-0.9814453","0.15820312","0.6875","-1.65625","1.28125"
"1572190551116","13","-0.15234375","-1.0","0.12207031","7.96875","-3.34375","2.5625"
"1572190551117","14","-0.18066406","-0.9824219","0.16308594","-4.4375","4.09375","1.5"
"1572190551117","15","-0.13085938","-0.9707031","0.13378906","2.84375","-0.375","1.8125"
"1572190551117","16","-0.12695312","-0.9765625","0.14746094","4.15625","-4.46875","0.59375"
"1572190551118","17","-0.16601562","-0.96484375","0.15039062","2.46875","-3.78125","-0.3125"
"1572190551118","18","-0.14941406","-0.9814453","0.15136719","2.59375","-1.40625","-0.125"
"1572190551118","19","-0.14160156","-1.0009766","0.12988281","4.40625","-1.15625","0.78125"
"1572190551513","20","-0.14941406","-0.9716797","0.14648438","3.375","0.65625","-0.125"
"1572190551513","21","-0.13964844","-0.98339844","0.15039062","6.0","-0.25","0.15625"
"1572190551514","22","-0.14257812","-0.9873047","0.1484375","6.625","-5.875","1.375"
"1572190551514","23","-0.14453125","-0.9863281","0.14746094","5.4375","-4.8125","1.3125"
"1572190551514","24","-0.14941406","-0.9794922","0.14648438","4.15625","-4.28125","2.25"
"1572190551515","25","-0.14160156","-0.9814453","0.14648438","4.46875","-4.9375","2.78125"
"1572190551515","26","-0.15722656","-0.9736328","0.16699219","3.25","-3.71875","3.21875"
"1572190551515","27","-0.14453125","-0.98046875","0.18066406","1.4375","-3.65625","2.71875"
"1572190551515","28","-0.13378906","-0.9746094","0.13183594","7.59375","-2.5625","3.40625"
"1572190551516","29","-0.16113281","-0.97558594","0.1796875","-1.375","-3.34375","1.28125"
"1572190551910","30","-0.1484375","-0.9667969","0.16308594","2.46875","-3.78125","2.125"
"1572190551911","31","-0.13964844","-0.9970703","0.15039062","5.28125","-3.78125","3.46875"
"1572190551911","32","-0.15136719","-0.9707031","0.16308594","0.75","-3.40625","3.15625"
"1572190551911","33","-0.14746094","-0.9785156","0.17089844","1.59375","-3.84375","2.59375"
"1572190551912","34","-0.15429688","-0.9746094","0.16015625","2.59375","-4.6875","3.53125"
"1572190551912","35","-0.15625","-0.9746094","0.1640625","1.0","-4.53125","3.78125"
"1572190551912","36","-0.16699219","-0.98339844","0.16894531","-0.78125","-4.8125","3.78125"
"1572190551914","37","-0.15625","-0.9863281","0.1640625","0.21875","-2.5625","3.59375"
"1572190551914","38","-0.16796875","-0.96191406","0.16503906","-1.75","-4.40625","3.9375"
"1572190551915","39","-0.15136719","-0.94628906","0.15429688","-1.8125","-5.0625","4.5625"
"1572190552502","40","-0.1796875","-0.92089844","0.14257812","-1.1875","-1.65625","4.4375"
"1572190552503","41","-0.15722656","-0.8095703","0.095703125","-6.09375","-3.1875","7.4375"
"1572190552503","42","-0.0234375","-0.8261719","0.10644531","-9.375","-7.3125","9.625"
"1572190552503","43","-0.18261719","-0.6982422","0.16992188","-13.46875","-13.5","-0.5625"
"1572190552504","44","-0.28710938","-0.6855469","0.140625","8.625","3.0625","10.78125"
"1572190552504","45","-0.07519531","-0.9140625","0.08496094","4.53125","13.65625","6.09375"
"1572190552504","46","-0.057617188","-0.7890625","0.072265625","-10.28125","-3.71875","2.5625"
"1572190552504","47","-0.14746094","-0.7285156","0.11816406","-0.40625","0.375","3.28125"
"1572190552505","48","-0.14257812","-0.8457031","0.13671875","7.96875","-5.0","1.625"
"1572190552505","49","-0.20410156","-0.92089844","0.140625","0.25","-3.25","3.03125"
"1572190552705","50","-0.14941406","-0.9511719","0.13085938","-12.125","0.3125","-2.09375"
"1572190552705","51","-0.19140625","-0.95996094","0.10644531","-9.5","2.8125","-5.5"
"1572190552706","52","-0.17382812","-0.9765625","0.12011719","1.375","2.8125","-0.9375"
"1572190552706","53","-0.15527344","-1.0458984","0.119140625","0.875","0.3125","-1.125"
"1572190552706","54","-0.21191406","-1.0654297","0.13867188","-3.46875","-2.5","-0.4375"
"1572190552706","55","-0.19726562","-1.0458984","0.1015625","-1.375","-5.8125","2.125"
"1572190552707","56","-0.21191406","-1.0107422","0.099609375","0.15625","0.0625","6.46875"
"1572190552707","57","-0.20996094","-1.0361328","0.119140625","-6.4375","2.4375","3.03125"
"1572190552707","58","-0.20507812","-1.0146484","0.12792969","-9.5","-1.71875","2.3125"
"1572190552707","59","-0.21875","-0.99609375","0.06347656","-2.71875","-2.75","2.125"
"1572190553105","60","-0.20507812","-1.0888672","0.119140625","-11.9375","1.21875","-2.40625"
"1572190553107","61","-0.25195312","-1.0625","0.059570312","-7.375","0.5625","-1.65625"
"1572190553107","62","-0.23144531","-1.1025391","0.0703125","-10.28125","4.21875","1.03125"
"1572190553107","63","-0.18847656","-1.0927734","0.045898438","-12.4375","0.84375","-2.9375"
"1572190553108","64","-0.24902344","-1.0205078","0.09082031","-6.21875","3.90625","-0.0625"
"1572190553108","65","-0.17089844","-1.1894531","0.057617188","-7.5","3.0625","7.4375"
"1572190553108","66","-0.24902344","-1.0292969","0.043945312","-10.1875","1.9375","-2.625"
"1572190553109","67","-0.19824219","-1.1474609","0.018554688","-0.21875","5.0","-0.375"
"1572190553109","68","-0.20214844","-1.0732422","0.040039062","-9.75","1.78125","-1.34375"
"1572190553109","69","-0.19921875","-1.0556641","0.033203125","1.53125","1.65625","3.21875"
"1572190553500","70","-0.19042969","-1.109375","0.022460938","-4.1875","-0.78125","1.21875"
"1572190553500","71","-0.234375","-1.0390625","0.017578125","-0.09375","0.125","1.03125"
"1572190553500","72","-0.17578125","-1.0703125","0.01171875","2.875","-1.09375","-0.1875"
"1572190553501","73","-0.21972656","-1.0146484","0.0068359375","-0.96875","-0.84375","-1.1875"
"1572190553501","74","-0.171875","-1.0419922","0.02734375","0.15625","-4.53125","-0.0625"
"1572190553501","75","-0.21484375","-1.0273438","-0.0068359375","0.09375","-2.4375","-0.5625"
"1572190553502","76","-0.18457031","-1.125","-0.0146484375","1.4375","-3.53125","-4.96875"
"1572190553502","77","-0.18847656","-1.171875","0.024414062","-5.84375","-6.34375","-7.875"
"1572190553502","78","-0.21582031","-1.2109375","0.026367188","0.4375","-5.0","-10.8125"
"1572190553503","79","-0.18261719","-1.2470703","-0.005859375","3.25","-3.1875","-14.0625"
"1572190553898","80","-0.21386719","-1.2167969","0.043945312","5.34375","-9.53125","-10.6875"
"1572190553899","81","-0.13085938","-1.0957031","0.052734375","14.25","-20.03125","-3.875"
"1572190553899","82","-0.16601562","-1.1181641","0.026367188","20.46875","-15.75","-3.4375"
"1572190553899","83","-0.14941406","-1.1083984","0.029296875","1.59375","-9.46875","-5.15625"
"1572190553899","84","-0.16503906","-1.0761719","0.05859375","2.65625","2.5","-2.28125"
"1572190553901","85","-0.2265625","-1.1044922","0.059570312","9.90625","5.1875","2.5"
"1572190553901","86","-0.13476562","-1.1171875","0.0703125","6.25","6.84375","2.59375"
"1572190553902","87","-0.17480469","-1.0878906","0.053710938","10.46875","9.40625","5.0"
"1572190553902","88","-0.18847656","-1.0917969","0.06933594","7.84375","11.71875","8.65625"
"1572190553903","89","-0.099609375","-1.0976562","0.06347656","14.59375","11.34375","9.8125"
"1572190554493","90","-0.22851562","-1.0644531","0.076171875","3.4375","-2.6875","8.65625"
"1572190554494","91","-0.15820312","-0.9873047","0.037109375","9.53125","-0.1875","9.25"
"1572190554494","92","-0.17285156","-0.9609375","0.00390625","4.125","2.4375","7.125"
"1572190554495","93","-0.1328125","-0.8388672","0.040039062","-0.84375","2.75","0.78125"
"1572190554495","94","-0.17675781","-0.76660156","0.034179688","1.59375","-1.53125","1.4375"
"1572190554495","95","-0.11425781","-0.69921875","0.0390625","4.78125","-7.5","1.5625"
"1572190554496","96","-0.0859375","-0.625","0.033203125","-1.75","-8.0","2.0625"
"1572190554496","97","-0.12597656","-0.6298828","0.049804688","-2.25","-2.3125","-1.90625"
"1572190554496","98","-0.125","-0.5957031","0.0107421875","1.84375","-5.5","-0.25"
"1572190554497","99","-0.09765625","-0.63378906","0.07128906","7.71875","-2.8125","7.0"
"1572190554692","100","-0.171875","-0.7910156","0.06640625","10.46875","-0.84375","2.59375"
"1572190554692","101","-0.14160156","-1.015625","0.111328125","15.46875","3.65625","2.78125"
"1572190554692","102","-0.17773438","-1.0986328","0.064453125","-3.875","5.1875","-2.21875"
"1572190554693","103","-0.12109375","-1.0","0.10839844","-5.34375","0.96875","-2.9375"
"1572190554693","104","-0.23242188","-0.8798828","0.052734375","7.71875","-5.125","1.03125"
"1572190554693","105","-0.18554688","-0.98339844","0.068359375","-0.59375","-3.46875","2.125"
"1572190554694","106","-0.16992188","-0.95996094","0.09667969","6.3125","-0.3125","1.09375"
"1572190554694","107","-0.19726562","-1.0","0.05859375","9.96875","3.34375","6.9375"
"1572190554694","108","-0.13574219","-1.0185547","0.08105469","4.28125","0.0625","1.03125"
"1572190554696","109","-0.16992188","-0.96875","0.09765625","6.125","-6.40625","1.4375"
"1572190555090","110","-0.19433594","-0.9716797","0.099609375","6.1875","-5.125","1.8125"
"1572190555091","111","-0.18457031","-0.9707031","0.09765625","3.9375","0.25","1.5625"
"1572190555091","112","-0.16796875","-0.98339844","0.095703125","3.0625","0.3125","2.71875"
"1572190555091","113","-0.1796875","-0.9794922","0.09277344","4.84375","-3.59375","1.75"
"1572190555092","114","-0.20019531","-0.9765625","0.11035156","3.4375","-1.15625","1.875"
"1572190555092","115","-0.17578125","-0.9707031","0.09472656","3.8125","-1.03125","0.65625"
"1572190555092","116","-0.19628906","-0.9707031","0.10449219","4.84375","-3.65625","2.5625"
"1572190555092","117","-0.19335938","-0.9638672","0.11328125","3.875","-0.75","2.5625"
"1572190555093","118","-0.18066406","-0.98535156","0.11816406","4.15625","-1.46875","3.28125"
"1572190555093","119","-0.1796875","-0.94921875","0.080078125","8.625","-3.3125","3.09375"
"1572190555488","120","-0.23144531","-0.921875","0.1484375","3.6875","-4.9375","4.5"
"1572190555490","121","-0.19824219","-0.9765625","0.07910156","6.84375","4.40625","3.90625"
"1572190555490","122","-0.140625","-1.0585938","0.08886719","2.53125","3.34375","-1.90625"
"1572190555491","123","-0.23632812","-0.89941406","0.12402344","2.46875","-0.25","-2.15625"
"1572190555491","124","-0.17578125","-0.9375","0.099609375","3.4375","8.53125","-1.84375"
"1572190555491","125","-0.13183594","-0.9111328","0.08496094","1.0625","0.4375","-1.65625"
"1572190555492","126","-0.21191406","-0.83203125","0.11328125","3.125","2.625","2.71875"
"1572190555492","127","-0.11035156","-0.76953125","0.07421875","4.59375","7.875","3.59375"
"1572190555492","128","-0.11816406","-0.77441406","0.087890625","7.53125","2.375","8.03125"
"1572190555492","129","-0.171875","-0.7861328","0.057617188","-2.65625","-3.1875","8.90625"
"1572190555885","130","-0.23828125","-0.8261719","0.09765625","3.875","12.5","5.78125"
"1572190555885","131","-0.1875","-0.83203125","0.07324219","6.96875","14.84375","7.4375"
"1572190555886","132","-0.14257812","-0.79296875","0.12011719","10.21875","6.34375","9.1875"
"1572190555887","133","-0.1640625","-0.93359375","0.125","6.625","-1.65625","7.8125"
"1572190555887","134","-0.22265625","-0.8251953","0.13085938","8.875","-6.28125","8.96875"
"1572190555888","135","-0.30566406","-0.9628906","0.18359375","4.0625","-1.65625","6.21875"
"1572190555888","136","-0.22753906","-0.9560547","0.08496094","2.71875","2.6875","9.125"
"1572190555888","137","-0.24023438","-0.9951172","0.13378906","2.78125","3.15625","9.6875"
"1572190555888","138","-0.27539062","-0.9589844","0.15820312","1.4375","-0.0625","7.3125"
"1572190555890","139","-0.26171875","-0.9970703","0.14257812","1.84375","0.3125","8.53125"
"1572190557074","140","-0.2626953","-0.9873047","0.12207031","-2.78125","-0.90625","4.25"
"1572190557074","141","-0.24707031","-1.0078125","0.18457031","-4.0625","-3.125","2.84375"
"1572190557075","142","-0.3330078","-0.9892578","0.14453125","-7.90625","-1.96875","-0.5"
"1572190557075","143","-0.22949219","-1.0380859","0.12695312","-7.1875","0.25","-3.375"
"1572190557075","144","-0.30664062","-1.0107422","0.14941406","-14.9375","-1.28125","-6.25"
"1572190557078","145","-0.2626953","-0.98339844","0.123046875","-19.09375","-1.71875","-11.6875"
"1572190557078","146","-0.2578125","-0.9746094","0.103515625","-23.34375","-4.8125","-15.34375"
"1572190557078","147","-0.22265625","-1.0527344","0.05078125","-22.3125","-6.03125","-20.46875"
"1572190557079","148","-0.1796875","-0.9169922","0.016601562","-19.8125","-24.96875","-13.4375"
"1572190557079","149","-0.2529297","-1.0205078","-0.030273438","0.21875","-3.0","6.34375"
"1572190557079","150","0.017578125","-1.1123047","0.059570312","-40.8125","-0.125","-16.8125"
"1572190557079","151","-0.4033203","-0.7910156","0.015625","9.3125","1.28125","-5.375"
"1572190557080","152","-0.08496094","-1.2167969","-0.055664062","-16.875","8.1875","-8.8125"
"1572190557080","153","-0.26464844","-0.8886719","0.02734375","-17.625","9.875","-6.4375"
"1572190557080","154","-0.115234375","-1.1201172","-0.0146484375","-3.34375","10.0","-3.3125"
"1572190557080","155","-0.12988281","-1.0917969","-0.060546875","-12.78125","7.75","-7.21875"
"1572190557081","156","-0.24707031","-1.0712891","-0.020507812","-8.40625","6.84375","-8.9375"
"1572190557081","157","-0.14746094","-1.0966797","-0.046875","-11.75","12.21875","-4.53125"
"1572190557081","158","-0.17480469","-1.0449219","-0.037109375","-10.78125","5.625","-5.25"
"1572190557081","159","-0.171875","-1.1142578","-0.0703125","-8.53125","3.15625","-0.25"
"1572190557276","160","-0.16210938","-1.0712891","-0.07128906","-4.3125","1.09375","-0.5"
"1572190557276","161","-0.18261719","-1.1035156","-0.055664062","-3.65625","0.3125","-0.5625"
"1572190557277","162","-0.20410156","-1.0976562","-0.049804688","-0.34375","0.1875","3.09375"
"1572190557277","163","-0.19140625","-1.1123047","-0.1015625","6.375","-3.46875","3.90625"
"1572190557277","164","-0.20214844","-1.1601562","-0.055664062","4.34375","-6.09375","3.03125"
"1572190557277","165","-0.17382812","-1.1708984","-0.095703125","10.59375","-17.40625","1.875"
"1572190557277","166","-0.19042969","-1.2314453","-0.08984375","11.3125","-19.03125","-9.40625"
"1572190557278","167","-0.13183594","-1.2734375","-0.059570312","20.90625","-19.15625","-15.9375"
"1572190557278","168","-0.22558594","-1.2412109","-0.018554688","21.375","-11.40625","-19.25"
"1572190557279","169","-0.14257812","-1.1113281","-0.0390625","2.34375","-17.40625","-7.09375"
"1572190557674","170","-0.11621094","-1.0351562","0.0546875","0.15625","-8.25","5.1875"
"1572190557675","171","-0.14160156","-1.0751953","-0.022460938","16.375","-11.65625","-3.90625"
"1572190557675","172","-0.14160156","-1.1572266","-0.029296875","15.09375","-5.625","-1.25"
"1572190557675","173","-0.16992188","-0.9951172","0.12207031","16.5625","3.40625","-6.25"
"1572190557675","174","-0.20507812","-1.1103516","0.0068359375","32.84375","-0.5","6.03125"
"1572190557676","175","-0.12988281","-1.1210938","0.064453125","22.125","0.65625","5.90625"
"1572190557676","176","-0.16796875","-1.1308594","0.045898438","24.96875","5.78125","6.46875"
"1572190557676","177","-0.16503906","-1.1757812","0.07128906","12.46875","10.875","4.875"
"1572190557676","178","-0.18652344","-1.1025391","0.038085938","16.5625","7.5","6.09375"
"1572190557677","179","-0.20703125","-1.0390625","0.103515625","7.53125","9.875","3.9375"
"1572190558070","180","-0.15722656","-1.0722656","0.036132812","14.375","9.875","8.09375"
"1572190558071","181","-0.13769531","-1.0683594","0.057617188","4.84375","2.4375","5.125"
"1572190558071","182","-0.13769531","-1.0410156","0.07128906","-2.65625","6.59375","-0.75"
"1572190558072","183","-0.14160156","-0.9667969","0.087890625","-2.71875","2.0","-4.46875"
"1572190558072","184","-0.2529297","-0.89941406","0.0234375","3.5","-4.53125","2.5625"
"1572190558072","185","-0.078125","-0.7675781","0.034179688","0.25","-1.21875","10.53125"
"1572190558072","186","-0.076171875","-0.6796875","0.028320312","-6.5","-3.25","3.28125"
"1572190558073","187","-0.06640625","-0.58203125","0.045898438","-2.125","-11.96875","1.625"
"1572190558073","188","-0.061523438","-0.39941406","0.057617188","-3.6875","-14.53125","3.84375"
"1572190558073","189","-0.11621094","-0.38378906","0.072265625","4.21875","-10.75","4.5625"
"1572190558665","190","-0.15625","-0.54296875","0.095703125","7.65625","-2.5625","5.96875"
"1572190558666","191","-0.12207031","-0.88183594","0.048828125","18.15625","16.78125","1.625"
"1572190558666","192","-0.107421875","-1.2597656","0.10644531","4.40625","28.125","-2.15625"
"1572190558667","193","-0.17382812","-1.0722656","0.06933594","-4.75","13.59375","4.25"
"1572190558668","194","-0.24023438","-0.9121094","0.14160156","-1.125","3.84375","-0.1875"
"1572190558668","195","-0.10253906","-0.9511719","0.06738281","11.9375","-6.71875","2.71875"
"1572190558668","196","-0.14257812","-0.97558594","0.07128906","0.8125","-14.59375","3.09375"
"1572190558668","197","-0.1875","-0.9580078","0.11621094","2.875","-3.40625","3.78125"
"1572190558669","198","-0.16308594","-1.0146484","0.09863281","6.84375","-3.3125","4.625"
"1572190558669","199","-0.203125","-1.0019531","0.06738281","2.34375","-3.90625","5.21875"
"1572190558867","200","-0.19921875","-0.9785156","0.08203125","2.59375","-3.40625","2.5"
"1572190558867","201","-0.19140625","-0.96484375","0.09375","5.28125","-4.03125","3.15625"
"1572190558868","202","-0.17578125","-0.9794922","0.078125","5.15625","-5.9375","3.09375"
"1572190558868","203","-0.19238281","-0.9667969","0.09375","2.28125","-4.8125","3.15625"
"1572190558868","204","-0.19628906","-0.96191406","0.107421875","5.03125","-3.46875","3.71875"
"1572190558869","205","-0.2109375","-0.9638672","0.10058594","4.15625","-5.375","4.75"
"1572190558870","206","-0.18457031","-0.9667969","0.099609375","4.84375","-2.625","4.75"
"1572190558870","207","-0.17675781","-0.9746094","0.11328125","2.34375","-3.84375","4.5625"
"1572190558870","208","-0.18652344","-0.96777344","0.0546875","7.59375","-1.34375","3.78125"
"1572190558871","209","-0.18261719","-0.9707031","0.12109375","-3.15625","-2.375","2.375"
"1572190559265","210","-0.18847656","-0.9003906","0.119140625","-1.5","-5.375","1.875"
"1572190559265","211","-0.19238281","-0.93847656","0.091796875","2.28125","-1.71875","5.90625"
"1572190559265","212","-0.19726562","-0.8457031","0.09082031","1.4375","1.09375","6.28125"
"1572190559266","213","-0.1796875","-0.7871094","0.020507812","6.125","-1.90625","8.65625"
"1572190559266","214","-0.076171875","-0.7373047","0.0234375","2.53125","-9.46875","6.75"
"1572190559266","215","-0.18066406","-0.71191406","0.11035156","-9.6875","-5.625","5.90625"
"1572190559266","216","-0.31640625","-0.77441406","0.11621094","-2.53125","11.28125","2.71875"
"1572190559268","217","-0.08886719","-0.7109375","0.06347656","6.375","3.78125","5.125"
"1572190559268","218","-0.1796875","-0.8798828","0.052734375","1.375","-0.96875","0.15625"
"1572190559268","219","-0.20117188","-0.84375","0.1171875","-1.03125","4.21875","6.03125"
"1572190559661","220","-0.16113281","-0.796875","0.06933594","-4.0625","-11.90625","-2.09375"
"1572190559661","221","-0.2578125","-0.9042969","0.09667969","4.15625","-1.90625","4.8125"
"1572190559662","222","-0.28320312","-0.9814453","0.11035156","-7.5625","5.4375","0.40625"
"1572190559662","223","-0.16601562","-0.8623047","0.02734375","1.59375","-6.84375","-3.5625"
"1572190559662","224","-0.17675781","-0.88671875","0.12890625","-5.40625","-7.8125","-9.96875"
"1572190559662","225","-0.31152344","-0.99121094","0.13671875","-10.84375","-1.78125","-9.125"
"1572190559663","226","-0.20410156","-1.0410156","0.07324219","-17.75","-12.8125","-12.09375"
"1572190559663","227","-0.19140625","-1.0302734","0.083984375","-19.15625","-16.125","-16.5"
"1572190559663","228","-0.2578125","-1.0380859","-0.045898438","-17.5625","-23.8125","-16.8125"
"1572190559664","229","-0.12109375","-1.0751953","-0.00390625","-9.9375","-0.4375","-7.71875"
"1572190560059","230","-0.2265625","-1.109375","0.07714844","-21.53125","-12.28125","-10.8125"
"1572190560060","231","-0.28027344","-1.0644531","-0.037109375","-4.375","-4.875","-1.78125"
"1572190560060","232","-0.078125","-1.1894531","0.02734375","-21.40625","13.3125","-3.75"
"1572190560060","233","-0.17285156","-1.140625","-0.0087890625","-18.15625","14.34375","-6.25"
"1572190560060","234","-0.18457031","-1.1621094","-0.052734375","-17.6875","14.03125","-8.1875"
"1572190560061","235","-0.19238281","-1.1259766","-0.048828125","-12.78125","16.65625","-6.53125"
"1572190560061","236","-0.14355469","-1.1806641","-0.044921875","-16.46875","5.625","-5.6875"
"1572190560061","237","-0.171875","-1.1269531","-0.053710938","-15.0625","4.6875","-5.3125"
"1572190560061","238","-0.16503906","-1.1464844","-0.09277344","-8.34375","4.625","-2.59375"
"1572190560062","239","-0.18359375","-1.1308594","-0.07910156","-1.125","0.1875","-1.78125"
"1572190560651","240","-0.16699219","-1.1445312","-0.087890625","-0.71875","2.375","2.96875"
"1572190560652","241","-0.20019531","-1.1884766","-0.07324219","3.375","-1.65625","5.0625"
"1572190560652","242","-0.14453125","-1.2236328","-0.107421875","11.96875","-10.6875","5.1875"
"1572190560653","243","-0.13964844","-1.2460938","-0.08886719","14.1875","-13.375","0.46875"
"1572190560653","244","-0.15917969","-1.2705078","-0.06542969","15.59375","-20.5625","-4.40625"
"1572190560653","245","-0.12890625","-1.2509766","-0.07714844","27.65625","-17.21875","-5.875"
"1572190560654","246","-0.15625","-1.2011719","-0.06640625","21.03125","-17.53125","-7.8125"
"1572190560654","247","-0.040039062","-1.0253906","0.048828125","10.03125","-6.71875","-1.40625"
"1572190560654","248","-0.16699219","-1.0605469","-0.0048828125","21.0625","-13.1875","-6.84375"
"1572190560654","249","-0.19824219","-1.1181641","0.0087890625","15.875","-2.25","3.9375"
"1572190560854","250","-0.12792969","-1.1035156","-0.026367188","19.25","3.21875","-3.8125"
"1572190560854","251","-0.19042969","-1.0703125","0.083984375","6.4375","9.40625","-1.84375"
"1572190560854","252","-0.18945312","-1.0175781","0.044921875","19.75","14.59375","2.65625"
"1572190560856","253","-0.13183594","-1.1582031","0.013671875","20.53125","10.0","7.6875"
"1572190560856","254","-0.13867188","-1.0703125","0.053710938","5.875","11.90625","5.90625"
"1572190560857","255","-0.12792969","-1.0859375","0.022460938","8.3125","7.6875","6.875"
"1572190560857","256","-0.15917969","-1.0576172","0.033203125","6.125","-0.125","4.125"
"1572190560857","257","-0.13574219","-1.0273438","0.049804688","6.5625","1.65625","2.84375"
"1572190560857","258","-0.1640625","-1.0078125","0.055664062","2.65625","-1.90625","1.625"
"1572190560858","259","-0.12792969","-1.0","0.041015625","5.28125","-0.75","0.0"
"1572190561449","260","-0.08105469","-0.9111328","0.0703125","1.0625","-1.90625","0.46875"
"1572190561450","261","-0.18945312","-0.8535156","0.057617188","8.8125","-2.5","-0.125"
"1572190561450","262","-0.12695312","-0.8564453","0.055664062","6.1875","1.34375","3.90625"
"1572190561450","263","-0.11230469","-0.87890625","0.043945312","4.96875","0.5625","-0.25"
"1572190561451","264","-0.12011719","-0.88183594","0.020507812","1.3125","3.90625","-1.71875"
"1572190561452","265","-0.0234375","-0.8095703","0.08105469","-7.0","-3.125","0.59375"
"1572190561453","266","-0.10546875","-0.6142578","0.08105469","-9.75","-11.96875","-0.625"
"1572190561453","267","-0.08691406","-0.51464844","0.0126953125","5.03125","-17.8125","6.34375"
"1572190561453","268","-0.068359375","-0.484375","0.06738281","0.5625","-3.78125","10.46875"
"1572190561454","269","-0.08300781","-0.67871094","0.099609375","9.84375","7.8125","1.75"
"1572190561649","270","-0.22558594","-1.0019531","0.11621094","30.0625","3.34375","1.3125"
"1572190561649","271","-0.044921875","-1.2998047","0.03125","4.96875","5.75","9.625"
"1572190561650","272","-0.17480469","-0.9658203","0.072265625","-9.1875","-5.875","-3.90625"
"1572190561650","273","-0.2939453","-0.9013672","0.076171875","9.0625","-0.1875","7.375"
"1572190561650","274","-0.09375","-0.9794922","0.07421875","12.65625","3.46875","6.875"
"1572190561650","275","-0.15136719","-1.015625","0.091796875","4.65625","-2.4375","3.84375"
"1572190561650","276","-0.11328125","-0.99609375","0.12207031","5.09375","-3.125","4.0625"
"1572190561651","277","-0.13378906","-1.0146484","0.12597656","11.625","-8.0625","3.34375"
"1572190561652","278","-0.23046875","-0.9423828","0.087890625","1.3125","-6.09375","3.09375"
"1572190561652","279","-0.1484375","-1.0019531","0.11816406","2.15625","0.125","3.9375"
"1572190562048","280","-0.18652344","-0.9609375","0.14550781","3.1875","0.375","1.15625"
"1572190562048","281","-0.15039062","-0.97265625","0.095703125","5.5625","2.3125","4.0625"
"1572190562049","282","-0.11816406","-0.9863281","0.1015625","2.40625","-3.34375","-0.125"
"1572190562049","283","-0.18554688","-0.92578125","0.11230469","7.65625","-9.03125","4.375"
"1572190562049","284","-0.18066406","-1.0078125","0.08203125","8.3125","-1.15625","5.0"
"1572190562049","285","-0.13476562","-0.9873047","0.1015625","-1.03125","2.125","0.40625"
"1572190562050","286","-0.14941406","-0.85546875","0.1015625","-2.90625","-6.09375","3.53125"
"1572190562050","287","-0.10253906","-0.8515625","0.0703125","1.3125","-12.875","4.3125"
"1572190562050","288","-0.19140625","-0.76660156","0.11230469","1.0625","-12.28125","6.8125"
"1572190562050","289","-0.1875","-0.7890625","0.09375","3.625","-5.8125","5.59375"
"1572190562445","290","-0.1953125","-0.78222656","0.09863281","-7.78125","3.90625","4.125"
"1572190562445","291","-0.171875","-0.75878906","0.08203125","-1.5","5.0625","5.84375"
"1572190562446","292","-0.13867188","-0.7529297","0.01953125","1.125","7.03125","-3.5"
"1572190562446","293","-0.14257812","-0.8066406","0.10644531","-5.65625","-0.1875","2.125"
"1572190562446","294","-0.20019531","-0.81347656","0.13671875","-12.3125","5.90625","-3.5625"
"1572190562446","295","-0.15136719","-0.8339844","0.05859375","1.375","-4.28125","-3.25"
"1572190562447","296","-0.123046875","-0.87402344","0.045898438","-7.1875","-7.15625","-6.4375"
"1572190562447","297","-0.22167969","-0.90625","0.06542969","0.09375","0.3125","-5.25"
"1572190562447","298","-0.15136719","-0.9794922","0.07421875","2.28125","2.625","0.59375"
"1572190562447","299","-0.125","-0.94433594","0.083984375","-9.4375","-1.96875","-3.5625"
"1572190562842","300","-0.18164062","-0.9863281","0.06640625","-2.125","-8.3125","-4.53125"
"1572190562844","301","-0.16699219","-1.0097656","0.059570312","-5.21875","-7.5","1.5"
"1572190562844","302","-0.20507812","-1.0263672","0.080078125","-9.25","-3.3125","-2.8125"
"1572190562845","303","-0.25390625","-1.0957031","0.051757812","-12.6875","-1.40625","-3.8125"
"1572190562845","304","-0.18066406","-1.0957031","0.033203125","-11.09375","5.0625","-4.71875"
"1572190562845","305","-0.13085938","-1.1445312","0.026367188","-13.21875","4.5","-1.0"
"1572190562846","306","-0.15625","-1.0625","0.064453125","-17.1875","6.34375","1.28125"
"1572190562846","307","-0.22460938","-1.0820312","0.024414062","-18.09375","10.0","-3.0625"
"1572190562846","308","-0.17480469","-1.0947266","-0.08203125","-10.34375","8.46875","3.40625"
"1572190562847","309","-0.23144531","-1.1494141","0.022460938","-21.78125","-0.5625","-6.65625"
"1572190563240","310","-0.17285156","-1.1572266","-0.056640625","-14.625","13.3125","-0.125"
"1572190563241","311","-0.07421875","-1.15625","-0.052734375","-20.84375","6.15625","-2.40625"
"1572190563241","312","-0.18652344","-1.109375","-0.051757812","-11.625","-7.75","-7.28125"
"1572190563242","313","-0.15234375","-1.1308594","-0.046875","-8.875","-0.625","-5.4375"
"1572190563243","314","-0.16113281","-1.1318359","-0.053710938","-3.21875","-11.15625","-4.71875"
"1572190563243","315","-0.18847656","-1.1640625","-0.0703125","0.6875","-4.03125","-0.0625"
"1572190563243","316","-0.19335938","-1.1914062","-0.076171875","12.21875","-8.90625","2.5"
"1572190563244","317","-0.15039062","-1.2460938","-0.09765625","22.53125","-9.71875","5.90625"
"1572190563244","318","-0.20800781","-1.28125","-0.046875","72.03125","-32.71875","15.5"
"1572190563244","319","-0.107421875","-1.4765625","0.0087890625","71.125","-41.9375","23.3125"
"1572190563636","320","-0.25097656","-1.3125","0.140625","27.25","-37.65625","-2.875"
"1572190563637","321","-0.2890625","-1.0839844","0.087890625","13.25","-24.125","-7.40625"
"1572190563637","322","-0.059570312","-1.1015625","0.12011719","15.65625","-11.90625","2.375"
"1572190563638","323","-0.16015625","-1.0009766","0.19238281","14.0625","-3.84375","-6.125"
"1572190563638","324","-0.29003906","-1.0214844","0.14550781","22.1875","7.0625","1.375"
"1572190563640","325","-0.15039062","-1.0283203","0.12988281","22.375","14.78125","2.1875"
"1572190563644","326","-0.21386719","-1.0605469","0.15429688","19.625","15.125","-0.75"
"1572190563644","327","-0.15820312","-1.1181641","0.1328125","14.3125","16.78125","3.59375"
"1572190563645","328","-0.18945312","-1.0947266","0.12011719","9.3125","9.65625","0.03125"
"1572190563645","329","-0.13769531","-1.0791016","0.123046875","5.5","9.03125","-1.1875"
"1572190564034","330","-0.21289062","-1.0107422","0.14550781","4.28125","0.5625","-4.90625"
"1572190564034","331","-0.15039062","-1.0009766","0.16894531","3.5625","6.53125","-1.53125"
"1572190564035","332","-0.17480469","-0.9765625","0.171875","6.4375","-2.6875","-0.75"
"1572190564035","333","-0.15722656","-1.0341797","0.115234375","10.9375","2.0625","1.5625"
"1572190564035","334","-0.11328125","-0.9433594","0.17773438","-2.46875","0.375","-4.21875"
"1572190564036","335","-0.15332031","-0.87890625","0.1484375","2.28125","-1.84375","0.03125"
"1572190564036","336","-0.13769531","-0.8847656","0.13378906","-0.59375","-1.09375","1.6875"
"1572190564036","337","-0.099609375","-0.8417969","0.109375","-3.21875","0.3125","1.375"
"1572190564036","338","-0.09277344","-0.77246094","0.11328125","-8.03125","0.375","0.78125"
"1572190564037","339","-0.048828125","-0.6113281","0.07128906","-12.90625","-12.03125","0.53125"
"1572190564431","340","-0.034179688","-0.4033203","0.09472656","-18.21875","-16.59375","4.25"
"1572190564431","341","-0.11621094","-0.31347656","0.12792969","-5.71875","-4.34375","12.125"
"1572190564432","342","-0.13964844","-0.5527344","0.12597656","16.125","11.84375","2.78125"
"1572190564432","343","-0.17285156","-1.0498047","0.061523438","38.03125","6.28125","-4.90625"
"1572190564432","344","-0.07128906","-1.3554688","0.064453125","2.21875","7.9375","7.125"
"1572190564433","345","-0.2421875","-0.89941406","0.15820312","-4.3125","-8.71875","2.0625"
"1572190564433","346","-0.31835938","-0.98046875","0.13867188","6.75","10.25","13.09375"
"1572190564433","347","-0.08496094","-1.0166016","0.13671875","7.59375","2.3125","4.875"
"1572190564433","348","-0.19335938","-0.921875","0.22558594","-2.125","-6.96875","-1.59375"
"1572190564434","349","-0.15136719","-0.9824219","0.123046875","2.65625","-8.71875","-0.125"
"1572190564829","350","-0.19824219","-0.99902344","0.13476562","-0.03125","-1.15625","0.34375"
"1572190564830","351","-0.17382812","-0.9355469","0.15527344","3.4375","5.5625","0.96875"
"1572190564830","352","-0.19628906","-0.9824219","0.12011719","2.40625","4.40625","-1.90625"
"1572190564830","353","-0.17480469","-0.984375","0.1328125","5.625","6.65625","0.53125"
"1572190564830","354","-0.16699219","-0.96484375","0.15039062","4.96875","2.6875","0.34375"
"1572190564831","355","-0.14453125","-0.984375","0.14648438","6.5","-1.46875","-0.6875"
"1572190564831","356","-0.16992188","-0.97753906","0.15722656","5.875","-5.125","2.84375"
"1572190564831","357","-0.1796875","-0.95996094","0.17480469","0.8125","-1.84375","2.59375"
"1572190564832","358","-0.16992188","-0.9560547","0.15820312","4.59375","-2.6875","4.3125"
"1572190564832","359","-0.17871094","-0.95410156","0.15234375","7.15625","-3.59375","5.125"
"1572190565227","360","-0.17382812","-0.98828125","0.17285156","4.34375","-2.75","4.8125"
"1572190565228","361","-0.16699219","-0.97558594","0.115234375","10.03125","7.375","1.9375"
"1572190565228","362","-0.1953125","-0.8779297","0.17578125","-8.46875","8.59375","2.25"
"1572190565228","363","-0.15527344","-0.85058594","0.115234375","5.4375","0.375","1.8125"
"1572190565228","364","-0.115234375","-0.79589844","0.09472656","6.25","-8.375","4.625"
"1572190565229","365","-0.11816406","-0.6982422","0.11621094","-1.8125","-9.46875","5.59375"
"1572190565229","366","-0.15234375","-0.76953125","0.20605469","-5.34375","-8.65625","-4.78125"
"1572190565229","367","-0.28710938","-0.6298828","0.17871094","-27.3125","18.84375","-2.09375"
"1572190565229","368","-0.14257812","-0.7050781","0.15136719","-2.78125","10.375","4.3125"
"1572190565230","369","-0.07910156","-0.9003906","0.0078125","-6.03125","-1.59375","-2.46875"
"1572190565623","370","-0.12011719","-0.8076172","0.078125","-21.9375","-2.875","-0.1875"
"1572190565623","371","-0.24121094","-0.7236328","0.15039062","-12.4375","-0.375","2.375"
"1572190565624","372","-0.2109375","-0.90625","0.103515625","4.28125","5.125","6.46875"
"1572190565624","373","-0.19140625","-0.9970703","0.06640625","-6.8125","3.71875","2.125"
"1572190565625","374","-0.27929688","-1.0117188","0.1171875","-20.1875","13.3125","2.0"
"1572190565625","375","-0.15722656","-1.0332031","0.08496094","-4.8125","4.5","0.65625"
"1572190565625","376","-0.18261719","-1.0419922","0.099609375","-20.125","-8.25","-7.78125"
"1572190565625","377","-0.16796875","-0.99902344","0.033203125","-2.0","-9.84375","-3.75"
"1572190565625","378","-0.17773438","-1.0986328","0.09277344","-3.09375","-7.875","6.9375"
"1572190565626","379","-0.24414062","-1.0654297","0.061523438","-17.9375","-10.125","-9.0"
"1572190566021","380","-0.1484375","-0.9746094","0.08691406","-16.59375","-14.03125","-4.03125"
"1572190566022","381","-0.3330078","-1.0947266","0.01171875","-25.3125","-20.28125","0.59375"
"1572190566022","382","-0.17675781","-1.1044922","-0.040039062","-26.46875","-11.125","-4.34375"
"1572190566022","383","-0.103515625","-1.0830078","-0.0146484375","-25.90625","-5.25","0.90625"
"1572190566022","384","-0.25585938","-1.0732422","0.016601562","-26.09375","-0.625","-7.03125"
"1572190566024","385","-0.12695312","-1.1103516","-0.051757812","-17.4375","2.875","-5.5"
"1572190566024","386","-0.22949219","-1.0849609","-0.06640625","-18.59375","7.5","-4.15625"
"1572190566024","387","-0.20019531","-1.1386719","-0.038085938","-14.09375","8.375","-4.21875"
"1572190566025","388","-0.26660156","-1.1357422","-0.099609375","-4.625","11.53125","-1.53125"
"1572190566025","389","-0.1640625","-1.2304688","-0.09765625","-5.15625","13.5","1.8125"
"1572190566419","390","-0.18359375","-1.2216797","-0.076171875","0.5","9.15625","5.59375"
"1572190566420","391","-0.23730469","-1.2460938","-0.11621094","2.84375","-1.90625","3.90625"
"1572190566420","392","-0.171875","-1.2470703","-0.10449219","3.5","-6.96875","0.59375"
"1572190566420","393","-0.23339844","-1.2900391","-0.095703125","14.25","-16.0","0.96875"
"1572190566421","394","-0.22460938","-1.3144531","-0.13378906","31.21875","-14.21875","-1.96875"
"1572190566421","395","-0.24316406","-1.3466797","-0.072265625","35.1875","-3.3125","-3.5625"
"1572190566421","396","-0.16992188","-1.2314453","-0.109375","14.84375","-8.5625","2.65625"
"1572190566423","397","-0.041992188","-1.0742188","0.12402344","-7.96875","-5.125","0.46875"
"1572190566423","398","-0.19824219","-1.0527344","-0.0107421875","8.6875","-17.40625","1.3125"
"1572190566424","399","-0.21679688","-1.0625","-0.0029296875","8.25","-5.6875","10.0"
"1572190566817","400","-0.18847656","-1.0087891","0.06542969","13.15625","-7.21875","7.375"
"1572190566818","401","-0.32128906","-0.9824219","0.056640625","33.90625","-6.03125","10.84375"
"1572190566818","402","-0.171875","-1.1162109","-0.0068359375","31.40625","12.5","17.875"
"1572190566818","403","-0.2109375","-1.0791016","0.06542969","18.03125","12.5625","7.3125"
"1572190566818","404","-0.19628906","-1.1113281","-0.0107421875","24.5625","13.0625","5.90625"
"1572190566819","405","-0.21582031","-1.1601562","0.001953125","8.3125","13.84375","-1.53125"
"1572190566819","406","-0.14648438","-1.0605469","0.060546875","-2.0625","6.03125","-11.5"
"1572190566819","407","-0.2529297","-0.9433594","0.08886719","2.78125","-11.46875","-8.0625"
"1572190566819","408","-0.1796875","-0.9277344","0.06933594","9.0","-5.6875","-0.5625"
"1572190566821","409","-0.15039062","-0.9248047","0.037109375","6.0","-6.53125","-2.28125"
"1572190567214","410","-0.16699219","-0.8769531","0.05078125","3.9375","4.34375","-2.75"
"1572190567214","411","-0.13378906","-0.8652344","0.060546875","0.625","8.375","-5.03125"
"1572190567215","412","-0.16015625","-0.7832031","0.051757812","2.40625","-1.96875","-5.15625"
"1572190567215","413","-0.072265625","-0.5761719","0.033203125","5.15625","-13.90625","1.9375"
"1572190567215","414","-0.018554688","-0.38183594","0.038085938","-1.1875","-14.96875","7.0"
"1572190567215","415","-0.15136719","-0.33398438","0.12890625","2.28125","-1.84375","6.9375"
"1572190567215","416","-0.12207031","-0.53808594","0.024414062","18.28125","13.4375","-8.125"
"1572190567216","417","-0.14453125","-1.0185547","0.05078125","30.65625","-0.90625","-6.53125"
"1572190567216","418","-0.16894531","-1.3789062","0.08105469","7.03125","12.28125","-1.65625"
"1572190567216","419","-0.24316406","-0.9169922","0.072265625","-4.625","3.71875","4.0625"
"1572190568007","420","-0.17675781","-0.8330078","0.13476562","10.8125","0.71875","6.75"
"1572190568009","421","-0.0625","-1.0351562","0.14941406","11.875","-15.3125","2.65625"
"1572190568010","422","-0.30664062","-0.96875","0.087890625","-6.4375","-10.625","3.34375"
"1572190568011","423","-0.11328125","-1.0029297","0.103515625","-0.84375","9.28125","4.375"
"1572190568011","424","-0.1953125","-0.9824219","0.1171875","7.46875","0.78125","5.0"
"1572190568011","425","-0.21484375","-0.9609375","0.1015625","2.9375","1.03125","3.65625"
"1572190568011","426","-0.15136719","-0.9970703","0.103515625","4.125","1.03125","-2.15625"
"1572190568012","427","-0.17089844","-0.97558594","0.11621094","5.21875","2.125","-2.21875"
"1572190568012","428","-0.18261719","-0.9736328","0.11816406","2.65625","-0.75","-1.125"
"1572190568012","429","-0.16308594","-0.9658203","0.10253906","4.46875","1.875","0.09375"
"1572190568404","430","-0.21191406","-0.9609375","0.119140625","1.5","2.625","-0.5625"
"1572190568405","431","-0.14453125","-1.0039062","0.12695312","8.875","2.75","1.375"
"1572190568405","432","-0.21484375","-0.9658203","0.15820312","-5.03125","1.71875","-4.40625"
"1572190568408","433","-0.16992188","-0.98339844","0.09277344","5.875","0.5","-2.53125"
"1572190568409","434","-0.15332031","-0.9746094","0.123046875","5.40625","0.25","0.40625"
"1572190568409","435","-0.21289062","-0.9736328","0.11230469","4.53125","-3.65625","-0.0625"
"1572190568409","436","-0.19335938","-0.9794922","0.12695312","4.0625","-1.71875","1.8125"
"1572190568410","437","-0.1953125","-1.0019531","0.13476562","1.84375","1.03125","-1.53125"
"1572190568410","438","-0.19335938","-0.97753906","0.13476562","2.53125","1.03125","0.03125"
"1572190568410","439","-0.14355469","-0.9658203","0.109375","3.3125","-1.59375","0.96875"
"1572190568410","440","-0.15039062","-0.96875","0.125","1.90625","-3.25","2.71875"
"1572190568411","441","-0.1484375","-0.9580078","0.125","2.78125","-3.46875","3.03125"
"1572190568411","442","-0.18457031","-0.9033203","0.115234375","2.84375","-6.03125","4.0625"
"1572190568411","443","-0.13085938","-0.83496094","0.07714844","4.53125","-5.1875","2.65625"
"1572190568411","444","-0.10253906","-0.7626953","0.11425781","-8.59375","-15.1875","2.71875"
"1572190568412","445","-0.076171875","-0.69140625","0.10058594","-5.59375","-18.125","4.0625"
"1572190568412","446","-0.2861328","-0.61816406","0.18457031","-14.25","3.21875","2.5625"
"1572190568412","447","-0.15722656","-0.71777344","0.080078125","5.5625","20.625","6.03125"
"1572190568413","448","-0.047851562","-0.7832031","-0.0078125","-4.96875","8.125","-2.9375"
"1572190568413","449","-0.11621094","-0.73535156","0.041015625","-9.5625","-2.375","-1.34375"
"1572190569000","450","-0.203125","-0.78125","0.14648438","-5.34375","-3.84375","2.3125"
"1572190569001","451","-0.12988281","-0.796875","0.08691406","8.125","-8.1875","1.9375"
"1572190569001","452","-0.13964844","-0.9892578","0.0546875","-0.46875","-4.40625","-2.6875"
"1572190569001","453","-0.20800781","-1.0175781","0.09277344","-10.53125","-5.875","-2.625"
"1572190569002","454","-0.15039062","-0.89941406","0.11328125","0.625","-6.15625","4.6875"
"1572190569002","455","-0.11230469","-0.96777344","0.09082031","3.5625","-3.3125","2.90625"
"1572190569002","456","-0.23730469","-1.0244141","0.11035156","-5.78125","-15.4375","-0.5625"
"1572190569003","457","-0.24707031","-1.0673828","0.12792969","-3.28125","-4.46875","-0.875"
"1572190569004","458","-0.22363281","-1.1533203","0.125","-24.75","0.1875","-9.40625"
"1572190569004","459","-0.21972656","-1.1367188","0.12597656","-22.5","-8.84375","-11.125"
"1572190569200","460","-0.18847656","-1.1591797","-0.013671875","-16.9375","-7.5625","-14.34375"
"1572190569201","461","-0.115234375","-1.1025391","0.030273438","-14.5","-6.90625","-6.4375"
"1572190569201","462","-0.24902344","-1.0849609","0.040039062","-16.8125","-4.09375","-5.03125"
"1572190569201","463","-0.13671875","-1.1191406","-0.032226562","-13.03125","3.65625","-1.90625"
"1572190569202","464","-0.1796875","-1.1025391","0.026367188","-16.875","2.5","2.1875"
"1572190569202","465","-0.16503906","-1.1396484","-0.033203125","-9.6875","6.84375","-1.3125"
"1572190569202","466","-0.13964844","-1.234375","-0.021484375","-17.875","4.625","-7.46875"
"1572190569202","467","-0.18652344","-1.234375","-0.0029296875","-12.4375","9.15625","-8.1875"
"1572190569202","468","-0.19335938","-1.2412109","-0.0234375","-6.3125","9.40625","-2.46875"
"1572190569204","469","-0.20410156","-1.2832031","-0.041992188","2.46875","3.34375","0.0"
"1572190569598","470","-0.20410156","-1.2558594","-0.0068359375","12.09375","-9.40625","6.03125"
"1572190569598","471","-0.099609375","-1.2910156","-0.10058594","24.6875","-9.53125","13.21875"
"1572190569599","472","-0.22558594","-1.1923828","-0.030273438","5.6875","-9.09375","4.5"
"1572190569599","473","-0.28125","-1.1533203","0.0029296875","12.78125","-16.0625","6.46875"
"1572190569599","474","-0.16992188","-1.2275391","-0.052734375","11.9375","-5.0625","8.71875"
"1572190569599","475","-0.16210938","-1.0791016","0.072265625","-5.59375","-17.59375","1.09375"
"1572190569600","476","-0.14257812","-0.9980469","0.057617188","3.1875","-3.3125","1.5625"
"1572190569600","477","-0.12011719","-1.1376953","-0.044921875","1.1875","-0.84375","6.15625"
"1572190569600","478","-0.14257812","-1.0263672","-0.017578125","0.03125","4.03125","2.65625"
"1572190569600","479","-0.28710938","-1.0595703","0.056640625","7.46875","-3.0","5.65625"
"1572190569997","480","-0.13574219","-1.0625","0.0078125","12.03125","16.40625","7.84375"
"1572190569999","481","-0.21386719","-1.1132812","0.0","11.96875","5.6875","5.34375"
"1572190570000","482","-0.19824219","-1.1162109","0.0048828125","4.78125","5.25","3.21875"
"1572190570000","483","-0.18261719","-1.0839844","0.0","3.875","1.875","0.40625"
"1572190570000","484","-0.25195312","-1.0664062","-9.765625E-4","0.375","-3.0625","-0.25"
"1572190570001","485","-0.18066406","-1.0957031","0.01953125","9.0","-1.09375","-3.5"
"1572190570001","486","-0.19140625","-1.0810547","-9.765625E-4","6.75","-4.65625","-3.75"
"1572190570001","487","-0.171875","-1.0175781","0.01171875","15.40625","-0.625","-3.75"
"1572190570002","488","-0.20507812","-0.9951172","0.034179688","2.9375","-0.375","-7.9375"
"1572190570002","489","-0.12695312","-0.97265625","-0.022460938","6.75","0.84375","-7.65625"
"1572190570591","490","-0.17285156","-0.8847656","0.015625","-2.0","-1.40625","-8.875"
"1572190570592","491","-0.123046875","-0.80566406","-0.0068359375","-3.40625","-6.40625","-5.875"
"1572190570592","492","-0.09765625","-0.69628906","-0.0029296875","-5.84375","-14.84375","-3.8125"
"1572190570593","493","-0.026367188","-0.5048828","0.0078125","-7.125","-12.09375","0.59375"
"1572190570593","494","-0.038085938","-0.34277344","0.07519531","-2.0","-12.875","7.4375"
"1572190570594","495","-0.15625","-0.3515625","0.08886719","14.59375","-11.15625","13.71875"
"1572190570594","496","-0.19824219","-0.5654297","0.07128906","36.21875","4.09375","9.875"
"1572190570594","497","-0.056640625","-1.1259766","0.033203125","51.03125","16.40625","-3.90625"
"1572190570594","498","0.087890625","-1.4863281","0.033203125","14.4375","4.28125","3.9375"
"1572190570595","499","-0.39160156","-0.8515625","0.10449219","-2.84375","-13.1875","-4.03125"
"1572190570792","500","-0.3046875","-0.98046875","0.13378906","31.5625","25.3125","13.09375"
"1572190570793","501","-0.171875","-1.0136719","0.06542969","3.625","7.9375","1.21875"
"1572190570793","502","-0.09375","-0.93652344","0.13671875","-1.75","0.1875","-2.09375"
"1572190570793","503","-0.09277344","-0.96484375","0.21484375","3.625","6.90625","-1.59375"
"1572190570793","504","-0.09375","-1.0195312","0.11621094","8.0625","-0.25","-0.5625"
"1572190570794","505","-0.1796875","-0.97558594","0.13183594","0.9375","-3.25","5.0"
"1572190570794","506","-0.18652344","-0.9609375","0.12890625","1.78125","2.6875","3.34375"
"1572190570795","507","-0.18066406","-0.9765625","0.10253906","3.4375","6.21875","2.5"
"1572190570795","508","-0.16210938","-0.9941406","0.103515625","5.21875","6.03125","1.6875"
"1572190570795","509","-0.15234375","-0.9980469","0.12207031","1.71875","1.21875","-1.71875"
"1572190571189","510","-0.20117188","-0.98339844","0.1015625","3.5625","-3.3125","0.34375"
"1572190571189","511","-0.19140625","-0.9863281","0.11816406","1.96875","7.75","-0.1875"
"1572190571189","512","-0.1484375","-0.9824219","0.111328125","1.59375","14.34375","2.0"
"1572190571190","513","-0.15820312","-0.953125","0.09375","2.59375","1.71875","2.78125"
"1572190571190","514","-0.16308594","-0.93066406","0.111328125","6.1875","-4.21875","2.71875"
"1572190571190","515","-0.14941406","-0.9082031","0.08984375","7.96875","-8.5","0.21875"
"1572190571190","516","-0.1484375","-0.921875","0.09863281","-4.375","-15.25","-3.0"
"1572190571192","517","-0.17773438","-0.91796875","0.12207031","-11.9375","-14.90625","-2.46875"
"1572190571192","518","-0.15136719","-0.7734375","0.12792969","-8.71875","-9.53125","-0.25"
"1572190571192","519","-0.16894531","-0.7783203","0.14355469","10.09375","7.3125","7.5625"
"1572190571586","520","-0.11328125","-0.8173828","0.087890625","1.84375","7.8125","4.875"
"1572190571587","521","-0.09863281","-0.796875","0.076171875","-2.375","2.375","4.875"
"1572190571587","522","-0.15234375","-0.81640625","0.026367188","-1.75","-1.90625","5.78125"
"1572190571587","523","-0.11230469","-0.7285156","0.08984375","-0.15625","-8.78125","14.625"
"1572190571587","524","-0.17382812","-0.6933594","0.103515625","8.9375","-2.375","12.5625"
"1572190571588","525","-0.12011719","-0.7597656","0.057617188","13.15625","-5.0","12.6875"
"1572190571588","526","-0.20996094","-0.83984375","0.1015625","0.9375","2.3125","11.03125"
"1572190571588","527","-0.27929688","-0.86621094","0.13183594","0.375","2.4375","8.78125"
"1572190571588","528","-0.25976562","-1.0","0.09667969","-4.5625","-3.84375","15.5625"
"1572190571590","529","-0.12988281","-1.0048828","0.028320312","-2.0625","-4.53125","7.6875"
"1572190572181","530","-0.12011719","-0.8691406","0.11816406","2.34375","-12.28125","15.0"
"1572190572182","531","-0.42871094","-1.0146484","0.19628906","4.0","-3.34375","13.71875"
"1572190572182","532","-0.2734375","-0.9707031","0.13476562","-15.96875","1.84375","9.125"
"1572190572182","533","-0.2705078","-1.0546875","0.17480469","-2.0625","-2.9375","2.5625"
"1572190572182","534","-0.47753906","-1.1269531","0.1875","-30.875","3.0","-9.71875"
"1572190572183","535","-0.23632812","-1.0361328","0.037109375","-50.75","-5.0","-4.59375"
"1572190572183","536","-0.17871094","-1.1357422","0.10449219","-51.375","-18.375","-12.28125"
"1572190572183","537","-0.34765625","-0.91796875","-0.18554688","-7.84375","-41.9375","-10.09375"
"1572190572184","538","0.021484375","-1.2753906","-0.037109375","-32.28125","20.625","6.8125"
"1572190572184","539","-0.48242188","-1.09375","0.0625","-36.0","-31.375","-8.0625"
"1572190572382","540","-0.17089844","-1.0478516","-0.12792969","3.5625","6.65625","-12.40625"
"1572190572383","541","-0.22363281","-1.2402344","0.01953125","-31.90625","-5.8125","-20.09375"
"1572190572383","542","-0.19824219","-1.0605469","0.005859375","-16.09375","-12.5625","-22.84375"
"1572190572384","543","-0.18847656","-1.2685547","-0.08886719","-13.46875","5.0625","-14.65625"
"1572190572384","544","-0.1796875","-1.2167969","-0.08984375","-7.0","-7.8125","-9.15625"
"1572190572384","545","-0.30273438","-1.3066406","-0.07128906","5.6875","-4.59375","-5.6875"
"1572190572384","546","-0.2548828","-1.3564453","-0.12402344","10.65625","-4.9375","2.0"
"1572190572385","547","-0.18945312","-1.3349609","-0.056640625","12.03125","-13.1875","-0.9375"
"1572190572385","548","-0.34179688","-1.2207031","-0.08105469","15.875","-10.8125","15.25"
"1572190572385","549","-0.15527344","-1.3476562","-0.091796875","7.71875","-6.09375","15.96875"
"1572190572780","550","-0.27246094","-1.2763672","-0.109375","15.09375","5.0625","1.09375"
"1572190572781","551","-0.16308594","-1.078125","-0.10839844","7.03125","21.3125","-6.125"
"1572190572781","552","-0.16113281","-1.078125","-0.0390625","15.78125","23.75","-20.09375"
"1572190572783","553","-0.23828125","-1.1054688","-0.024414062","6.84375","26.84375","-15.34375"
"1572190572783","554","-0.15527344","-1.0009766","0.001953125","5.8125","26.90625","-12.96875"
"1572190572784","555","-0.20703125","-0.9316406","0.026367188","21.0625","22.28125","-2.625"
"1572190572784","556","-0.22363281","-1.0527344","-0.0234375","25.09375","17.5","6.03125"
"1572190572784","557","-0.064453125","-1.0976562","-0.005859375","30.53125","16.84375","5.90625"
"1572190572785","558","-0.19433594","-1.0927734","-0.03515625","18.875","-8.96875","4.5625"
"1572190572785","559","-0.07324219","-1.1240234","0.026367188","16.125","-0.1875","1.21875"
"1572190573373","560","-0.21484375","-0.9892578","0.05859375","1.0625","-4.46875","-5.6875"
"1572190573373","561","-0.19140625","-0.9951172","0.06933594","25.71875","-11.59375","2.96875"
"1572190573374","562","-0.103515625","-0.984375","9.765625E-4","20.15625","-5.375","1.75"
"1572190573374","563","-0.14648438","-0.9140625","0.01953125","5.28125","1.84375","-0.625"
"1572190573374","564","-0.10546875","-0.86816406","0.040039062","2.28125","0.4375","-2.46875"
"1572190573375","565","-0.08984375","-0.8076172","0.029296875","4.65625","0.3125","-8.875"
"1572190573375","566","-0.1015625","-0.7089844","0.0390625","-4.5","1.9375","-7.34375"
"1572190573376","567","-0.041992188","-0.6328125","0.02734375","-2.25","-4.28125","-5.5625"
"1572190573376","568","-0.10449219","-0.4189453","0.059570312","8.125","-2.25","5.96875"
"1572190573376","569","-0.091796875","-0.3671875","0.08203125","14.78125","-3.65625","17.6875"
"1572190573573","570","-0.09375","-0.49023438","0.125","10.03125","1.71875","17.125"
"1572190573574","571","-0.12402344","-0.8720703","0.051757812","11.1875","4.5","0.40625"
"1572190573574","572","0.0126953125","-1.4667969","0.0068359375","0.3125","18.5","2.25"
"1572190573574","573","-0.16308594","-1.046875","0.024414062","3.5","5.25","6.15625"
"1572190573575","574","-0.41308594","-0.83984375","0.10253906","10.8125","11.78125","12.1875"
"1572190573575","575","-0.12207031","-1.0332031","0.095703125","12.59375","3.28125","5.78125"
"1572190573575","576","-0.16503906","-0.9736328","0.083984375","6.5","-3.46875","3.46875"
"1572190573577","577","-0.19335938","-0.953125","0.11816406","2.9375","-9.59375","1.5"
"1572190573577","578","-0.15429688","-1.0136719","0.12109375","5.09375","-12.40625","-0.6875"
"1572190573577","579","-0.19433594","-0.99316406","0.099609375","7.90625","-5.96875","3.40625"
"1572190573972","580","-0.18457031","-0.96777344","0.10839844","5.75","4.28125","5.0625"
"1572190573973","581","-0.18066406","-0.9628906","0.08984375","7.53125","5.84375","4.8125"
"1572190573973","582","-0.18847656","-0.99609375","0.10253906","7.21875","2.6875","5.78125"
"1572190573973","583","-0.17480469","-0.96875","0.10449219","6.5","-1.28125","5.0"
"1572190573974","584","-0.18847656","-0.9638672","0.1171875","10.75","-4.875","7.4375"
"1572190573974","585","-0.15039062","-0.9580078","0.107421875","7.28125","-3.84375","8.71875"
"1572190573974","586","-0.14746094","-1.0009766","0.123046875","7.90625","-7.5625","7.6875"
"1572190573974","587","-0.1796875","-0.97753906","0.09375","9.25","1.59375","5.84375"
"1572190573975","588","-0.2109375","-0.9609375","0.17382812","-3.40625","-0.84375","4.5"
"1572190573976","589","-0.23730469","-0.90625","0.14941406","4.125","-5.625","2.0625"
"1572190574370","590","-0.20996094","-0.91015625","0.11328125","12.21875","-7.21875","4.5625"
"1572190574370","591","-0.17285156","-0.8388672","0.10546875","6.0","-10.25","0.59375"
"1572190574370","592","-0.14746094","-0.8691406","0.08886719","5.875","-21.25","-1.0625"
"1572190574371","593","-0.14355469","-0.8359375","0.13183594","-10.125","-27.59375","-2.59375"
"1572190574371","594","-0.2783203","-0.7294922","0.22753906","-8.28125","-11.15625","4.625"
"1572190574371","595","-0.27246094","-0.73046875","0.17382812","2.46875","12.375","5.34375"
"1572190574371","596","-0.12109375","-0.8613281","0.030273438","3.5625","5.4375","-3.3125"
"1572190574372","597","-0.09765625","-0.8417969","0.08496094","-10.1875","-9.21875","-3.4375"
"1572190574372","598","-0.17089844","-0.7285156","0.10546875","-8.71875","-10.625","2.125"
"1572190574372","599","-0.19824219","-0.79589844","0.12988281","-3.03125","-6.46875","3.15625"
"1572190574766","600","-0.20410156","-0.83984375","0.11230469","-2.46875","2.875","2.78125"
"1572190574767","601","-0.24121094","-0.9580078","0.12011719","-9.375","6.09375","-1.0"
"1572190574767","602","-0.1328125","-0.9765625","0.09765625","-2.65625","8.0","-1.0625"
"1572190574768","603","-0.16015625","-0.9482422","0.115234375","-16.875","-4.59375","-8.125"
"1572190574768","604","-0.18164062","-0.91503906","0.078125","-1.6875","-7.3125","-5.375"
"1572190574768","605","-0.17773438","-0.9902344","0.07519531","-0.84375","-5.75","-4.46875"
"1572190574768","606","-0.123046875","-0.9746094","0.09863281","-9.1875","-7.09375","-12.65625"
"1572190574769","607","-0.14648438","-1.0507812","0.08886719","-11.46875","-19.59375","-19.90625"
"1572190574769","608","-0.2607422","-0.9951172","0.07421875","-6.625","-32.71875","-3.1875"
"1572190574769","609","-0.1328125","-1.0175781","0.09765625","-11.03125","-11.46875","4.75"
"1572190575164","610","-0.24121094","-1.0292969","0.060546875","-1.6875","-8.25","5.53125"
"1572190575165","611","-0.07324219","-1.1044922","0.09667969","-3.875","1.15625","7.6875"
"1572190575165","612","-0.25195312","-1.0605469","0.07714844","-16.28125","1.46875","1.6875"
"1572190575166","613","-0.21582031","-1.0800781","0.057617188","-14.625","10.625","2.125"
"1572190575167","614","-0.15332031","-1.1796875","-0.020507812","-16.9375","11.59375","-4.84375"
"1572190575167","615","-0.2763672","-1.0849609","-0.0146484375","-17.5","21.375","-16.5"
"1572190575167","616","-0.07324219","-1.2285156","0.07714844","-3.6875","15.9375","-11.6875"
"1572190575168","617","-0.15039062","-1.2099609","-0.037109375","-15.40625","-2.625","-13.5625"
"1572190575168","618","-0.23046875","-1.1064453","0.0078125","0.375","-6.21875","-14.65625"
"1572190575168","619","-0.17480469","-1.2626953","0.028320312","1.59375","-4.6875","-12.46875"
"1572190575759","620","-0.06347656","-1.3466797","0.013671875","-0.59375","-8.3125","-14.40625"
"1572190575759","621","-0.24316406","-1.2773438","0.049804688","4.78125","-3.78125","-2.21875"
"1572190575760","622","-0.11816406","-1.3486328","0.017578125","18.03125","-20.875","3.71875"
"1572190575760","623","-0.12402344","-1.3066406","0.040039062","18.40625","-21.90625","6.21875"
"1572190575760","624","-0.15136719","-1.3710938","0.01953125","16.0","-16.25","-2.59375"
"1572190575761","625","-0.1015625","-1.2636719","-0.0546875","15.21875","-20.4375","-1.90625"
"1572190575762","626","-0.11328125","-1.0234375","0.08300781","5.5625","-2.5625","-13.25"
"1572190575762","627","-0.048828125","-1.15625","0.10058594","10.65625","-2.1875","-6.4375"
"1572190575762","628","-0.21386719","-0.98828125","0.13183594","4.40625","0.78125","-2.40625"
"1572190575763","629","-0.14550781","-1.1074219","0.05078125","18.6875","6.59375","4.875"
"1572190575959","630","-0.14941406","-1.0380859","0.10058594","17.21875","6.90625","3.84375"
"1572190575959","631","-0.1484375","-1.1171875","0.10839844","21.375","10.875","11.15625"
"1572190575959","632","-0.076171875","-1.1152344","0.09765625","12.59375","6.15625","9.9375"
"1572190575960","633","-0.07910156","-1.1796875","0.076171875","5.625","-2.625","4.4375"
"1572190575960","634","-0.12890625","-1.0703125","0.09765625","-0.59375","3.21875","-0.6875"
"1572190575960","635","-0.15234375","-1.0742188","0.07910156","1.65625","6.03125","-1.96875"
"1572190575960","636","-0.14453125","-0.9980469","0.11328125","-0.21875","7.75","-3.1875"
"1572190575961","637","-0.123046875","-0.92089844","0.12011719","4.53125","5.4375","0.71875"
"1572190575962","638","-0.05859375","-0.8701172","0.1328125","9.3125","0.90625","1.875"
"1572190575962","639","-0.08105469","-0.8144531","0.09375","7.09375","8.84375","1.15625"
"1572190576357","640","-0.05859375","-0.82714844","0.07421875","0.875","5.0625","-4.53125"
"1572190576357","641","-0.0068359375","-0.78222656","0.06640625","-3.09375","5.375","-9.59375"
"1572190576358","642","-0.06640625","-0.6513672","0.095703125","-3.875","9.46875","-3.5"
"1572190576358","643","0.015625","-0.4794922","0.03515625","3.625","-1.21875","0.15625"
"1572190576358","644","-0.13378906","-0.3359375","0.15917969","-2.375","-4.46875","9.375"
"1572190576358","645","-0.13671875","-0.48046875","0.12109375","22.0625","3.15625","15.0625"
"1572190576359","646","-0.057617188","-0.7910156","0.13867188","30.125","6.78125","11.59375"
"1572190576359","647","0.056640625","-1.2363281","0.0390625","18.9375","-7.3125","6.625"
"1572190576359","648","-0.083984375","-1.3828125","0.10253906","7.84375","-14.40625","6.34375"
"1572190576361","649","-0.2734375","-0.81933594","0.12402344","-12.96875","-4.34375","11.21875"
"1572190576754","650","-0.203125","-0.8125","0.16015625","7.40625","7.1875","21.09375"
"1572190576754","651","-0.18554688","-1.0869141","0.12402344","19.3125","3.125","7.75"
"1572190576755","652","-0.18457031","-0.9716797","0.14453125","7.71875","0.96875","12.9375"
"1572190576755","653","-0.17382812","-1.0732422","0.12890625","10.6875","4.46875","6.28125"
"1572190576755","654","-0.13964844","-1.015625","0.16601562","4.125","-5.96875","8.03125"
"1572190576755","655","-0.18457031","-0.97265625","0.18359375","0.875","-0.78125","9.3125"
"1572190576756","656","-0.24121094","-0.9658203","0.18066406","-2.40625","1.34375","8.84375"
"1572190576756","657","-0.21386719","-0.9736328","0.14355469","4.0","6.53125","10.0625"
"1572190576756","658","-0.2265625","-0.95703125","0.18554688","-8.03125","3.53125","4.1875"
"1572190576756","659","-0.18261719","-0.97265625","0.123046875","-0.90625","4.5","2.25"
"1572190577151","660","-0.16601562","-0.97558594","0.14160156","-4.5","5.375","1.6875"
"1572190577151","661","-0.19628906","-0.9628906","0.13867188","-4.25","4.09375","0.0"
"1572190577151","662","-0.14160156","-1.0039062","0.12011719","-2.96875","-2.5625","4.375"
"1572190577152","663","-0.1640625","-0.9658203","0.13085938","-7.0","-6.65625","0.84375"
"1572190577152","664","-0.21582031","-0.91015625","0.115234375","-2.96875","-3.78125","2.59375"
"1572190577152","665","-0.16308594","-0.8886719","0.09472656","-1.5625","-4.03125","2.25"
"1572190577152","666","-0.125","-0.8642578","0.12109375","-0.40625","-12.09375","2.0625"
"1572190577153","667","-0.20214844","-0.8144531","0.15234375","-0.53125","-8.84375","0.0"
"1572190577153","668","-0.2421875","-0.8222656","0.13378906","3.1875","1.71875","2.5625"
"1572190577154","669","-0.1328125","-0.8408203","0.1015625","-2.59375","12.03125","-1.59375"
"1572190577550","670","-0.10449219","-0.8457031","0.07910156","-4.8125","-7.4375","-3.5625"
"1572190577550","671","-0.1640625","-0.7324219","0.045898438","2.21875","-3.40625","-7.59375"
"1572190577550","672","-0.15917969","-0.83691406","0.10644531","-8.15625","-8.84375","1.21875"
"1572190577552","673","-0.17285156","-0.74316406","0.080078125","-0.53125","-4.34375","-2.09375"
"1572190577552","674","-0.12792969","-0.8574219","0.10058594","6.5","-6.09375","7.25"
"1572190577552","675","-0.22167969","-0.8173828","0.119140625","-5.46875","-3.0","3.84375"
"1572190577553","676","-0.27734375","-0.8486328","0.078125","-5.15625","5.6875","1.8125"
"1572190577553","677","-0.20898438","-0.9189453","0.048828125","1.4375","13.25","3.78125"
"1572190577553","678","-0.13964844","-0.9560547","0.0859375","-8.65625","13.25","-5.625"
"1572190577554","679","-0.21679688","-0.90234375","0.032226562","-10.34375","-1.03125","-2.53125"
"1572190577948","680","-0.1484375","-1.0146484","0.12792969","6.0625","-6.46875","7.5625"
"1572190577948","681","-0.21582031","-1.0097656","0.09277344","0.875","-0.375","-2.9375"
"1572190577949","682","-0.203125","-1.1064453","0.10546875","-7.96875","-4.875","-6.53125"
"1572190577949","683","-0.23632812","-1.0791016","0.08496094","-14.03125","-28.3125","-14.71875"
"1572190577949","684","-0.2578125","-0.9824219","0.0546875","-5.65625","-34.96875","-8.3125"
"1572190577951","685","-0.115234375","-1.0830078","0.0087890625","-5.34375","-24.65625","4.1875"
"1572190577951","686","-0.17871094","-0.9873047","0.12011719","-19.6875","-4.03125","0.46875"
"1572190577952","687","-0.13476562","-1.0458984","0.061523438","10.28125","-10.5","2.78125"
"1572190577952","688","-0.32421875","-1.1230469","0.022460938","-4.4375","-0.6875","-2.8125"
"1572190577952","689","-0.14941406","-1.1650391","0.041992188","-16.40625","4.21875","-4.78125"
"1572190578345","690","-0.21679688","-1.1982422","0.064453125","-8.09375","9.40625","-5.15625"
"1572190578345","691","-0.16113281","-1.2363281","0.044921875","-9.0","10.0625","-6.1875"
"1572190578346","692","-0.21191406","-1.2460938","0.056640625","-11.28125","9.28125","-5.15625"
"1572190578346","693","-0.16992188","-1.2705078","0.045898438","-1.3125","0.0625","-6.3125"
"1572190578346","694","-0.24414062","-1.2353516","0.043945312","5.5625","1.78125","-2.75"
"1572190578347","695","-0.103515625","-1.3085938","0.038085938","8.4375","-10.5625","2.65625"
"1572190578347","696","-0.20996094","-1.2128906","0.07421875","16.8125","-19.71875","1.09375"
"1572190578348","697","-0.21484375","-1.2792969","0.06542969","17.59375","-10.1875","0.84375"
"1572190578349","698","-0.20410156","-1.265625","0.05078125","15.71875","-9.78125","-0.375"
"1572190578349","699","-0.21386719","-1.140625","0.064453125","9.0625","-5.75","-0.9375"
"1572190578742","700","-0.08691406","-1.1767578","0.05078125","7.46875","2.25","-6.3125"
"1572190578742","701","-0.15429688","-1.0888672","0.111328125","8.375","0.3125","-11.96875"
"1572190578743","702","-0.22460938","-1.078125","0.095703125","12.96875","2.125","-3.875"
"1572190578743","703","-0.17285156","-1.125","0.10253906","20.21875","3.40625","2.5625"
"1572190578743","704","-0.0859375","-1.109375","0.08691406","10.9375","0.375","-3.3125"
"1572190578743","705","-0.18847656","-1.0185547","0.18164062","11.5625","3.21875","-2.53125"
"1572190578744","706","-0.14648438","-1.1054688","0.091796875","12.96875","4.5625","2.90625"
"1572190578744","707","-0.13671875","-1.0917969","0.12109375","10.34375","1.84375","6.09375"
"1572190578744","708","-0.13183594","-1.1005859","0.09863281","1.96875","-1.09375","1.28125"
"1572190578745","709","-0.16015625","-1.0439453","0.10546875","3.125","-0.625","-3.0"
"1572190579139","710","-0.109375","-1.0175781","0.11035156","2.84375","-2.9375","-2.28125"
"1572190579139","711","-0.12597656","-0.9121094","0.12207031","0.15625","4.28125","-5.9375"
"1572190579139","712","-0.12988281","-0.9091797","0.14648438","0.75","8.59375","-3.4375"
"1572190579140","713","-0.12011719","-0.8515625","0.08203125","-3.8125","13.5625","-3.125"
"1572190579140","714","-0.068359375","-0.8261719","0.087890625","2.09375","20.375","-2.625"
"1572190579140","715","-0.03125","-0.7519531","0.06738281","5.09375","-8.3125","-4.15625"
"1572190579140","716","-0.0625","-0.37695312","0.08984375","-15.46875","-17.9375","12.5625"
"1572190579141","717","-0.111328125","-0.23144531","0.11035156","-0.65625","8.0","15.65625"
"1572190579141","718","-0.061523438","-0.4482422","0.076171875","6.4375","18.5625","8.46875"
"1572190579141","719","-0.080078125","-0.7324219","0.076171875","10.40625","17.34375","2.96875"
"1572190579734","720","-0.13671875","-1.2236328","-0.025390625","9.40625","23.25","1.03125"
"1572190579735","721","-0.078125","-1.203125","0.07324219","12.34375","23.0625","19.625"
"1572190579736","722","-0.32128906","-1.0302734","0.09863281","9.34375","6.21875","12.9375"
"1572190579736","723","-0.13671875","-0.9951172","0.17578125","5.5625","6.96875","12.0625"
"1572190579736","724","-0.17480469","-0.8955078","0.1640625","1.59375","4.75","11.8125"
"1572190579737","725","-0.22753906","-0.9589844","0.15429688","11.125","3.96875","9.5625"
"1572190579737","726","-0.22363281","-0.99316406","0.19042969","-7.96875","-1.90625","1.875"
"1572190579737","727","-0.20605469","-0.9892578","0.12109375","0.09375","-7.875","-2.53125"
"1572190579737","728","-0.17578125","-0.98339844","0.10058594","0.8125","-9.46875","-0.9375"
"1572190579738","729","-0.21191406","-0.9736328","0.08886719","-1.1875","-4.03125","-1.65625"
"1572190579934","730","-0.1796875","-1.015625","0.08300781","0.5625","2.625","-0.375"
"1572190579934","731","-0.14550781","-0.9746094","0.11816406","1.53125","2.5625","2.125"
"1572190579934","732","-0.19433594","-0.94921875","0.111328125","0.3125","-0.78125","2.5"
"1572190579936","733","-0.19335938","-0.9707031","0.11035156","-0.46875","-2.875","1.6875"
"1572190579936","734","-0.18457031","-0.9667969","0.12011719","-2.0","-2.375","3.09375"
"1572190579936","735","-0.18652344","-0.9560547","0.09765625","-1.25","-1.21875","1.28125"
"1572190579937","736","-0.18261719","-0.9951172","0.10546875","2.78125","-2.0625","1.9375"
"1572190579937","737","-0.22851562","-0.9658203","0.10253906","3.1875","-0.84375","1.375"
"1572190579937","738","-0.22558594","-1.0078125","0.08300781","4.28125","2.125","2.59375"
"1572190579938","739","-0.19042969","-0.95703125","0.0859375","0.09375","3.15625","-0.875"
"1572190580331","740","-0.1796875","-0.88671875","0.13183594","-1.875","-7.21875","0.40625"
"1572190580332","741","-0.1328125","-0.796875","0.09472656","-7.5625","-12.15625","-1.0"
"1572190580332","742","-0.0703125","-0.7939453","0.076171875","-10.28125","-20.09375","2.125"
"1572190580332","743","-0.23730469","-0.7597656","0.16308594","-12.0","-2.5","-1.71875"
"1572190580333","744","-0.19238281","-0.7578125","0.049804688","1.65625","3.21875","-1.125"
"1572190580334","745","-0.022460938","-0.8876953","-0.0048828125","5.34375","-4.09375","-3.0625"
"1572190580335","746","-0.1171875","-0.7451172","0.049804688","-2.46875","-5.625","-0.5625"
"1572190580335","747","-0.14648438","-0.76660156","0.0625","-0.15625","-10.75","3.09375"
"1572190580335","748","-0.19042969","-0.77734375","0.095703125","-0.28125","-8.78125","7.5"
"1572190580336","749","-0.17285156","-0.8457031","0.091796875","-4.3125","-4.46875","2.96875"
"1572190580729","750","-0.14453125","-0.88671875","0.036132812","-8.40625","-5.5","-12.71875"
"1572190580729","751","-0.2841797","-0.99121094","0.03125","-4.4375","3.34375","-10.28125"
"1572190580729","752","-0.09863281","-0.92871094","0.07519531","6.3125","-3.40625","4.3125"
"1572190580730","753","-0.13769531","-0.90527344","0.051757812","-2.375","-6.90625","-9.0625"
"1572190580730","754","-0.22363281","-0.9140625","0.11621094","3.5","-6.40625","-2.625"
"1572190580730","755","-0.107421875","-0.99316406","0.07519531","-5.34375","-5.6875","-15.03125"
"1572190580730","756","-0.21875","-1.0351562","0.0703125","1.65625","-11.84375","-9.40625"
"1572190580732","757","-0.1640625","-1.0195312","0.09277344","0.15625","-3.84375","-11.1875"
"1572190580732","758","-0.23144531","-1.046875","0.032226562","-5.71875","9.59375","-9.34375"
"1572190580732","759","-0.06347656","-1.1210938","0.044921875","-2.65625","9.03125","-3.875"
"1572190581326","760","-0.140625","-1.1005859","0.080078125","-12.625","5.5625","0.65625"
"1572190581327","761","-0.16992188","-1.125","0.009765625","-15.0625","12.75","-6.125"
"1572190581327","762","-0.13085938","-1.1611328","0.022460938","-16.40625","10.625","-5.09375"
"1572190581327","763","-0.11816406","-1.1533203","0.021484375","-13.78125","12.5","-12.09375"
"1572190581327","764","-0.11425781","-1.1767578","-0.017578125","-11.15625","9.40625","-9.34375"
"1572190581328","765","-0.13964844","-1.1552734","0.021484375","-3.8125","1.34375","-12.53125"
"1572190581328","766","-0.13476562","-1.203125","-0.009765625","-9.5625","2.75","-9.125"
"1572190581328","767","-0.07421875","-1.2275391","-0.005859375","-5.71875","-3.90625","-13.5"
"1572190581329","768","-0.12207031","-1.1738281","0.03125","-1.0625","-5.1875","-10.625"
"1572190581330","769","-0.08300781","-1.2333984","0.001953125","4.21875","-3.125","-8.4375"
"1572190582119","770","-0.14160156","-1.2255859","0.018554688","6.5625","-7.09375","-4.71875"
"1572190582120","771","-0.06347656","-1.2832031","-0.051757812","13.6875","-12.6875","-0.1875"
"1572190582120","772","-0.11230469","-1.2900391","-0.041992188","27.25","-13.90625","5.59375"
"1572190582120","773","-0.04296875","-1.4511719","-0.0029296875","27.90625","-20.09375","7.3125"
"1572190582120","774","-0.1015625","-1.3027344","-0.068359375","22.71875","-29.3125","6.9375"
"1572190582121","775","-0.17382812","-1.0507812","0.13964844","-16.6875","2.75","1.5"
"1572190582121","776","0.068359375","-1.0615234","0.125","-1.03125","-22.84375","4.625"
"1572190582122","777","-0.1640625","-1.0146484","0.059570312","1.25","-12.5","8.71875"
"1572190582122","778","-0.17382812","-0.9550781","0.12695312","1.59375","-5.75","10.46875"
"1572190582122","779","-0.15332031","-0.9482422","0.10644531","19.3125","1.03125","12.125"
"1572190582317","780","-0.20996094","-1.0449219","0.03515625","24.3125","3.71875","12.125"
"1572190582319","781","-0.10449219","-1.0693359","0.09863281","17.40625","8.59375","9.125"
"1572190582320","782","-0.13769531","-1.1269531","0.009765625","19.6875","12.6875","5.78125"
"1572190582320","783","-0.0390625","-1.171875","0.034179688","9.3125","9.21875","0.96875"
"1572190582320","784","-0.16210938","-1.0908203","0.09082031","2.03125","2.875","-9.90625"
"1572190582320","785","-0.14648438","-1.0751953","0.07714844","2.40625","4.6875","0.53125"
"1572190582321","786","-0.14257812","-1.0302734","0.109375","0.03125","-2.375","0.71875"
"1572190582321","787","-0.15722656","-0.9716797","0.09375","7.34375","-8.25","3.71875"
"1572190582321","788","-0.095703125","-0.9951172","0.0625","6.78125","-3.71875","6.09375"
"1572190582321","789","-0.08984375","-0.9794922","0.06542969","1.3125","-3.53125","3.46875"
"1572190582514","790","-0.14746094","-0.9609375","0.076171875","-1.75","1.09375","-2.40625"
"1572190582514","791","-0.07421875","-0.9794922","0.078125","-4.375","5.4375","-3.0"
"1572190582514","792","-0.16308594","-0.9326172","0.09277344","-12.0625","4.21875","-4.90625"
"1572190582515","793","-0.043945312","-0.7705078","-0.01171875","-12.96875","-1.09375","-1.25"
"1572190582516","794","0.025390625","-0.5283203","0.0390625","-20.125","-6.34375","6.28125"
"1572190582516","795","-0.107421875","-0.3408203","0.072265625","-12.5625","-9.21875","8.65625"
"1572190582516","796","-0.15722656","-0.37695312","0.12402344","-5.40625","-3.59375","5.125"
"1572190582517","797","-0.119140625","-0.5361328","0.12890625","16.4375","6.46875","9.625"
"1572190582517","798","-0.18261719","-0.7558594","0.16699219","40.25","0.84375","17.5"
"1572190582517","799","-0.1484375","-1.2509766","-0.15039062","37.25","3.46875","29.15625"
"1572190582716","800","0.21191406","-1.671875","0.001953125","19.5625","22.875","-3.0625"
"1572190582717","801","-0.20898438","-0.72558594","0.18554688","-7.5625","-27.46875","0.53125"
"1572190582717","802","-0.40820312","-0.7050781","0.18261719","27.1875","-3.46875","28.96875"
"1572190582717","803","-0.20605469","-1.0947266","0.072265625","22.40625","8.0625","14.625"
"1572190582718","804","-0.2841797","-0.9277344","0.111328125","12.46875","4.5","29.21875"
"1572190582719","805","-0.1484375","-0.9746094","0.033203125","27.90625","6.96875","29.34375"
"1572190582719","806","-0.083984375","-1.0185547","0.052734375","20.46875","-7.09375","34.96875"
"1572190582720","807","-0.2265625","-0.8378906","0.08300781","29.5625","-11.0625","44.46875"
"1572190582720","808","-0.20703125","-0.8535156","0.043945312","50.6875","-7.8125","68.46875"
"1572190582720","809","-0.14257812","-0.9482422","0.14550781","74.375","-11.65625","75.71875"
