"# PR data"
"# Start time: 20191027T154003"
"# Subject: seb"
"# Activity type: Leg slide"
"# Correctness: Correct"
"# Notes: "
""
"timestamp","seq","accel_x","accel_y","accel_z","gyro_x","gyro_y","gyro_z"
"1572190803328","0","-0.17382812","-0.9921875","0.021484375","1.5","-6.90625","1.03125"
"1572190803329","1","-0.18847656","-0.98535156","0.01171875","1.90625","-3.40625","1.5625"
"1572190803329","2","-0.19238281","-0.98046875","0.0107421875","0.6875","-1.78125","3.15625"
"1572190803329","3","-0.19335938","-0.9746094","0.005859375","1.3125","0.78125","1.6875"
"1572190803329","4","-0.17773438","-0.9902344","0.0029296875","4.65625","1.34375","2.25"
"1572190803330","5","-0.16503906","-0.9980469","-0.0029296875","5.875","-0.78125","4.4375"
"1572190803330","6","-0.16992188","-0.99316406","-0.00390625","5.625","-3.34375","5.71875"
"1572190803330","7","-0.19726562","-0.9892578","0.020507812","4.125","-4.59375","5.21875"
"1572190803330","8","-0.1953125","-0.9863281","-0.0087890625","8.6875","-0.5","4.6875"
"1572190803331","9","-0.21582031","-0.9765625","0.032226562","-1.625","0.84375","1.5"
"1572190803730","10","-0.18457031","-0.9824219","0.01171875","2.65625","6.71875","-0.625"
"1572190803730","11","-0.19042969","-0.97265625","0.0","2.34375","5.25","1.9375"
"1572190803730","12","-0.18066406","-0.9824219","0.0107421875","1.65625","3.15625","3.15625"
"1572190803731","13","-0.17285156","-0.98828125","0.0029296875","0.875","-0.3125","4.6875"
"1572190803731","14","-0.18066406","-0.99609375","-0.01171875","1.78125","1.40625","3.90625"
"1572190803731","15","-0.19335938","-0.97753906","9.765625E-4","-0.96875","7.5","1.15625"
"1572190803732","16","-0.18359375","-0.9951172","0.0126953125","0.6875","6.90625","-0.125"
"1572190803732","17","-0.18066406","-0.99316406","0.0087890625","1.0625","1.875","-0.125"
"1572190803732","18","-0.17089844","-0.984375","0.0107421875","-3.15625","1.34375","-0.25"
"1572190803732","19","-0.20019531","-0.984375","0.0078125","-4.75","-1.03125","-0.375"
"1572190804123","20","-0.18359375","-0.98046875","9.765625E-4","-3.15625","1.46875","-0.25"
"1572190804124","21","-0.1796875","-0.9921875","-0.018554688","-0.15625","-1.03125","-0.625"
"1572190804124","22","-0.18847656","-0.9785156","-0.01171875","1.65625","-1.34375","-1.0625"
"1572190804125","23","-0.18359375","-0.99121094","0.00390625","-2.46875","0.71875","0.09375"
"1572190804125","24","-0.18652344","-0.9765625","-0.034179688","3.8125","0.84375","0.90625"
"1572190804125","25","-0.203125","-0.98535156","0.0146484375","-5.90625","1.34375","-0.0625"
"1572190804128","26","-0.18261719","-0.98828125","-0.017578125","0.3125","3.125","-0.375"
"1572190804129","27","-0.16992188","-0.9980469","-0.025390625","0.875","-1.40625","1.6875"
"1572190804129","28","-0.19140625","-0.97265625","-0.026367188","-1.5625","-1.65625","1.09375"
"1572190804129","29","-0.17480469","-0.99316406","-0.013671875","-1.5625","-0.5","1.21875"
"1572190804522","30","-0.17480469","-0.99316406","-0.0234375","1.3125","-2.6875","1.625"
"1572190804523","31","-0.19726562","-0.97265625","-0.015625","-0.40625","-2.03125","0.40625"
"1572190804523","32","-0.18457031","-0.99316406","-0.018554688","0.4375","-2.1875","0.65625"
"1572190804523","33","-0.18261719","-0.98339844","-0.022460938","1.3125","-2.5625","0.0"
"1572190804524","34","-0.19824219","-0.9707031","-0.001953125","-0.40625","-0.0625","-1.34375"
"1572190804524","35","-0.19335938","-0.98339844","-0.021484375","2.09375","0.71875","-2.03125"
"1572190804524","36","-0.15332031","-0.9873047","-0.02734375","0.5625","2.875","1.375"
"1572190804526","37","-0.20019531","-0.98828125","-0.033203125","1.0","-0.3125","2.71875"
"1572190804526","38","-0.18261719","-0.9589844","-0.018554688","4.96875","1.09375","7.375"
"1572190804526","39","-0.21777344","-0.96972656","-0.005859375","2.875","0.5625","10.96875"
"1572190804921","40","-0.19824219","-0.99316406","-0.052734375","11.8125","-2.25","17.625"
"1572190804921","41","-0.25390625","-1.0361328","-0.0146484375","7.90625","-11.59375","26.84375"
"1572190804922","42","-0.31347656","-0.9814453","-0.029296875","10.65625","-15.625","45.5625"
"1572190804922","43","-0.33398438","-0.90234375","0.05078125","7.96875","-10.1875","51.4375"
"1572190804922","44","-0.24414062","-0.9628906","0.015625","15.46875","-0.0625","38.8125"
"1572190804922","45","-0.2705078","-0.9824219","0.0029296875","6.5","3.78125","28.96875"
"1572190804923","46","-0.25683594","-0.9550781","0.036132812","-3.875","-0.90625","22.4375"
"1572190804923","47","-0.3359375","-0.9199219","0.046875","-0.40625","-0.90625","14.75"
"1572190804923","48","-0.3701172","-0.9082031","0.021484375","1.0","1.78125","17.3125"
"1572190804924","49","-0.3466797","-0.9160156","9.765625E-4","1.375","-1.96875","14.5625"
"1572190805316","50","-0.3935547","-0.890625","-0.032226562","-1.75","0.1875","12.625"
"1572190805316","51","-0.3623047","-0.93359375","-0.029296875","-0.65625","1.28125","6.875"
"1572190805316","52","-0.37109375","-0.9082031","-0.024414062","-1.25","-2.0625","2.71875"
"1572190805317","53","-0.375","-0.9296875","-0.029296875","-0.34375","-5.96875","-2.46875"
"1572190805317","54","-0.39257812","-0.91308594","-0.021484375","0.03125","-7.15625","-3.125"
"1572190805317","55","-0.4033203","-0.9140625","-0.021484375","-5.59375","-11.15625","-5.09375"
"1572190805318","56","-0.4189453","-0.9189453","-0.051757812","1.25","-6.09375","-1.65625"
"1572190805318","57","-0.44433594","-0.9267578","0.00390625","-6.75","-0.84375","-5.9375"
"1572190805318","58","-0.3623047","-0.8857422","-0.0068359375","-0.40625","3.21875","-0.6875"
"1572190805318","59","-0.39941406","-0.921875","-0.0068359375","-0.03125","2.6875","-0.375"
"1572190805715","60","-0.35351562","-0.90527344","-0.0029296875","2.15625","3.28125","-0.5"
"1572190805716","61","-0.37890625","-0.90527344","0.0087890625","2.46875","1.40625","-1.34375"
"1572190805716","62","-0.35253906","-0.9404297","0.0048828125","4.21875","3.34375","-2.9375"
"1572190805716","63","-0.38183594","-0.9169922","0.001953125","4.46875","2.75","-4.09375"
"1572190805717","64","-0.35546875","-0.9453125","-9.765625E-4","5.5","5.125","-4.21875"
"1572190805717","65","-0.35742188","-0.93847656","0.0029296875","3.8125","4.15625","-3.0"
"1572190805717","66","-0.3701172","-0.9453125","0.00390625","1.25","2.4375","-2.875"
"1572190805717","67","-0.35058594","-0.9296875","0.0087890625","1.3125","2.75","-1.0625"
"1572190805718","68","-0.3388672","-0.9423828","0.00390625","2.65625","0.96875","-0.5625"
"1572190805718","69","-0.34277344","-0.9326172","-0.00390625","2.53125","-2.4375","0.65625"
"1572190806112","70","-0.34277344","-0.94140625","-0.00390625","1.59375","-5.4375","0.65625"
"1572190806113","71","-0.34472656","-0.92089844","-0.026367188","5.03125","-7.5625","1.875"
"1572190806113","72","-0.37597656","-0.9248047","-0.0087890625","3.0625","-8.84375","0.34375"
"1572190806115","73","-0.34375","-0.9423828","-0.018554688","6.75","-9.03125","4.1875"
"1572190806115","74","-0.39453125","-0.90625","-0.0126953125","1.65625","-11.59375","2.0"
"1572190806115","75","-0.3720703","-0.9560547","-0.036132812","6.84375","-9.40625","2.125"
"1572190806116","76","-0.3984375","-0.92578125","-0.0126953125","2.34375","-7.15625","4.125"
"1572190806116","77","-0.37402344","-0.9042969","-0.0087890625","8.9375","-7.375","4.5625"
"1572190806116","78","-0.40527344","-0.92089844","0.016601562","8.75","-0.625","3.46875"
"1572190806116","79","-0.390625","-0.9111328","0.0068359375","6.3125","1.78125","5.65625"
"1572190806510","80","-0.3701172","-0.9189453","-0.030273438","3.5625","4.09375","1.5625"
"1572190806510","81","-0.3076172","-0.95214844","-0.01953125","0.9375","4.46875","-4.59375"
"1572190806511","82","-0.2890625","-0.9189453","-0.01171875","-2.25","-1.03125","-11.90625"
"1572190806511","83","-0.22167969","-0.90625","0.02734375","3.5625","-6.40625","-21.375"
"1572190806511","84","-0.3203125","-0.90527344","0.0625","1.59375","-10.9375","-28.6875"
"1572190806512","85","-0.3359375","-0.95214844","0.107421875","3.25","-4.875","-25.15625"
"1572190806513","86","-0.34277344","-0.9873047","0.068359375","7.53125","2.1875","-31.75"
"1572190806513","87","-0.33398438","-1.0205078","-0.001953125","5.875","-1.15625","-23.03125"
"1572190806514","88","-0.25195312","-0.9345703","-0.028320312","-0.28125","-3.46875","-17.28125"
"1572190806514","89","-0.2919922","-0.9902344","0.036132812","1.25","9.15625","-18.03125"
"1572190806907","90","-0.2861328","-0.94433594","0.0390625","14.3125","4.21875","-11.3125"
"1572190806908","91","-0.2578125","-0.97558594","0.07421875","0.8125","3.0","-9.65625"
"1572190806908","92","-0.21484375","-0.96777344","0.036132812","7.03125","10.0","-8.375"
"1572190806908","93","-0.20507812","-0.98535156","0.03515625","6.84375","5.5625","-4.84375"
"1572190806908","94","-0.21289062","-0.9628906","0.055664062","2.78125","4.5625","-4.03125"
"1572190806909","95","-0.19921875","-0.9511719","0.06640625","5.4375","0.5","-2.53125"
"1572190806909","96","-0.17871094","-0.9609375","0.06542969","10.59375","-5.875","-1.46875"
"1572190806910","97","-0.19140625","-0.9423828","0.12402344","10.875","-15.6875","-5.3125"
"1572190806911","98","-0.19238281","-0.96777344","0.11425781","26.875","-25.8125","-19.375"
"1572190806912","99","-0.1484375","-0.9355469","0.07421875","43.0","-35.84375","-16.8125"
"1572190807308","100","-0.140625","-0.96191406","0.12207031","43.40625","-31.5","-11.90625"
"1572190807308","101","-0.2109375","-0.98535156","0.20019531","37.0625","-11.125","-11.375"
"1572190807309","102","-0.20507812","-1.0175781","0.19628906","28.15625","-6.28125","-8.125"
"1572190807309","103","-0.27246094","-1.0322266","0.14550781","24.5","2.5625","-7.09375"
"1572190807309","104","-0.07519531","-1.0","0.12695312","16.3125","-7.15625","-6.125"
"1572190807310","105","-0.14453125","-0.9785156","0.20117188","12.21875","-9.53125","-2.8125"
"1572190807310","106","-0.14355469","-0.97265625","0.25","6.5","-7.75","-6.84375"
"1572190807310","107","-0.10644531","-0.9970703","0.23632812","10.75","-9.46875","-4.28125"
"1572190807310","108","-0.16308594","-0.96191406","0.25097656","1.65625","-3.0","-4.78125"
"1572190807311","109","-0.13085938","-0.9873047","0.2265625","7.09375","5.625","-3.25"
"1572190807701","110","-0.12792969","-0.96484375","0.24609375","1.25","2.9375","-4.65625"
"1572190807702","111","-0.0546875","-0.94921875","0.24414062","4.15625","0.78125","-8.4375"
"1572190807702","112","-0.044921875","-0.9580078","0.28027344","6.125","-2.1875","-10.28125"
"1572190807703","113","-0.111328125","-0.9746094","0.29101562","5.9375","-1.46875","-8.0625"
"1572190807703","114","-0.12109375","-0.9609375","0.28125","5.6875","0.5","-4.09375"
"1572190807703","115","-0.13964844","-0.9501953","0.26367188","6.5625","3.40625","-1.0625"
"1572190807703","116","-0.0859375","-0.95214844","0.234375","8.03125","5.75","-0.5625"
"1572190807704","117","-0.06738281","-0.9746094","0.23339844","2.53125","3.84375","-2.40625"
"1572190807704","118","-0.08691406","-0.9628906","0.2607422","1.0","2.25","-1.25"
"1572190807704","119","-0.09667969","-0.9941406","0.25585938","-0.21875","2.625","-1.53125"
"1572190808099","120","-0.10546875","-0.9707031","0.24707031","-1.25","1.59375","1.875"
"1572190808100","121","-0.11816406","-0.9580078","0.2607422","-1.625","-1.21875","5.0625"
"1572190808100","122","-0.10058594","-0.97753906","0.25585938","4.96875","-5.8125","3.59375"
"1572190808100","123","-0.11328125","-0.9550781","0.22265625","4.71875","-4.9375","1.75"
"1572190808101","124","-0.109375","-0.98046875","0.27734375","-2.59375","-6.78125","3.03125"
"1572190808101","125","-0.10644531","-0.9501953","0.2890625","0.6875","-3.65625","1.09375"
"1572190808101","126","-0.1171875","-0.9736328","0.24511719","7.46875","-6.59375","4.75"
"1572190808101","127","-0.103515625","-0.95410156","0.2626953","1.90625","-3.46875","6.15625"
"1572190808101","128","-0.06347656","-0.95214844","0.28808594","7.59375","-2.375","3.71875"
"1572190808101","129","-0.06933594","-0.94140625","0.28710938","8.6875","-4.40625","2.25"
"1572190808497","130","-0.087890625","-0.97265625","0.30859375","5.03125","4.15625","3.09375"
"1572190808498","131","-0.111328125","-0.96777344","0.28320312","3.5625","8.71875","0.65625"
"1572190808498","132","-0.10644531","-0.9873047","0.2578125","1.4375","7.875","2.0"
"1572190808499","133","-0.076171875","-0.9550781","0.28222656","0.5","2.8125","1.75"
"1572190808500","134","-0.08886719","-0.9453125","0.28027344","0.5625","-3.125","-0.625"
"1572190808500","135","-0.11035156","-0.9824219","0.2734375","-1.1875","0.96875","0.40625"
"1572190808500","136","-0.14941406","-0.97558594","0.24023438","-10.125","1.03125","1.28125"
"1572190808501","137","-0.123046875","-0.984375","0.21582031","-11.8125","3.34375","2.71875"
"1572190808501","138","-0.10058594","-0.9658203","0.203125","-20.90625","3.34375","4.5"
"1572190808501","139","-0.09472656","-0.9355469","0.18066406","-32.21875","4.03125","3.9375"
"1572190808896","140","-0.12011719","-0.9736328","0.17382812","-22.25","5.96875","1.15625"
"1572190808896","141","-0.1875","-0.9746094","0.16699219","-41.59375","3.96875","6.46875"
"1572190808896","142","-0.171875","-1.0859375","0.24707031","-19.21875","19.84375","4.625"
"1572190808897","143","-0.33691406","-1.15625","0.06542969","-16.59375","-3.40625","-2.75"
"1572190808897","144","0.06933594","-0.79003906","0.091796875","-16.21875","-8.1875","28.1875"
"1572190808898","145","-0.13476562","-0.9355469","0.13476562","4.71875","-22.28125","3.46875"
"1572190808899","146","-0.19042969","-0.9404297","0.13476562","17.28125","-18.375","6.625"
"1572190808899","147","-0.1640625","-1.0429688","0.13378906","0.75","-12.6875","2.84375"
"1572190808899","148","-0.19433594","-0.95996094","0.14941406","-0.84375","-3.65625","7.96875"
"1572190808900","149","-0.16015625","-0.97265625","0.14746094","4.40625","0.71875","9.625"
"1572190809292","150","-0.16992188","-0.97753906","0.15625","0.375","-1.65625","12.25"
"1572190809292","151","-0.15917969","-0.96777344","0.16210938","3.6875","-0.375","11.59375"
"1572190809293","152","-0.20898438","-1.0097656","0.16113281","-3.28125","4.46875","14.03125"
"1572190809293","153","-0.24707031","-0.98339844","0.13964844","-6.5625","8.53125","17.25"
"1572190809293","154","-0.30371094","-1.0048828","0.12109375","-1.6875","8.0","25.375"
"1572190809294","155","-0.31054688","-0.9736328","0.09863281","-2.0","11.78125","40.34375"
"1572190809294","156","-0.21289062","-0.91796875","0.10253906","-12.375","9.8125","45.6875"
"1572190809294","157","-0.2734375","-0.99316406","0.09082031","12.28125","7.875","35.4375"
"1572190809295","158","-0.26171875","-0.9501953","0.16308594","1.84375","12.4375","21.28125"
"1572190809295","159","-0.21289062","-0.8964844","0.123046875","11.375","0.96875","19.09375"
"1572190809887","160","-0.33496094","-0.89160156","0.09667969","4.34375","4.875","17.25"
"1572190809887","161","-0.3154297","-0.94921875","0.087890625","2.21875","5.25","17.0625"
"1572190809887","162","-0.31933594","-0.95703125","0.12890625","-3.8125","8.375","6.9375"
"1572190809888","163","-0.38476562","-0.8925781","0.10644531","-3.46875","1.59375","5.21875"
"1572190809888","164","-0.3046875","-0.9296875","0.09863281","-1.4375","-0.5","2.3125"
"1572190809888","165","-0.38964844","-0.91015625","0.087890625","-6.6875","1.46875","0.46875"
"1572190809888","166","-0.375","-0.9404297","0.06738281","-6.6875","1.78125","0.40625"
"1572190809888","167","-0.38671875","-0.91015625","0.0703125","-8.21875","0.4375","0.84375"
"1572190809889","168","-0.38476562","-0.9003906","0.061523438","-5.34375","1.03125","3.28125"
"1572190809890","169","-0.4111328","-0.9248047","0.0546875","-2.3125","6.21875","2.4375"
"1572190810086","170","-0.4091797","-0.9013672","0.052734375","-3.875","9.15625","4.6875"
"1572190810087","171","-0.4013672","-0.9404297","0.056640625","1.96875","9.59375","3.15625"
"1572190810087","172","-0.35351562","-0.8876953","0.0703125","-4.1875","4.15625","4.5625"
"1572190810087","173","-0.3408203","-0.9199219","0.033203125","2.9375","1.40625","3.34375"
"1572190810087","174","-0.35253906","-0.9013672","0.072265625","-10.0625","-0.5625","-0.6875"
"1572190810088","175","-0.33789062","-0.9394531","0.0390625","0.75","-3.125","-3.125"
"1572190810088","176","-0.35839844","-0.94140625","0.06542969","-0.34375","-3.40625","-4.71875"
"1572190810088","177","-0.36035156","-0.9199219","0.07324219","-0.28125","-2.75","-4.78125"
"1572190810088","178","-0.35839844","-0.94140625","0.053710938","0.4375","-3.71875","-3.5625"
"1572190810089","179","-0.36816406","-0.93652344","0.041992188","-0.03125","-0.6875","-1.59375"
"1572190810681","180","-0.36914062","-0.9238281","0.0390625","-1.4375","1.15625","-1.78125"
"1572190810682","181","-0.35351562","-0.9277344","0.034179688","0.03125","-1.78125","0.65625"
"1572190810683","182","-0.3388672","-0.93066406","0.038085938","0.625","-1.21875","-0.8125"
"1572190810683","183","-0.35546875","-0.9169922","0.037109375","1.78125","-2.375","-0.6875"
"1572190810683","184","-0.36816406","-0.9394531","0.037109375","4.40625","-5.3125","-0.625"
"1572190810684","185","-0.35253906","-0.9248047","0.048828125","6.375","-5.96875","2.65625"
"1572190810684","186","-0.37695312","-0.921875","0.044921875","9.3125","-6.28125","3.21875"
"1572190810684","187","-0.35742188","-0.9345703","0.024414062","7.90625","-7.8125","3.9375"
"1572190810684","188","-0.36328125","-0.9501953","0.02734375","1.1875","-9.84375","3.84375"
"1572190810685","189","-0.35546875","-0.9375","-0.0048828125","5.34375","-11.65625","4.0625"
"1572190810881","190","-0.35058594","-0.92089844","0.07714844","-2.125","-15.9375","0.96875"
"1572190810881","191","-0.3984375","-0.86621094","0.08203125","7.03125","-14.71875","2.65625"
"1572190810882","192","-0.39746094","-0.9472656","0.048828125","7.21875","-7.625","2.375"
"1572190810884","193","-0.36328125","-0.92578125","0.095703125","6.5625","-4.53125","-2.6875"
"1572190810884","194","-0.4267578","-0.9121094","0.111328125","5.40625","3.0625","-1.0"
"1572190810884","195","-0.37109375","-0.94433594","0.055664062","3.0","6.53125","0.34375"
"1572190810885","196","-0.3095703","-0.8964844","0.041015625","0.375","1.46875","-2.875"
"1572190810885","197","-0.31054688","-0.9580078","0.022460938","1.53125","-3.125","-8.9375"
"1572190810885","198","-0.26953125","-0.8925781","0.060546875","2.84375","-11.71875","-14.0625"
"1572190810885","199","-0.33007812","-0.87402344","0.08496094","3.25","-11.40625","-18.09375"
"1572190811279","200","-0.3203125","-1.0625","0.13574219","11.0","0.5625","-23.5625"
"1572190811280","201","-0.3671875","-1.0039062","0.20898438","-4.375","-6.71875","-18.4375"
"1572190811280","202","-0.29882812","-0.921875","0.07324219","0.875","-6.65625","-9.125"
"1572190811280","203","-0.24511719","-0.9248047","0.018554688","-0.84375","-6.21875","-4.90625"
"1572190811281","204","-0.35253906","-1.0039062","0.076171875","-5.03125","1.46875","-7.78125"
"1572190811282","205","-0.31933594","-0.88671875","0.123046875","-2.53125","-4.03125","-5.75"
"1572190811282","206","-0.23242188","-0.9736328","0.10449219","9.59375","-4.09375","-3.90625"
"1572190811282","207","-0.28320312","-0.93359375","0.11621094","-1.1875","-3.65625","-3.96875"
"1572190811283","208","-0.2705078","-0.9589844","0.059570312","7.28125","-4.28125","-2.53125"
"1572190811283","209","-0.27148438","-0.9433594","0.0859375","4.78125","-5.5625","-1.65625"
"1572190811678","210","-0.25390625","-0.93847656","0.10449219","12.53125","-9.15625","-2.8125"
"1572190811679","211","-0.24707031","-0.9472656","0.08300781","15.9375","-12.46875","-3.5625"
"1572190811679","212","-0.21777344","-0.96484375","0.11816406","21.8125","-18.0625","-6.125"
"1572190811679","213","-0.22265625","-0.94433594","0.14550781","32.3125","-28.25","-9.59375"
"1572190811679","214","-0.21582031","-0.9746094","0.16210938","40.65625","-27.21875","-8.875"
"1572190811680","215","-0.22460938","-1.0097656","0.21386719","22.46875","-22.03125","-6.0"
"1572190811680","216","-0.29492188","-0.97558594","0.20800781","11.125","-12.03125","-8.5625"
"1572190811681","217","-0.23730469","-0.9423828","0.19335938","6.84375","0.90625","-5.09375"
"1572190811682","218","-0.22460938","-0.9970703","0.18164062","-2.0625","5.5","-6.125"
"1572190811682","219","-0.22851562","-0.95410156","0.18261719","-9.125","1.53125","-3.75"
"1572190812075","220","-0.20703125","-0.94628906","0.20898438","-7.0625","-0.25","-1.125"
"1572190812076","221","-0.17675781","-0.9628906","0.2265625","-8.84375","1.15625","-4.09375"
"1572190812076","222","-0.16503906","-0.9707031","0.19726562","1.0","-2.9375","-6.5"
"1572190812076","223","-0.14746094","-0.9785156","0.23730469","-5.15625","-7.8125","-9.65625"
"1572190812076","224","-0.11816406","-0.921875","0.21582031","1.3125","-11.96875","-8.375"
"1572190812077","225","-0.1484375","-0.9628906","0.22558594","8.25","-13.5625","-6.125"
"1572190812077","226","-0.17089844","-0.9580078","0.26367188","3.875","-6.28125","-7.65625"
"1572190812077","227","-0.21484375","-0.97753906","0.23242188","3.875","3.53125","-7.09375"
"1572190812077","228","-0.16210938","-0.98535156","0.18457031","4.0","5.84375","-5.6875"
"1572190812079","229","-0.15429688","-0.9550781","0.17578125","-1.25","4.5625","-7.65625"
"1572190812472","230","-0.16210938","-0.9736328","0.20410156","-3.6875","5.0625","-5.03125"
"1572190812473","231","-0.1328125","-0.97753906","0.18066406","-2.3125","1.78125","-4.78125"
"1572190812473","232","-0.16796875","-0.96484375","0.18847656","-0.28125","-7.03125","-0.0625"
"1572190812473","233","-0.20703125","-0.9638672","0.20117188","-1.4375","-8.5","0.71875"
"1572190812473","234","-0.2109375","-0.95410156","0.18164062","2.40625","-4.875","1.21875"
"1572190812474","235","-0.20214844","-0.9746094","0.18066406","2.9375","-2.875","2.5625"
"1572190812474","236","-0.18652344","-0.95410156","0.18066406","1.125","0.65625","2.3125"
"1572190812474","237","-0.17089844","-0.9667969","0.203125","-0.96875","4.34375","3.34375"
"1572190812474","238","-0.13769531","-0.96972656","0.16113281","8.5625","0.90625","4.375"
"1572190812475","239","-0.18457031","-0.95703125","0.21972656","-1.03125","0.78125","3.34375"
"1572190812868","240","-0.16796875","-0.9589844","0.18261719","5.8125","5.0","3.78125"
"1572190812870","241","-0.171875","-0.9716797","0.17871094","3.5","5.6875","5.21875"
"1572190812870","242","-0.15332031","-0.94921875","0.21289062","3.6875","5.4375","5.90625"
"1572190812870","243","-0.15332031","-0.96484375","0.22949219","7.71875","2.1875","4.75"
"1572190812871","244","-0.15722656","-0.9765625","0.23535156","9.0625","2.6875","4.75"
"1572190812871","245","-0.16894531","-0.96777344","0.24121094","10.09375","5.78125","3.15625"
"1572190812871","246","-0.15332031","-0.953125","0.24414062","12.78125","1.21875","5.59375"
"1572190812872","247","-0.1875","-0.9394531","0.21191406","13.5","-1.96875","6.28125"
"1572190812872","248","-0.20507812","-0.9511719","0.24609375","13.03125","11.28125","5.1875"
"1572190812872","249","-0.25195312","-0.96875","0.21777344","4.59375","16.125","7.0"
"1572190813266","250","-0.19824219","-0.9921875","0.20703125","1.0","22.09375","7.0625"
"1572190813266","251","-0.19433594","-0.98046875","0.20898438","1.25","8.3125","4.0"
"1572190813267","252","-0.15429688","-0.96191406","0.2109375","-6.09375","2.875","3.40625"
"1572190813267","253","-0.171875","-0.9628906","0.17089844","-16.8125","4.75","-1.59375"
"1572190813267","254","-0.19335938","-0.99902344","0.13476562","-12.625","13.5625","-0.0625"
"1572190813268","255","-0.2529297","-0.98046875","0.16894531","-30.0","12.75","1.21875"
"1572190813268","256","-0.20800781","-0.9902344","0.1484375","-15.84375","8.65625","3.90625"
"1572190813268","257","-0.15722656","-0.96972656","0.14941406","-10.71875","-1.09375","1.875"
"1572190813269","258","-0.15527344","-0.89746094","0.14648438","-6.5625","-9.21875","3.9375"
"1572190813269","259","-0.24316406","-1.0097656","0.13574219","-7.71875","-5.3125","0.71875"
"1572190813665","260","-0.24707031","-0.9550781","0.1328125","-8.71875","-6.78125","4.875"
"1572190813665","261","-0.2734375","-0.9453125","0.12011719","-8.09375","-5.375","5.0"
"1572190813666","262","-0.22265625","-0.96777344","0.12402344","-1.875","-4.9375","2.5"
"1572190813666","263","-0.23339844","-0.94628906","0.1171875","0.625","-5.0625","2.78125"
"1572190813666","264","-0.23535156","-0.9824219","0.111328125","1.59375","-4.53125","3.46875"
"1572190813668","265","-0.24316406","-0.953125","0.125","0.75","-1.65625","7.3125"
"1572190813668","266","-0.29003906","-0.9667969","0.16015625","9.90625","3.21875","9.3125"
"1572190813668","267","-0.33496094","-0.95410156","0.15722656","12.21875","10.5","18.125"
"1572190813669","268","-0.35253906","-0.99316406","0.08691406","10.09375","17.34375","26.71875"
"1572190813671","269","-0.30566406","-0.9550781","0.091796875","-19.9375","14.28125","41.96875"
"1572190814062","270","-0.24511719","-0.9091797","0.12597656","-4.75","22.21875","38.8125"
"1572190814063","271","-0.21875","-1.0009766","0.10644531","1.125","13.0","24.28125"
"1572190814063","272","-0.24316406","-0.9638672","0.078125","-4.5","-1.21875","19.9375"
"1572190814063","273","-0.28125","-0.8671875","0.09667969","-6.3125","-6.53125","19.40625"
"1572190814064","274","-0.34472656","-0.91796875","0.076171875","-4.6875","-7.3125","11.21875"
"1572190814064","275","-0.3623047","-0.9082031","0.09765625","-4.4375","-1.71875","3.59375"
"1572190814064","276","-0.4033203","-0.92285156","0.083984375","-3.40625","-4.21875","1.5"
"1572190814070","277","-0.3857422","-0.9199219","0.0859375","-4.9375","-0.75","0.34375"
"1572190814070","278","-0.4033203","-0.89941406","0.07324219","-3.59375","-0.5","2.78125"
"1572190814070","279","-0.4111328","-0.9082031","0.07324219","-0.09375","5.375","4.9375"
"1572190814460","280","-0.39453125","-0.90527344","0.041015625","-4.375","8.78125","3.46875"
"1572190814460","281","-0.35351562","-0.90625","0.03125","-1.875","3.21875","0.59375"
"1572190814461","282","-0.43652344","-0.9199219","0.03125","-5.15625","3.0625","0.0"
"1572190814461","283","-0.42578125","-0.9238281","0.029296875","-6.625","5.125","1.6875"
"1572190814461","284","-0.39941406","-0.88671875","0.0703125","1.375","2.0625","4.625"
"1572190814462","285","-0.43359375","-0.8886719","0.040039062","1.90625","-0.5625","4.3125"
"1572190814462","286","-0.38183594","-0.92285156","0.03515625","0.25","-1.21875","6.75"
"1572190814462","287","-0.38964844","-0.9003906","0.049804688","-5.90625","1.40625","-0.5"
"1572190814462","288","-0.36816406","-0.9121094","0.032226562","4.90625","-3.53125","-0.125"
"1572190814464","289","-0.39257812","-0.9189453","0.057617188","-0.59375","-2.875","-1.53125"
"1572190814857","290","-0.38964844","-0.9169922","0.060546875","0.3125","0.0","-1.40625"
"1572190814857","291","-0.3828125","-0.9277344","0.037109375","4.65625","1.09375","-0.75"
"1572190814858","292","-0.40625","-0.9111328","0.056640625","2.46875","0.125","2.375"
"1572190814858","293","-0.40039062","-0.9003906","0.055664062","4.40625","-2.5625","4.5"
"1572190814858","294","-0.43554688","-0.91015625","0.055664062","6.78125","1.84375","6.28125"
"1572190814858","295","-0.3486328","-0.9501953","0.051757812","6.0","8.96875","-1.25"
"1572190814859","296","-0.37695312","-0.89746094","0.06542969","3.5","1.9375","-1.90625"
"1572190814859","297","-0.40722656","-0.9082031","0.017578125","5.8125","-2.625","-0.3125"
"1572190814859","298","-0.39257812","-0.9267578","-0.0146484375","2.46875","-4.59375","0.15625"
"1572190814859","299","-0.3955078","-0.88378906","0.024414062","6.25","-4.53125","2.375"
"1572190815452","300","-0.36914062","-0.8798828","0.044921875","13.5625","-12.75","1.4375"
"1572190815454","301","-0.3857422","-0.89941406","0.05078125","19.125","-10.8125","3.90625"
"1572190815455","302","-0.43945312","-0.9140625","0.07714844","8.8125","-3.90625","-1.53125"
"1572190815455","303","-0.3876953","-0.9189453","0.06542969","11.875","-2.0625","-0.1875"
"1572190815456","304","-0.38378906","-0.94433594","0.091796875","10.15625","1.84375","-6.25"
"1572190815456","305","-0.40039062","-0.89941406","0.099609375","2.34375","4.75","-4.78125"
"1572190815456","306","-0.38476562","-0.88964844","0.059570312","4.15625","4.6875","-4.15625"
"1572190815456","307","-0.3408203","-0.9560547","0.06640625","3.4375","-1.78125","-2.03125"
"1572190815457","308","-0.36914062","-0.9169922","0.08886719","-2.46875","0.0625","-7.78125"
"1572190815457","309","-0.3154297","-0.91503906","0.07519531","2.84375","-7.21875","-9.28125"
"1572190815651","310","-0.29589844","-0.8964844","0.072265625","2.875","-12.03125","-14.84375"
"1572190815651","311","-0.31054688","-0.9316406","0.07519531","1.25","-9.28125","-21.5625"
"1572190815651","312","-0.38183594","-1.0498047","0.13476562","-1.03125","1.9375","-23.75"
"1572190815653","313","-0.39257812","-0.9003906","0.16699219","-5.84375","-5.375","-15.625"
"1572190815653","314","-0.27734375","-0.9091797","0.072265625","8.6875","-10.125","-8.4375"
"1572190815653","315","-0.296875","-0.9785156","0.033203125","1.71875","-8.0625","-15.03125"
"1572190815654","316","-0.36132812","-0.92871094","0.059570312","0.5","-7.03125","-12.78125"
"1572190815654","317","-0.29785156","-0.91503906","0.12792969","5.875","-11.15625","-8.9375"
"1572190815654","318","-0.23925781","-0.8828125","0.13964844","15.875","-16.1875","-10.5"
"1572190815655","319","-0.24804688","-0.9267578","0.076171875","27.5625","-24.40625","-5.625"
"1572190816050","320","-0.22753906","-0.93359375","0.13085938","32.0","-30.9375","-1.34375"
"1572190816050","321","-0.19335938","-0.9482422","0.19921875","28.53125","-40.71875","-2.15625"
"1572190816051","322","-0.27246094","-0.953125","0.24023438","30.46875","-47.65625","-3.3125"
"1572190816051","323","-0.26464844","-0.9707031","0.23925781","26.6875","-34.90625","-3.90625"
"1572190816051","324","-0.2548828","-0.9589844","0.2607422","16.625","-25.34375","-3.375"
"1572190816052","325","-0.31152344","-1.0039062","0.25585938","12.40625","-13.4375","-9.21875"
"1572190816053","326","-0.31347656","-1.0263672","0.23828125","-2.59375","6.03125","-6.71875"
"1572190816053","327","-0.23046875","-0.9970703","0.21972656","-3.53125","10.4375","-6.5"
"1572190816054","328","-0.20996094","-0.99316406","0.23632812","-4.3125","5.5625","-2.59375"
"1572190816054","329","-0.16894531","-0.94628906","0.2529297","-3.40625","-4.46875","-3.0625"
"1572190816447","330","-0.14941406","-0.9189453","0.25","2.09375","-14.34375","-4.21875"
"1572190816447","331","-0.140625","-0.921875","0.2705078","4.0625","-22.03125","-5.3125"
"1572190816448","332","-0.15234375","-0.93066406","0.2705078","12.34375","-23.6875","-7.8125"
"1572190816448","333","-0.1875","-0.9277344","0.33789062","1.25","-20.75","-7.65625"
"1572190816448","334","-0.19042969","-0.921875","0.2998047","8.0625","-14.03125","-9.0625"
"1572190816448","335","-0.12988281","-0.9423828","0.27441406","5.75","-9.28125","-6.78125"
"1572190816449","336","-0.12695312","-0.94140625","0.33007812","2.875","-7.09375","-6.90625"
"1572190816450","337","-0.14355469","-0.95410156","0.34375","8.5625","-2.875","-7.34375"
"1572190816450","338","-0.140625","-0.9404297","0.29003906","6.96875","1.34375","-3.1875"
"1572190816451","339","-0.15429688","-0.9550781","0.28808594","3.875","5.5625","-4.34375"
"1572190816844","340","-0.16210938","-0.9326172","0.28515625","1.65625","8.375","-2.28125"
"1572190816845","341","-0.14941406","-0.95996094","0.27148438","3.6875","8.0625","-2.40625"
"1572190816845","342","-0.13671875","-0.96777344","0.2685547","-2.90625","3.46875","-1.78125"
"1572190816845","343","-0.15820312","-0.9667969","0.26367188","-4.9375","-0.6875","-1.0"
"1572190816846","344","-0.14941406","-0.9511719","0.2626953","-4.625","-5.375","0.96875"
"1572190816846","345","-0.13769531","-0.9511719","0.26953125","-2.96875","-7.9375","1.625"
"1572190816846","346","-0.15136719","-0.9472656","0.2734375","-5.53125","-9.40625","2.1875"
"1572190816846","347","-0.16992188","-0.9609375","0.28515625","-3.875","-3.90625","2.59375"
"1572190816847","348","-0.18359375","-0.9345703","0.24316406","3.375","-0.625","4.8125"
"1572190816848","349","-0.17871094","-0.9765625","0.28710938","-6.6875","2.625","6.09375"
"1572190817437","350","-0.18847656","-0.93652344","0.2763672","-3.46875","8.0625","3.9375"
"1572190817438","351","-0.14746094","-0.9746094","0.234375","2.21875","8.46875","4.8125"
"1572190817438","352","-0.12109375","-0.9501953","0.25976562","-3.53125","8.0625","1.15625"
"1572190817438","353","-0.10253906","-0.9482422","0.2890625","-2.0625","4.21875","-2.15625"
"1572190817438","354","-0.10546875","-0.9423828","0.2607422","3.375","3.21875","-4.15625"
"1572190817439","355","-0.13964844","-0.9580078","0.265625","-0.53125","7.1875","-4.53125"
"1572190817439","356","-0.14453125","-0.9716797","0.27539062","-0.71875","18.5625","-2.46875"
"1572190817439","357","-0.13085938","-0.96972656","0.24121094","1.1875","12.9375","-3.375"
"1572190817440","358","-0.13769531","-0.9707031","0.24902344","1.4375","12.375","-0.6875"
"1572190817440","359","-0.16992188","-0.96191406","0.21679688","0.5","12.5625","-1.53125"
"1572190817640","360","-0.11621094","-0.9951172","0.24316406","-3.03125","20.375","1.28125"
"1572190817641","361","-0.15917969","-0.9814453","0.20410156","-8.71875","11.15625","0.09375"
"1572190817642","362","-0.21679688","-0.9785156","0.22558594","-6.15625","4.6875","7.5625"
"1572190817642","363","-0.17773438","-0.98046875","0.18164062","-8.03125","11.40625","6.40625"
"1572190817642","364","-0.16699219","-0.9296875","0.1640625","-15.90625","12.375","4.125"
"1572190817643","365","-0.12695312","-1.0068359","0.18945312","-16.09375","5.375","2.59375"
"1572190817643","366","-0.17871094","-0.95410156","0.14746094","-24.40625","3.21875","-0.8125"
"1572190817643","367","-0.15234375","-1.0654297","0.14160156","-15.1875","7.1875","-1.25"
"1572190817643","368","-0.19726562","-0.9941406","0.103515625","-18.65625","-4.8125","-0.8125"
"1572190817644","369","-0.23535156","-0.9111328","0.09863281","-13.59375","-1.84375","10.1875"
"1572190818234","370","-0.2734375","-0.9589844","0.119140625","-11.03125","9.59375","10.1875"
"1572190818235","371","-0.25097656","-0.96777344","0.12597656","-1.8125","5.84375","9.9375"
"1572190818235","372","-0.2109375","-0.98046875","0.09375","-4.25","7.0625","8.46875"
"1572190818235","373","-0.15332031","-0.98046875","0.078125","-2.3125","7.03125","8.59375"
"1572190818236","374","-0.19824219","-0.96972656","0.11230469","-5.78125","7.75","12.6875"
"1572190818236","375","-0.24023438","-0.9765625","0.1015625","-5.71875","9.15625","16.53125"
"1572190818236","376","-0.30078125","-0.9609375","0.10253906","-3.59375","14.59375","22.5"
"1572190818237","377","-0.3232422","-0.95214844","0.0234375","7.09375","9.40625","34.15625"
"1572190818237","378","-0.22753906","-1.0322266","0.033203125","-4.75","-14.65625","50.09375"
"1572190818237","379","-0.3701172","-0.734375","0.16210938","-2.0625","-8.71875","61.09375"
"1572190818433","380","-0.29492188","-0.94921875","0.09082031","22.125","24.0","35.09375"
"1572190818434","381","-0.35546875","-1.0244141","0.087890625","12.40625","28.9375","13.84375"
"1572190818434","382","-0.28027344","-0.97753906","0.10839844","2.40625","6.15625","12.0"
"1572190818434","383","-0.31152344","-0.9160156","0.12402344","2.71875","0.5","6.625"
"1572190818435","384","-0.38183594","-0.9033203","0.060546875","-2.375","0.375","6.5625"
"1572190818436","385","-0.38378906","-0.85253906","0.09277344","-5.84375","4.625","4.375"
"1572190818436","386","-0.4091797","-0.8691406","0.041992188","-3.65625","8.78125","3.09375"
"1572190818436","387","-0.3486328","-0.9238281","0.044921875","-2.1875","3.71875","-3.125"
"1572190818437","388","-0.45996094","-0.9169922","0.041992188","-3.59375","3.21875","-5.4375"
"1572190818437","389","-0.37890625","-0.92578125","0.04296875","-2.84375","5.25","-5.09375"
"1572190818831","390","-0.4267578","-0.90234375","0.0234375","-3.59375","5.6875","-3.125"
"1572190818831","391","-0.38964844","-0.9248047","-0.034179688","-2.46875","4.28125","-1.125"
"1572190818831","392","-0.40625","-0.95410156","-0.032226562","-6.8125","2.875","-1.96875"
"1572190818832","393","-0.41503906","-0.9404297","0.01953125","-12.25","7.9375","-3.625"
"1572190818832","394","-0.4140625","-0.8925781","0.041015625","-6.03125","3.84375","1.5625"
"1572190818832","395","-0.39257812","-0.8828125","-0.0068359375","0.9375","3.71875","1.03125"
"1572190818832","396","-0.36523438","-0.9160156","-0.01953125","2.84375","5.90625","0.59375"
"1572190818834","397","-0.375","-0.8984375","0.016601562","-4.3125","0.1875","-2.21875"
"1572190818834","398","-0.31152344","-0.93847656","0.009765625","5.28125","-1.59375","-3.0"
"1572190818834","399","-0.38378906","-0.9140625","0.043945312","-0.71875","-8.25","-5.625"
"1572190819428","400","-0.3544922","-0.94140625","0.0146484375","3.5625","-6.53125","-3.875"
"1572190819429","401","-0.38378906","-0.92578125","0.018554688","2.78125","-5.125","-3.96875"
"1572190819429","402","-0.38378906","-0.9189453","0.022460938","2.03125","-3.46875","-2.46875"
"1572190819430","403","-0.375","-0.9248047","0.016601562","2.78125","-2.5625","-1.78125"
"1572190819430","404","-0.3857422","-0.92578125","0.028320312","3.8125","-2.3125","0.34375"
"1572190819430","405","-0.37695312","-0.9248047","0.01953125","6.3125","-1.96875","0.84375"
"1572190819430","406","-0.32421875","-0.94140625","-0.005859375","10.09375","-1.65625","-1.59375"
"1572190819431","407","-0.3330078","-0.9296875","-0.0107421875","12.96875","-7.03125","-0.8125"
"1572190819431","408","-0.4033203","-0.91796875","-0.02734375","8.6875","-12.5625","1.09375"
"1572190819431","409","-0.33398438","-0.9560547","0.021484375","11.9375","-9.84375","-1.96875"
"1572190819626","410","-0.4091797","-0.88964844","0.055664062","3.5625","-10.625","-4.28125"
"1572190819626","411","-0.33984375","-0.94628906","0.052734375","10.59375","-6.34375","-3.1875"
"1572190819626","412","-0.375","-0.921875","0.060546875","4.0","-5.96875","-5.21875"
"1572190819627","413","-0.3408203","-0.921875","0.06738281","1.59375","-2.75","-9.0625"
"1572190819627","414","-0.33496094","-0.93652344","0.06738281","1.25","-4.875","-8.625"
"1572190819627","415","-0.37109375","-0.9042969","0.025390625","0.03125","-1.96875","-7.53125"
"1572190819627","416","-0.328125","-0.98828125","0.0546875","-0.53125","4.21875","-12.03125"
"1572190819628","417","-0.30566406","-0.9091797","0.046875","-7.90625","4.34375","-15.9375"
"1572190819628","418","-0.2626953","-0.94921875","-0.0029296875","0.5625","-3.59375","-13.375"
"1572190819628","419","-0.26464844","-0.9169922","0.016601562","-4.5625","-7.9375","-13.875"
"1572190820417","420","-0.2685547","-0.9658203","0.037109375","1.96875","-6.84375","-18.75"
"1572190820418","421","-0.20898438","-0.9921875","0.052734375","11.0","-7.5","-19.3125"
"1572190820419","422","-0.28125","-1.0351562","0.11035156","-2.40625","-2.1875","-25.71875"
"1572190820420","423","-0.31933594","-0.9501953","0.083984375","-8.03125","-2.8125","-17.65625"
"1572190820420","424","-0.22949219","-0.9433594","-0.0107421875","3.875","-14.03125","-2.09375"
"1572190820421","425","-0.23730469","-0.97558594","0.001953125","-1.9375","-0.5625","-8.875"
"1572190820421","426","-0.2705078","-0.9404297","0.07910156","-1.8125","4.40625","-2.28125"
"1572190820421","427","-0.25976562","-0.9433594","0.09765625","5.28125","-2.375","-1.59375"
"1572190820422","428","-0.234375","-0.9716797","0.0546875","3.6875","-0.5625","-0.75"
"1572190820422","429","-0.2109375","-0.9580078","0.051757812","2.78125","3.40625","0.90625"
"1572190820424","430","-0.19042969","-0.93359375","0.07519531","6.5625","-2.0625","1.28125"
"1572190820425","431","-0.18847656","-0.93066406","0.072265625","21.75","-13.5625","0.21875"
"1572190820425","432","-0.12597656","-0.99609375","0.10546875","26.5","-30.875","-4.59375"
"1572190820425","433","-0.15234375","-0.9580078","0.091796875","46.96875","-51.40625","-7.53125"
"1572190820426","434","-0.18945312","-0.9326172","0.22070312","32.90625","-46.75","-10.03125"
"1572190820426","435","-0.29003906","-0.98339844","0.17871094","29.875","-17.34375","-11.375"
"1572190820426","436","-0.24707031","-1.0322266","0.14941406","19.125","-6.53125","-12.84375"
"1572190820427","437","-0.20703125","-1.0283203","0.14453125","9.125","7.0625","-8.125"
"1572190820427","438","-0.15234375","-1.0341797","0.12988281","4.90625","2.125","-8.6875"
"1572190820427","439","-0.11425781","-1.0185547","0.1796875","5.03125","-6.09375","-4.28125"
"1572190820818","440","-0.12402344","-0.9707031","0.20996094","2.71875","-6.46875","-6.4375"
"1572190820819","441","-0.12695312","-0.984375","0.24023438","6.375","-6.90625","-4.84375"
"1572190820819","442","-0.115234375","-1.0019531","0.22167969","6.25","-9.59375","-5.75"
"1572190820819","443","-0.1015625","-0.9814453","0.23144531","3.5","-16.40625","-7.9375"
"1572190820819","444","-0.091796875","-0.9560547","0.24804688","3.3125","-18.3125","-10.28125"
"1572190820820","445","-0.09082031","-0.9580078","0.2578125","3.25","-14.59375","-11.25"
"1572190820821","446","-0.11425781","-0.9628906","0.23144531","1.59375","-15.0625","-9.21875"
"1572190820852","447","-0.12402344","-0.9638672","0.2529297","1.1875","-8.59375","-7.875"
"1572190820853","448","-0.125","-0.9511719","0.23242188","3.9375","-3.0625","-6.59375"
"1572190820853","449","-0.13671875","-0.94140625","0.19628906","1.65625","6.15625","-6.4375"
"1572190821217","450","-0.11425781","-0.9746094","0.24316406","-0.96875","11.53125","-3.5"
"1572190821218","451","-0.09667969","-0.9814453","0.21679688","0.5","10.3125","-5.25"
"1572190821218","452","-0.06738281","-1.0078125","0.16601562","5.5","7.375","-1.53125"
"1572190821218","453","-0.09082031","-0.9814453","0.15820312","-0.59375","-2.1875","0.71875"
"1572190821218","454","-0.08203125","-0.9794922","0.19921875","-3.75","-6.65625","2.125"
"1572190821219","455","-0.111328125","-0.9580078","0.2109375","1.53125","-7.625","1.8125"
"1572190821219","456","-0.12792969","-0.9736328","0.20703125","0.375","-5.875","4.0"
"1572190821220","457","-0.13867188","-0.97558594","0.20117188","-2.3125","-1.65625","5.53125"
"1572190821221","458","-0.13183594","-0.9941406","0.19140625","-1.75","0.96875","9.03125"
"1572190821221","459","-0.12792969","-0.9707031","0.21875","-1.9375","2.5625","10.0"
"1572190821810","460","-0.10546875","-0.95410156","0.21875","0.5625","4.6875","11.65625"
"1572190821811","461","-0.068359375","-0.9628906","0.21191406","2.15625","3.53125","10.1875"
"1572190821811","462","-0.111328125","-0.9794922","0.25390625","3.0625","5.375","7.75"
"1572190821811","463","-0.10644531","-0.9814453","0.21191406","4.34375","6.03125","5.21875"
"1572190821811","464","-0.11328125","-0.9609375","0.21191406","2.53125","7.25","7.5"
"1572190821812","465","-0.10644531","-0.9707031","0.24609375","2.53125","6.40625","5.71875"
"1572190821812","466","-0.08300781","-0.9433594","0.19433594","12.21875","-1.15625","2.65625"
"1572190821812","467","-0.14550781","-0.98535156","0.2578125","-2.78125","1.21875","2.5625"
"1572190821812","468","-0.12011719","-0.9794922","0.20800781","2.15625","0.125","-2.09375"
"1572190821814","469","-0.17773438","-0.9873047","0.17773438","0.75","3.46875","0.90625"
"1572190822013","470","-0.111328125","-0.9765625","0.18261719","-3.65625","9.15625","2.125"
"1572190822014","471","-0.13183594","-0.9707031","0.17675781","-5.78125","5.78125","0.21875"
"1572190822014","472","-0.12988281","-0.9765625","0.18359375","-6.6875","9.8125","1.6875"
"1572190822014","473","-0.09082031","-0.9824219","0.15039062","-12.125","10.9375","-1.3125"
"1572190822015","474","-0.15332031","-0.9921875","0.15039062","-15.375","12.9375","-4.34375"
"1572190822015","475","-0.15527344","-1.0","0.12597656","-14.5","10.5625","-3.1875"
"1572190822015","476","-0.09765625","-0.99609375","0.14160156","-9.875","7.6875","0.15625"
"1572190822015","477","-0.14355469","-0.97753906","0.16503906","-8.15625","-3.59375","-1.78125"
"1572190822016","478","-0.15722656","-0.9511719","0.16015625","-1.0625","-7.5625","5.28125"
"1572190822016","479","-0.16015625","-1.0068359","0.15039062","-2.0","1.15625","3.84375"
"1572190822410","480","-0.15136719","-0.9580078","0.12402344","-0.28125","-7.8125","5.0"
"1572190822411","481","-0.17382812","-0.98828125","0.123046875","1.0","-3.78125","5.34375"
"1572190822411","482","-0.19238281","-0.9980469","0.16699219","-5.09375","1.65625","6.46875"
"1572190822412","483","-0.15136719","-0.9824219","0.11621094","4.28125","9.21875","14.09375"
"1572190822412","484","-0.25390625","-0.9628906","0.16015625","-2.90625","13.78125","19.46875"
"1572190822412","485","-0.23828125","-0.94921875","0.13574219","2.65625","14.84375","31.0"
"1572190822412","486","-0.2626953","-0.9404297","0.07519531","1.65625","22.03125","45.53125"
"1572190822413","487","-0.2890625","-0.9433594","0.107421875","-14.9375","30.28125","62.59375"
"1572190822413","488","-0.31933594","-0.7890625","0.22265625","-0.90625","21.84375","58.59375"
"1572190822413","489","-0.24316406","-1.1845703","0.080078125","38.71875","31.5","30.75"
"1572190823005","490","-0.2705078","-1.0429688","0.10546875","-4.5","12.375","18.46875"
"1572190823005","491","-0.22753906","-0.8417969","0.13476562","-0.96875","0.71875","18.90625"
"1572190823006","492","-0.328125","-0.9042969","0.068359375","4.90625","0.1875","14.15625"
"1572190823007","493","-0.34765625","-0.9199219","0.060546875","4.28125","3.90625","5.0"
"1572190823008","494","-0.4111328","-0.9111328","0.059570312","-3.03125","4.46875","-1.125"
"1572190823008","495","-0.34179688","-0.9082031","0.072265625","-2.65625","0.125","-0.5625"
"1572190823008","496","-0.38183594","-0.9277344","0.06738281","-1.4375","-2.1875","-3.5"
"1572190823009","497","-0.38183594","-0.9316406","0.036132812","-1.5625","-1.71875","-2.53125"
"1572190823009","498","-0.3876953","-0.9267578","0.041015625","-2.3125","-2.1875","-1.53125"
"1572190823009","499","-0.41601562","-0.88964844","0.051757812","-7.0","-2.4375","-1.0"
"1572190823402","500","-0.39160156","-0.94140625","0.03125","1.5","4.6875","1.5"
"1572190823402","501","-0.41308594","-0.9189453","0.048828125","-4.9375","6.03125","0.65625"
"1572190823403","502","-0.3623047","-0.9511719","0.030273438","-1.25","2.3125","1.28125"
"1572190823403","503","-0.37304688","-0.9003906","0.06347656","-2.65625","-1.46875","3.53125"
"1572190823403","504","-0.3642578","-0.9140625","0.06542969","0.25","-4.6875","2.4375"
"1572190823404","505","-0.36132812","-0.8964844","0.055664062","-0.65625","-8.4375","1.15625"
"1572190823404","506","-0.36035156","-0.9296875","0.08105469","-0.96875","-6.09375","-1.65625"
"1572190823405","507","-0.34960938","-0.9296875","0.09082031","0.6875","-4.40625","-4.03125"
"1572190823405","508","-0.35253906","-0.92578125","0.07910156","0.25","-5.0625","-3.1875"
"1572190823405","509","-0.35058594","-0.93066406","0.06738281","0.03125","-4.09375","-1.84375"
"1572190823800","510","-0.37304688","-0.9140625","0.0703125","-2.53125","-0.1875","-1.59375"
"1572190823801","511","-0.3828125","-0.91308594","0.0625","-3.03125","0.4375","0.59375"
"1572190823801","512","-0.37695312","-0.93359375","0.060546875","1.0625","-1.71875","2.78125"
"1572190823801","513","-0.36035156","-0.91308594","0.061523438","5.5","-3.3125","3.59375"
"1572190823802","514","-0.39453125","-0.9169922","0.078125","6.5","-0.625","4.0625"
"1572190823802","515","-0.3359375","-0.9580078","0.06738281","4.21875","-1.34375","2.84375"
"1572190823802","516","-0.32910156","-0.90625","-0.017578125","4.59375","-10.1875","-1.1875"
"1572190823803","517","-0.34179688","-1.0029297","0.057617188","-0.46875","-12.6875","-7.71875"
"1572190823803","518","-0.45410156","-0.8671875","0.08203125","-2.0625","-10.0","0.15625"
"1572190823804","519","-0.35546875","-0.9501953","0.04296875","11.625","-8.71875","5.71875"
"1572190824199","520","-0.38964844","-0.9111328","0.09472656","16.9375","-6.46875","5.78125"
"1572190824199","521","-0.33691406","-0.8857422","0.09667969","13.15625","-4.40625","6.34375"
"1572190824199","522","-0.35351562","-0.91796875","0.10644531","10.40625","-2.875","0.09375"
"1572190824200","523","-0.4140625","-0.90722656","0.083984375","6.6875","-4.8125","4.625"
"1572190824200","524","-0.34570312","-0.96191406","0.11328125","4.34375","5.375","-5.4375"
"1572190824200","525","-0.31933594","-0.9199219","0.10449219","3.125","6.78125","-9.40625"
"1572190824200","526","-0.2685547","-0.9433594","0.10058594","2.46875","-2.03125","-14.84375"
"1572190824201","527","-0.26171875","-0.91015625","0.09082031","4.28125","-7.875","-17.90625"
"1572190824201","528","-0.27734375","-0.95410156","0.07421875","4.28125","-10.1875","-22.15625"
"1572190824202","529","-0.33398438","-0.9355469","0.1015625","-4.375","-10.5","-21.75"
"1572190824596","530","-0.38476562","-1.0283203","0.13574219","-9.9375","0.78125","-18.09375"
"1572190824596","531","-0.33007812","-0.9511719","0.14355469","-6.8125","7.75","-9.90625"
"1572190824597","532","-0.2705078","-0.9111328","0.036132812","5.40625","1.65625","-4.34375"
"1572190824597","533","-0.29589844","-0.9765625","0.07128906","-8.28125","3.15625","-5.875"
"1572190824597","534","-0.29296875","-0.9375","0.09375","-5.28125","9.875","-4.71875"
"1572190824598","535","-0.23242188","-0.94628906","0.083984375","5.6875","-0.625","-2.15625"
"1572190824598","536","-0.23828125","-0.91308594","0.09375","5.75","-5.625","-3.6875"
"1572190824598","537","-0.22265625","-0.9238281","0.10644531","10.875","-7.875","-6.4375"
"1572190824599","538","-0.21386719","-0.9433594","0.111328125","22.0625","-22.40625","-8.5"
"1572190824599","539","-0.18457031","-0.94140625","0.13964844","29.75","-36.1875","-11.125"
"1572190824993","540","-0.18359375","-0.9345703","0.16894531","34.6875","-47.78125","-12.15625"
"1572190824995","541","-0.2607422","-0.96875","0.19726562","32.4375","-37.21875","-11.6875"
"1572190824995","542","-0.33203125","-1.0322266","0.23535156","21.875","-15.125","-12.40625"
"1572190824996","543","-0.3232422","-0.99902344","0.19042969","14.0","-4.53125","-11.0625"
"1572190824996","544","-0.22558594","-0.98828125","0.19335938","6.1875","4.625","-5.6875"
"1572190824996","545","-0.19628906","-0.984375","0.21875","2.40625","-4.8125","-6.90625"
"1572190824996","546","-0.18554688","-0.9511719","0.24902344","4.34375","-8.78125","-4.90625"
"1572190824997","547","-0.18847656","-0.91015625","0.24511719","3.9375","-10.5625","-5.5"
"1572190824997","548","-0.15429688","-0.9707031","0.23730469","11.25","-8.65625","-1.125"
"1572190824997","549","-0.15234375","-0.9472656","0.2919922","0.3125","-13.0625","-5.09375"
"1572190825389","550","-0.1328125","-0.9667969","0.2763672","9.65625","-15.3125","-7.28125"
"1572190825390","551","-0.13085938","-0.95703125","0.2626953","6.125","-12.75","-7.15625"
"1572190825390","552","-0.12207031","-0.9482422","0.28320312","1.4375","-6.34375","-5.21875"
"1572190825392","553","-0.13476562","-0.93652344","0.28808594","4.0","-8.3125","-4.96875"
"1572190825392","554","-0.14746094","-0.9472656","0.3046875","5.75","-3.46875","-2.625"
"1572190825392","555","-0.15429688","-0.9267578","0.29785156","4.90625","3.46875","-5.03125"
"1572190825392","556","-0.14550781","-0.953125","0.2607422","8.3125","2.0625","-3.5"
"1572190825393","557","-0.13769531","-0.96777344","0.25","6.0625","5.1875","-3.3125"
"1572190825393","558","-0.1328125","-0.9667969","0.25390625","2.71875","2.1875","-3.75"
"1572190825393","559","-0.14648438","-0.96875","0.24316406","0.25","-0.75","-3.8125"
"1572190825791","560","-0.1640625","-0.97753906","0.24902344","0.09375","-0.375","-2.15625"
"1572190825792","561","-0.16503906","-0.9638672","0.25","1.0625","-1.09375","1.9375"
"1572190825792","562","-0.16308594","-0.96191406","0.27734375","-0.15625","-1.34375","3.90625"
"1572190825792","563","-0.19140625","-0.9277344","0.25976562","-3.28125","10.125","4.75"
"1572190825792","564","-0.1484375","-0.9814453","0.2578125","-4.0625","7.875","9.5"
"1572190825794","565","-0.12695312","-0.92871094","0.29296875","-1.0625","0.78125","5.53125"
"1572190825794","566","-0.10253906","-0.9580078","0.28320312","9.40625","-1.96875","2.125"
"1572190825794","567","-0.14746094","-0.9716797","0.2763672","4.0","4.34375","2.90625"
"1572190825794","568","-0.13671875","-0.9394531","0.25390625","1.59375","-1.03125","4.4375"
"1572190825795","569","-0.1328125","-0.93652344","0.26757812","1.71875","-0.125","4.4375"
"1572190826186","570","-0.123046875","-0.9160156","0.2763672","0.625","-2.25","1.4375"
"1572190826187","571","-0.17871094","-0.98046875","0.28808594","-0.59375","6.34375","-1.3125"
"1572190826187","572","-0.17285156","-0.9746094","0.22753906","2.09375","4.625","-2.28125"
"1572190826187","573","-0.19238281","-0.98046875","0.22949219","-3.875","3.34375","3.71875"
"1572190826187","574","-0.13378906","-0.95214844","0.23730469","-4.4375","2.25","2.5"
"1572190826188","575","-0.11621094","-0.9746094","0.21582031","-4.9375","-3.125","-0.125"
"1572190826188","576","-0.15722656","-0.98535156","0.21289062","-12.96875","-4.59375","-1.0"
"1572190826189","577","-0.15625","-0.9970703","0.17382812","-22.625","1.53125","-0.875"
"1572190826190","578","-0.18261719","-1.0175781","0.21679688","-29.03125","4.40625","-1.25"
"1572190826190","579","-0.21289062","-0.9892578","0.15234375","-20.59375","7.5","-4.34375"
"1572190826584","580","-0.15136719","-0.9814453","0.16796875","-25.1875","3.40625","-0.75"
"1572190826585","581","-0.18554688","-0.9609375","0.16210938","-22.875","8.46875","-3.875"
"1572190826585","582","-0.18457031","-0.98339844","0.11035156","-18.15625","8.25","-1.90625"
"1572190826585","583","-0.18164062","-0.9902344","0.13574219","-20.84375","7.6875","-1.0"
"1572190826585","584","-0.13964844","-0.99902344","0.14160156","-19.21875","6.28125","-2.53125"
"1572190826586","585","-0.14355469","-0.9921875","0.115234375","-19.375","7.125","-1.65625"
"1572190826586","586","-0.12597656","-0.9814453","0.11621094","-21.65625","10.5625","1.3125"
"1572190826586","587","-0.17871094","-0.97265625","0.10253906","-20.1875","14.40625","1.375"
"1572190826587","588","-0.18945312","-0.984375","0.08203125","-13.15625","14.21875","4.4375"
"1572190826588","589","-0.17382812","-0.96777344","0.06347656","-11.8125","21.84375","7.3125"
