"# PR data"
"# Start time: 20191113T115843"
"# Subject: nikita"
"# Activity type: Shoulder press"
"# Correctness: Correct"
"# Notes: "
""
"timestamp","seq","accel_x","accel_y","accel_z","gyro_x","gyro_y","gyro_z"
"1573646323716","0","-0.05859375","-0.93652344","0.18652344","-5.5","32.9375","-6.96875"
"1573646323717","1","-0.056640625","-1.0117188","0.21386719","-2.03125","25.75","-8.25"
"1573646323717","2","-0.03125","-0.98339844","0.20605469","10.84375","17.375","-5.625"
"1573646323718","3","-0.005859375","-0.9394531","0.21679688","12.9375","3.21875","-1.40625"
"1573646323718","4","0.0029296875","-0.94433594","0.24121094","19.28125","-0.875","1.4375"
"1573646323718","5","0.0029296875","-0.9716797","0.20410156","15.90625","-9.59375","2.25"
"1573646323718","6","0.009765625","-0.94921875","0.23828125","16.09375","-21.0625","7.5"
"1573646323718","7","-0.00390625","-0.9824219","0.21972656","26.53125","-31.75","12.375"
"1573646323719","8","0.017578125","-0.9501953","0.2607422","30.0625","-38.84375","12.625"
"1573646323719","9","0.0546875","-0.9472656","0.23828125","23.96875","-50.1875","18.0625"
"1573646323913","10","0.030273438","-0.93066406","0.3359375","20.625","-51.78125","18.0"
"1573646323916","11","-0.001953125","-0.9160156","0.3251953","15.625","-56.40625","19.34375"
"1573646323917","12","-0.028320312","-0.9667969","0.28320312","12.5625","-40.53125","13.15625"
"1573646323919","13","0.018554688","-1.0273438","0.3642578","-14.78125","-29.9375","2.96875"
"1573646323919","14","-9.765625E-4","-0.95996094","0.23535156","-20.65625","-31.25","4.3125"
"1573646323920","15","0.02734375","-0.91015625","0.33691406","-19.5","-27.0","2.25"
"1573646323920","16","0.051757812","-0.9609375","0.31640625","-19.71875","-28.09375","2.96875"
"1573646323920","17","-0.016601562","-0.9267578","0.29296875","-19.0625","-15.59375","5.125"
"1573646323921","18","9.765625E-4","-0.9267578","0.2939453","-25.90625","-12.78125","5.21875"
"1573646323921","19","-0.017578125","-0.89453125","0.30664062","-21.6875","0.09375","5.90625"
"1573646324117","20","-0.12597656","-0.94921875","0.28710938","-18.21875","10.65625","15.5"
"1573646324118","21","-0.24316406","-0.9560547","0.3095703","-9.46875","42.71875","13.96875"
"1573646324118","22","-0.23242188","-0.8720703","0.32421875","10.1875","52.09375","18.1875"
"1573646324119","23","-0.4169922","-0.91796875","0.33203125","50.09375","102.34375","22.125"
"1573646324119","24","-0.24511719","-0.9423828","0.23632812","46.125","92.21875","9.6875"
"1573646324119","25","0.033203125","-0.9316406","0.2607422","45.09375","108.125","15.96875"
"1573646324120","26","-0.09472656","-1.03125","0.2626953","37.53125","112.90625","5.125"
"1573646324120","27","0.005859375","-1.0830078","0.28515625","27.03125","94.03125","-15.9375"
"1573646324120","28","0.0078125","-1.0029297","0.37695312","20.5625","59.625","-19.4375"
"1573646324120","29","-0.025390625","-0.9042969","0.29101562","4.8125","19.09375","-12.34375"
"1573646324513","30","-0.140625","-0.97558594","0.30273438","-9.15625","0.03125","-8.0"
"1573646324514","31","-0.18164062","-0.8886719","0.22070312","-22.125","-6.78125","-8.875"
"1573646324514","32","-0.14355469","-0.92089844","0.2109375","-11.90625","-17.65625","-10.625"
"1573646324514","33","-0.19726562","-0.9765625","0.16992188","-13.75","-17.34375","-5.5625"
"1573646324515","34","-0.18847656","-0.9433594","0.22265625","-18.5625","-22.40625","-13.0625"
"1573646324515","35","-0.234375","-1.0019531","0.19433594","-22.71875","-21.25","-12.03125"
"1573646324515","36","-0.16894531","-0.9296875","0.1796875","-12.84375","-31.625","-16.625"
"1573646324519","37","-0.21972656","-1.0722656","0.3125","-19.84375","-5.625","-1.125"
"1573646324519","38","-0.29882812","-0.9453125","0.29492188","-2.625","-16.125","-5.25"
"1573646324520","39","0.057617188","-0.6923828","0.27148438","1.28125","-34.4375","-13.1875"
"1573646324910","40","-0.034179688","-0.8623047","0.3251953","4.5","-7.8125","4.0"
"1573646324910","41","-0.09375","-0.98535156","0.3310547","-5.3125","-6.1875","-10.5"
"1573646324910","42","-0.032226562","-1.0488281","0.3466797","-16.625","7.0625","-27.34375"
"1573646324911","43","0.025390625","-0.9765625","0.19628906","-18.5625","-2.21875","-15.875"
"1573646324911","44","-0.057617188","-1.1064453","0.40722656","-10.40625","21.21875","-10.75"
"1573646324911","45","-9.765625E-4","-0.9316406","0.22753906","-9.21875","11.53125","-28.53125"
"1573646324911","46","0.14160156","-0.8886719","0.115234375","-21.4375","-1.78125","-20.09375"
"1573646324911","47","0.05859375","-0.9121094","0.19433594","-25.28125","4.0","-11.3125"
"1573646324912","48","0.025390625","-0.9482422","0.16113281","-26.625","2.78125","-9.59375"
"1573646324912","49","0.025390625","-1.0078125","0.24902344","-30.28125","20.0","-6.0"
"1573646325504","50","-0.14941406","-1.1855469","0.28320312","-12.96875","27.09375","-7.8125"
"1573646325504","51","-0.029296875","-0.8720703","0.140625","19.34375","-17.59375","-10.15625"
"1573646325504","52","0.2109375","-0.8339844","0.20507812","9.1875","-25.71875","0.15625"
"1573646325504","53","-0.0703125","-0.95996094","0.19140625","-3.4375","16.09375","9.6875"
"1573646325504","54","-0.09375","-1.0390625","0.22558594","-2.75","2.71875","2.5"
"1573646325505","55","-0.048828125","-0.9892578","0.19140625","3.34375","-1.25","6.5625"
"1573646325505","56","-0.04296875","-0.9707031","0.23730469","4.875","-0.4375","7.5"
"1573646325505","57","-0.044921875","-0.93847656","0.18847656","10.125","-3.0625","2.4375"
"1573646325505","58","-0.0546875","-0.9482422","0.19824219","8.59375","0.96875","-0.125"
"1573646325505","59","-0.08203125","-0.9785156","0.20898438","1.6875","7.5","-1.90625"
"1573646325906","60","-0.06738281","-1.0","0.23925781","-2.59375","11.875","-1.90625"
"1573646325907","61","-0.060546875","-0.96191406","0.22851562","0.90625","14.09375","-0.6875"
"1573646325908","62","-0.05859375","-0.9550781","0.19433594","-1.3125","15.78125","0.15625"
"1573646325908","63","-0.038085938","-0.9765625","0.1953125","2.1875","19.03125","-3.625"
"1573646325908","64","-0.021484375","-0.95996094","0.19628906","0.15625","15.84375","-6.3125"
"1573646325909","65","-0.030273438","-0.99121094","0.21972656","-1.125","14.4375","-2.6875"
"1573646325909","66","-0.022460938","-0.9658203","0.21191406","7.5","13.71875","-1.25"
"1573646325909","67","-0.0078125","-0.9667969","0.23828125","-7.46875","11.21875","-1.1875"
"1573646325909","68","-0.016601562","-0.9736328","0.1953125","-8.5625","3.34375","1.4375"
"1573646325910","69","-0.0390625","-0.9746094","0.21875","-3.8125","2.5","-1.125"
"1573646326300","70","0.005859375","-0.96875","0.19238281","-8.8125","1.8125","-0.9375"
"1573646326300","71","-0.03125","-0.9863281","0.18457031","-5.09375","-1.25","1.6875"
"1573646326301","72","-0.030273438","-0.9609375","0.15917969","5.0625","1.03125","1.5"
"1573646326302","73","-0.0390625","-0.98046875","0.19140625","6.21875","6.09375","0.0"
"1573646326302","74","-0.030273438","-0.97753906","0.20898438","0.40625","1.5625","0.21875"
"1573646326302","75","-0.04296875","-0.9794922","0.21191406","2.5","3.90625","2.0"
"1573646326303","76","-0.029296875","-0.9609375","0.20507812","2.1875","5.90625","0.0"
"1573646326303","77","-0.059570312","-0.9658203","0.23242188","-6.96875","3.40625","-2.59375"
"1573646326303","78","-0.0390625","-0.99609375","0.24316406","-8.125","6.75","-4.84375"
"1573646326303","79","-0.068359375","-0.9472656","0.22460938","-20.9375","1.625","-6.25"
"1573646326698","80","-0.044921875","-0.98828125","0.21386719","-20.09375","9.09375","-8.125"
"1573646326699","81","-0.03515625","-0.9638672","0.18359375","-23.15625","6.5","-13.3125"
"1573646326699","82","-0.005859375","-1.0166016","0.18359375","-29.5","-10.8125","-10.5625"
"1573646326699","83","-0.032226562","-0.9785156","0.099609375","-21.4375","-11.71875","-11.25"
"1573646326699","84","0.0029296875","-1.0214844","0.17675781","-10.28125","0.40625","-2.34375"
"1573646326700","85","-0.033203125","-0.9716797","0.11621094","-3.8125","1.28125","-2.6875"
"1573646326701","86","-0.018554688","-1.0234375","0.08105469","-16.6875","-5.6875","0.28125"
"1573646326701","87","-0.017578125","-0.9628906","0.11035156","-0.125","-0.0625","6.8125"
"1573646326701","88","-0.025390625","-0.9794922","0.14453125","-4.96875","8.65625","3.65625"
"1573646326702","89","-0.037109375","-1.0087891","0.10253906","-8.9375","10.125","3.21875"
"1573646327096","90","-0.0234375","-0.9980469","0.1015625","9.1875","-10.40625","7.5"
"1573646327096","91","0.04296875","-1.0244141","0.16113281","10.1875","-17.53125","13.53125"
"1573646327096","92","-0.033203125","-0.9501953","0.07324219","16.78125","-25.59375","11.15625"
"1573646327097","93","0.0146484375","-0.9785156","0.18457031","-1.59375","-18.21875","5.90625"
"1573646327097","94","-0.08203125","-0.9511719","0.1171875","-16.5625","-6.0","-5.5625"
"1573646327097","95","0.021484375","-1.0185547","0.095703125","-15.9375","-5.21875","-4.21875"
"1573646327097","96","-0.02734375","-1.0263672","0.1484375","-9.0","-9.28125","-3.25"
"1573646327099","97","-0.03515625","-0.94628906","0.0625","-7.40625","1.4375","-3.875"
"1573646327099","98","-0.028320312","-1.0","0.14160156","-1.40625","18.0625","-6.0625"
"1573646327100","99","-0.016601562","-0.9794922","0.087890625","-13.75","0.03125","-4.09375"
"1573646327494","100","0.0048828125","-0.9902344","0.07910156","-2.40625","15.375","0.65625"
"1573646327494","101","-0.0234375","-0.9785156","0.0625","12.3125","-11.96875","9.25"
"1573646327495","102","-0.10644531","-0.98046875","0.18652344","-0.75","22.5625","0.65625"
"1573646327495","103","-0.037109375","-1.0419922","0.125","14.8125","-5.15625","2.0"
"1573646327495","104","-0.14160156","-0.9873047","0.24804688","4.75","0.71875","-0.9375"
"1573646327495","105","0.015625","-0.92285156","0.14257812","-18.8125","8.96875","-3.96875"
"1573646327496","106","-0.0625","-0.9814453","0.09472656","-0.75","6.03125","2.0"
"1573646327496","107","0.03125","-0.9638672","0.13671875","-10.15625","16.34375","-2.59375"
"1573646327496","108","-0.009765625","-0.9970703","0.09472656","6.46875","0.78125","4.375"
"1573646327496","109","0.057617188","-0.9453125","0.046875","25.3125","11.15625","22.125"
"1573646327692","110","-0.10546875","-0.9433594","0.12890625","7.0","6.03125","14.15625"
"1573646327693","111","-0.125","-1.0478516","0.18652344","13.21875","-2.09375","1.375"
"1573646327693","112","-0.13183594","-0.9873047","0.20800781","29.71875","-3.25","-6.25"
"1573646327693","113","-0.038085938","-0.9951172","0.19726562","31.90625","-4.84375","5.21875"
"1573646327693","114","-0.07421875","-0.8964844","0.20019531","-1.3125","-5.75","4.3125"
"1573646327694","115","-0.087890625","-0.97265625","0.19140625","-3.25","9.09375","0.84375"
"1573646327694","116","0.01171875","-1.0253906","0.32714844","-4.09375","11.65625","-5.375"
"1573646327694","117","-0.18261719","-0.8457031","0.19628906","-26.03125","9.1875","0.96875"
"1573646327694","118","0.038085938","-1.1328125","0.24121094","5.78125","18.90625","2.5625"
"1573646327695","119","-0.034179688","-0.90234375","0.22558594","16.65625","3.34375","1.15625"
"1573646328089","120","-0.07519531","-0.99609375","0.19433594","9.9375","6.28125","-5.4375"
"1573646328091","121","0.0048828125","-0.9794922","0.16796875","14.09375","6.9375","-4.40625"
"1573646328091","122","-0.10449219","-0.94628906","0.119140625","8.09375","-3.6875","-4.59375"
"1573646328091","123","0.0048828125","-1.0732422","0.2265625","16.09375","5.78125","2.4375"
"1573646328091","124","-0.17382812","-0.96777344","0.30566406","17.375","6.09375","2.71875"
"1573646328092","125","-0.021484375","-0.92871094","0.20410156","4.8125","-1.0","2.125"
"1573646328092","126","-0.11035156","-0.9355469","0.29296875","-2.625","12.4375","4.4375"
"1573646328092","127","-0.12011719","-0.96484375","0.33007812","-6.90625","4.0625","-2.59375"
"1573646328092","128","-0.09375","-0.8925781","0.27148438","1.875","1.21875","-0.375"
"1573646328093","129","-0.11230469","-0.9404297","0.30859375","9.8125","5.125","-0.875"
"1573646328684","130","-0.091796875","-0.95410156","0.2919922","0.96875","-3.6875","-2.625"
"1573646328684","131","-0.13574219","-0.92285156","0.2919922","-0.6875","9.4375","-2.8125"
"1573646328685","132","-0.12109375","-0.9472656","0.296875","-24.78125","6.09375","-11.90625"
"1573646328686","133","-0.07910156","-1.0654297","0.28222656","-31.75","15.78125","-8.625"
"1573646328686","134","-0.034179688","-0.9785156","0.18945312","-18.09375","-2.28125","-7.21875"
"1573646328686","135","-0.01953125","-0.9267578","0.16601562","-19.65625","-1.40625","-1.34375"
"1573646328687","136","-0.07324219","-1.0019531","0.18359375","-22.0625","7.96875","-4.15625"
"1573646328687","137","-0.028320312","-0.96484375","0.16015625","-23.5625","9.625","-9.65625"
"1573646328687","138","-0.0126953125","-1.0058594","0.16992188","-18.15625","5.46875","-4.09375"
"1573646328688","139","-0.05078125","-0.99902344","0.171875","-20.21875","6.15625","-3.5"
"1573646328884","140","-0.021484375","-0.9580078","0.12011719","-21.8125","-2.28125","-4.71875"
"1573646328885","141","-0.034179688","-1.0019531","0.11035156","-14.65625","-1.125","-1.53125"
"1573646328885","142","-0.045898438","-0.9785156","0.14746094","-21.125","3.34375","-4.84375"
"1573646328885","143","-0.045898438","-0.9921875","0.10449219","-16.96875","-6.25","-2.875"
"1573646328885","144","-0.07324219","-0.9921875","0.095703125","-20.21875","4.875","-4.15625"
"1573646328887","145","-0.0625","-1.0146484","0.10449219","-16.75","7.3125","-8.25"
"1573646328887","146","-0.052734375","-1.0371094","0.1171875","-7.28125","3.71875","-7.9375"
"1573646328887","147","-0.005859375","-0.9765625","0.12109375","-4.65625","-1.40625","-5.15625"
"1573646328887","148","-0.05078125","-0.9638672","0.052734375","-13.4375","-3.96875","-8.5625"
"1573646328888","149","0.009765625","-1.0253906","0.083984375","5.84375","-1.125","-7.03125"
"1573646329676","150","-0.032226562","-0.953125","0.1015625","-11.5625","-6.0","-5.75"
"1573646329677","151","-0.0390625","-1.0351562","0.11816406","-10.5","-6.0625","-6.1875"
"1573646329677","152","0.0087890625","-1.0","0.056640625","6.75","-7.53125","-1.65625"
"1573646329678","153","-0.032226562","-0.98339844","0.083984375","-11.25","-5.75","-0.5625"
"1573646329678","154","0.01171875","-1.0058594","0.040039062","1.8125","-6.0625","1.75"
"1573646329678","155","0.0","-0.99609375","0.06933594","9.875","-10.21875","5.21875"
"1573646329679","156","-0.032226562","-0.9814453","0.10058594","1.375","-5.5625","4.0625"
"1573646329679","157","0.0029296875","-1.0009766","0.053710938","3.53125","-10.5625","1.875"
"1573646329679","158","-0.0048828125","-1.0019531","0.09082031","6.5","-6.78125","4.9375"
"1573646329680","159","-0.051757812","-1.0107422","0.11621094","14.5625","-7.46875","3.90625"
"1573646329875","160","-0.057617188","-1.0058594","0.083984375","7.96875","-12.96875","-0.4375"
"1573646329875","161","-0.046875","-1.0175781","0.14746094","6.9375","-19.25","0.53125"
"1573646329875","162","-0.060546875","-0.9951172","0.13574219","7.5625","-21.5625","3.53125"
"1573646329876","163","-0.0048828125","-0.9716797","0.07519531","8.21875","-21.6875","-1.1875"
"1573646329876","164","0.028320312","-0.9746094","0.13476562","7.4375","-5.5","1.3125"
"1573646329876","165","-0.0146484375","-0.96777344","0.08691406","2.65625","1.6875","-2.6875"
"1573646329876","166","0.061523438","-1.0087891","0.13769531","2.125","-3.5625","3.21875"
"1573646329877","167","-0.07519531","-0.94628906","0.12792969","-1.71875","11.34375","-2.625"
"1573646329877","168","0.032226562","-1.0097656","0.12695312","-0.75","5.1875","1.21875"
"1573646329878","169","-0.02734375","-0.9560547","0.080078125","24.75","-17.71875","5.90625"
"1573646330077","170","-0.05078125","-1.015625","0.18945312","3.71875","11.8125","0.40625"
"1573646330077","171","-0.16308594","-0.9404297","0.2548828","-10.75","-5.09375","-3.75"
"1573646330077","172","0.045898438","-1.046875","0.12011719","-1.96875","3.15625","-5.5"
"1573646330078","173","-0.055664062","-0.93359375","0.13183594","6.5625","5.40625","3.78125"
"1573646330078","174","0.0068359375","-1.0224609","0.16308594","13.84375","2.90625","4.5625"
"1573646330078","175","-0.038085938","-0.9267578","0.18359375","14.9375","12.75","3.71875"
"1573646330078","176","0.020507812","-0.9736328","0.16601562","15.0","14.625","3.34375"
"1573646330079","177","-0.0703125","-0.9628906","0.24316406","4.5625","5.40625","5.53125"
"1573646330079","178","-0.0126953125","-0.9609375","0.17871094","22.6875","3.21875","3.78125"
"1573646330079","179","-0.08691406","-0.95996094","0.28808594","3.03125","13.15625","1.5"
"1573646330474","180","-0.0107421875","-0.98535156","0.20117188","5.78125","4.125","-3.4375"
"1573646330476","181","-0.03515625","-0.95410156","0.24902344","13.53125","-4.40625","5.21875"
"1573646330476","182","-0.09863281","-0.91308594","0.25390625","-19.65625","21.09375","-3.3125"
"1573646330476","183","0.009765625","-1.0292969","0.20019531","-9.125","16.28125","-5.4375"
"1573646330476","184","-0.033203125","-0.9267578","0.26171875","-8.1875","6.9375","4.375"
"1573646330477","185","-0.09277344","-1.0029297","0.19140625","0.21875","8.15625","5.78125"
"1573646330477","186","-0.0029296875","-1.0546875","0.27929688","-3.90625","7.96875","-2.34375"
"1573646330477","187","-0.14453125","-0.8798828","0.25390625","-16.0625","-1.84375","1.5625"
"1573646330478","188","-0.0625","-0.96972656","0.1484375","-12.84375","18.46875","-4.96875"
"1573646330478","189","-0.028320312","-0.91015625","0.15136719","-12.90625","31.53125","-8.875"
"1573646330872","190","0.09277344","-0.9501953","0.06738281","3.40625","26.03125","-4.21875"
"1573646330873","191","-0.0625","-1.1298828","0.24023438","20.75","12.5","-1.34375"
"1573646330873","192","-0.17675781","-0.93359375","0.08984375","31.65625","-10.75","5.34375"
"1573646330874","193","0.009765625","-0.8769531","0.3076172","21.40625","15.0625","4.9375"
"1573646330874","194","-0.17480469","-1.0058594","0.21582031","-2.75","7.75","-1.65625"
"1573646330875","195","-0.022460938","-0.984375","0.22070312","-7.59375","19.40625","-1.0"
"1573646330875","196","-0.09277344","-0.9042969","0.2734375","-2.6875","10.40625","7.625"
"1573646330875","197","-0.09765625","-1.0683594","0.27246094","-3.25","14.09375","2.375"
"1573646330875","198","-0.09765625","-0.91503906","0.22949219","10.375","3.09375","-4.03125"
"1573646330876","199","-0.1171875","-0.9267578","0.2265625","14.625","8.03125","-2.03125"
"1573646331664","200","-0.119140625","-0.984375","0.30273438","7.125","6.8125","-4.28125"
"1573646331664","201","-0.07421875","-0.9326172","0.2734375","-7.09375","0.40625","-4.15625"
"1573646331664","202","-0.17089844","-0.9472656","0.2578125","-8.4375","10.40625","-10.9375"
"1573646331665","203","-0.09863281","-1.0234375","0.28710938","-27.1875","1.9375","-9.71875"
"1573646331665","204","-0.0390625","-0.9794922","0.19433594","-20.34375","-7.65625","-7.34375"
"1573646331667","205","-0.09863281","-0.9140625","0.19824219","-15.28125","-0.625","-2.09375"
"1573646331667","206","-0.103515625","-0.96875","0.18359375","-17.34375","9.625","-11.625"
"1573646331667","207","-0.041015625","-1.0185547","0.20117188","-9.96875","10.125","-14.71875"
"1573646331668","208","0.022460938","-0.9824219","0.12988281","-21.9375","-7.28125","-8.125"
"1573646331668","209","0.01953125","-0.953125","0.087890625","-9.46875","-15.53125","4.0625"
"1573646331668","210","-0.032226562","-0.95214844","0.10644531","1.375","-14.40625","4.0"
"1573646331669","211","-0.049804688","-1.0068359","0.14355469","6.75","-5.6875","1.3125"
"1573646331669","212","-0.020507812","-0.9736328","0.1484375","1.75","-7.40625","-0.125"
"1573646331669","213","-0.0703125","-0.9824219","0.17773438","-6.84375","-0.8125","-0.875"
"1573646331669","214","-0.015625","-0.9863281","0.125","-1.84375","-3.5625","0.40625"
"1573646331670","215","-0.10449219","-0.95214844","0.20507812","-15.75","15.0","-4.28125"
"1573646331670","216","0.0107421875","-1.0400391","0.115234375","-8.9375","-6.0625","-2.15625"
"1573646331670","217","-0.0625","-0.95703125","0.15332031","-12.53125","8.40625","2.90625"
"1573646331671","218","-0.059570312","-0.99902344","0.15332031","-17.84375","5.84375","-2.09375"
"1573646331671","219","-0.08984375","-0.9716797","0.1640625","-30.53125","23.59375","-11.3125"
"1573646332066","220","-0.01171875","-1.0341797","0.12207031","-30.90625","-3.3125","-10.75"
"1573646332066","221","-0.051757812","-0.9707031","0.046875","-24.0625","-10.34375","-3.96875"
"1573646332066","222","-0.018554688","-0.99609375","0.07421875","-11.78125","2.3125","-7.46875"
"1573646332066","223","0.0078125","-0.9736328","0.06738281","-15.28125","-2.53125","-0.75"
"1573646332067","224","-0.068359375","-1.0097656","0.072265625","-11.6875","-1.71875","1.3125"
"1573646332067","225","-0.037109375","-1.0224609","0.056640625","-10.625","4.5","-4.21875"
"1573646332067","226","-0.0625","-1.0097656","0.044921875","-5.375","-9.21875","-0.5"
"1573646332067","227","9.765625E-4","-0.99121094","0.053710938","-6.375","-8.0","0.40625"
"1573646332068","228","-0.044921875","-0.9892578","0.055664062","-6.65625","-4.40625","1.3125"
"1573646332068","229","-0.045898438","-1.0068359","0.026367188","10.96875","-11.25","0.28125"
"1573646332463","230","-0.02734375","-0.99902344","0.095703125","-7.15625","-10.6875","1.4375"
"1573646332463","231","-0.0703125","-1.0195312","0.059570312","17.0","-20.21875","4.25"
"1573646332463","232","-0.029296875","-1.0185547","0.043945312","24.09375","-39.03125","5.78125"
"1573646332463","233","-0.040039062","-0.9550781","0.0390625","22.09375","-28.28125","10.25"
"1573646332464","234","0.0107421875","-0.98535156","0.05859375","33.5625","-21.0625","5.0"
"1573646332464","235","-0.068359375","-0.9550781","0.13085938","9.5","0.78125","1.5"
"1573646332464","236","-0.0126953125","-0.96875","0.13671875","-5.25","15.0","-10.09375"
"1573646332464","237","-0.033203125","-1.0341797","0.15332031","-3.0625","5.28125","-5.75"
"1573646332465","238","0.057617188","-1.0253906","0.10839844","5.96875","-5.375","2.84375"
"1573646332465","239","-0.107421875","-0.9658203","0.14453125","0.46875","11.03125","2.78125"
"1573646333057","240","-0.059570312","-0.93359375","0.12011719","-14.65625","22.5625","-5.09375"
"1573646333058","241","0.040039062","-1.0341797","0.0087890625","4.5","-10.6875","7.25"
"1573646333058","242","-0.10449219","-0.9580078","0.20605469","-12.90625","33.625","4.6875"
"1573646333059","243","-0.13671875","-1.0234375","0.20019531","-11.375","10.125","-2.40625"
"1573646333059","244","-0.14453125","-0.95996094","0.09765625","-4.28125","-10.8125","1.09375"
"1573646333059","245","0.0146484375","-1.0419922","0.1171875","-7.9375","14.21875","-1.90625"
"1573646333059","246","-0.047851562","-0.93847656","0.08300781","-19.90625","6.625","0.0"
"1573646333060","247","0.018554688","-1.0146484","0.08105469","-9.21875","21.46875","1.8125"
"1573646333060","248","-0.060546875","-1.0107422","0.044921875","-4.90625","3.34375","6.09375"
"1573646333060","249","-0.0390625","-0.9892578","0.052734375","-6.0","19.625","0.46875"
"1573646333456","250","-0.059570312","-1.0283203","0.020507812","9.625","-1.84375","10.46875"
"1573646333456","251","-0.053710938","-0.9638672","0.087890625","14.09375","-9.90625","5.65625"
"1573646333456","252","-0.16796875","-0.9921875","0.17871094","18.0625","-18.25","-4.46875"
"1573646333457","253","-0.140625","-0.9873047","0.140625","-17.28125","-1.84375","-19.125"
"1573646333458","254","0.07519531","-1.0009766","0.049804688","-1.46875","1.28125","-3.5625"
"1573646333458","255","-0.0234375","-0.9902344","0.12402344","9.03125","0.90625","6.15625"
"1573646333458","256","-0.1640625","-1.0","0.125","0.65625","5.34375","-2.625"
"1573646333458","257","-0.08105469","-0.9941406","0.109375","2.65625","20.90625","-11.5625"
"1573646333459","258","-0.029296875","-1.0283203","0.17089844","2.65625","23.0625","-3.375"
"1573646333459","259","-0.060546875","-1.0205078","0.16503906","-2.8125","9.1875","-3.96875"
"1573646333656","260","0.0087890625","-0.9472656","0.103515625","11.03125","13.53125","2.84375"
"1573646333656","261","-0.01171875","-0.9472656","0.052734375","-6.1875","7.75","-1.0"
"1573646333656","262","-0.033203125","-1.0195312","0.038085938","1.625","0.15625","-2.75"
"1573646333656","263","0.078125","-0.9980469","0.018554688","4.75","-16.5","0.15625"
"1573646333657","264","-0.056640625","-1.0244141","0.103515625","13.53125","-6.4375","9.5625"
"1573646333658","265","-0.15136719","-1.0371094","0.16015625","5.59375","0.0","0.0"
"1573646333658","266","0.005859375","-0.9267578","0.10253906","4.9375","3.40625","7.8125"
"1573646333659","267","-0.12792969","-0.9873047","0.1875","9.1875","-0.6875","11.71875"
"1573646333659","268","-0.13964844","-1.0253906","0.21484375","-0.5","2.84375","-6.5"
"1573646333659","269","-0.1171875","-0.953125","0.23339844","8.28125","8.59375","-10.28125"
"1573646334251","270","-0.07128906","-0.8857422","0.20605469","15.0625","11.03125","-2.21875"
"1573646334252","271","-0.09472656","-0.99902344","0.20410156","8.90625","15.3125","0.09375"
"1573646334252","272","-0.07910156","-0.97265625","0.19238281","0.46875","8.46875","-4.59375"
"1573646334252","273","-0.103515625","-0.9746094","0.23046875","1.09375","8.59375","-5.3125"
"1573646334252","274","-0.046875","-0.9658203","0.234375","-22.0","7.3125","-10.34375"
"1573646334253","275","-0.025390625","-1.1015625","0.17773438","-3.0","7.96875","1.4375"
"1573646334253","276","-0.10449219","-0.9658203","0.16992188","-16.5625","-5.3125","-8.3125"
"1573646334254","277","0.0107421875","-0.91503906","0.09082031","-8.1875","7.1875","-4.84375"
"1573646334255","278","-0.040039062","-1.0214844","0.15625","-23.5625","10.53125","-2.21875"
"1573646334255","279","-0.026367188","-1.0224609","0.07714844","-24.5","-4.84375","-6.53125"
"1573646334451","280","-0.03125","-1.0029297","0.12890625","-15.6875","-9.15625","7.0"
"1573646334452","281","-0.0126953125","-0.9814453","0.05859375","-11.125","-15.9375","-1.84375"
"1573646334452","282","0.00390625","-1.0029297","0.07910156","-5.25","-5.09375","1.6875"
"1573646334452","283","0.00390625","-0.9794922","0.05859375","-16.3125","-11.1875","-2.34375"
"1573646334452","284","-0.0146484375","-1.0302734","0.0703125","-12.34375","-11.6875","-0.875"
"1573646334452","285","-0.055664062","-0.984375","0.06347656","-7.21875","-18.5","-7.40625"
"1573646334453","286","-0.05859375","-0.98339844","0.043945312","-11.25","-11.4375","-1.65625"
"1573646334453","287","-0.049804688","-1.0234375","0.064453125","-6.1875","-1.84375","-5.25"
"1573646334453","288","-0.064453125","-0.96972656","0.046875","-16.0","2.4375","-2.28125"
"1573646334454","289","-0.048828125","-1.0107422","0.07714844","-9.53125","13.78125","-5.21875"
"1573646334852","290","-0.009765625","-1.0068359","0.07421875","-16.9375","16.46875","-4.21875"
"1573646334852","291","-0.0546875","-1.0009766","0.045898438","-20.59375","10.78125","-4.78125"
"1573646334852","292","-0.0390625","-1.0058594","0.016601562","-16.96875","8.78125","-8.8125"
"1573646334853","293","-0.0087890625","-0.9970703","0.029296875","-1.1875","6.40625","-5.3125"
"1573646334853","294","-0.030273438","-1.0175781","0.03515625","-6.84375","5.53125","-5.25"
"1573646334853","295","-0.056640625","-0.9863281","0.0078125","-3.6875","4.9375","-3.375"
"1573646334853","296","0.0","-1.0175781","0.0390625","-5.21875","8.65625","-4.21875"
"1573646334854","297","-0.015625","-1.0019531","0.0068359375","-11.4375","-2.46875","-2.6875"
"1573646334854","298","-0.005859375","-1.0039062","-0.016601562","2.71875","-4.71875","-1.53125"
"1573646334854","299","-0.001953125","-0.9951172","0.021484375","-8.875","-7.9375","-2.53125"
"1573646335245","300","9.765625E-4","-1.0019531","-0.02734375","-4.34375","-7.9375","0.46875"
"1573646335247","301","-0.0087890625","-1.0078125","-0.001953125","-1.65625","-2.28125","3.03125"
"1573646335247","302","-0.029296875","-1.0136719","0.015625","5.0625","-10.8125","3.53125"
"1573646335247","303","-0.036132812","-0.9941406","0.0029296875","1.28125","-14.65625","2.90625"
"1573646335247","304","-0.041992188","-1.0087891","0.0234375","9.875","-10.875","4.5625"
"1573646335248","305","-0.028320312","-0.984375","-0.02734375","13.65625","-14.0","4.6875"
"1573646335248","306","0.01953125","-0.9746094","0.020507812","2.90625","-2.15625","4.5625"
"1573646335248","307","-0.009765625","-1.015625","0.018554688","9.625","-6.90625","5.90625"
"1573646335249","308","-0.020507812","-0.98535156","0.005859375","9.75","-4.15625","3.03125"
"1573646335249","309","-0.030273438","-0.99121094","0.040039062","-7.21875","7.0625","-1.53125"
"1573646335642","310","-0.020507812","-1.0429688","0.07714844","10.90625","1.8125","0.0"
"1573646335645","311","-0.04296875","-0.9785156","0.0","1.8125","1.75","0.53125"
"1573646335646","312","-0.03125","-0.9951172","0.055664062","-0.6875","17.3125","0.46875"
"1573646335648","313","-0.038085938","-0.99121094","0.091796875","-10.5","18.84375","0.0"
"1573646335649","314","0.0146484375","-1.0","-0.040039062","11.75","-7.15625","4.0625"
"1573646335649","315","-0.10839844","-0.96191406","0.05859375","4.5625","37.75","2.125"
"1573646335649","316","-0.021484375","-1.0214844","0.109375","12.9375","1.21875","3.65625"
"1573646335649","317","-0.03125","-1.03125","0.056640625","0.40625","17.75","-2.75"
"1573646335650","318","-0.022460938","-0.9589844","0.083984375","-9.65625","-14.65625","8.28125"
"1573646335650","319","0.018554688","-0.99121094","0.05078125","20.4375","4.25","9.5625"
"1573646336040","320","-0.048828125","-1.0146484","0.11425781","3.40625","-7.875","16.40625"
"1573646336040","321","-0.08105469","-0.9433594","0.09863281","12.1875","-1.65625","13.15625"
"1573646336041","322","-0.072265625","-0.9980469","0.13085938","14.8125","7.6875","0.53125"
"1573646336041","323","-0.103515625","-1.0","0.11425781","8.40625","-8.125","-0.125"
"1573646336041","324","-0.15820312","-0.9814453","0.115234375","16.65625","6.46875","2.3125"
"1573646336043","325","-0.12597656","-0.9589844","0.13183594","6.8125","0.53125","-7.40625"
"1573646336043","326","-0.032226562","-1.0410156","0.13574219","34.96875","-2.8125","8.46875"
"1573646336043","327","-0.14257812","-0.92578125","0.1796875","-5.625","4.0","-5.03125"
"1573646336043","328","-0.06738281","-0.98046875","0.08691406","7.25","3.21875","-9.125"
"1573646336048","329","-0.115234375","-1.0380859","0.18164062","9.6875","3.90625","-3.75"
"1573646336437","330","-0.11328125","-0.9980469","0.19042969","9.03125","18.1875","-11.125"
"1573646336438","331","-0.015625","-1.0195312","0.25878906","-21.5","9.875","-6.375"
"1573646336438","332","-0.07324219","-0.89746094","0.09863281","-22.21875","2.1875","-2.09375"
"1573646336438","333","-0.057617188","-1.0068359","0.12109375","-6.0","4.1875","-1.46875"
"1573646336439","334","-0.0703125","-0.9892578","0.12597656","-4.09375","-5.5","-7.15625"
"1573646336439","335","-0.020507812","-0.9892578","0.125","0.40625","-2.03125","-9.0"
"1573646336439","336","-0.01171875","-0.984375","0.09472656","-8.625","-3.125","-0.4375"
"1573646336441","337","-0.083984375","-1.046875","0.18261719","-1.34375","5.28125","3.46875"
"1573646336442","338","-0.0859375","-0.95996094","0.12109375","-1.71875","4.8125","-4.09375"
"1573646336442","339","-0.03125","-0.9765625","0.171875","3.46875","4.5625","0.96875"
"1573646337029","340","-0.1328125","-0.9785156","0.1640625","15.1875","1.75","-4.96875"
"1573646337032","341","-0.055664062","-0.9248047","0.18359375","11.28125","0.28125","-2.09375"
"1573646337033","342","-0.09375","-0.9921875","0.21875","5.65625","0.90625","4.875"
"1573646337033","343","-0.09667969","-0.98828125","0.19726562","4.4375","3.90625","0.65625"
"1573646337034","344","-0.11230469","-1.0224609","0.21582031","-5.3125","4.5","1.09375"
"1573646337034","345","-0.08496094","-0.95703125","0.17871094","-4.40625","2.59375","-6.53125"
"1573646337034","346","-0.057617188","-1.0175781","0.1953125","-3.25","6.03125","-0.8125"
"1573646337034","347","-0.07128906","-0.96191406","0.171875","-4.90625","4.75","-7.875"
"1573646337035","348","-0.044921875","-0.9765625","0.14453125","-8.4375","5.0625","-4.53125"
"1573646337035","349","-0.04296875","-1.0058594","0.12109375","-10.40625","1.15625","-3.625"
"1573646337235","350","-0.038085938","-1.0","0.11621094","-16.96875","-1.65625","-1.1875"
"1573646337236","351","-0.03515625","-1.0","0.12207031","-12.34375","-7.53125","0.78125"
"1573646337236","352","-0.061523438","-0.95410156","0.09277344","-13.1875","-11.0625","-1.3125"
"1573646337236","353","-0.026367188","-1.0097656","0.10058594","-12.71875","1.9375","-1.84375"
"1573646337236","354","-0.036132812","-0.984375","0.08984375","-17.46875","5.28125","-2.03125"
"1573646337237","355","-0.024414062","-1.0097656","0.09082031","-9.84375","3.9375","-0.9375"
"1573646337237","356","-0.013671875","-0.9863281","0.080078125","-15.03125","0.34375","-1.96875"
"1573646337237","357","-0.040039062","-0.9951172","0.06542969","-7.15625","2.78125","-1.46875"
"1573646337238","358","-0.015625","-0.9873047","0.040039062","1.5","-6.84375","-1.40625"
"1573646337238","359","-0.06640625","-0.9863281","0.08984375","-0.9375","0.90625","-1.90625"
"1573646338027","360","-0.030273438","-0.96484375","0.06738281","2.59375","-2.625","-3.875"
"1573646338027","361","-0.068359375","-1.0029297","0.10839844","-7.59375","7.0625","-2.6875"
"1573646338028","362","-0.0390625","-0.99121094","0.08300781","-5.09375","7.84375","-6.0"
"1573646338028","363","-0.06542969","-0.99609375","0.12207031","-8.25","20.25","-6.0625"
"1573646338028","364","-0.049804688","-1.0","0.08886719","-20.53125","9.4375","-11.78125"
"1573646338029","365","-0.017578125","-1.0009766","0.02734375","-9.125","5.53125","-7.40625"
"1573646338029","366","-0.0078125","-0.99609375","0.0390625","-8.4375","2.0","-4.28125"
"1573646338029","367","-0.009765625","-1.0019531","0.06933594","-4.15625","-0.4375","0.71875"
"1573646338030","368","-0.053710938","-0.99609375","0.037109375","-6.96875","1.625","-3.8125"
"1573646338030","369","-0.0146484375","-1.0078125","0.056640625","-5.25","0.46875","-4.09375"
"1573646338224","370","-0.038085938","-0.9873047","0.036132812","-9.15625","-2.03125","-3.6875"
"1573646338224","371","0.013671875","-1.0234375","0.021484375","-9.96875","-3.625","1.5"
"1573646338224","372","-9.765625E-4","-0.9970703","0.040039062","0.21875","-0.5","2.84375"
"1573646338225","373","-0.0126953125","-1.0087891","0.056640625","-12.78125","-7.71875","3.09375"
"1573646338226","374","-0.026367188","-0.97265625","-0.016601562","-6.4375","-2.03125","1.75"
"1573646338226","375","-0.060546875","-1.0205078","0.049804688","-15.59375","-8.0","-2.625"
"1573646338226","376","-0.03125","-1.0087891","0.021484375","-11.4375","-7.21875","-3.0"
"1573646338227","377","-0.045898438","-0.96484375","-0.06542969","-10.75","-17.96875","-0.5625"
"1573646338227","378","-0.0068359375","-1.0136719","-0.041015625","19.03125","-20.59375","8.03125"
"1573646338227","379","0.001953125","-0.953125","-0.022460938","24.53125","-2.875","8.34375"
"1573646338426","380","-0.015625","-1.0302734","0.047851562","23.90625","-3.3125","7.0"
"1573646338426","381","-0.07324219","-0.9550781","0.040039062","17.4375","15.1875","-0.625"
"1573646338426","382","0.061523438","-1.0175781","0.06347656","0.0","8.46875","-3.0"
"1573646338427","383","-0.095703125","-1.0703125","0.06738281","0.0","-6.84375","6.5625"
"1573646338427","384","-0.040039062","-0.9658203","0.06347656","10.40625","-2.625","0.90625"
"1573646338428","385","-0.08496094","-0.9902344","0.10449219","-12.09375","1.9375","-4.84375"
"1573646338428","386","0.052734375","-0.984375","-0.001953125","2.25","5.53125","-4.03125"
"1573646338429","387","-0.022460938","-1.0068359","0.052734375","11.03125","10.59375","8.59375"
"1573646338429","388","-0.078125","-0.9785156","0.10449219","5.96875","-0.3125","2.3125"
"1573646338429","389","-0.083984375","-1.0107422","0.115234375","-6.71875","28.25","2.0"
"1573646339812","390","-0.07519531","-0.9716797","0.048828125","-10.9375","2.65625","-9.0"
"1573646339813","391","0.015625","-1.0097656","0.038085938","15.65625","22.4375","3.21875"
"1573646339813","392","-0.036132812","-0.9707031","0.16699219","-10.15625","5.46875","0.46875"
"1573646339813","393","-0.0087890625","-0.9824219","0.024414062","16.9375","-9.90625","9.8125"
"1573646339814","394","-0.087890625","-0.95996094","0.14941406","3.71875","18.53125","4.875"
"1573646339814","395","-0.01171875","-0.9941406","0.06640625","18.65625","-13.5","11.15625"
"1573646339814","396","-0.08300781","-1.0078125","0.13085938","35.5625","1.3125","8.84375"
"1573646339817","397","-0.125","-0.94628906","0.19921875","0.21875","-2.03125","-2.75"
"1573646339818","398","-0.03125","-0.9951172","0.025390625","40.03125","-20.875","1.03125"
"1573646339818","399","-0.0625","-0.9941406","0.18945312","13.28125","1.5","4.8125"
"1573646339818","400","-0.06933594","-0.9638672","0.18554688","14.09375","4.1875","6.875"
"1573646339819","401","-0.08886719","-1.0322266","0.24511719","4.1875","2.96875","6.5625"
"1573646339819","402","-0.1484375","-0.92578125","0.17675781","-4.34375","2.90625","-2.9375"
"1573646339819","403","-0.09082031","-1.0820312","0.23730469","0.90625","10.84375","-3.25"
"1573646339820","404","-0.091796875","-0.92089844","0.14257812","4.375","-5.6875","-4.71875"
"1573646339820","405","-0.016601562","-0.9550781","0.18261719","-5.9375","8.78125","-1.34375"
"1573646339820","406","-0.041015625","-0.98339844","0.16308594","-18.6875","-0.0625","-0.875"
"1573646339821","407","-0.15527344","-1.0009766","0.16113281","-10.875","8.09375","-7.09375"
"1573646339821","408","-0.040039062","-1.0039062","0.12597656","-2.21875","-3.25","-8.875"
"1573646339822","409","-0.119140625","-0.9501953","0.14941406","-4.28125","5.96875","-6.1875"
"1573646340410","410","-0.15429688","-1.0107422","0.16308594","-9.53125","11.09375","-12.65625"
"1573646340411","411","-0.02734375","-0.95996094","0.16796875","-8.125","1.5625","-3.3125"
"1573646340411","412","-0.0703125","-0.99902344","0.19335938","-19.78125","-11.5","4.75"
"1573646340411","413","-0.072265625","-0.9628906","0.16699219","-0.8125","-5.4375","0.21875"
"1573646340412","414","-0.095703125","-0.9746094","0.16699219","4.0","3.90625","-2.21875"
"1573646340412","415","-0.08496094","-0.99121094","0.18554688","8.78125","-1.90625","-2.46875"
"1573646340412","416","-0.08496094","-0.98339844","0.1953125","0.65625","1.03125","-0.6875"
"1573646340412","417","-0.08886719","-0.9736328","0.16992188","-3.6875","4.9375","-2.03125"
"1573646340413","418","-0.06347656","-0.98828125","0.17089844","-8.5","8.09375","-1.65625"
"1573646340413","419","-0.07421875","-1.0068359","0.19726562","-12.09375","5.96875","-1.40625"
"1573646340609","420","-0.0625","-0.9765625","0.14648438","-13.0625","2.90625","-4.59375"
"1573646340611","421","-0.052734375","-0.9892578","0.15039062","-21.8125","4.1875","-6.59375"
"1573646340611","422","-0.05859375","-1.0097656","0.12890625","-16.125","-1.78125","-7.46875"
"1573646340611","423","-0.07910156","-0.9921875","0.0625","-8.25","-4.46875","-10.75"
"1573646340612","424","0.001953125","-1.0078125","0.08691406","-13.5","-0.0625","-7.71875"
"1573646340612","425","-0.04296875","-0.9746094","0.053710938","-9.34375","-5.25","-2.46875"
"1573646340612","426","-0.013671875","-0.9951172","0.10058594","-14.34375","5.71875","-3.0"
"1573646340612","427","-0.036132812","-0.984375","0.059570312","-17.90625","2.78125","-6.71875"
"1573646340613","428","0.043945312","-1.0214844","0.051757812","-10.5625","4.875","-2.34375"
"1573646340613","429","-0.005859375","-0.9707031","0.0029296875","-10.28125","-17.03125","-1.96875"
"1573646340806","430","0.00390625","-1.0087891","0.017578125","1.15625","-4.21875","-0.4375"
"1573646340807","431","-0.0068359375","-0.9902344","0.015625","10.53125","-5.5625","4.875"
"1573646340807","432","-0.04296875","-0.99316406","0.06640625","6.46875","8.21875","4.0625"
"1573646340808","433","-0.048828125","-1.0068359","0.099609375","5.21875","6.5625","-0.25"
"1573646340809","434","-0.048828125","-0.99316406","0.08105469","-6.4375","15.4375","-2.21875"
"1573646340809","435","-0.024414062","-1.0136719","0.0546875","-4.15625","7.4375","-0.9375"
"1573646340809","436","-0.04296875","-0.99121094","0.1328125","-19.78125","18.34375","-3.6875"
"1573646340809","437","-0.024414062","-1.0","0.0234375","-14.34375","-6.53125","-4.28125"
"1573646340810","438","-0.015625","-1.0517578","0.0546875","1.6875","-12.46875","-0.9375"
"1573646340810","439","-0.047851562","-0.98339844","0.045898438","4.0625","-6.90625","0.34375"
"1573646341009","440","-0.047851562","-0.9794922","0.07421875","-7.46875","0.34375","-1.59375"
"1573646341010","441","-0.036132812","-1.0185547","0.036132812","-12.03125","1.625","-5.03125"
"1573646341010","442","-0.056640625","-1.0009766","0.02734375","-16.5","9.09375","-5.375"
"1573646341010","443","-0.0126953125","-1.0253906","0.0625","-8.0625","12.1875","-3.0"
"1573646341010","444","-0.057617188","-0.9951172","0.046875","-16.0625","2.5","-4.15625"
"1573646341011","445","-0.0107421875","-1.0078125","0.00390625","-1.78125","1.28125","-1.3125"
"1573646341012","446","-0.015625","-0.96875","0.029296875","-13.125","-0.25","-2.9375"
"1573646341012","447","-0.0078125","-1.0039062","0.0107421875","-1.71875","-5.625","-1.84375"
"1573646341013","448","-0.018554688","-1.0126953","-0.0078125","5.28125","-7.8125","0.15625"
"1573646341013","449","-0.021484375","-0.99902344","0.015625","-5.375","-8.75","2.25"
"1573646341604","450","-0.013671875","-0.984375","0.0107421875","2.125","-11.84375","-0.6875"
"1573646341604","451","-0.016601562","-0.9970703","0.0","0.65625","-14.25","1.5"
"1573646341604","452","-0.0146484375","-0.9980469","0.041015625","8.96875","-5.21875","-1.40625"
"1573646341605","453","0.0146484375","-0.9980469","0.01953125","4.0625","-12.84375","0.40625"
"1573646341605","454","-0.0234375","-0.9980469","0.016601562","3.71875","-7.78125","2.375"
"1573646341605","455","-0.052734375","-0.97753906","0.028320312","3.84375","-5.15625","-2.15625"
"1573646341605","456","0.09863281","-1.0322266","-9.765625E-4","5.0","-7.53125","3.09375"
"1573646341607","457","-0.12109375","-0.9560547","0.05859375","6.46875","14.75","2.1875"
"1573646341607","458","-0.001953125","-1.03125","0.06933594","-16.96875","3.71875","-2.9375"
"1573646341607","459","-0.02734375","-0.9921875","-0.083984375","18.65625","-3.75","6.9375"
"1573646341804","460","-0.038085938","-0.97558594","0.15332031","-5.5625","23.53125","-3.5"
"1573646341804","461","0.0068359375","-1.0371094","0.0107421875","-0.1875","-21.0625","1.15625"
"1573646341805","462","-0.14550781","-0.90722656","0.034179688","9.5","27.375","2.96875"
"1573646341805","463","0.059570312","-1.078125","0.109375","-7.9375","2.4375","-11.78125"
"1573646341805","464","-0.047851562","-0.9892578","-0.013671875","4.125","-0.125","12.875"
"1573646341805","465","-0.009765625","-0.9472656","0.083984375","4.9375","28.65625","1.15625"
"1573646341806","466","-0.048828125","-1.0361328","0.047851562","14.15625","-0.75","13.59375"
"1573646341806","467","-0.0546875","-0.9394531","0.05859375","4.0625","14.8125","7.125"
"1573646341806","468","-0.0146484375","-1.0107422","0.080078125","18.78125","2.375","8.71875"
"1573646341807","469","-0.140625","-0.9550781","0.09863281","26.53125","9.6875","1.625"
"1573646342201","470","-0.034179688","-1.015625","0.16699219","15.65625","2.65625","3.71875"
"1573646342202","471","-0.13769531","-0.9667969","0.14355469","4.3125","-0.625","-0.875"
"1573646342202","472","-0.06542969","-1.0195312","0.048828125","29.90625","-11.90625","0.65625"
"1573646342202","473","0.018554688","-0.9277344","0.15429688","7.90625","7.5625","9.9375"
"1573646342202","474","-0.16015625","-1.0576172","0.20605469","11.15625","20.0","6.8125"
"1573646342202","475","-0.08984375","-0.97753906","0.1875","-10.15625","12.5625","-9.46875"
"1573646342203","476","-0.14160156","-1.015625","0.18359375","-6.90625","19.5625","-4.28125"
"1573646342203","477","-0.05859375","-1.0019531","0.18066406","0.65625","8.71875","-3.3125"
"1573646342203","478","-0.0078125","-0.88671875","0.12988281","-2.53125","0.84375","0.84375"
"1573646342203","479","-0.05859375","-0.9921875","0.12402344","-4.09375","3.9375","2.25"
"1573646342598","480","-0.047851562","-1.0410156","0.09277344","5.0","-2.8125","-3.96875"
"1573646342599","481","-0.09472656","-1.0009766","0.125","13.65625","-16.25","-3.8125"
"1573646342600","482","-0.025390625","-0.9453125","0.20117188","30.625","-0.9375","-4.65625"
"1573646342600","483","-0.10546875","-1.0253906","0.14355469","6.15625","7.375","3.03125"
"1573646342600","484","-0.0068359375","-0.9345703","0.16308594","10.96875","-5.375","4.25"
"1573646342601","485","-0.10839844","-0.9941406","0.24902344","19.28125","-15.875","20.0"
"1573646342601","486","-0.14257812","-0.9707031","0.27441406","34.09375","-16.0","5.53125"
"1573646342601","487","-0.059570312","-0.87402344","0.3203125","7.3125","-20.40625","2.25"
"1573646342601","488","-0.12597656","-0.9482422","0.29101562","2.25","-9.21875","4.125"
"1573646342602","489","-0.1328125","-0.9814453","0.24804688","-5.25","-6.5","0.65625"
"1573646342997","490","-0.1328125","-0.953125","0.26660156","-12.53125","13.90625","-4.34375"
"1573646342997","491","-0.09667969","-0.9716797","0.24121094","-14.0","23.1875","-8.25"
"1573646342997","492","-0.07519531","-0.99902344","0.24316406","-20.9375","29.34375","-7.09375"
"1573646342998","493","-0.12207031","-0.9638672","0.23144531","-20.09375","19.03125","-14.96875"
"1573646342999","494","-0.01953125","-0.94433594","0.15820312","12.75","0.71875","-9.34375"
"1573646342999","495","-0.037109375","-0.96777344","0.24511719","-9.65625","9.625","-3.8125"
"1573646342999","496","-0.005859375","-1.0146484","0.20996094","-27.96875","-1.0625","-6.375"
"1573646342999","497","-0.06640625","-1.0029297","0.15917969","-32.65625","-4.65625","-2.28125"
"1573646343000","498","-0.06347656","-0.9560547","0.11621094","-22.84375","-4.84375","-3.8125"
"1573646343000","499","-0.053710938","-0.98828125","0.109375","-11.625","-4.09375","-3.1875"
"1573646343394","500","-0.06738281","-0.9902344","0.091796875","-10.875","-5.625","-3.25"
"1573646343394","501","-0.03125","-0.96875","0.09082031","-3.8125","-1.65625","0.34375"
"1573646343395","502","-0.056640625","-1.0058594","0.10546875","0.96875","-1.125","2.375"
"1573646343395","503","-0.029296875","-0.9765625","0.12109375","2.4375","0.0","0.65625"
"1573646343395","504","-0.020507812","-1.0087891","0.17871094","-12.90625","6.21875","2.90625"
"1573646343395","505","-0.12207031","-0.9638672","0.14453125","-25.46875","10.96875","-2.6875"
"1573646343396","506","-0.107421875","-0.98339844","0.13183594","-13.5","3.28125","-6.71875"
"1573646343396","507","-0.036132812","-0.9902344","0.0703125","-19.4375","15.25","-11.25"
"1573646343397","508","-0.10058594","-1.0068359","0.12988281","-25.03125","14.9375","-8.0"
"1573646343397","509","-0.03515625","-1.0166016","0.060546875","-22.71875","5.59375","-10.625"
"1573646343791","510","-0.026367188","-0.9902344","0.044921875","-11.0625","1.28125","-5.9375"
"1573646343792","511","-0.037109375","-1.0039062","0.02734375","-15.03125","2.65625","-7.28125"
"1573646343792","512","-0.024414062","-1.0068359","0.045898438","-12.40625","5.71875","-4.65625"
"1573646343792","513","-0.059570312","-1.0029297","0.06738281","-14.96875","0.59375","-4.34375"
"1573646343792","514","-0.024414062","-1.0283203","0.016601562","-3.1875","5.71875","-6.3125"
"1573646343793","515","-0.017578125","-1.0039062","0.03515625","-3.5","-6.0625","-4.03125"
"1573646343793","516","-0.025390625","-0.9794922","0.016601562","-3.6875","-8.25","-2.59375"
"1573646343794","517","0.005859375","-1.0068359","0.0625","-1.1875","-6.375","-2.34375"
"1573646343794","518","-0.01171875","-0.9794922","0.037109375","-14.96875","-12.09375","0.78125"
"1573646343794","519","-0.047851562","-1.0039062","-0.028320312","-5.375","-19.53125","3.34375"
"1573646344189","520","-0.0087890625","-1.0","9.765625E-4","3.03125","-10.21875","6.8125"
"1573646344189","521","-0.061523438","-0.98046875","0.00390625","-13.75","-6.96875","3.71875"
"1573646344189","522","-0.0107421875","-0.9902344","-0.07714844","-1.0","-3.1875","4.3125"
"1573646344189","523","-0.041992188","-1.0009766","0.028320312","10.90625","20.0","0.0"
"1573646344190","524","-0.13085938","-0.9765625","0.10644531","-22.84375","2.90625","-8.6875"
"1573646344190","525","0.02734375","-0.9423828","-0.107421875","-5.6875","6.75","-11.84375"
"1573646344190","526","0.045898438","-1.1357422","-0.0068359375","6.21875","-6.3125","3.34375"
"1573646344190","527","-0.01953125","-0.91796875","0.021484375","10.84375","4.875","-0.125"
"1573646344191","528","-0.01171875","-1.0234375","-0.0126953125","1.5","-6.3125","5.78125"
"1573646344192","529","-0.037109375","-1.0126953","0.029296875","8.15625","13.03125","-0.25"
"1573646344586","530","-0.030273438","-0.9794922","0.024414062","4.5625","5.125","1.5625"
"1573646344587","531","-9.765625E-4","-1.0400391","0.045898438","3.71875","12.875","0.46875"
"1573646344587","532","0.03125","-0.9970703","-0.08886719","12.3125","-11.5","9.125"
"1573646344587","533","-0.016601562","-0.96191406","0.08300781","18.96875","5.78125","13.71875"
"1573646344588","534","-0.10546875","-1.0","0.080078125","9.4375","-8.4375","8.21875"
"1573646344588","535","-0.10449219","-1.0029297","0.064453125","5.0","6.6875","-4.96875"
"1573646344588","536","-0.068359375","-1.0898438","0.08886719","-5.75","3.9375","-0.4375"
"1573646344589","537","-0.040039062","-0.97753906","0.033203125","-4.84375","4.6875","-2.59375"
"1573646344589","538","-0.030273438","-1.0449219","0.036132812","2.0625","-8.9375","12.0625"
"1573646344589","539","-0.13671875","-0.9589844","0.09667969","5.59375","21.09375","5.125"
"1573646345180","540","-0.10058594","-1.0009766","0.049804688","1.03125","13.59375","-6.65625"
"1573646345182","541","0.026367188","-1.0214844","0.060546875","15.71875","9.6875","6.8125"
"1573646345182","542","-0.08691406","-0.9814453","0.15136719","8.84375","1.3125","7.375"
"1573646345182","543","-0.14941406","-1.0283203","0.08496094","21.21875","6.21875","0.53125"
"1573646345183","544","-0.03515625","-1.0","0.16308594","4.0","6.8125","-9.96875"
"1573646345183","545","-0.08203125","-0.96777344","0.078125","13.84375","10.59375","-1.65625"
"1573646345185","546","-0.0146484375","-1.0341797","0.13769531","-14.40625","14.21875","-1.3125"
"1573646345186","547","-0.05859375","-0.98828125","0.076171875","2.0625","0.34375","0.46875"
"1573646345186","548","-0.087890625","-0.953125","0.1953125","0.71875","24.28125","-2.6875"
"1573646345186","549","-0.07910156","-1.0253906","0.12695312","-8.9375","2.5","1.3125"
"1573646345382","550","0.021484375","-0.9873047","0.07421875","1.6875","-9.46875","2.71875"
"1573646345382","551","-0.1015625","-0.9121094","0.13671875","25.8125","-10.40625","9.125"
"1573646345383","552","-0.07421875","-1.0322266","0.0625","27.28125","-14.96875","0.15625"
"1573646345384","553","-0.07128906","-0.98535156","0.20605469","31.78125","-12.46875","3.59375"
"1573646345386","554","-0.033203125","-0.99121094","0.09765625","14.4375","-19.3125","2.65625"
"1573646345386","555","-0.13671875","-1.0253906","0.19335938","13.71875","2.96875","7.6875"
"1573646345386","556","-0.001953125","-0.9746094","0.07128906","-2.9375","-17.84375","9.03125"
"1573646345387","557","-0.13671875","-1.0839844","0.38671875","5.90625","12.375","7.5"
"1573646345387","558","-0.12890625","-0.9042969","0.35253906","-3.96875","0.59375","1.75"
"1573646345387","559","-0.09667969","-0.7792969","0.18457031","19.8125","4.0625","-4.71875"
"1573646345780","560","-0.14550781","-1.0449219","0.27246094","4.5625","15.1875","-6.84375"
"1573646345780","561","-0.05078125","-0.99902344","0.20996094","-3.75","-0.75","-4.21875"
"1573646345780","562","-0.109375","-0.94921875","0.27441406","0.59375","-1.46875","2.96875"
"1573646345781","563","-0.13085938","-0.9277344","0.31640625","1.75","2.0625","-1.59375"
"1573646345781","564","-0.07714844","-0.9404297","0.30078125","-8.6875","10.0","-16.9375"
"1573646345782","565","-0.091796875","-1.0439453","0.234375","-32.59375","10.125","-12.03125"
"1573646345782","566","0.056640625","-1.0664062","0.06640625","-33.28125","-14.71875","-0.125"
"1573646345782","567","-0.08300781","-0.9316406","0.21289062","4.5","-5.5625","8.71875"
"1573646345783","568","-0.0859375","-0.9121094","0.14746094","3.15625","-7.9375","-6.65625"
"1573646345783","569","-0.017578125","-1.0097656","0.21777344","-16.6875","1.6875","-11.4375"
"1573646346175","570","-0.078125","-1.0576172","0.13574219","-44.09375","5.1875","-11.5"
"1573646346176","571","-0.0625","-0.9560547","0.14550781","-29.6875","11.21875","-13.03125"
"1573646346176","572","-0.005859375","-0.96484375","0.032226562","-23.8125","-7.28125","-2.6875"
"1573646346176","573","-0.015625","-1.0048828","0.043945312","-7.8125","1.09375","-1.125"
"1573646346177","574","-0.040039062","-0.9873047","0.08886719","-29.6875","0.65625","-3.8125"
"1573646346177","575","-0.029296875","-0.95410156","0.044921875","-10.8125","-9.125","-0.25"
"1573646346177","576","-0.028320312","-1.0175781","0.09863281","-1.0625","-3.3125","2.5"
"1573646346177","577","-0.09277344","-1.0654297","0.140625","-51.96875","-1.34375","-6.71875"
"1573646346178","578","0.00390625","-0.92871094","0.00390625","11.8125","10.84375","-4.71875"
"1573646346178","579","-0.06347656","-0.97558594","0.16015625","-21.6875","22.6875","-4.28125"
"1573646346574","580","-0.0068359375","-1.0742188","0.05078125","-19.5","4.875","-11.4375"
"1573646346574","581","-0.047851562","-1.0029297","0.022460938","-19.3125","-3.1875","-7.65625"
"1573646346574","582","0.030273438","-1.0244141","0.0029296875","-4.34375","-11.375","-2.625"
"1573646346575","583","-0.021484375","-0.9892578","0.01953125","1.6875","-7.34375","0.15625"
"1573646346575","584","-0.016601562","-1.0205078","0.048828125","1.28125","-10.09375","1.875"
"1573646346575","585","-0.06738281","-1.0205078","0.028320312","3.28125","-11.625","2.25"
"1573646346575","586","-0.044921875","-0.9707031","0.020507812","-17.71875","-10.75","-5.5625"
"1573646346575","587","-0.01953125","-1.0273438","0.055664062","-10.34375","-0.5625","-0.375"
"1573646346576","588","-0.03125","-0.97265625","0.0","-7.40625","-4.03125","-1.78125"
"1573646346576","589","-0.021484375","-1.0390625","0.021484375","7.5","4.6875","2.96875"
"1573646346971","590","-0.001953125","-0.9863281","0.0029296875","-3.3125","-0.5625","1.625"
"1573646346972","591","0.016601562","-0.9941406","9.765625E-4","16.34375","3.21875","7.375"
"1573646346972","592","-0.038085938","-1.0009766","0.04296875","15.3125","1.75","7.125"
"1573646346972","593","-0.029296875","-0.9970703","0.06542969","-4.53125","-2.53125","4.0"
"1573646346973","594","-0.053710938","-1.0117188","0.048828125","0.34375","2.5625","2.65625"
"1573646346973","595","0.0068359375","-0.9970703","0.021484375","4.75","-0.9375","2.5"
"1573646346973","596","-0.032226562","-0.99316406","0.053710938","9.6875","0.34375","4.25"
"1573646346974","597","-0.07519531","-0.953125","0.01171875","0.09375","4.25","-4.84375"
"1573646346974","598","0.08691406","-1.0673828","0.0703125","0.84375","1.4375","-3.625"
"1573646346974","599","-0.053710938","-0.984375","0.044921875","5.28125","-7.59375","2.65625"
"1573646347370","600","-0.059570312","-0.9824219","0.064453125","7.25","8.03125","-1.96875"
"1573646347371","601","0.0107421875","-1.0214844","0.08984375","-4.84375","-3.0","0.53125"
"1573646347372","602","-0.06347656","-0.9941406","0.02734375","-1.125","-2.6875","0.15625"
"1573646347372","603","-0.043945312","-0.984375","0.09863281","0.65625","6.15625","-1.65625"
"1573646347372","604","-0.0234375","-0.9902344","0.0390625","-11.125","-3.375","-2.28125"
"1573646347373","605","-0.036132812","-1.0117188","0.08496094","-11.78125","2.84375","-1.53125"
"1573646347373","606","-0.06738281","-0.9785156","0.032226562","-8.5625","3.15625","0.71875"
"1573646347373","607","-0.024414062","-1.0244141","0.046875","-13.3125","18.90625","-3.6875"
"1573646347373","608","-0.049804688","-0.9794922","-0.0546875","3.28125","-3.96875","6.03125"
"1573646347374","609","0.038085938","-1.0","0.0126953125","21.90625","14.625","9.125"
"1573646347766","610","-0.07519531","-0.9980469","0.109375","7.8125","9.9375","7.5"
"1573646347766","611","-0.08496094","-0.9902344","0.0859375","28.71875","-8.5","3.78125"
"1573646347767","612","-0.029296875","-1.0283203","0.103515625","1.03125","2.0","2.0"
"1573646347768","613","-0.080078125","-0.9863281","0.12695312","-6.125","20.625","0.09375"
"1573646347768","614","-0.119140625","-0.97558594","0.08886719","-6.4375","10.65625","-4.71875"
"1573646347768","615","-0.15429688","-1.0498047","0.10449219","-4.59375","-4.40625","-4.65625"
"1573646347769","616","-0.037109375","-0.94140625","0.095703125","1.9375","-4.28125","-5.75"
"1573646347769","617","-0.013671875","-1.0341797","0.15820312","4.5625","7.6875","7.25"
"1573646347769","618","-0.03515625","-0.9814453","-0.03515625","4.75","10.1875","-4.40625"
"1573646347770","619","-0.032226562","-1.0292969","0.125","3.40625","16.40625","10.375"
"1573646348163","620","-0.07519531","-1.0058594","0.17285156","-5.9375","15.5","5.90625"
"1573646348164","621","-0.01953125","-0.9267578","0.08105469","0.40625","2.5","6.21875"
"1573646348164","622","-0.078125","-0.9980469","0.053710938","1.5625","4.5625","11.03125"
"1573646348164","623","-0.13085938","-0.9902344","-0.0068359375","15.1875","1.625","0.0"
"1573646348165","624","-0.009765625","-1.0195312","0.041992188","22.625","-6.5","-5.25"
"1573646348166","625","-0.12402344","-1.0107422","0.12988281","21.53125","5.65625","-3.125"
"1573646348166","626","-0.1171875","-0.9951172","0.16113281","20.25","15.0625","-4.09375"
"1573646348166","627","-0.13574219","-0.9638672","0.16992188","9.25","17.5","-3.5625"
"1573646348167","628","-0.05859375","-1.0205078","0.22460938","5.90625","18.125","-5.03125"
"1573646348167","629","0.0146484375","-0.9628906","0.19824219","2.65625","6.46875","3.78125"
"1573646348564","630","-0.125","-0.9453125","0.18847656","7.4375","-6.5","8.59375"
"1573646348565","631","-0.13671875","-1.0253906","0.18847656","2.90625","7.375","-2.75"
"1573646348565","632","-0.119140625","-0.99609375","0.20898438","3.15625","-1.0625","-9.34375"
"1573646348565","633","-0.11328125","-0.9560547","0.1875","-1.96875","-8.5","-9.125"
"1573646348566","634","-0.1484375","-0.96191406","0.16503906","-9.0","3.15625","-9.28125"
"1573646348566","635","-0.048828125","-1.0185547","0.17089844","-8.5625","12.3125","-9.0"
"1573646348566","636","-0.07519531","-0.9814453","0.19433594","-28.53125","16.9375","-5.03125"
"1573646348567","637","-0.04296875","-1.0136719","0.12890625","-28.09375","1.625","-3.625"
"1573646348568","638","-0.0087890625","-0.95410156","0.1171875","-25.15625","1.09375","-4.78125"
"1573646348568","639","-0.059570312","-1.0175781","0.099609375","-34.375","0.84375","-7.09375"
"1573646348958","640","-0.00390625","-0.9980469","0.046875","-26.0625","-7.71875","-12.09375"
"1573646348959","641","0.060546875","-1.0019531","0.034179688","-20.875","-15.34375","-3.375"
"1573646348959","642","-0.01953125","-0.9892578","0.03515625","-17.59375","-16.4375","-0.9375"
"1573646348959","643","-0.07128906","-0.98046875","-0.0029296875","-8.3125","-17.09375","-3.8125"
"1573646348959","644","0.001953125","-0.9785156","-0.024414062","-9.59375","-11.71875","-6.59375"
"1573646348959","645","-0.033203125","-1.0244141","-0.01171875","-9.96875","-10.75","-1.3125"
"1573646348960","646","-0.045898438","-1.0068359","0.0107421875","0.90625","-10.8125","0.09375"
"1573646348960","647","-0.044921875","-0.98339844","0.022460938","1.15625","0.90625","-1.59375"
"1573646348960","648","-0.08300781","-1.0029297","0.06347656","-3.375","6.40625","-5.25"
"1573646348961","649","-0.005859375","-0.9980469","0.015625","-1.71875","2.0625","-5.9375"
"1573646349356","650","-0.01953125","-1.0078125","0.068359375","2.90625","8.71875","-3.5625"
"1573646349356","651","-0.0146484375","-0.98339844","0.06347656","-15.40625","3.28125","-4.03125"
"1573646349356","652","-0.02734375","-1.0253906","0.005859375","5.53125","-0.8125","0.03125"
"1573646349356","653","0.018554688","-1.0117188","0.009765625","-12.28125","-1.90625","-7.21875"
"1573646349357","654","0.037109375","-0.9980469","0.038085938","1.5","1.625","9.375"
"1573646349357","655","-0.017578125","-0.9794922","0.053710938","-21.125","5.53125","-6.65625"
"1573646349357","656","-0.07910156","-1.0400391","0.001953125","0.09375","-8.25","-0.25"
"1573646349358","657","-0.049804688","-0.9873047","0.009765625","-8.5","-2.28125","-12.40625"
"1573646349358","658","-0.020507812","-1.0097656","-0.0126953125","1.6875","-9.71875","-5.8125"
"1573646349358","659","0.046875","-1.0166016","0.036132812","9.75","-6.96875","-3.25"
"1573646349950","660","-0.022460938","-0.9785156","0.01171875","-1.78125","-5.03125","2.25"
"1573646349951","661","-0.005859375","-1.0214844","0.028320312","-0.4375","1.3125","0.65625"
"1573646349952","662","0.001953125","-0.9794922","-0.0087890625","-8.9375","-0.6875","-1.46875"
"1573646349952","663","-0.0107421875","-1.0205078","0.00390625","0.21875","-5.5","3.34375"
"1573646349952","664","0.05859375","-0.9785156","-0.001953125","-6.96875","-9.71875","-1.84375"
"1573646349953","665","-0.0546875","-1.0166016","-0.041015625","10.78125","-23.03125","2.96875"
"1573646349953","666","0.0","-1.0214844","0.06542969","-6.0","-5.9375","-1.46875"
"1573646349953","667","-0.029296875","-0.96972656","0.0087890625","1.09375","-11.375","2.125"
"1573646349953","668","-0.036132812","-0.97558594","0.0703125","-16.9375","3.28125","-3.75"
"1573646349954","669","-0.00390625","-0.98046875","-0.03515625","-1.3125","-0.3125","-1.78125"
"1573646350151","670","-0.013671875","-1.0009766","0.02734375","-4.46875","6.40625","-4.46875"
"1573646350151","671","0.061523438","-1.0117188","-0.0625","-0.75","2.59375","-1.59375"
"1573646350151","672","0.0","-0.9941406","-0.01953125","-4.21875","-11.3125","5.65625"
"1573646350152","673","-0.057617188","-0.9736328","-0.021484375","13.0","13.03125","1.75"
"1573646350153","674","0.020507812","-1.0146484","0.0048828125","3.21875","5.34375","2.125"
"1573646350153","675","-0.001953125","-1.0136719","0.013671875","12.25","4.8125","8.34375"
"1573646350153","676","-0.041992188","-0.98339844","0.055664062","-9.125","20.3125","-2.34375"
"1573646350153","677","-0.026367188","-1.0292969","0.0390625","-1.40625","-3.5625","-1.65625"
"1573646350154","678","-0.06640625","-0.93847656","-0.0048828125","-7.53125","13.65625","-9.0"
"1573646350154","679","0.061523438","-1.0283203","0.0029296875","-4.65625","-3.0","-4.78125"
"1573646350548","680","-0.02734375","-0.9667969","0.034179688","9.5","20.6875","6.46875"
"1573646350549","681","-0.026367188","-1.0146484","0.0126953125","8.46875","11.8125","2.5625"
"1573646350549","682","-0.0068359375","-0.9980469","0.06542969","4.5625","22.6875","6.6875"
"1573646350549","683","-0.0126953125","-1.0126953","0.01953125","7.375","6.8125","5.125"
"1573646350549","684","-0.037109375","-1.0175781","0.083984375","1.3125","9.125","6.09375"
"1573646350550","685","0.029296875","-0.99609375","0.12597656","-4.28125","-8.4375","2.1875"
"1573646350551","686","-0.10058594","-1.0058594","0.018554688","20.5625","-10.9375","11.59375"
"1573646350551","687","-0.033203125","-1.0136719","0.13867188","4.75","9.03125","0.90625"
"1573646350551","688","-0.08105469","-0.9814453","0.06542969","5.40625","-2.9375","-0.1875"
"1573646350552","689","-0.026367188","-1.0410156","0.064453125","13.0","-0.8125","0.0"
"1573646350947","690","-0.115234375","-0.9560547","0.13085938","-1.1875","6.75","9.25"
"1573646350947","691","-0.13964844","-0.9951172","0.0390625","-18.3125","-3.90625","3.59375"
"1573646350948","692","-0.001953125","-1.0029297","0.08105469","-1.53125","16.59375","-3.5"
"1573646350948","693","-0.061523438","-1.0439453","0.1171875","-2.03125","16.9375","6.28125"
"1573646350948","694","-0.024414062","-0.9394531","0.10058594","8.21875","9.9375","0.34375"
"1573646350949","695","0.030273438","-0.96191406","0.021484375","5.46875","6.21875","3.03125"
"1573646350949","696","-0.08984375","-1.0361328","0.04296875","11.28125","6.03125","4.0"
"1573646350950","697","-0.12792969","-1.0449219","0.07519531","33.6875","5.125","-6.375"
"1573646350950","698","-0.07910156","-0.9550781","0.08105469","21.59375","11.40625","-8.5"
"1573646350951","699","-0.064453125","-1.0039062","0.1640625","5.65625","11.28125","1.4375"
"1573646351344","700","-0.08300781","-0.9814453","0.12207031","6.6875","17.75","-4.34375"
"1573646351344","701","-0.0234375","-0.9824219","0.17285156","-7.53125","24.40625","1.5"
"1573646351344","702","-0.057617188","-0.9970703","0.16894531","-1.59375","-1.1875","5.65625"
"1573646351345","703","-0.061523438","-1.0078125","0.16992188","-2.59375","-2.09375","2.78125"
"1573646351345","704","-0.09472656","-0.9628906","0.16992188","-6.78125","-1.96875","-0.375"
"1573646351345","705","-0.078125","-0.9824219","0.15332031","-6.59375","-7.875","-0.3125"
"1573646351345","706","-0.11328125","-0.9941406","0.19238281","-12.71875","-0.875","-4.59375"
"1573646351346","707","-0.10449219","-0.9951172","0.15722656","-17.84375","0.09375","-8.0625"
"1573646351346","708","-0.08203125","-1.0244141","0.15234375","-17.28125","4.125","-10.03125"
"1573646351347","709","-0.06640625","-0.9951172","0.059570312","-21.75","9.1875","-13.3125"
"1573646351937","710","-0.0546875","-0.96777344","0.052734375","-28.28125","14.75","-8.25"
"1573646351937","711","-0.038085938","-1.0292969","0.049804688","-17.84375","15.0","-11.0"
"1573646351937","712","-0.021484375","-1.0185547","0.041015625","-20.21875","9.75","-11.125"
"1573646351938","713","-0.013671875","-0.99121094","-0.009765625","-24.3125","-0.75","-9.65625"
"1573646351938","714","0.009765625","-1.0","-0.03125","-28.46875","-6.71875","-7.59375"
"1573646351939","715","0.0078125","-0.9892578","-0.05859375","-13.0625","-10.28125","-4.65625"
"1573646351939","716","-0.0126953125","-1.0009766","-0.02734375","-4.90625","-6.96875","-0.25"
"1573646351939","717","-0.001953125","-1.0078125","-0.0234375","-5.625","-7.9375","-1.96875"
"1573646351939","718","-0.072265625","-0.99609375","0.030273438","1.3125","-8.875","3.46875"
"1573646351940","719","-0.001953125","-0.99609375","-0.0107421875","14.09375","-22.90625","7.25"
"1573646352139","720","-0.044921875","-1.0390625","-0.0087890625","-18.9375","14.21875","0.53125"
"1573646352140","721","0.0234375","-0.9716797","-0.02734375","8.84375","3.65625","4.5625"
"1573646352140","722","-0.013671875","-1.0097656","0.0126953125","-12.90625","11.875","6.28125"
"1573646352141","723","-0.01953125","-1.0009766","-0.0048828125","-0.4375","10.125","2.65625"
"1573646352141","724","-0.03125","-1.0273438","-0.025390625","0.65625","2.25","-2.03125"
"1573646352141","725","-0.015625","-0.9873047","0.0068359375","1.6875","1.5","2.1875"
"1573646352141","726","-0.06738281","-1.0195312","0.028320312","-2.46875","2.4375","-3.3125"
"1573646352142","727","-0.09765625","-1.0292969","-0.0029296875","-0.125","0.03125","-7.34375"
"1573646352142","728","0.00390625","-0.99609375","-0.02734375","1.5625","-2.8125","-7.875"
"1573646352142","729","-0.05859375","-1.0058594","0.0068359375","3.65625","-0.4375","-1.78125"
"1573646352537","730","-0.022460938","-1.0214844","0.045898438","2.96875","-3.6875","-5.03125"
"1573646352538","731","-0.03515625","-1.0087891","0.009765625","-1.90625","-2.28125","-2.9375"
"1573646352538","732","-0.02734375","-1.0","-0.0107421875","2.65625","-7.65625","-5.3125"
"1573646352539","733","-9.765625E-4","-0.9941406","-0.020507812","3.46875","-6.90625","-4.09375"
"1573646352539","734","-0.009765625","-1.0097656","-0.0107421875","0.65625","-13.5","-1.59375"
"1573646352540","735","0.0","-1.0195312","0.0546875","2.59375","-3.6875","1.3125"
"1573646352540","736","-0.047851562","-0.9921875","9.765625E-4","-3.375","-11.3125","-1.40625"
"1573646352540","737","-0.028320312","-1.0019531","0.033203125","6.46875","1.3125","-0.875"
"1573646352540","738","-0.015625","-0.9921875","0.020507812","-2.8125","-13.875","-2.75"
"1573646352541","739","0.0","-1.0039062","0.0029296875","10.3125","-11.1875","3.03125"
"1573646352934","740","-0.001953125","-0.9970703","-0.013671875","19.875","-18.09375","4.5625"
"1573646352934","741","-0.016601562","-1.0039062","0.026367188","18.84375","-18.8125","11.15625"
"1573646352935","742","0.024414062","-0.9707031","0.07714844","11.34375","-10.09375","5.59375"
"1573646352935","743","-0.0546875","-1.0195312","0.06347656","9.1875","-19.125","4.125"
"1573646352935","744","-0.040039062","-0.9345703","0.07421875","-0.5625","2.96875","-6.53125"
"1573646352936","745","-0.030273438","-1.0332031","0.03125","-4.53125","-4.53125","-3.75"
"1573646352937","746","0.041015625","-1.0185547","0.078125","0.40625","-6.0","-1.84375"
"1573646352937","747","-0.026367188","-0.96777344","0.052734375","-0.9375","6.75","0.09375"
"1573646352937","748","-0.034179688","-0.9873047","0.005859375","-4.21875","6.75","1.5"
"1573646352938","749","0.020507812","-1.0478516","0.07324219","-7.21875","16.78125","-0.9375"
"1573646353331","750","-0.036132812","-0.9736328","0.03515625","-5.5","7.0625","-1.46875"
"1573646353331","751","-0.051757812","-0.9824219","0.12207031","-15.09375","16.03125","-1.84375"
"1573646353332","752","-0.033203125","-0.98828125","-0.0087890625","-2.625","0.84375","-5.8125"
"1573646353332","753","-0.033203125","-1.0507812","0.12792969","-2.875","6.40625","-2.53125"
"1573646353332","754","-0.02734375","-0.9453125","0.0","-13.8125","-10.21875","0.90625"
"1573646353332","755","-0.016601562","-1.03125","-0.024414062","24.15625","2.84375","4.9375"
"1573646353333","756","-0.060546875","-0.99609375","0.107421875","-4.59375","8.53125","3.03125"
"1573646353334","757","-0.05078125","-0.9873047","0.06347656","13.96875","5.90625","0.15625"
"1573646353334","758","0.0048828125","-0.96875","0.02734375","7.25","6.8125","3.09375"
"1573646353334","759","-0.021484375","-1.0205078","0.09277344","7.8125","17.1875","5.78125"
"1573646353728","760","-0.04296875","-0.9345703","0.048828125","9.09375","-2.15625","4.25"
"1573646353729","761","-0.020507812","-1.0302734","0.095703125","11.53125","14.5","4.875"
"1573646353729","762","-0.15039062","-1.0556641","0.13867188","-10.34375","0.40625","1.21875"
"1573646353729","763","-0.029296875","-1.0087891","0.053710938","11.8125","3.21875","0.03125"
"1573646353729","764","0.061523438","-0.87597656","0.05078125","7.96875","-4.78125","3.34375"
"1573646353730","765","-0.14746094","-1.0429688","0.109375","9.375","4.3125","6.15625"
"1573646353730","766","-0.049804688","-1.0126953","0.09765625","24.9375","8.03125","-1.78125"
"1573646353730","767","-0.068359375","-1.0068359","0.18554688","1.03125","16.53125","-1.84375"
"1573646353730","768","-0.033203125","-0.98535156","0.13964844","5.46875","-1.0625","-0.75"
"1573646353731","769","-0.0546875","-0.9824219","0.16308594","12.6875","-0.4375","7.90625"
"1573646354126","770","-0.072265625","-0.96777344","0.19335938","4.375","-1.34375","4.25"
"1573646354126","771","-0.09667969","-0.9765625","0.20214844","3.09375","3.71875","0.0"
"1573646354126","772","-0.09277344","-0.9824219","0.19335938","6.875","-5.09375","0.46875"
"1573646354127","773","-0.08203125","-0.97753906","0.20800781","7.96875","-9.0625","0.84375"
"1573646354127","774","-0.06738281","-0.98828125","0.20410156","1.8125","-14.53125","-0.3125"
"1573646354127","775","-0.091796875","-0.98535156","0.20703125","-2.53125","-13.1875","0.0"
"1573646354127","776","-0.06933594","-0.9980469","0.16992188","-11.0","-11.3125","-4.21875"
"1573646354128","777","-0.061523438","-1.0029297","0.15820312","-15.46875","-16.375","-5.3125"
"1573646354128","778","-0.060546875","-0.9863281","0.11035156","-10.28125","-12.53125","-4.15625"
"1573646354128","779","-0.02734375","-0.9765625","0.1328125","-13.6875","-9.78125","-5.09375"
