"# PR data"
"# Start time: 20191113T120001"
"# Subject: nikita"
"# Activity type: Wall push offs"
"# Correctness: Correct"
"# Notes: "
""
"timestamp","seq","accel_x","accel_y","accel_z","gyro_x","gyro_y","gyro_z"
"1573646401426","0","0.09277344","-0.9746094","0.3173828","-12.59375","39.53125","-3.625"
"1573646401427","1","-0.14160156","-0.87109375","0.28808594","-12.46875","45.625","8.59375"
"1573646401427","2","-0.20410156","-0.99316406","0.3154297","-6.71875","50.875","-12.40625"
"1573646401427","3","9.765625E-4","-0.95996094","0.3720703","-11.4375","60.84375","-24.84375"
"1573646401428","4","-0.068359375","-0.9638672","0.27929688","-4.28125","45.21875","-22.28125"
"1573646401428","5","-0.046875","-0.93359375","0.23046875","-6.0","62.59375","-27.0"
"1573646401428","6","0.020507812","-0.95410156","0.29492188","-11.4375","64.3125","-19.3125"
"1573646401429","7","-0.0068359375","-0.9589844","0.21777344","-14.78125","51.0625","-17.09375"
"1573646401429","8","-0.05859375","-0.9638672","0.25097656","-7.21875","61.09375","-11.0625"
"1573646401429","9","-0.064453125","-0.94628906","0.23046875","-10.4375","60.34375","-14.65625"
"1573646401628","10","-0.0126953125","-0.9667969","0.21972656","-10.28125","49.0625","-11.6875"
"1573646401629","11","0.03515625","-0.9580078","0.19726562","0.53125","54.5625","-5.6875"
"1573646401629","12","-0.064453125","-0.9589844","0.22753906","-1.1875","45.625","-3.4375"
"1573646401630","13","-0.047851562","-0.9609375","0.16308594","0.15625","46.0625","-6.1875"
"1573646401630","14","-0.047851562","-0.97753906","0.2626953","2.3125","53.15625","-3.125"
"1573646401630","15","-0.015625","-0.93847656","0.21582031","1.21875","42.40625","-2.9375"
"1573646401631","16","-0.037109375","-0.94628906","0.17675781","3.78125","28.78125","2.90625"
"1573646401631","17","-0.013671875","-0.94140625","0.18261719","13.84375","17.0","2.4375"
"1573646401631","18","-0.0078125","-0.95410156","0.1875","15.96875","14.5","8.21875"
"1573646401631","19","-0.038085938","-0.92578125","0.18359375","13.03125","8.34375","10.84375"
"1573646402224","20","-0.0126953125","-0.93652344","0.21972656","16.65625","5.90625","15.5"
"1573646402224","21","-0.10253906","-0.9501953","0.24316406","23.25","5.40625","18.0"
"1573646402224","22","-0.08886719","-0.921875","0.23339844","21.71875","-5.03125","15.3125"
"1573646402225","23","-0.091796875","-0.8730469","0.2939453","20.5","-12.46875","21.84375"
"1573646402225","24","-0.22949219","-0.96972656","0.3623047","30.3125","-2.46875","15.1875"
"1573646402226","25","-0.22070312","-0.85546875","0.33691406","25.75","-0.5625","5.46875"
"1573646402227","26","-0.11621094","-0.8203125","0.375","25.5625","-4.28125","12.1875"
"1573646402227","27","-0.111328125","-0.91015625","0.4638672","28.375","-6.71875","22.5625"
"1573646402227","28","-0.34960938","-0.8261719","0.42285156","11.15625","7.125","11.59375"
"1573646402228","29","-0.16308594","-0.8564453","0.4609375","22.8125","-12.84375","17.0"
"1573646402423","30","-0.38183594","-0.8515625","0.4296875","43.75","-37.90625","29.28125"
"1573646402424","31","-0.45117188","-0.71972656","0.79785156","52.78125","12.25","11.40625"
"1573646402424","32","-0.31933594","-0.8515625","0.7451172","10.59375","15.0","2.0"
"1573646402424","33","-0.38964844","-0.7363281","0.77246094","-16.4375","37.59375","-12.21875"
"1573646402424","34","-0.40527344","-0.7216797","0.6738281","-35.71875","16.09375","-11.4375"
"1573646402425","35","-0.4345703","-0.74316406","0.7314453","-22.125","31.65625","-20.28125"
"1573646402425","36","-0.33789062","-0.77246094","0.7890625","-22.28125","20.125","-11.4375"
"1573646402426","37","-0.42089844","-0.80371094","0.66796875","-27.59375","10.53125","-17.90625"
"1573646402426","38","-0.4375","-0.7871094","0.6347656","-22.125","10.53125","-19.71875"
"1573646402427","39","-0.34375","-0.85253906","0.6191406","-9.53125","16.15625","-19.71875"
"1573646402820","40","-0.32226562","-0.8330078","0.55078125","-16.0","7.1875","-20.34375"
"1573646402820","41","-0.18457031","-0.82714844","0.44433594","-14.1875","5.96875","-22.21875"
"1573646402820","42","-0.103515625","-0.8769531","0.37890625","-26.125","-14.65625","-18.25"
"1573646402821","43","-0.13769531","-0.81152344","0.3203125","-34.3125","-20.34375","-19.25"
"1573646402821","44","-0.08203125","-0.8925781","0.23730469","-35.90625","-17.15625","-19.3125"
"1573646402821","45","-0.083984375","-0.97558594","0.18164062","-30.71875","-13.6875","-14.65625"
"1573646402821","46","-0.024414062","-0.89941406","0.1640625","-25.96875","-11.78125","-8.0"
"1573646402822","47","-0.038085938","-0.90722656","0.15820312","-18.8125","-3.6875","-4.59375"
"1573646402822","48","-0.060546875","-0.9482422","0.15234375","-16.8125","4.0625","-3.6875"
"1573646402822","49","-0.034179688","-0.96191406","0.18457031","-16.3125","9.09375","-5.375"
"1573646403218","50","-0.052734375","-0.9472656","0.16210938","-13.75","0.65625","-4.40625"
"1573646403219","51","-0.024414062","-0.98828125","0.19726562","-9.84375","3.84375","-1.96875"
"1573646403219","52","-0.09765625","-0.96484375","0.1953125","-18.21875","13.90625","-7.53125"
"1573646403219","53","-0.055664062","-0.9765625","0.16601562","-15.03125","-5.09375","-11.375"
"1573646403220","54","-0.038085938","-0.94140625","0.15039062","-3.375","4.75","-5.15625"
"1573646403220","55","-0.076171875","-0.96875","0.18457031","-15.53125","5.71875","-4.96875"
"1573646403220","56","-0.064453125","-0.95996094","0.16210938","-3.875","-1.84375","-0.8125"
"1573646403220","57","-0.099609375","-0.9589844","0.19238281","-5.25","5.59375","-1.71875"
"1573646403221","58","-0.06738281","-0.9785156","0.16796875","-5.875","0.21875","-2.75"
"1573646403221","59","-0.09375","-0.9589844","0.14355469","-10.03125","0.46875","1.21875"
"1573646403616","60","-0.0859375","-0.984375","0.13964844","-2.9375","9.4375","-0.3125"
"1573646403617","61","-0.05859375","-0.96972656","0.15820312","-7.09375","9.875","-1.90625"
"1573646403618","62","-0.072265625","-0.9824219","0.17285156","-3.125","8.65625","0.0"
"1573646403618","63","-0.087890625","-0.9746094","0.14453125","-4.03125","1.03125","0.15625"
"1573646403619","64","-0.07421875","-0.9736328","0.15429688","-2.53125","0.34375","-0.6875"
"1573646403619","65","-0.09472656","-0.98339844","0.14746094","-0.5625","1.5","-0.9375"
"1573646403619","66","-0.07421875","-0.984375","0.16113281","0.96875","1.21875","-0.5"
"1573646403619","67","-0.080078125","-0.984375","0.18359375","2.0625","2.375","2.0"
"1573646403620","68","-0.1015625","-0.9892578","0.16015625","1.875","1.875","1.5"
"1573646403620","69","-0.07421875","-0.96777344","0.17675781","1.6875","1.09375","1.03125"
"1573646404209","70","-0.11230469","-0.9609375","0.15820312","0.0","0.46875","1.375"
"1573646404210","71","-0.08691406","-0.9902344","0.16699219","6.21875","3.03125","1.75"
"1573646404210","72","-0.068359375","-0.95214844","0.16992188","6.03125","-2.6875","1.3125"
"1573646404211","73","-0.099609375","-0.9863281","0.20410156","3.34375","0.65625","4.0"
"1573646404212","74","-0.09863281","-0.96191406","0.18652344","12.375","4.0","2.25"
"1573646404212","75","-0.083984375","-0.9453125","0.20410156","2.0","3.46875","0.46875"
"1573646404212","76","-0.07519531","-0.984375","0.20410156","8.15625","1.03125","2.78125"
"1573646404212","77","-0.10253906","-0.9511719","0.21289062","8.09375","-2.34375","1.5"
"1573646404213","78","-0.08691406","-0.9404297","0.22753906","3.34375","2.4375","1.4375"
"1573646404213","79","-0.08300781","-0.9658203","0.20800781","3.78125","4.375","1.375"
"1573646404410","80","-0.076171875","-0.9394531","0.20410156","4.1875","1.21875","2.65625"
"1573646404411","81","-0.07128906","-0.9199219","0.19628906","8.21875","1.5","8.03125"
"1573646404411","82","-0.09765625","-0.95214844","0.21582031","8.46875","7.90625","8.71875"
"1573646404411","83","-0.09277344","-0.94628906","0.19726562","6.9375","5.34375","5.34375"
"1573646404412","84","-0.0859375","-0.89941406","0.24804688","8.90625","2.65625","7.8125"
"1573646404413","85","-0.13183594","-0.93359375","0.27148438","4.75","-0.6875","9.5"
"1573646404414","86","-0.18457031","-0.9326172","0.27246094","3.21875","0.03125","4.125"
"1573646404414","87","-0.12207031","-0.89453125","0.28710938","16.59375","-9.34375","7.625"
"1573646404415","88","-0.14355469","-0.8876953","0.31933594","19.15625","-2.875","15.84375"
"1573646404415","89","-0.19628906","-0.93359375","0.390625","22.625","-3.1875","17.1875"
"1573646405006","90","-0.2578125","-0.91503906","0.43359375","14.5625","-14.0625","7.5"
"1573646405006","91","-0.28027344","-0.83984375","0.421875","21.34375","1.09375","16.40625"
"1573646405006","92","-0.38867188","-0.9033203","0.62109375","0.53125","18.40625","-2.53125"
"1573646405007","93","-0.2421875","-0.85058594","0.45996094","9.25","3.03125","4.5625"
"1573646405007","94","-0.3515625","-0.84375","0.6279297","-2.46875","27.15625","-0.625"
"1573646405007","95","-0.31445312","-0.9199219","0.6826172","-12.15625","7.0625","-2.21875"
"1573646405008","96","-0.39941406","-0.84472656","0.6123047","-13.375","-3.96875","-14.34375"
"1573646405008","97","-0.30273438","-0.8828125","0.5253906","-15.53125","0.59375","-9.125"
"1573646405008","98","-0.3095703","-0.86621094","0.6015625","-22.15625","-4.28125","-10.8125"
"1573646405009","99","-0.32128906","-0.8857422","0.5214844","-12.90625","-3.8125","-7.09375"
"1573646405206","100","-0.3076172","-0.88964844","0.5410156","-18.5","-5.15625","-10.8125"
"1573646405207","101","-0.2421875","-0.90527344","0.45507812","-15.15625","-6.375","-13.4375"
"1573646405207","102","-0.20117188","-0.9423828","0.36328125","-19.59375","-8.875","-13.5"
"1573646405208","103","-0.171875","-0.8847656","0.29296875","-19.78125","-14.0","-14.40625"
"1573646405208","104","-0.10058594","-0.8935547","0.2763672","-15.6875","-12.78125","-11.0"
"1573646405208","105","-0.15136719","-0.9160156","0.22851562","-20.78125","-5.4375","-11.625"
"1573646405208","106","-0.080078125","-0.9375","0.14941406","-15.09375","-7.78125","-14.40625"
"1573646405209","107","-0.030273438","-0.9316406","0.14941406","-15.09375","-0.6875","-8.0625"
"1573646405209","108","-0.036132812","-0.92871094","0.09277344","-7.53125","1.4375","-8.6875"
"1573646405209","109","0.001953125","-0.99316406","0.10839844","-12.03125","10.125","-3.0625"
"1573646405802","110","-0.021484375","-0.95996094","0.13574219","-11.3125","1.5","-4.84375"
"1573646405803","111","-0.0146484375","-0.9560547","0.10644531","0.09375","3.34375","1.6875"
"1573646405803","112","-0.052734375","-0.99316406","0.13671875","-14.65625","0.84375","-3.4375"
"1573646405804","113","-0.020507812","-0.9863281","0.15722656","-11.5","0.46875","-1.34375"
"1573646405804","114","-0.08203125","-0.96972656","0.12890625","-13.5625","-0.875","-2.34375"
"1573646405804","115","-0.057617188","-0.9951172","0.14453125","-5.3125","1.5","-6.375"
"1573646405804","116","-0.0625","-0.9628906","0.13769531","-6.375","3.46875","-6.53125"
"1573646405805","117","-0.051757812","-0.9794922","0.16113281","-4.40625","4.875","-8.0625"
"1573646405805","118","-0.03125","-0.9794922","0.16601562","-5.625","6.03125","-7.03125"
"1573646405805","119","-0.04296875","-0.97558594","0.15722656","-5.5625","3.59375","-5.6875"
"1573646405999","120","-0.036132812","-0.9707031","0.15917969","-3.6875","0.96875","-3.90625"
"1573646406000","121","-0.046875","-0.9638672","0.16796875","-1.0625","0.84375","-2.15625"
"1573646406000","122","-0.0625","-0.9824219","0.17089844","-2.875","-1.65625","-1.78125"
"1573646406001","123","-0.055664062","-0.9746094","0.16601562","-1.78125","0.03125","-0.5625"
"1573646406001","124","-0.056640625","-0.9824219","0.16015625","0.90625","1.21875","-0.9375"
"1573646406001","125","-0.0087890625","-0.9814453","0.16015625","-2.03125","-1.90625","-2.46875"
"1573646406002","126","-0.024414062","-0.9892578","0.14648438","-1.71875","-0.0625","-1.1875"
"1573646406002","127","-0.030273438","-0.9941406","0.18261719","-6.59375","2.0625","-2.46875"
"1573646406002","128","-0.01953125","-0.9892578","0.13964844","2.0625","-1.3125","-0.4375"
"1573646406002","129","-0.038085938","-0.99121094","0.15820312","-8.0","7.96875","-0.1875"
"1573646406398","130","-0.045898438","-0.9736328","0.14648438","-2.53125","4.8125","-1.90625"
"1573646406399","131","-0.045898438","-0.984375","0.13867188","-2.75","-1.25","2.0"
"1573646406399","132","-0.051757812","-0.96191406","0.14453125","2.71875","5.53125","3.53125"
"1573646406401","133","-0.048828125","-1.0068359","0.13867188","8.03125","3.65625","3.90625"
"1573646406401","134","-0.0048828125","-0.94140625","0.16210938","6.46875","0.09375","4.9375"
"1573646406401","135","-0.061523438","-0.9707031","0.15527344","11.28125","2.0","7.25"
"1573646406402","136","-0.060546875","-0.9970703","0.16601562","8.15625","5.90625","4.125"
"1573646406402","137","-0.068359375","-0.9511719","0.18066406","6.5625","6.28125","5.125"
"1573646406402","138","-0.064453125","-0.9638672","0.17285156","8.71875","4.875","3.90625"
"1573646406402","139","-0.049804688","-0.95703125","0.17382812","6.6875","8.34375","3.09375"
"1573646407192","140","-0.07421875","-0.953125","0.18457031","5.78125","8.34375","6.03125"
"1573646407192","141","0.0029296875","-0.9550781","0.18066406","9.375","3.21875","10.46875"
"1573646407192","142","-0.09277344","-0.93066406","0.25097656","6.8125","-4.46875","12.625"
"1573646407193","143","-0.16015625","-0.953125","0.23144531","-1.1875","-0.625","2.5625"
"1573646407193","144","-0.06347656","-0.9580078","0.20996094","9.3125","-5.8125","-0.625"
"1573646407194","145","-0.15722656","-0.8769531","0.30566406","-1.1875","-6.71875","9.03125"
"1573646407195","146","-0.09863281","-0.9794922","0.23828125","-6.53125","-3.125","-1.65625"
"1573646407195","147","-0.11621094","-0.86816406","0.3564453","2.1875","-5.09375","11.59375"
"1573646407195","148","-0.17675781","-0.9628906","0.27929688","6.75","-31.8125","12.375"
"1573646407195","149","-0.20214844","-0.8769531","0.36621094","11.53125","-2.6875","16.40625"
"1573646407787","150","-0.20898438","-0.9316406","0.3671875","14.4375","-0.4375","6.28125"
"1573646407788","151","-0.18554688","-0.92285156","0.45410156","18.0625","9.6875","6.15625"
"1573646407788","152","-0.2548828","-0.8798828","0.43359375","10.0625","4.8125","2.90625"
"1573646407788","153","-0.14941406","-0.953125","0.48632812","7.5","10.46875","2.0625"
"1573646407788","154","-0.29492188","-0.89453125","0.48339844","4.1875","3.46875","-1.96875"
"1573646407789","155","-0.2919922","-0.8935547","0.5517578","-7.21875","6.40625","-3.75"
"1573646407789","156","-0.30273438","-0.93652344","0.49414062","-8.8125","-3.8125","-7.34375"
"1573646407789","157","-0.265625","-0.92871094","0.50390625","-13.625","2.65625","-11.1875"
"1573646407790","158","-0.31347656","-0.9121094","0.49023438","-8.6875","12.875","-13.0625"
"1573646407790","159","-0.20996094","-0.9082031","0.421875","-4.78125","3.84375","-12.15625"
"1573646407790","160","-0.21191406","-0.921875","0.4091797","1.03125","7.125","-12.84375"
"1573646407791","161","-0.17480469","-0.91015625","0.3671875","-10.8125","-0.375","-15.53125"
"1573646407791","162","-0.17089844","-0.95703125","0.37402344","2.125","-0.875","-7.65625"
"1573646407791","163","-0.1953125","-0.8876953","0.3408203","-6.3125","-8.75","-10.5625"
"1573646407791","164","-0.11328125","-0.9433594","0.23828125","-5.09375","3.65625","-9.21875"
"1573646407792","165","-0.05859375","-0.93066406","0.24121094","-13.375","1.3125","-7.59375"
"1573646407792","166","-0.044921875","-0.90527344","0.18652344","-3.96875","7.75","-4.53125"
"1573646407792","167","0.009765625","-0.9375","0.18457031","-7.59375","7.0625","-4.59375"
"1573646407793","168","0.01171875","-0.96191406","0.17089844","-11.375","1.9375","-1.53125"
"1573646407793","169","-0.0029296875","-0.9746094","0.1640625","-12.65625","4.6875","-0.5625"
"1573646408185","170","-0.044921875","-0.9589844","0.15820312","-16.375","8.15625","-4.09375"
"1573646408185","171","-0.013671875","-0.97753906","0.12597656","-14.84375","5.84375","-3.625"
"1573646408185","172","-0.026367188","-0.9638672","0.15136719","-11.375","8.96875","-2.46875"
"1573646408186","173","-0.01953125","-0.98828125","0.15625","-10.5","10.53125","-4.78125"
"1573646408186","174","-0.020507812","-0.9716797","0.1796875","-11.625","9.625","-6.0625"
"1573646408186","175","-0.020507812","-0.9658203","0.14160156","-12.78125","1.09375","-9.15625"
"1573646408186","176","-0.0087890625","-0.98339844","0.15527344","-6.0625","0.59375","-3.96875"
"1573646408187","177","-0.040039062","-0.984375","0.16992188","-10.4375","0.40625","-6.59375"
"1573646408187","178","-0.03125","-0.9716797","0.15625","-3.3125","-6.0625","-1.125"
"1573646408188","179","-0.046875","-0.9794922","0.15039062","-8.1875","-6.0625","-0.25"
"1573646408780","180","-0.0390625","-0.9785156","0.14746094","-4.28125","-6.5","0.21875"
"1573646408783","181","-0.060546875","-0.9814453","0.16992188","-1.0625","-2.34375","0.65625"
"1573646408784","182","-0.041992188","-0.96875","0.15527344","-0.5","-4.46875","0.34375"
"1573646408784","183","-0.055664062","-0.97753906","0.17871094","-2.34375","0.15625","0.34375"
"1573646408784","184","-0.05078125","-0.984375","0.15136719","0.96875","-3.6875","0.53125"
"1573646408785","185","-0.049804688","-0.97558594","0.171875","2.1875","0.65625","1.375"
"1573646408785","186","-0.06933594","-0.98828125","0.16210938","1.09375","0.65625","0.65625"
"1573646408785","187","-0.0390625","-0.9736328","0.15820312","0.90625","2.78125","0.0"
"1573646408785","188","-0.041992188","-0.9863281","0.171875","1.8125","0.65625","1.6875"
"1573646408786","189","-0.052734375","-0.98046875","0.171875","1.75","3.34375","-0.25"
"1573646408786","190","-0.047851562","-0.96972656","0.18652344","1.75","1.15625","1.8125"
"1573646408786","191","-0.064453125","-0.9824219","0.15917969","2.84375","-0.5625","1.5"
"1573646408787","192","-0.05078125","-0.9589844","0.18847656","4.0","2.5625","2.90625"
"1573646408787","193","-0.06640625","-0.9765625","0.18554688","-1.84375","4.25","3.71875"
"1573646408788","194","-0.055664062","-0.97265625","0.17773438","4.0625","0.0","2.3125"
"1573646408788","195","-0.0390625","-0.9453125","0.17578125","3.28125","-1.65625","2.375"
"1573646408788","196","-0.04296875","-0.99121094","0.18164062","4.625","-2.28125","5.0625"
"1573646408789","197","-0.0625","-0.9667969","0.18457031","5.0","-5.15625","3.09375"
"1573646408789","198","-0.059570312","-0.9423828","0.17285156","2.4375","-5.9375","5.78125"
"1573646408789","199","-0.051757812","-0.9794922","0.18652344","-0.6875","-7.03125","5.90625"
"1573646409774","200","-0.061523438","-0.93847656","0.1640625","-7.53125","-16.625","9.375"
"1573646409775","201","-0.044921875","-0.9169922","0.1015625","-5.875","-21.0625","17.75"
"1573646409775","202","-0.08496094","-1.0351562","0.16601562","17.0","-16.0625","17.1875"
"1573646409776","203","-0.11816406","-0.88183594","0.3779297","9.09375","-11.375","15.96875"
"1573646409776","204","-0.20507812","-0.9550781","0.16015625","-0.75","-14.96875","10.375"
"1573646409777","205","-0.19042969","-0.921875","0.41992188","9.375","19.34375","-0.125"
"1573646409778","206","-0.15429688","-0.9091797","0.2421875","-7.875","-6.65625","-3.375"
"1573646409778","207","-0.19140625","-0.95703125","0.3203125","1.3125","18.0","2.5625"
"1573646409778","208","-0.15332031","-0.9394531","0.40429688","1.21875","9.5625","-3.0"
"1573646409779","209","-0.11621094","-0.890625","0.35546875","6.21875","16.28125","2.65625"
"1573646410170","210","-0.1953125","-0.96191406","0.3955078","3.59375","13.71875","4.0"
"1573646410170","211","-0.18847656","-0.91503906","0.43066406","4.75","10.71875","1.21875"
"1573646410171","212","-0.25","-0.9042969","0.47265625","2.4375","10.25","-0.5625"
"1573646410171","213","-0.22070312","-0.9433594","0.49121094","8.71875","6.6875","-0.375"
"1573646410172","214","-0.26171875","-0.90722656","0.4970703","10.90625","3.34375","-2.34375"
"1573646410172","215","-0.30273438","-0.9199219","0.47265625","8.65625","-0.125","-1.96875"
"1573646410172","216","-0.30664062","-0.88671875","0.50878906","13.28125","7.8125","-6.1875"
"1573646410174","217","-0.2548828","-0.89160156","0.44140625","15.0625","3.40625","-6.65625"
"1573646410175","218","-0.25390625","-0.90625","0.46972656","13.84375","7.90625","-4.96875"
"1573646410175","219","-0.19335938","-0.9140625","0.4091797","14.8125","-4.96875","-3.125"
"1573646410175","220","-0.23339844","-0.8798828","0.47851562","13.40625","2.375","2.0"
"1573646410175","221","-0.2529297","-0.9589844","0.41503906","4.9375","5.40625","-5.375"
"1573646410176","222","-0.16894531","-0.8623047","0.453125","-2.625","5.40625","-8.6875"
"1573646410176","223","-0.11425781","-0.89746094","0.3017578","-1.59375","1.4375","-2.9375"
"1573646410176","224","-0.13085938","-0.9033203","0.3486328","-18.21875","1.9375","-8.3125"
"1573646410176","225","-0.103515625","-0.9160156","0.25585938","-15.34375","2.125","-9.46875"
"1573646410177","226","-0.07324219","-0.92871094","0.21875","-14.34375","5.1875","-9.90625"
"1573646410177","227","-0.0234375","-0.9316406","0.20605469","-7.875","10.84375","-3.875"
"1573646410177","228","-0.061523438","-0.9345703","0.19335938","-9.90625","8.53125","-5.75"
"1573646410178","229","-0.009765625","-0.9609375","0.21875","-6.4375","15.65625","-9.34375"
"1573646410372","230","-0.01171875","-0.9589844","0.22851562","-9.15625","10.65625","-7.21875"
"1573646410372","231","-0.059570312","-0.953125","0.20703125","-14.84375","5.71875","-7.34375"
"1573646410373","232","-0.05859375","-0.9667969","0.21191406","-9.0","9.09375","-8.4375"
"1573646410373","233","-0.051757812","-0.97265625","0.23046875","-15.46875","4.375","-9.28125"
"1573646410373","234","-0.051757812","-0.9589844","0.18945312","-12.46875","0.28125","-7.8125"
"1573646410373","235","-0.05078125","-0.96191406","0.20996094","-14.34375","-1.0","-5.8125"
"1573646410374","236","-0.049804688","-0.9658203","0.21386719","-8.9375","-5.375","-3.375"
"1573646410374","237","-0.056640625","-0.9560547","0.1953125","-8.4375","-6.0625","-3.375"
"1573646410374","238","-0.04296875","-0.9707031","0.21484375","-5.5625","-6.0625","-2.9375"
"1573646410374","239","-0.037109375","-0.9638672","0.21289062","-9.125","-4.28125","-1.90625"
"1573646411364","240","-0.056640625","-0.95703125","0.17871094","-6.65625","-8.75","-1.90625"
"1573646411368","241","-0.057617188","-0.96777344","0.21777344","-6.4375","0.28125","-2.875"
"1573646411368","242","-0.06542969","-0.9707031","0.20019531","-7.15625","-3.25","-3.3125"
"1573646411369","243","-0.040039062","-0.96875","0.19238281","-4.21875","-1.46875","-1.71875"
"1573646411369","244","-0.055664062","-0.96875","0.203125","-4.46875","1.15625","-1.65625"
"1573646411369","245","-0.04296875","-0.9824219","0.19824219","-4.46875","1.375","-2.28125"
"1573646411369","246","-0.04296875","-0.9580078","0.18847656","-3.5625","0.03125","-1.0625"
"1573646411370","247","-0.049804688","-0.9736328","0.18066406","0.34375","4.375","1.3125"
"1573646411370","248","-0.0546875","-0.96875","0.20019531","-0.6875","6.75","1.21875"
"1573646411370","249","-0.06738281","-0.97265625","0.19042969","2.125","5.53125","1.09375"
"1573646411371","250","-0.045898438","-0.95703125","0.19238281","1.75","10.1875","-0.375"
"1573646411371","251","-0.059570312","-0.97558594","0.21191406","3.34375","7.0","2.3125"
"1573646411371","252","-0.064453125","-0.96484375","0.20019531","2.65625","3.09375","2.5625"
"1573646411371","253","-0.06542969","-0.96484375","0.20898438","3.90625","6.5625","1.6875"
"1573646411372","254","-0.053710938","-0.9550781","0.20703125","9.03125","1.4375","5.21875"
"1573646411372","255","-0.08105469","-0.9628906","0.23339844","10.0625","5.59375","6.6875"
"1573646411372","256","-0.06640625","-0.9589844","0.24316406","12.25","1.5","5.125"
"1573646411373","257","-0.078125","-0.93847656","0.21582031","9.625","-1.84375","7.6875"
"1573646411373","258","-0.10253906","-0.96484375","0.25390625","6.875","6.8125","7.90625"
"1573646411373","259","-0.080078125","-0.9404297","0.22070312","3.40625","2.90625","4.0625"
"1573646411564","260","-0.068359375","-0.9355469","0.23242188","9.8125","7.0","7.125"
"1573646411565","261","-0.09472656","-0.9296875","0.23242188","4.0","3.40625","5.40625"
"1573646411565","262","-0.115234375","-0.92871094","0.26757812","4.6875","5.40625","3.21875"
"1573646411566","263","-0.0390625","-0.96777344","0.25683594","5.71875","-11.4375","8.71875"
"1573646411566","264","-0.10253906","-0.9169922","0.29882812","3.40625","-5.5625","13.40625"
"1573646411566","265","-0.16601562","-0.8730469","0.3515625","4.5","-3.6875","7.0"
"1573646411567","266","-0.15332031","-0.9560547","0.2998047","-2.8125","-15.9375","1.21875"
"1573646411567","267","-0.14648438","-0.9033203","0.31835938","1.625","8.46875","1.375"
"1573646411567","268","-0.22851562","-0.95410156","0.31933594","1.09375","-1.65625","4.4375"
"1573646411568","269","-0.14648438","-0.8876953","0.3515625","-11.125","-0.0625","-1.125"
"1573646411962","270","-0.28222656","-0.8798828","0.46191406","-2.59375","8.84375","9.25"
"1573646411963","271","-0.19042969","-0.97558594","0.2890625","-23.5","-9.65625","-2.6875"
"1573646411963","272","-0.20410156","-0.8720703","0.46972656","-4.53125","16.09375","-1.78125"
"1573646411963","273","-0.15722656","-0.9189453","0.32910156","-7.40625","-3.875","-0.1875"
"1573646411964","274","-0.23828125","-0.90234375","0.4580078","-6.96875","9.1875","1.3125"
"1573646411964","275","-0.22070312","-0.9667969","0.42382812","-8.1875","-4.84375","-3.875"
"1573646411964","276","-0.24511719","-0.89160156","0.41210938","-10.15625","2.78125","-6.125"
"1573646411965","277","-0.28320312","-0.96972656","0.4560547","-3.4375","3.65625","-7.03125"
"1573646411966","278","-0.24804688","-0.90527344","0.46972656","0.34375","5.0625","-7.9375"
"1573646411966","279","-0.2998047","-0.93359375","0.4423828","-3.75","6.40625","-5.8125"
"1573646412362","280","-0.23339844","-0.921875","0.4716797","4.875","8.34375","-6.90625"
"1573646412363","281","-0.24902344","-0.9160156","0.43945312","8.84375","7.375","-4.53125"
"1573646412363","282","-0.25097656","-0.90527344","0.43066406","11.9375","8.84375","-7.78125"
"1573646412363","283","-0.19335938","-0.890625","0.40234375","11.15625","0.65625","-7.875"
"1573646412364","284","-0.16894531","-0.9404297","0.4248047","8.15625","4.75","-3.1875"
"1573646412364","285","-0.21484375","-0.90722656","0.3701172","0.96875","-3.375","-4.78125"
"1573646412364","286","-0.12402344","-0.89160156","0.36621094","-2.40625","3.34375","-6.3125"
"1573646412364","287","-0.095703125","-0.9199219","0.32226562","-10.03125","-0.5","-3.6875"
"1573646412365","288","-0.12890625","-0.9003906","0.25390625","-3.625","6.28125","-5.4375"
"1573646412366","289","-0.051757812","-0.90625","0.24316406","-12.84375","7.75","-7.40625"
"1573646412758","290","-0.026367188","-0.9785156","0.18359375","2.0625","8.15625","-6.71875"
"1573646412759","291","0.059570312","-0.9560547","0.15136719","-0.9375","5.46875","-7.34375"
"1573646412759","292","0.033203125","-0.93359375","0.19824219","-15.34375","8.53125","-5.8125"
"1573646412759","293","-0.0087890625","-0.9814453","0.14941406","-5.03125","7.625","-9.90625"
"1573646412760","294","-0.028320312","-0.97753906","0.23144531","-20.46875","15.625","-9.84375"
"1573646412760","295","-0.06738281","-0.95410156","0.19433594","-16.5625","5.0625","-6.78125"
"1573646412760","296","-0.05078125","-0.9482422","0.17675781","-12.90625","0.28125","-7.59375"
"1573646412760","297","-0.029296875","-0.9736328","0.1953125","-7.9375","1.4375","-7.53125"
"1573646412761","298","-0.037109375","-0.95996094","0.20605469","-8.5625","-1.59375","-6.90625"
"1573646412761","299","-0.041992188","-0.96875","0.20019531","-2.9375","-1.46875","-2.40625"
"1573646413749","300","-0.034179688","-0.96875","0.20800781","-3.875","-4.78125","-3.0625"
"1573646413751","301","-0.020507812","-0.9638672","0.21386719","-4.09375","-7.9375","-0.1875"
"1573646413751","302","-0.053710938","-0.9472656","0.21875","-2.6875","-7.9375","0.78125"
"1573646413751","303","-0.05078125","-0.96777344","0.22070312","0.40625","-9.28125","1.875"
"1573646413752","304","-0.049804688","-0.97265625","0.22265625","-0.5","-9.15625","2.25"
"1573646413752","305","-0.049804688","-0.9589844","0.21777344","-0.8125","-8.375","1.8125"
"1573646413752","306","-0.022460938","-0.9765625","0.22460938","-0.75","-7.46875","1.3125"
"1573646413753","307","-0.045898438","-0.9628906","0.22167969","-1.46875","-7.40625","2.1875"
"1573646413753","308","-0.046875","-0.9638672","0.19726562","0.59375","-6.84375","0.90625"
"1573646413753","309","-0.040039062","-0.9736328","0.21972656","-4.21875","-3.4375","2.125"
"1573646413946","310","-0.06542969","-0.9667969","0.24511719","-5.75","0.0","0.90625"
"1573646413947","311","-0.049804688","-0.9707031","0.19824219","3.21875","0.90625","0.65625"
"1573646413947","312","-0.0546875","-0.97558594","0.23925781","-4.90625","7.3125","-0.1875"
"1573646413948","313","-0.051757812","-0.9472656","0.22070312","-1.125","3.15625","-0.25"
"1573646413949","314","-0.048828125","-0.9667969","0.20898438","-1.3125","5.1875","0.96875"
"1573646413949","315","-0.052734375","-0.9638672","0.23046875","4.75","7.0","0.65625"
"1573646413949","316","-0.057617188","-0.9716797","0.24121094","4.0","9.03125","1.5625"
"1573646413950","317","-0.07519531","-0.9482422","0.21484375","1.5625","5.90625","3.21875"
"1573646413950","318","-0.048828125","-0.9638672","0.23632812","1.375","9.375","1.4375"
"1573646413950","319","-0.0390625","-0.9511719","0.23144531","1.5","6.6875","1.15625"
"1573646414742","320","-0.060546875","-0.93847656","0.22460938","2.65625","2.3125","4.125"
"1573646414743","321","-0.057617188","-0.9609375","0.23925781","0.96875","5.0","4.875"
"1573646414743","322","-0.0703125","-0.9580078","0.25","-3.90625","2.25","4.0625"
"1573646414743","323","-0.06933594","-0.9267578","0.20800781","0.21875","-4.84375","5.125"
"1573646414744","324","-0.072265625","-0.96191406","0.23730469","0.0","0.96875","6.875"
"1573646414745","325","-0.09277344","-0.97265625","0.24414062","-4.03125","0.15625","6.875"
"1573646414745","326","-0.060546875","-0.9248047","0.1953125","4.0625","-12.40625","10.1875"
"1573646414746","327","-0.059570312","-0.93066406","0.25683594","2.375","-11.84375","13.65625"
"1573646414746","328","-0.1875","-0.9189453","0.24804688","1.28125","-5.9375","8.03125"
"1573646414746","329","-0.140625","-0.9238281","0.3125","6.75","-3.875","3.03125"
"1573646414945","330","-0.17382812","-0.8964844","0.25","3.46875","-11.78125","4.5625"
"1573646414946","331","-0.15234375","-0.95214844","0.3125","-12.28125","5.59375","2.0"
"1573646414946","332","-0.18652344","-0.95214844","0.3154297","-1.78125","5.71875","2.3125"
"1573646414946","333","-0.19628906","-0.8359375","0.41210938","1.03125","3.40625","-0.6875"
"1573646414946","334","-0.15917969","-0.9433594","0.33691406","-6.84375","-11.1875","-4.21875"
"1573646414947","335","-0.13867188","-0.9121094","0.38476562","-8.1875","1.28125","0.09375"
"1573646414947","336","-0.21582031","-0.96191406","0.38867188","-8.6875","-11.125","-0.625"
"1573646414948","337","-0.16601562","-0.953125","0.3876953","1.5625","-4.03125","-0.4375"
"1573646414949","338","-0.24609375","-0.93359375","0.484375","2.78125","2.65625","-0.6875"
"1573646414949","339","-0.21582031","-0.92578125","0.42871094","3.59375","3.46875","-2.34375"
"1573646415142","340","-0.24902344","-0.9267578","0.5019531","4.375","9.03125","-3.8125"
"1573646415143","341","-0.22753906","-0.9589844","0.49902344","2.375","8.03125","-4.53125"
"1573646415143","342","-0.2548828","-0.9082031","0.45410156","4.125","7.6875","-6.0625"
"1573646415143","343","-0.22167969","-0.94433594","0.45507812","4.25","15.625","-6.78125"
"1573646415143","344","-0.21386719","-0.91015625","0.46484375","7.25","12.5","-7.03125"
"1573646415144","345","-0.16699219","-0.9160156","0.4375","7.6875","16.34375","-2.03125"
"1573646415144","346","-0.22949219","-0.9404297","0.41015625","-3.0","10.3125","-2.46875"
"1573646415144","347","-0.19335938","-0.9394531","0.35839844","-2.09375","5.84375","-5.03125"
"1573646415144","348","-0.13476562","-0.8857422","0.31835938","0.96875","2.125","-5.09375"
"1573646415146","349","-0.13476562","-0.9003906","0.3095703","-7.03125","8.40625","-3.1875"
"1573646415735","350","-0.059570312","-0.93652344","0.24023438","-1.40625","10.1875","-3.8125"
"1573646415736","351","-0.07324219","-0.9248047","0.23144531","-10.875","3.15625","-1.0625"
"1573646415736","352","-0.037109375","-0.93359375","0.19921875","-11.375","-0.75","-1.46875"
"1573646415736","353","-0.041015625","-0.9375","0.13574219","-11.375","-2.8125","-2.03125"
"1573646415737","354","-0.036132812","-0.95214844","0.15820312","-6.59375","2.96875","-1.0625"
"1573646415737","355","-0.029296875","-0.97265625","0.16601562","-4.71875","-2.34375","-2.21875"
"1573646415737","356","-0.02734375","-0.95214844","0.18554688","-6.0","0.28125","-5.6875"
"1573646415738","357","-0.04296875","-0.9638672","0.18359375","-6.25","-4.03125","-4.84375"
"1573646415738","358","-0.045898438","-0.9736328","0.18066406","-3.90625","-3.90625","-5.625"
"1573646415739","359","-0.038085938","-0.96484375","0.22851562","-8.3125","-5.6875","-4.40625"
"1573646415937","360","-0.05078125","-0.9746094","0.20019531","-8.25","-9.21875","-5.5625"
"1573646415937","361","-0.041992188","-0.9658203","0.19335938","-13.8125","-9.71875","-2.40625"
"1573646415938","362","-0.056640625","-0.9707031","0.20898438","-11.125","-12.59375","-1.71875"
"1573646415938","363","-0.06738281","-0.9580078","0.18066406","-8.5","-11.5625","-1.40625"
"1573646415938","364","-0.046875","-0.96972656","0.18457031","-7.40625","-9.0625","0.28125"
"1573646415939","365","-0.072265625","-0.96972656","0.1953125","-7.15625","-7.53125","-0.9375"
"1573646415939","366","-0.043945312","-0.9707031","0.18945312","-5.875","-2.6875","-2.8125"
"1573646415939","367","-0.061523438","-0.9746094","0.16210938","-4.15625","-3.25","-2.15625"
"1573646415940","368","-0.056640625","-0.9746094","0.19238281","-5.3125","3.9375","-2.59375"
"1573646415940","369","-0.049804688","-0.97753906","0.1953125","-3.0625","6.9375","-5.25"
"1573646416336","370","-0.041015625","-0.9736328","0.15917969","-4.96875","5.84375","-4.28125"
"1573646416337","371","-0.036132812","-0.97753906","0.17773438","-5.75","8.84375","-3.96875"
"1573646416337","372","-0.037109375","-0.97265625","0.17675781","-2.21875","9.4375","-3.5625"
"1573646416339","373","-0.041992188","-0.984375","0.16503906","1.09375","9.25","-2.59375"
"1573646416339","374","-0.036132812","-0.9765625","0.1953125","3.59375","7.5","-1.46875"
"1573646416339","375","-0.059570312","-0.96777344","0.18945312","-2.28125","5.84375","-0.5"
"1573646416340","376","-0.032226562","-0.9746094","0.18457031","2.125","5.90625","-1.40625"
"1573646416340","377","-0.04296875","-0.9609375","0.21679688","6.9375","4.75","1.15625"
"1573646416340","378","-0.0703125","-0.94628906","0.2109375","7.375","2.5625","4.4375"
"1573646416341","379","-0.064453125","-0.9628906","0.21875","5.125","8.21875","4.5625"
"1573646416733","380","-0.040039062","-0.95996094","0.2109375","3.90625","3.53125","4.0"
"1573646416733","381","-0.041992188","-0.94433594","0.20410156","0.71875","3.21875","4.0"
"1573646416734","382","-0.0546875","-0.97265625","0.1953125","-2.9375","4.375","5.53125"
"1573646416734","383","-0.07421875","-0.9550781","0.2265625","1.5625","5.46875","4.375"
"1573646416734","384","-0.08886719","-0.94140625","0.19238281","-4.65625","-0.625","6.15625"
"1573646416736","385","-0.09863281","-0.9404297","0.21289062","11.15625","6.28125","6.5625"
"1573646416736","386","-0.029296875","-0.97753906","0.21484375","11.8125","2.5","9.375"
"1573646416737","387","-0.09472656","-0.94140625","0.21679688","2.375","5.53125","10.71875"
"1573646416737","388","-0.061523438","-0.9111328","0.21191406","2.65625","5.0625","15.5625"
"1573646416737","389","-0.08203125","-0.93652344","0.28222656","2.25","-7.15625","12.375"
"1573646416931","390","-0.17382812","-0.8671875","0.24609375","9.875","-16.5","11.71875"
"1573646416932","391","-0.13867188","-0.9248047","0.31933594","30.8125","-17.65625","15.3125"
"1573646416932","392","-0.19628906","-0.9638672","0.32910156","-1.125","-17.53125","14.15625"
"1573646416932","393","-0.2607422","-0.8847656","0.44433594","5.28125","-9.84375","3.59375"
"1573646416932","394","-0.19042969","-0.94628906","0.29003906","8.78125","-13.1875","2.71875"
"1573646416932","395","-0.26171875","-0.84472656","0.42871094","-3.5","-7.15625","1.3125"
"1573646416932","396","-0.19335938","-0.9785156","0.38378906","1.8125","-3.375","-2.09375"
"1573646416933","397","-0.1875","-0.87597656","0.43554688","-2.625","4.8125","4.4375"
"1573646416934","398","-0.25976562","-0.9296875","0.46777344","-4.09375","10.0","-2.8125"
"1573646416934","399","-0.18359375","-0.8955078","0.47851562","-7.40625","7.75","-2.75"
"1573646417329","400","-0.23730469","-0.89160156","0.51660156","0.34375","7.8125","-4.34375"
"1573646417329","401","-0.23730469","-0.8964844","0.51660156","-1.34375","8.65625","-3.96875"
"1573646417329","402","-0.26757812","-0.89941406","0.5283203","-0.375","12.4375","-4.34375"
"1573646417330","403","-0.29296875","-0.8984375","0.5361328","1.75","13.0","-6.5"
"1573646417330","404","-0.2685547","-0.9091797","0.5048828","7.125","14.15625","-7.15625"
"1573646417330","405","-0.27441406","-0.890625","0.54589844","5.34375","17.1875","-7.65625"
"1573646417330","406","-0.2421875","-0.89746094","0.4267578","5.0","2.0625","-5.5"
"1573646417331","407","-0.23046875","-0.8828125","0.4580078","8.21875","4.0","-2.6875"
"1573646417331","408","-0.19824219","-0.9609375","0.45703125","6.28125","4.75","-1.65625"
"1573646417332","409","-0.21289062","-0.88378906","0.375","6.625","-3.3125","-3.5"
"1573646417726","410","-0.123046875","-0.8642578","0.3154297","3.9375","-6.0","-6.3125"
"1573646417727","411","-0.052734375","-0.8808594","0.28515625","-0.625","-5.9375","-4.15625"
"1573646417727","412","-0.080078125","-0.92089844","0.27148438","-2.46875","-4.59375","-2.09375"
"1573646417727","413","-0.095703125","-0.93066406","0.24023438","-8.3125","2.3125","-7.21875"
"1573646417727","414","-0.020507812","-0.9111328","0.20996094","-6.5","-3.75","-7.65625"
"1573646417728","415","-0.041015625","-0.9169922","0.20898438","-8.0","12.1875","-3.125"
"1573646417728","416","-0.015625","-0.9707031","0.22851562","-10.625","5.0625","-2.46875"
"1573646417728","417","-0.060546875","-0.9355469","0.24023438","-10.03125","4.1875","-2.09375"
"1573646417728","418","-0.07324219","-0.9589844","0.2421875","-8.1875","2.25","-5.5"
"1573646417729","419","-0.060546875","-0.9638672","0.26367188","-9.96875","2.59375","-4.53125"
"1573646418124","420","-0.080078125","-0.95214844","0.25097656","-13.6875","-2.53125","-7.53125"
"1573646418126","421","-0.04296875","-0.9628906","0.23046875","-8.0","3.9375","-5.25"
"1573646418126","422","-0.078125","-0.9511719","0.23144531","-22.21875","-1.34375","-5.875"
"1573646418126","423","-0.068359375","-0.9628906","0.21875","-10.6875","-0.4375","-4.34375"
"1573646418126","424","-0.07910156","-0.95214844","0.23828125","-8.5625","-1.0","-3.90625"
"1573646418127","425","-0.076171875","-0.9736328","0.23046875","-7.8125","-2.34375","-3.96875"
"1573646418127","426","-0.056640625","-0.9638672","0.22265625","-6.96875","-1.59375","-3.8125"
"1573646418127","427","-0.064453125","-0.9609375","0.22460938","-4.46875","0.0","-3.3125"
"1573646418127","428","-0.064453125","-0.96875","0.22363281","-7.59375","0.90625","-3.5625"
"1573646418128","429","-0.052734375","-0.9658203","0.23828125","-6.78125","0.21875","-4.40625"
"1573646418523","430","-0.06738281","-0.9638672","0.2265625","-7.34375","-0.5","-2.59375"
"1573646418523","431","-0.0625","-0.9580078","0.20117188","-8.125","-2.8125","-2.46875"
"1573646418524","432","-0.0546875","-0.97558594","0.21191406","-8.5","0.40625","-3.0625"
"1573646418525","433","-0.05078125","-0.96191406","0.21484375","-8.3125","0.34375","-3.4375"
"1573646418525","434","-0.040039062","-0.9560547","0.18847656","-7.21875","0.59375","-1.78125"
"1573646418526","435","-0.055664062","-0.97265625","0.19824219","-5.9375","3.46875","-1.71875"
"1573646418526","436","-0.041992188","-0.96972656","0.20117188","-4.96875","5.28125","-1.34375"
"1573646418526","437","-0.05078125","-0.96972656","0.18457031","-4.34375","2.125","-1.90625"
"1573646418526","438","-0.038085938","-0.9707031","0.20605469","2.71875","4.6875","0.0"
"1573646418527","439","-0.059570312","-0.9736328","0.20019531","-3.625","7.1875","-2.53125"
"1573646418918","440","-0.04296875","-0.97753906","0.18945312","0.21875","1.6875","-3.0"
"1573646418918","441","-0.03515625","-0.92578125","0.20605469","0.78125","-2.53125","-1.0625"
"1573646418919","442","-0.06640625","-0.9580078","0.21582031","0.34375","-2.625","3.90625"
"1573646418919","443","-0.0625","-0.9765625","0.2109375","4.6875","1.3125","1.8125"
"1573646418919","444","-0.06738281","-0.93652344","0.19238281","1.375","4.125","4.4375"
"1573646418920","445","-0.07128906","-0.9453125","0.19921875","1.09375","14.875","3.90625"
"1573646418921","446","-0.03125","-0.9628906","0.25","-0.1875","3.9375","5.40625"
"1573646418921","447","-0.07714844","-0.9199219","0.18554688","11.46875","-2.03125","8.15625"
"1573646418922","448","-0.059570312","-0.9316406","0.2265625","14.375","5.40625","8.46875"
"1573646418922","449","-0.055664062","-0.93066406","0.22265625","19.5625","0.71875","11.53125"
"1573646419316","450","-0.078125","-0.9453125","0.24609375","20.375","1.3125","15.1875"
"1573646419317","451","-0.099609375","-0.93359375","0.3203125","10.71875","2.1875","11.28125"
"1573646419317","452","-0.18066406","-0.92285156","0.31152344","8.96875","-8.1875","5.0"
"1573646419317","453","-0.1640625","-0.9189453","0.30664062","16.34375","8.15625","5.78125"
"1573646419318","454","-0.111328125","-0.9375","0.3671875","9.875","-8.5","5.0"
"1573646419318","455","-0.18554688","-0.9404297","0.37304688","13.09375","-1.71875","8.84375"
"1573646419318","456","-0.24121094","-0.8144531","0.4140625","13.21875","-5.9375","4.0625"
"1573646419319","457","-0.21289062","-1.0078125","0.47070312","5.28125","-9.53125","-0.5"
"1573646419320","458","-0.23339844","-0.83691406","0.4658203","1.875","12.25","4.0"
"1573646419320","459","-0.18554688","-0.9033203","0.4638672","-5.375","-4.71875","0.34375"
"1573646420308","460","-0.1953125","-0.8574219","0.43847656","0.90625","0.15625","7.125"
"1573646420309","461","-0.30859375","-0.87890625","0.5761719","0.28125","12.25","4.0"
"1573646420309","462","-0.36621094","-0.8359375","0.60253906","-7.40625","14.8125","-4.28125"
"1573646420309","463","-0.24414062","-0.93066406","0.59375","3.09375","18.125","-6.0625"
"1573646420310","464","-0.28027344","-0.86328125","0.59472656","-2.15625","8.78125","-8.1875"
"1573646420310","465","-0.20410156","-0.92089844","0.51953125","-0.5625","5.0625","-13.625"
"1573646420310","466","-0.22851562","-0.8251953","0.5263672","1.09375","4.5625","-12.96875"
"1573646420310","467","-0.19628906","-0.8984375","0.5078125","-2.21875","-7.8125","-12.59375"
"1573646420311","468","-0.16210938","-0.9042969","0.5361328","-12.03125","-8.1875","-13.5"
"1573646420313","469","-0.22949219","-0.92578125","0.46191406","-26.125","-21.75","-6.71875"
"1573646420505","470","-0.14648438","-0.86816406","0.30078125","-7.40625","-13.125","-14.125"
"1573646420506","471","-0.055664062","-0.859375","0.23730469","-7.21875","-6.84375","-9.125"
"1573646420506","472","-0.041015625","-0.9873047","0.28515625","-7.65625","13.0","-0.125"
"1573646420506","473","-0.078125","-0.90527344","0.21679688","-12.78125","10.96875","-7.71875"
"1573646420507","474","-0.02734375","-0.92871094","0.21777344","-22.0625","7.96875","-3.5"
"1573646420507","475","-0.02734375","-0.95410156","0.18359375","-20.46875","2.96875","-6.3125"
"1573646420508","476","-0.0234375","-0.9433594","0.17480469","-23.875","3.15625","-8.0"
"1573646420508","477","9.765625E-4","-0.96875","0.13183594","-17.71875","-2.9375","-6.4375"
"1573646420508","478","-0.03125","-0.9707031","0.14160156","-12.90625","1.5","-7.65625"
"1573646420509","479","-0.033203125","-0.9785156","0.17285156","-14.40625","3.84375","-6.84375"
"1573646420704","480","-0.033203125","-0.9560547","0.14257812","-16.125","-1.34375","-5.9375"
"1573646420704","481","-0.021484375","-0.984375","0.1875","-12.21875","3.46875","-5.25"
"1573646420704","482","-0.025390625","-0.9628906","0.15039062","-15.8125","-6.53125","-3.0625"
"1573646420705","483","-0.032226562","-0.98046875","0.16992188","-11.71875","-3.1875","-4.65625"
"1573646420705","484","-0.02734375","-0.97753906","0.15429688","-9.96875","-5.5","-3.875"
"1573646420705","485","-0.053710938","-0.9716797","0.15039062","-8.6875","-3.0","-3.375"
"1573646420706","486","-0.041015625","-0.98828125","0.15429688","-5.21875","-1.53125","-3.1875"
"1573646420706","487","-0.00390625","-0.96777344","0.18066406","-8.1875","-3.3125","-1.59375"
"1573646420706","488","-0.051757812","-0.96972656","0.1328125","-6.59375","-5.09375","-2.34375"
"1573646420706","489","-0.0234375","-0.99609375","0.1640625","-0.375","1.6875","-3.0"
"1573646420907","490","0.0","-0.9589844","0.16503906","-6.375","-1.59375","-3.90625"
"1573646420907","491","-0.016601562","-0.9951172","0.15820312","-1.0625","-0.4375","-1.0625"
"1573646420907","492","-0.013671875","-0.9746094","0.17089844","-4.21875","-0.375","-1.96875"
"1573646420908","493","-0.021484375","-0.97558594","0.15136719","0.84375","1.03125","-1.40625"
"1573646420909","494","-0.0048828125","-0.98339844","0.1484375","-1.90625","2.59375","-1.90625"
"1573646420909","495","-0.015625","-0.9785156","0.15527344","0.03125","3.78125","-0.875"
"1573646420909","496","-0.016601562","-0.97753906","0.16503906","2.375","6.5625","-1.34375"
"1573646420909","497","-0.0087890625","-0.9863281","0.15917969","4.125","5.59375","-1.0625"
"1573646420910","498","-0.0087890625","-0.9707031","0.16796875","7.125","5.59375","0.28125"
"1573646420910","499","-0.0029296875","-0.9814453","0.17773438","6.8125","4.25","0.84375"
"1573646422494","500","-0.0078125","-0.97753906","0.16699219","4.125","2.25","1.5"
"1573646422495","501","-0.018554688","-0.97265625","0.18066406","5.78125","6.5625","2.90625"
"1573646422495","502","-0.005859375","-0.98535156","0.17480469","2.96875","4.0","3.09375"
"1573646422496","503","-0.0068359375","-0.96191406","0.19238281","4.9375","6.03125","3.78125"
"1573646422496","504","-0.030273438","-0.96191406","0.18164062","5.78125","8.46875","4.125"
"1573646422498","505","-0.051757812","-0.97265625","0.203125","2.375","6.28125","3.34375"
"1573646422498","506","-0.037109375","-0.9550781","0.19140625","13.15625","7.375","4.75"
"1573646422499","507","-0.036132812","-0.94921875","0.21386719","0.28125","12.375","4.8125"
"1573646422499","508","-0.046875","-0.9716797","0.20117188","5.78125","5.90625","6.46875"
"1573646422499","509","-0.036132812","-0.9482422","0.20898438","6.5625","2.78125","6.8125"
"1573646422500","510","-0.041992188","-0.93847656","0.19433594","9.03125","2.0","9.6875"
"1573646422500","511","-0.06933594","-0.95996094","0.2109375","13.59375","0.40625","11.28125"
"1573646422500","512","-0.07324219","-0.90625","0.22167969","22.875","-1.46875","10.46875"
"1573646422500","513","-0.07910156","-0.9326172","0.24121094","16.53125","4.8125","11.59375"
"1573646422501","514","-0.076171875","-0.9453125","0.25976562","18.78125","1.75","14.8125"
"1573646422501","515","-0.07714844","-0.9082031","0.26171875","18.0625","-2.75","19.9375"
"1573646422501","516","-0.11230469","-0.9160156","0.31933594","18.84375","2.0625","17.5625"
"1573646422502","517","-0.18945312","-0.92578125","0.36132812","11.53125","-5.375","12.0625"
"1573646422502","518","-0.109375","-0.8925781","0.44140625","19.46875","-10.4375","7.5"
"1573646422502","519","-0.3046875","-0.7675781","0.5830078","19.9375","-17.28125","19.8125"
"1573646422694","520","-0.2265625","-0.9628906","0.40234375","-3.625","-40.125","0.0"
"1573646422695","521","-0.15136719","-0.8730469","0.48046875","20.75","-1.65625","6.5625"
"1573646422695","522","-0.29882812","-0.8251953","0.5654297","6.625","-1.0","7.125"
"1573646422695","523","-0.24414062","-0.87402344","0.52734375","-3.96875","-1.90625","-2.46875"
"1573646422695","524","-0.24414062","-0.7734375","0.5673828","-6.375","8.09375","-2.59375"
"1573646422696","525","-0.31445312","-0.8691406","0.6035156","-8.0","4.625","-1.25"
"1573646422696","526","-0.28222656","-0.8876953","0.5888672","-5.625","7.5625","-6.71875"
"1573646422696","527","-0.28320312","-0.8613281","0.6113281","-3.75","8.96875","-4.21875"
"1573646422696","528","-0.31445312","-0.8798828","0.5361328","1.8125","9.25","-6.3125"
"1573646422698","529","-0.24511719","-0.84472656","0.53222656","4.8125","9.5","-5.3125"
"1573646422894","530","-0.043945312","-0.93847656","0.19628906","-20.9375","3.65625","-13.03125"
"1573646422895","531","-0.028320312","-0.9550781","0.22753906","-25.34375","5.40625","-10.5"
"1573646422895","532","-0.036132812","-0.9707031","0.19140625","-17.09375","-1.71875","-10.34375"
"1573646422895","533","-0.02734375","-0.9511719","0.18945312","-18.15625","-1.125","-9.53125"
"1573646422896","534","-0.046875","-0.96191406","0.19726562","-17.09375","-0.9375","-7.78125"
"1573646422896","535","-0.033203125","-0.98535156","0.2109375","-14.84375","-3.1875","-6.84375"
"1573646422896","536","-0.053710938","-0.95214844","0.20507812","-11.78125","-4.78125","-5.5"
"1573646422896","537","-0.033203125","-0.9716797","0.19042969","-8.875","-1.1875","-5.25"
"1573646422897","538","-0.04296875","-0.9707031","0.19726562","-7.78125","-2.53125","-4.90625"
"1573646422897","539","-0.037109375","-0.96777344","0.1953125","-8.3125","-0.1875","-3.90625"
"1573646423292","540","-0.032226562","-0.9658203","0.18652344","-7.21875","0.28125","-3.375"
"1573646423294","541","-0.032226562","-0.9736328","0.18847656","-7.71875","2.0625","-3.125"
"1573646423294","542","-0.038085938","-0.96777344","0.1875","-7.65625","4.875","-3.875"
"1573646423294","543","-0.032226562","-0.9707031","0.17675781","-4.34375","5.53125","-4.84375"
"1573646423295","544","-0.032226562","-0.9765625","0.18359375","-0.375","5.96875","-4.78125"
"1573646423295","545","-0.022460938","-0.95996094","0.19042969","-0.5625","4.875","-3.3125"
"1573646423295","546","-0.06347656","-0.9765625","0.22363281","3.03125","11.59375","-1.46875"
"1573646423296","547","-0.030273438","-0.95214844","0.1796875","4.875","5.0625","-4.09375"
"1573646423296","548","-0.03125","-0.9667969","0.22167969","8.71875","12.5","-1.46875"
"1573646423296","549","-0.018554688","-0.9589844","0.20117188","1.21875","7.90625","-1.34375"
"1573646424482","550","-0.01171875","-0.96484375","0.19726562","4.4375","7.90625","0.53125"
"1573646424483","551","-0.046875","-0.9482422","0.20410156","4.25","12.5","2.65625"
"1573646424483","552","-0.052734375","-0.96875","0.23339844","9.125","12.0625","2.65625"
"1573646424485","553","-0.0390625","-0.9511719","0.23730469","10.46875","6.34375","4.8125"
"1573646424485","554","-0.052734375","-0.953125","0.23730469","12.1875","8.84375","6.09375"
"1573646424485","555","-0.06640625","-0.95214844","0.25195312","5.46875","12.375","5.53125"
"1573646424486","556","-0.0625","-0.94433594","0.24121094","5.21875","8.59375","7.125"
"1573646424486","557","-0.08691406","-0.9375","0.25097656","13.03125","3.40625","7.5"
"1573646424486","558","-0.095703125","-0.9013672","0.24707031","17.75","5.46875","9.125"
"1573646424486","559","-0.06640625","-0.9404297","0.28808594","23.65625","-0.6875","9.5"
"1573646425078","560","-0.12011719","-0.91503906","0.29296875","21.34375","-0.9375","11.03125"
"1573646425079","561","-0.12109375","-0.9238281","0.28808594","28.78125","0.09375","7.90625"
"1573646425079","562","-0.099609375","-0.90625","0.3544922","23.375","-1.34375","11.8125"
"1573646425079","563","-0.109375","-0.90234375","0.3720703","21.78125","-8.1875","13.84375"
"1573646425080","564","-0.16308594","-0.8671875","0.39746094","10.125","-9.0","14.75"
"1573646425080","565","-0.17089844","-0.82714844","0.43554688","6.5","-13.03125","11.40625"
"1573646425080","566","-0.17382812","-0.88671875","0.41015625","-6.96875","-6.3125","5.0625"
"1573646425081","567","-0.203125","-0.88671875","0.48632812","-21.0","-15.59375","3.21875"
"1573646425081","568","-0.25097656","-0.8701172","0.4794922","-23.625","-14.125","2.125"
"1573646425081","569","-0.17089844","-0.8808594","0.48046875","-12.84375","-6.90625","1.8125"
"1573646425277","570","-0.2626953","-0.91503906","0.4638672","-19.78125","2.25","2.96875"
"1573646425277","571","-0.2685547","-0.9033203","0.5361328","-9.53125","3.34375","-1.53125"
"1573646425278","572","-0.203125","-0.88671875","0.59277344","-3.1875","7.1875","-3.4375"
"1573646425278","573","-0.24511719","-0.88378906","0.5449219","-1.125","3.84375","-0.8125"
"1573646425279","574","-0.22460938","-0.8417969","0.55371094","0.46875","4.75","-1.90625"
"1573646425279","575","-0.2685547","-0.87109375","0.5644531","3.34375","10.1875","-3.0625"
"1573646425279","576","-0.25390625","-0.8808594","0.55371094","5.0625","6.875","-6.90625"
"1573646425280","577","-0.23632812","-0.88183594","0.5419922","4.6875","8.59375","-6.0625"
"1573646425281","578","-0.203125","-0.875","0.4736328","-1.71875","-1.125","-6.53125"
"1573646425281","579","-0.20410156","-0.875","0.52441406","-0.0625","6.625","-5.375"
