"# PR data"
"# Start time: 20191127T182709"
"# Subject: lukasz"
"# Activity type: Sit to stand"
"# Correctness: Incorrect"
"# Notes: "
""
"timestamp","seq","accel_x","accel_y","accel_z","gyro_x","gyro_y","gyro_z"
"1574875630045","0","0.2861328","-0.93847656","0.036132812","5.90625","5.15625","-0.84375"
"1574875630046","1","0.28710938","-0.95410156","0.053710938","-1.21875","3.4375","-1.25"
"1574875630046","2","0.30371094","-0.95703125","0.045898438","0.0","4.0625","-1.5"
"1574875630048","3","0.3017578","-0.9472656","0.032226562","2.1875","4.46875","-0.90625"
"1574875630049","4","0.2998047","-0.9482422","0.040039062","4.6875","4.65625","-0.84375"
"1574875630049","5","0.3076172","-0.9355469","0.053710938","-1.03125","4.0625","-0.90625"
"1574875630049","6","0.30566406","-0.9433594","0.05078125","-3.125","1.1875","1.25"
"1574875630049","7","0.2998047","-0.94921875","0.038085938","-0.5625","1.0","1.125"
"1574875630050","8","0.30371094","-0.95214844","0.038085938","3.65625","3.3125","0.5"
"1574875630050","9","0.3046875","-0.9638672","0.044921875","2.96875","3.3125","-0.34375"
"1574875630442","10","0.29101562","-0.9394531","0.059570312","0.53125","1.65625","-0.21875"
"1574875630443","11","0.2783203","-0.94140625","0.0546875","5.375","4.0625","-0.53125"
"1574875630443","12","0.3017578","-0.9511719","0.053710938","5.59375","4.71875","-0.28125"
"1574875630444","13","0.29589844","-0.9423828","0.06542969","3.28125","4.53125","1.0625"
"1574875630444","14","0.2861328","-0.9296875","0.080078125","2.90625","1.4375","-0.09375"
"1574875630444","15","0.2919922","-0.9423828","0.057617188","8.65625","2.46875","0.15625"
"1574875630445","16","0.27246094","-0.93652344","0.052734375","2.0","2.65625","0.4375"
"1574875630445","17","0.3076172","-0.9394531","0.080078125","10.4375","5.8125","3.5"
"1574875630445","18","0.28320312","-0.9345703","0.061523438","7.375","6.3125","1.0625"
"1574875630446","19","0.30273438","-0.9501953","0.064453125","16.78125","2.40625","2.40625"
"1574875631236","20","0.30078125","-0.9404297","0.08984375","17.6875","4.21875","3.1875"
"1574875631237","21","0.27929688","-0.9267578","0.107421875","22.09375","5.5625","4.71875"
"1574875631237","22","0.28222656","-0.92578125","0.111328125","24.09375","7.78125","3.0"
"1574875631237","23","0.265625","-0.9277344","0.16308594","21.59375","11.125","4.3125"
"1574875631238","24","0.25878906","-0.9160156","0.16210938","20.3125","13.75","6.0625"
"1574875631239","25","0.25683594","-0.92871094","0.1796875","17.5","14.78125","9.90625"
"1574875631239","26","0.22753906","-0.91308594","0.22265625","12.75","15.21875","11.3125"
"1574875631240","27","0.21289062","-0.9248047","0.2265625","27.03125","21.75","9.59375"
"1574875631240","28","0.25","-0.9248047","0.21777344","33.1875","19.625","11.0"
"1574875631240","29","0.24609375","-0.9189453","0.2626953","26.96875","18.8125","15.53125"
"1574875631634","30","0.18652344","-0.9394531","0.2890625","25.5625","20.03125","15.34375"
"1574875631634","31","0.21777344","-0.92871094","0.26464844","19.78125","19.0625","17.90625"
"1574875631634","32","0.20117188","-0.93066406","0.3408203","5.53125","14.65625","23.78125"
"1574875631635","33","0.13867188","-0.8964844","0.33007812","11.40625","19.125","21.6875"
"1574875631635","34","0.10839844","-0.92089844","0.3486328","11.34375","16.875","22.4375"
"1574875631636","35","0.10253906","-0.9121094","0.37890625","18.5","17.34375","23.71875"
"1574875631636","36","0.14746094","-0.9248047","0.31152344","39.1875","19.0625","24.125"
"1574875631637","37","0.055664062","-0.8955078","0.4501953","23.625","17.90625","24.75"
"1574875631638","38","-0.0087890625","-0.91015625","0.4013672","35.75","27.59375","27.25"
"1574875631638","39","0.076171875","-0.9033203","0.36328125","39.84375","21.75","27.625"
"1574875631830","40","-0.025390625","-0.8388672","0.49414062","42.09375","24.375","37.125"
"1574875631831","41","-0.07519531","-0.875","0.40234375","48.5","22.65625","36.875"
"1574875631831","42","-0.0029296875","-0.875","0.53515625","49.0","32.6875","39.40625"
"1574875631831","43","-0.07421875","-0.7832031","0.6269531","68.09375","32.3125","38.59375"
"1574875631831","44","-0.16113281","-0.8613281","0.734375","68.71875","28.40625","38.65625"
"1574875631832","45","-0.21191406","-0.88671875","0.70703125","62.6875","18.28125","31.53125"
"1574875631832","46","-0.19824219","-0.81347656","0.8046875","55.21875","16.4375","28.34375"
"1574875631832","47","-0.3251953","-0.81152344","0.8105469","48.03125","12.59375","28.46875"
"1574875631832","48","-0.28320312","-0.7607422","0.82910156","37.71875","10.03125","25.34375"
"1574875631833","49","-0.2890625","-0.6484375","0.78125","33.9375","11.5","25.15625"
"1574875632033","50","-0.33398438","-0.6503906","0.80566406","32.46875","11.5","22.4375"
"1574875632033","51","-0.33496094","-0.6123047","0.78222656","37.21875","14.0625","19.5625"
"1574875632034","52","-0.32910156","-0.5996094","0.80078125","31.84375","17.78125","14.125"
"1574875632034","53","-0.32910156","-0.53222656","0.79785156","28.375","15.84375","12.15625"
"1574875632035","54","-0.32421875","-0.5214844","0.72558594","25.3125","16.0","9.90625"
"1574875632037","55","-0.32617188","-0.5185547","0.7109375","18.78125","18.875","5.03125"
"1574875632038","56","-0.2998047","-0.49609375","0.70703125","15.875","16.8125","3.0"
"1574875632038","57","-0.32421875","-0.51464844","0.70703125","12.3125","10.53125","-1.5"
"1574875632038","58","-0.34375","-0.49804688","0.6875","7.8125","9.34375","-6.625"
"1574875632039","59","-0.30664062","-0.4970703","0.7128906","2.1875","5.34375","-8.8125"
"1574875632431","60","-0.34277344","-0.5","0.7285156","-6.125","1.1875","-12.125"
"1574875632432","61","-0.31445312","-0.5234375","0.71875","-6.0","2.71875","-16.53125"
"1574875632432","62","-0.3642578","-0.5332031","0.7529297","-9.03125","-1.3125","-18.03125"
"1574875632433","63","-0.33496094","-0.54003906","0.7636719","-14.46875","-3.40625","-19.1875"
"1574875632433","64","-0.32128906","-0.56640625","0.765625","-17.28125","-4.3125","-20.4375"
"1574875632433","65","-0.30078125","-0.57128906","0.72753906","-23.3125","-5.59375","-25.25"
"1574875632433","66","-0.2734375","-0.5908203","0.75878906","-29.375","-16.875","-25.0625"
"1574875632434","67","-0.2607422","-0.5722656","0.70703125","-32.1875","-19.15625","-26.71875"
"1574875632434","68","-0.25390625","-0.66503906","0.71191406","-33.8125","-14.6875","-27.9375"
"1574875632434","69","-0.23730469","-0.6435547","0.64453125","-34.5","-13.59375","-29.625"
"1574875632828","70","-0.19140625","-0.62109375","0.6455078","-38.21875","-16.34375","-26.59375"
"1574875632828","71","-0.16992188","-0.6533203","0.6376953","-46.5625","-18.65625","-27.0"
"1574875632829","72","-0.19628906","-0.69921875","0.5888672","-45.90625","-18.59375","-30.96875"
"1574875632830","73","-0.15429688","-0.7167969","0.59375","-59.6875","-17.875","-30.1875"
"1574875632830","74","-0.16015625","-0.796875","0.5341797","-62.75","-15.96875","-32.03125"
"1574875632830","75","-0.10449219","-0.80078125","0.5234375","-49.15625","-19.5625","-30.5625"
"1574875632830","76","-0.078125","-0.80566406","0.48828125","-54.875","-22.3125","-31.84375"
"1574875632831","77","-0.06933594","-0.81152344","0.47460938","-48.90625","-20.4375","-25.0"
"1574875632831","78","-0.0126953125","-0.8417969","0.42285156","-45.71875","-25.6875","-27.375"
"1574875632831","79","0.020507812","-0.8984375","0.390625","-54.8125","-24.46875","-27.875"
"1574875633226","80","0.0146484375","-0.89941406","0.37304688","-52.3125","-24.21875","-27.0"
"1574875633227","81","0.061523438","-0.8925781","0.35058594","-37.78125","-27.09375","-23.65625"
"1574875633227","82","0.06542969","-0.9326172","0.33789062","-49.75","-25.75","-23.15625"
"1574875633227","83","0.12988281","-0.8847656","0.28320312","-37.53125","-28.0625","-25.96875"
"1574875633228","84","0.10839844","-0.93359375","0.28320312","-39.625","-26.78125","-22.875"
"1574875633229","85","0.11816406","-0.94140625","0.22753906","-26.4375","-21.53125","-27.5625"
"1574875633230","86","0.15917969","-0.89453125","0.21191406","-37.96875","-23.125","-24.5"
"1574875633230","87","0.19921875","-0.953125","0.20605469","-41.375","-24.875","-24.34375"
"1574875633230","88","0.20410156","-0.9472656","0.18359375","-28.75","-23.53125","-24.875"
"1574875633231","89","0.21582031","-0.8671875","0.13964844","-26.875","-26.59375","-22.8125"
"1574875633623","90","0.24023438","-0.91796875","0.13574219","-27.78125","-23.90625","-21.40625"
"1574875633623","91","0.20703125","-0.9169922","0.10546875","-25.28125","-19.625","-22.0625"
"1574875633623","92","0.25","-0.9189453","0.10058594","-26.0625","-20.84375","-19.3125"
"1574875633624","93","0.265625","-0.9453125","0.08496094","-24.1875","-20.5625","-20.78125"
"1574875633624","94","0.2705078","-0.94433594","0.078125","-23.09375","-18.21875","-20.84375"
"1574875633624","95","0.2998047","-0.8798828","0.0546875","-16.1875","-18.09375","-20.25"
"1574875633625","96","0.30273438","-0.91503906","0.024414062","-8.90625","-16.53125","-17.8125"
"1574875633625","97","0.3154297","-0.9189453","0.022460938","-7.40625","-12.78125","-15.1875"
"1574875633625","98","0.3203125","-0.90625","0.040039062","-6.40625","-23.90625","-13.40625"
"1574875633626","99","0.32617188","-0.9316406","-0.0146484375","-6.65625","-22.625","-12.71875"
"1574875634217","100","0.32128906","-0.96484375","0.015625","-13.875","-26.59375","-10.34375"
"1574875634218","101","0.31347656","-0.9296875","0.0546875","-15.75","-24.28125","-6.4375"
"1574875634218","102","0.3515625","-0.94433594","0.018554688","-10.875","-17.625","-9.125"
"1574875634219","103","0.34277344","-0.9238281","-0.024414062","-10.09375","-17.0","-8.71875"
"1574875634219","104","0.34765625","-0.90722656","-0.00390625","-11.90625","-17.6875","-7.65625"
"1574875634219","105","0.35839844","-0.91503906","-0.040039062","-3.5625","-15.71875","-5.84375"
"1574875634219","106","0.34960938","-0.90234375","-0.041992188","2.5625","-22.125","-3.46875"
"1574875634220","107","0.3642578","-0.9238281","-0.04296875","3.28125","-15.71875","-1.0"
"1574875634220","108","0.35058594","-0.94921875","-0.044921875","1.21875","-13.78125","0.8125"
"1574875634221","109","0.3671875","-0.9277344","-0.072265625","-1.46875","-7.25","-2.21875"
"1574875634418","110","0.36914062","-0.9248047","-0.060546875","-3.25","-6.375","-2.125"
"1574875634419","111","0.36914062","-0.9160156","-0.055664062","-1.40625","-4.6875","-3.5"
"1574875634419","112","0.37304688","-0.92089844","-0.07421875","0.71875","-2.90625","-1.6875"
"1574875634419","113","0.39453125","-0.93359375","-0.08203125","3.71875","0.4375","-0.71875"
"1574875634420","114","0.3701172","-0.8886719","-0.07519531","5.125","5.625","2.21875"
"1574875634420","115","0.4091797","-0.890625","-0.0625","8.28125","7.78125","3.9375"
"1574875634420","116","0.3720703","-0.9189453","-0.08300781","10.96875","6.125","5.15625"
"1574875634420","117","0.3828125","-0.9082031","-0.06933594","14.34375","10.03125","7.15625"
"1574875634420","118","0.38183594","-0.9140625","-0.06933594","15.1875","16.625","7.59375"
"1574875634421","119","0.38476562","-0.9091797","-0.043945312","17.6875","17.0","8.75"
"1574875634815","120","0.3720703","-0.92285156","-0.045898438","15.375","13.8125","11.6875"
"1574875634816","121","0.3720703","-0.9160156","-0.043945312","13.53125","14.78125","11.75"
"1574875634816","122","0.3857422","-0.9277344","-0.029296875","18.90625","16.5625","13.875"
"1574875634817","123","0.3779297","-0.9169922","0.0107421875","11.09375","10.09375","13.875"
"1574875634817","124","0.35253906","-0.9375","-0.00390625","17.3125","10.53125","14.84375"
"1574875634817","125","0.30664062","-0.9238281","0.05078125","15.0","10.09375","15.71875"
"1574875634817","126","0.30273438","-0.9316406","0.05078125","16.28125","12.96875","15.53125"
"1574875634818","127","0.28710938","-0.9511719","0.045898438","16.84375","15.46875","16.0625"
"1574875634818","128","0.2939453","-0.9560547","0.115234375","16.78125","16.625","17.53125"
"1574875634818","129","0.24121094","-0.9326172","0.12890625","16.21875","17.0","16.5625"
"1574875635214","130","0.26367188","-0.92578125","0.12109375","19.875","18.6875","17.46875"
"1574875635214","131","0.22265625","-0.9501953","0.14746094","16.96875","17.78125","17.84375"
"1574875635215","132","0.19628906","-0.92089844","0.16503906","20.0","20.28125","18.28125"
"1574875635216","133","0.21191406","-0.91015625","0.17578125","23.78125","23.40625","20.46875"
"1574875635216","134","0.15039062","-0.92871094","0.19238281","25.75","23.21875","21.625"
"1574875635217","135","0.17773438","-0.92089844","0.20214844","33.6875","25.84375","22.0625"
"1574875635217","136","0.14453125","-0.8886719","0.22753906","30.6875","23.65625","25.21875"
"1574875635217","137","0.14550781","-0.9189453","0.2548828","33.3125","23.53125","27.375"
"1574875635218","138","0.15722656","-0.92871094","0.23144531","32.65625","19.5","23.03125"
"1574875635218","139","0.083984375","-0.9404297","0.3095703","31.3125","13.25","26.75"
"1574875635612","140","0.046875","-0.8857422","0.31152344","31.25","19.375","25.84375"
"1574875635613","141","0.05078125","-0.91015625","0.33496094","28.25","15.28125","25.59375"
"1574875635613","142","0.048828125","-0.8808594","0.30664062","36.75","15.59375","25.78125"
"1574875635613","143","0.030273438","-0.92089844","0.4140625","32.46875","16.625","29.0625"
"1574875635613","144","-0.036132812","-0.87890625","0.37890625","36.375","10.09375","30.53125"
"1574875635615","145","0.0068359375","-0.8964844","0.41992188","30.6875","6.96875","27.1875"
"1574875635615","146","-0.08105469","-0.859375","0.45214844","37.15625","9.125","30.90625"
"1574875635615","147","-0.06738281","-0.8339844","0.39941406","36.1875","14.96875","29.9375"
"1574875635616","148","-0.0546875","-0.8066406","0.48046875","37.84375","12.78125","27.5"
"1574875635616","149","-0.15039062","-0.82910156","0.5107422","40.59375","7.71875","28.21875"
"1574875636008","150","-0.15429688","-0.8359375","0.50878906","38.5","11.125","25.34375"
"1574875636009","151","-0.12988281","-0.7441406","0.5205078","40.28125","14.375","27.125"
"1574875636009","152","-0.15625","-0.72265625","0.5683594","35.15625","7.28125","24.875"
"1574875636009","153","-0.21484375","-0.74316406","0.6191406","30.875","3.4375","24.5625"
"1574875636010","154","-0.21875","-0.7636719","0.5888672","32.40625","11.3125","25.78125"
"1574875636010","155","-0.14648438","-0.6826172","0.5957031","24.84375","7.78125","14.6875"
"1574875636010","156","-0.21679688","-0.66308594","0.6542969","31.375","-3.65625","11.75"
"1574875636011","157","-0.35742188","-0.6767578","0.6689453","16.96875","4.125","10.46875"
"1574875636011","158","-0.19726562","-0.66015625","0.6357422","-0.3125","6.375","8.875"
"1574875636011","159","-0.20800781","-0.5810547","0.6582031","-3.90625","-1.3125","7.09375"
"1574875636406","160","-0.31152344","-0.6738281","0.6738281","0.78125","-6.75","8.875"
"1574875636406","161","-0.2841797","-0.6953125","0.59472656","4.03125","3.9375","5.59375"
"1574875636407","162","-0.24609375","-0.6923828","0.64160156","-13.75","1.0","1.84375"
"1574875636407","163","-0.24804688","-0.6591797","0.59765625","-4.53125","-4.25","-0.34375"
"1574875636407","164","-0.2939453","-0.7109375","0.67578125","3.28125","-11.21875","-1.1875"
"1574875636408","165","-0.28222656","-0.69433594","0.6152344","-9.78125","-2.1875","0.8125"
"1574875636408","166","-0.22167969","-0.6933594","0.65234375","-22.21875","-10.34375","-5.03125"
"1574875636408","167","-0.27246094","-0.6953125","0.5810547","-23.25","-14.5","-9.1875"
"1574875636409","168","-0.19824219","-0.64746094","0.5888672","-29.1875","-24.6875","-15.21875"
"1574875636409","169","-0.203125","-0.74902344","0.5966797","-34.25","-30.625","-18.65625"
"1574875636802","170","-0.21777344","-0.765625","0.54296875","-44.6875","-39.28125","-25.3125"
"1574875636803","171","-0.11816406","-0.68847656","0.5292969","-54.03125","-41.0625","-28.125"
"1574875636803","172","-0.13964844","-0.74316406","0.46289062","-66.0625","-38.4375","-35.9375"
"1574875636803","173","-0.056640625","-0.68847656","0.44726562","-78.4375","-42.03125","-41.96875"
"1574875636804","174","-0.013671875","-0.6845703","0.47265625","-66.59375","-48.6875","-48.125"
"1574875636804","175","-0.1953125","-1.4345703","0.6894531","-97.3125","-33.3125","-33.4375"
"1574875636805","176","0.265625","-2.0","0.6796875","-67.4375","-3.40625","-56.375"
"1574875636805","177","0.18261719","-1.5166016","0.5205078","-30.46875","-3.46875","-33.96875"
"1574875636806","178","0.099609375","-0.8066406","0.2763672","-22.78125","-6.28125","-28.78125"
"1574875636806","179","0.009765625","-0.47265625","0.19335938","-38.09375","-8.53125","-36.21875"
"1574875637201","180","0.16503906","-0.65722656","0.08886719","-46.53125","-15.71875","-41.40625"
"1574875637203","181","0.16308594","-0.7363281","0.13769531","-45.65625","-22.3125","-40.6875"
"1574875637203","182","0.15429688","-0.8046875","0.10839844","-55.84375","-20.59375","-31.78125"
"1574875637204","183","0.19726562","-1.1435547","0.14453125","-62.4375","-20.0625","-29.28125"
"1574875637204","184","0.28320312","-1.2070312","0.07128906","-44.4375","-8.84375","-26.28125"
"1574875637204","185","0.3154297","-1.0107422","-0.0234375","-24.71875","-3.21875","-14.4375"
"1574875637204","186","0.32910156","-0.8486328","0.025390625","-9.90625","-9.6875","-10.28125"
"1574875637205","187","0.24023438","-0.86035156","-0.03125","-6.1875","-7.0625","-9.875"
"1574875637205","188","0.3466797","-0.82910156","-0.08300781","-4.46875","-9.375","-11.375"
"1574875637205","189","0.27929688","-0.96191406","0.0029296875","-13.3125","-2.65625","-15.28125"
"1574875637598","190","0.30664062","-1.0263672","-0.018554688","-13.375","4.96875","-13.03125"
"1574875637599","191","0.39941406","-0.8935547","-0.036132812","-10.1875","0.03125","-10.59375"
"1574875637599","192","0.2783203","-0.9248047","0.06347656","10.90625","-4.9375","-5.59375"
"1574875637601","193","0.28027344","-0.95410156","-0.0126953125","-1.96875","5.21875","-7.46875"
"1574875637601","194","0.3515625","-0.87597656","-0.024414062","4.9375","4.28125","-6.5"
"1574875637602","195","0.33398438","-0.9345703","-0.01953125","1.875","1.78125","-4.3125"
"1574875637602","196","0.38183594","-0.9433594","-0.080078125","-8.8125","3.625","-0.28125"
"1574875637602","197","0.4013672","-0.9277344","-0.013671875","-5.9375","5.6875","3.3125"
"1574875637603","198","0.3076172","-0.93652344","0.013671875","16.28125","4.15625","6.4375"
"1574875637603","199","0.2626953","-0.9423828","0.041992188","26.0625","9.96875","11.125"
"1574875638192","200","0.24902344","-0.9169922","0.03125","33.1875","20.09375","12.34375"
"1574875638192","201","0.34277344","-0.89941406","0.07324219","28.0625","29.1875","12.53125"
"1574875638192","202","0.29492188","-0.93066406","0.123046875","33.0","21.1875","15.28125"
"1574875638193","203","0.25","-0.97753906","0.15039062","29.78125","20.53125","17.46875"
"1574875638193","204","0.29101562","-0.92285156","0.15625","33.25","24.375","22.59375"
"1574875638194","205","0.3095703","-0.95410156","0.19824219","39.78125","11.9375","23.28125"
"1574875638195","206","0.20507812","-0.9433594","0.2548828","51.25","1.90625","26.34375"
"1574875638195","207","0.13671875","-0.89746094","0.23730469","43.8125","3.1875","29.5"
"1574875638195","208","0.19628906","-0.9375","0.2626953","47.28125","11.8125","28.46875"
"1574875638195","209","0.17382812","-0.8955078","0.31933594","48.15625","21.5","32.5625"
"1574875638393","210","0.13085938","-0.89453125","0.3173828","42.90625","22.25","33.53125"
"1574875638393","211","0.16601562","-0.8769531","0.34765625","39.125","23.34375","34.625"
"1574875638393","212","0.119140625","-0.9121094","0.41015625","43.75","18.5625","35.59375"
"1574875638394","213","0.07714844","-0.953125","0.4169922","49.90625","19.84375","33.34375"
"1574875638394","214","0.068359375","-0.9355469","0.49023438","45.34375","20.90625","32.75"
"1574875638394","215","-0.022460938","-0.9238281","0.546875","45.28125","24.3125","37.5625"
"1574875638394","216","0.018554688","-0.90625","0.62597656","45.09375","24.1875","40.84375"
"1574875638395","217","-0.11425781","-0.9609375","0.62109375","53.28125","11.375","33.15625"
"1574875638396","218","-0.119140625","-0.7988281","0.6425781","51.3125","17.40625","32.0"
"1574875638396","219","-0.10644531","-0.7480469","0.734375","49.1875","20.03125","28.90625"
"1574875638791","220","-0.25976562","-0.79785156","0.7363281","49.625","13.9375","29.625"
"1574875638791","221","-0.16308594","-0.7753906","0.7314453","38.875","19.3125","23.03125"
"1574875638791","222","-0.22851562","-0.75878906","0.8095703","37.15625","3.9375","24.6875"
"1574875638792","223","-0.25097656","-0.7294922","0.6972656","38.3125","11.8125","18.40625"
"1574875638792","224","-0.24414062","-0.6875","0.7011719","37.28125","25.34375","17.34375"
"1574875638792","225","-0.2841797","-0.69628906","0.79785156","32.46875","30.96875","17.71875"
"1574875638792","226","-0.19042969","-0.62890625","0.7949219","29.46875","17.0625","10.78125"
"1574875638793","227","-0.28320312","-0.6152344","0.7294922","26.65625","15.09375","7.09375"
"1574875638793","228","-0.32617188","-0.64160156","0.6982422","21.46875","12.28125","2.59375"
"1574875638794","229","-0.3251953","-0.5908203","0.71972656","13.40625","17.28125","-5.09375"
"1574875639188","230","-0.3095703","-0.5605469","0.7558594","6.09375","16.75","-5.53125"
"1574875639188","231","-0.29492188","-0.5576172","0.76953125","-1.09375","10.6875","-9.125"
"1574875639189","232","-0.30078125","-0.5722656","0.7392578","-7.6875","5.4375","-12.84375"
"1574875639189","233","-0.32226562","-0.60839844","0.77441406","-13.625","0.21875","-15.71875"
"1574875639189","234","-0.2841797","-0.5673828","0.70410156","-12.15625","4.96875","-14.0625"
"1574875639190","235","-0.22949219","-0.57421875","0.63183594","-17.9375","2.9375","-16.53125"
"1574875639190","236","-0.28027344","-0.5654297","0.66503906","-28.9375","-1.875","-18.28125"
"1574875639190","237","-0.25976562","-0.60253906","0.66503906","-32.0","-5.96875","-17.5"
"1574875639190","238","-0.21875","-0.5966797","0.63671875","-34.375","-6.3125","-26.53125"
"1574875639191","239","-0.21289062","-0.6933594","0.6582031","-37.3125","-20.59375","-22.375"
"1574875639782","240","-0.25585938","-0.70410156","0.60839844","-49.8125","-13.90625","-27.75"
"1574875639784","241","-0.16210938","-0.7685547","0.6230469","-48.34375","-12.3125","-25.1875"
"1574875639785","242","-0.18457031","-0.76171875","0.59277344","-50.25","-15.125","-31.03125"
"1574875639785","243","-0.14746094","-0.7421875","0.51171875","-51.53125","-13.65625","-32.25"
"1574875639786","244","-0.08300781","-0.7548828","0.5107422","-51.78125","-17.5","-29.09375"
"1574875639786","245","-0.1328125","-0.8691406","0.48339844","-53.71875","-23.21875","-27.875"
"1574875639786","246","-0.06738281","-0.8730469","0.46191406","-56.96875","-19.75","-33.375"
"1574875639786","247","-0.015625","-0.85839844","0.41601562","-57.3125","-21.03125","-31.71875"
"1574875639787","248","0.018554688","-0.89746094","0.36914062","-54.5","-24.5625","-31.65625"
"1574875639787","249","0.01953125","-0.8886719","0.3388672","-53.65625","-28.0","-32.6875"
"1574875639983","250","0.037109375","-0.87402344","0.3154297","-55.5","-26.78125","-31.09375"
"1574875639984","251","0.057617188","-0.89453125","0.23046875","-52.75","-26.78125","-30.75"
"1574875639984","252","0.10546875","-0.93847656","0.23242188","-50.4375","-23.96875","-31.03125"
"1574875639985","253","0.09863281","-0.96191406","0.20800781","-53.65625","-22.375","-29.28125"
"1574875639985","254","0.11328125","-0.9189453","0.18164062","-56.59375","-18.34375","-28.59375"
"1574875639986","255","0.15625","-0.953125","0.16210938","-43.71875","-17.3125","-29.40625"
"1574875639986","256","0.18652344","-0.9248047","0.09863281","-41.5625","-16.75","-28.78125"
"1574875639986","257","0.2265625","-0.90527344","0.08203125","-44.1875","-18.09375","-27.1875"
"1574875639986","258","0.20898438","-0.9248047","0.038085938","-24.84375","-17.0","-23.84375"
"1574875639987","259","0.21777344","-0.9121094","0.05859375","-16.625","-17.4375","-23.15625"
"1574875640577","260","0.22460938","-0.89453125","0.029296875","-15.625","-17.625","-24.375"
"1574875640578","261","0.27734375","-0.8886719","0.01171875","-8.125","-17.5625","-18.15625"
"1574875640578","262","0.23046875","-0.90234375","0.0048828125","1.40625","-17.75","-17.5"
"1574875640578","263","0.2734375","-0.91796875","0.0546875","-5.3125","-16.59375","-12.4375"
"1574875640579","264","0.29492188","-1.0644531","0.034179688","-9.09375","-22.0625","-14.8125"
"1574875640580","265","0.3017578","-0.96191406","-0.0146484375","1.9375","-18.21875","-16.28125"
"1574875640581","266","0.29882812","-0.85546875","0.0087890625","-7.40625","-22.1875","-9.1875"
"1574875640581","267","0.2734375","-0.9511719","0.005859375","1.53125","-22.75","-11.28125"
"1574875640582","268","0.31054688","-0.9355469","0.061523438","4.6875","-21.59375","-9.1875"
"1574875640582","269","0.33398438","-0.9580078","-0.0029296875","3.34375","-15.53125","-10.03125"
"1574875640780","270","0.27246094","-0.9638672","0.048828125","0.0","-18.0","-7.84375"
"1574875640781","271","0.30664062","-0.91796875","-0.005859375","2.5625","-18.46875","-4.75"
"1574875640781","272","0.2919922","-0.93652344","0.06738281","-1.59375","-17.3125","-4.125"
"1574875640781","273","0.2890625","-0.9355469","0.0625","3.53125","-12.90625","-1.8125"
"1574875640782","274","0.31152344","-0.9550781","0.053710938","-2.3125","-2.65625","-0.84375"
"1574875640782","275","0.28808594","-0.93847656","0.057617188","-1.53125","1.59375","-1.5"
"1574875640782","276","0.31835938","-0.9160156","0.0048828125","-2.9375","8.5625","-0.15625"
"1574875640784","277","0.34375","-0.91308594","0.0029296875","2.8125","12.84375","1.90625"
"1574875640784","278","0.35742188","-0.8964844","0.017578125","6.28125","14.4375","4.59375"
"1574875640784","279","0.34960938","-0.89453125","-0.0029296875","11.21875","14.0","6.125"
"1574875641374","280","0.33984375","-0.9160156","0.0234375","15.0","13.9375","8.375"
"1574875641374","281","0.34179688","-0.9277344","0.036132812","20.3125","14.5625","9.3125"
"1574875641374","282","0.32714844","-0.91503906","0.053710938","21.40625","17.0","10.875"
"1574875641375","283","0.30664062","-0.9042969","0.08300781","21.28125","18.34375","15.84375"
"1574875641375","284","0.2578125","-0.9121094","0.08300781","21.96875","19.3125","19.125"
"1574875641375","285","0.24707031","-0.92871094","0.111328125","19.875","22.90625","21.21875"
"1574875641375","286","0.24316406","-0.8876953","0.11816406","19.21875","21.9375","23.9375"
"1574875641375","287","0.19726562","-0.96484375","0.18261719","20.9375","26.9375","26.8125"
"1574875641376","288","0.13964844","-0.921875","0.12792969","22.09375","33.84375","26.8125"
"1574875641377","289","0.203125","-0.91015625","0.10449219","26.84375","36.46875","31.65625"
"1574875641573","290","0.1953125","-0.9140625","0.20117188","26.59375","39.5625","35.96875"
"1574875641573","291","0.091796875","-0.90527344","0.21289062","29.28125","35.375","40.5625"
"1574875641573","292","0.14941406","-0.90234375","0.19433594","20.375","36.8125","43.0625"
"1574875641573","293","0.109375","-0.93359375","0.27734375","39.0","34.5625","46.15625"
"1574875641574","294","-0.018554688","-0.9667969","0.25878906","41.875","36.875","43.96875"
"1574875641574","295","0.1328125","-0.8076172","0.2861328","19.21875","33.03125","37.5"
"1574875641574","296","-0.095703125","-0.9892578","0.3466797","42.53125","26.5625","43.96875"
"1574875641574","297","0.025390625","-0.984375","0.1953125","55.90625","-2.53125","27.5625"
"1574875641575","298","-0.09082031","-0.85058594","0.4013672","31.78125","21.4375","39.40625"
"1574875641575","299","-0.11425781","-0.8232422","0.3779297","49.25","14.3125","36.46875"
"1574875641971","300","0.0029296875","-0.8486328","0.34277344","48.8125","-2.25","29.375"
"1574875641972","301","-0.20507812","-0.80371094","0.44335938","76.96875","23.9375","36.03125"
"1574875641973","302","-0.15625","-0.76464844","0.4091797","64.625","7.21875","37.625"
"1574875641973","303","-0.18164062","-0.82714844","0.57910156","62.96875","23.875","33.40625"
"1574875641973","304","-0.23046875","-0.79296875","0.58496094","62.5625","9.34375","30.96875"
"1574875641974","305","-0.25390625","-0.75097656","0.5449219","65.78125","16.8125","21.15625"
"1574875641974","306","-0.25","-0.6933594","0.6044922","58.03125","13.5625","22.65625"
"1574875641974","307","-0.2783203","-0.67871094","0.6308594","49.6875","13.8125","19.625"
"1574875641974","308","-0.40820312","-0.6933594","0.7705078","24.78125","24.125","17.78125"
"1574875641975","309","-0.2939453","-0.6142578","0.62402344","26.34375","17.34375","12.71875"
"1574875642368","310","-0.30273438","-0.5625","0.6826172","26.25","8.9375","8.375"
"1574875642369","311","-0.3857422","-0.6298828","0.72558594","13.65625","4.0625","7.09375"
"1574875642369","312","-0.3515625","-0.55078125","0.6220703","4.8125","-4.4375","2.15625"
"1574875642370","313","-0.31445312","-0.5371094","0.67285156","2.1875","-11.9375","-0.03125"
"1574875642371","314","-0.3642578","-0.5966797","0.74121094","-12.15625","-19.28125","-1.375"
"1574875642371","315","-0.3466797","-0.6816406","0.7675781","-25.8125","-32.875","-10.40625"
"1574875642371","316","-0.3076172","-0.6386719","0.71777344","-28.21875","-33.90625","-17.5625"
"1574875642371","317","-0.2890625","-0.68359375","0.7060547","-40.0","-32.8125","-19.375"
"1574875642372","318","-0.2861328","-0.66308594","0.7089844","-50.3125","-22.1875","-25.84375"
"1574875642372","319","-0.16210938","-0.62890625","0.5595703","-43.46875","-20.3125","-29.6875"
"1574875642965","320","-0.1875","-0.74902344","0.6357422","-56.46875","-34.53125","-34.71875"
"1574875642965","321","-0.1796875","-0.75683594","0.5439453","-50.0625","-30.5","-39.15625"
"1574875642965","322","-0.14355469","-0.8408203","0.5878906","-65.3125","-28.71875","-42.03125"
"1574875642965","323","-0.030273438","-0.90625","0.5019531","-70.5","-34.59375","-39.53125"
"1574875642966","324","-0.03125","-0.82128906","0.5673828","-70.0","-39.28125","-41.28125"
"1574875642967","325","-0.052734375","-0.90722656","0.4404297","-70.8125","-44.21875","-38.125"
"1574875642967","326","0.017578125","-0.8769531","0.38183594","-84.96875","-34.71875","-40.125"
"1574875642968","327","0.028320312","-1.0273438","0.3701172","-92.21875","-28.90625","-35.125"
"1574875642968","328","0.026367188","-1.3271484","0.48535156","-62.9375","-1.6875","-31.15625"
"1574875642968","329","0.13769531","-1.3583984","0.4423828","-47.0625","-4.5625","-27.375"
"1574875643163","330","0.15039062","-0.9501953","0.29785156","-38.8125","-4.375","-20.53125"
"1574875643164","331","0.12011719","-0.98828125","0.140625","-23.375","-4.5","-15.1875"
"1574875643164","332","0.10546875","-0.86816406","0.0703125","-13.375","-3.21875","-21.40625"
"1574875643164","333","0.22070312","-0.82421875","0.059570312","-19.46875","-11.5","-22.3125"
"1574875643164","334","0.22558594","-0.9238281","0.040039062","-32.25","-12.96875","-22.625"
"1574875643165","335","0.23632812","-1.0585938","0.057617188","-20.46875","-11.5","-25.84375"
"1574875643165","336","0.26367188","-1.0566406","0.16992188","-24.78125","-14.03125","-22.1875"
"1574875643167","337","0.15429688","-1.0","0.18359375","-18.8125","-11.6875","-25.0"
"1574875643167","338","0.24609375","-0.9628906","0.09082031","-24.3125","-4.0","-20.375"
"1574875643168","339","0.2919922","-0.8955078","0.10839844","-17.46875","1.90625","-14.875"
"1574875644155","340","0.25683594","-0.86816406","0.046875","-13.6875","8.4375","-10.03125"
"1574875644156","341","0.3466797","-0.9355469","0.0048828125","-18.9375","4.65625","-8.59375"
"1574875644156","342","0.3408203","-0.93847656","0.051757812","-18.0625","-0.78125","-7.78125"
"1574875644156","343","0.26953125","-0.98339844","0.022460938","-9.65625","3.8125","3.5625"
"1574875644157","344","0.3095703","-0.9501953","-0.022460938","-7.46875","9.90625","6.375"
"1574875644157","345","0.33789062","-0.90625","-0.0078125","12.3125","12.40625","10.15625"
"1574875644157","346","0.2734375","-0.91503906","0.047851562","20.875","11.375","14.0625"
"1574875644158","347","0.24414062","-0.8984375","0.037109375","23.0","9.25","20.78125"
"1574875644158","348","0.28222656","-0.9091797","0.05078125","31.0625","11.4375","29.3125"
"1574875644159","349","0.18164062","-0.93066406","0.078125","36.75","13.375","28.09375"
"1574875644352","350","0.2109375","-0.9667969","0.09765625","44.0","14.4375","28.78125"
"1574875644353","351","0.22363281","-0.9482422","0.06542969","47.53125","22.59375","32.625"
"1574875644353","352","0.24414062","-0.9560547","0.16210938","48.5","21.75","35.78125"
"1574875644353","353","0.10546875","-0.96484375","0.18457031","65.1875","14.375","37.6875"
"1574875644353","354","0.17285156","-0.9169922","0.19824219","63.96875","3.4375","45.625"
"1574875644354","355","0.10058594","-0.9453125","0.38378906","60.40625","11.5625","47.09375"
"1574875644354","356","-9.765625E-4","-1.0478516","0.51171875","75.1875","20.21875","40.625"
"1574875644354","357","-0.08691406","-1.1367188","0.640625","69.875","7.46875","30.90625"
"1574875644354","358","-0.13574219","-1.0820312","0.7597656","65.78125","16.8125","34.375"
"1574875644355","359","-0.20117188","-1.0820312","0.7529297","57.0","13.21875","22.5"
"1574875644550","360","-0.15625","-0.9638672","0.6738281","44.5","20.15625","26.03125"
"1574875644551","361","-0.10839844","-0.9316406","0.6113281","37.03125","25.28125","21.03125"
"1574875644551","362","-0.15429688","-0.8730469","0.63378906","36.78125","25.09375","15.90625"
"1574875644552","363","-0.24316406","-0.8066406","0.6738281","35.34375","29.5625","14.5625"
"1574875644552","364","-0.18359375","-0.7705078","0.68066406","32.40625","32.0","12.15625"
"1574875644552","365","-0.21582031","-0.7841797","0.6455078","19.15625","29.25","11.375"
"1574875644552","366","-0.13769531","-0.7138672","0.5703125","6.03125","18.15625","4.3125"
"1574875644552","367","-0.21972656","-0.6923828","0.5966797","2.90625","15.34375","4.53125"
"1574875644552","368","-0.19726562","-0.73339844","0.5361328","-11.78125","14.65625","-5.84375"
"1574875644553","369","-0.15722656","-0.69433594","0.5751953","-18.8125","9.3125","-6.5625"
"1574875644753","370","-0.21679688","-0.7363281","0.5419922","-26.9375","-0.96875","-8.75"
"1574875644753","371","-0.20117188","-0.73828125","0.54589844","-32.59375","-1.4375","-15.1875"
"1574875644753","372","-0.18652344","-0.7890625","0.5732422","-42.90625","-8.59375","-18.71875"
"1574875644754","373","-0.22753906","-0.7636719","0.49121094","-23.625","-9.75","-22.3125"
"1574875644754","374","-0.20410156","-0.82910156","0.46875","-31.5625","-10.96875","-27.8125"
"1574875644754","375","-0.13671875","-0.76464844","0.45507812","-38.15625","-2.96875","-31.40625"
"1574875644755","376","-0.047851562","-0.7402344","0.44921875","-34.6875","-13.65625","-29.15625"
"1574875644755","377","-0.037109375","-0.83691406","0.4189453","-35.78125","-22.875","-26.9375"
"1574875644755","378","-0.087890625","-0.8779297","0.40429688","-35.84375","-29.03125","-30.625"
"1574875644755","379","-0.056640625","-0.8652344","0.3486328","-38.71875","-24.5625","-34.03125"
"1574875645549","380","0.0087890625","-0.8564453","0.34570312","-39.3125","-27.03125","-33.65625"
"1574875645549","381","0.00390625","-0.8300781","0.32128906","-35.28125","-25.5","-31.84375"
"1574875645550","382","0.026367188","-0.87402344","0.32421875","-41.21875","-29.15625","-30.3125"
"1574875645550","383","0.034179688","-0.9042969","0.26464844","-35.15625","-25.375","-31.59375"
"1574875645550","384","0.083984375","-0.9355469","0.28027344","-45.0","-27.125","-31.03125"
"1574875645552","385","0.12890625","-0.92089844","0.24511719","-44.625","-24.03125","-32.3125"
"1574875645552","386","0.12402344","-0.98535156","0.20898438","-35.90625","-25.96875","-31.09375"
"1574875645552","387","0.16601562","-0.9199219","0.18457031","-33.5625","-24.5","-30.125"
"1574875645554","388","0.20605469","-0.87402344","0.16796875","-28.34375","-20.71875","-29.53125"
"1574875645554","389","0.19824219","-0.8857422","0.14453125","-28.625","-23.46875","-25.625"
"1574875646142","390","0.21386719","-0.94140625","0.13964844","-29.25","-24.8125","-26.03125"
"1574875646143","391","0.22460938","-0.89746094","0.12988281","-28.09375","-23.65625","-26.78125"
"1574875646143","392","0.2421875","-0.875","0.11425781","-29.0","-22.8125","-20.84375"
"1574875646144","393","0.2626953","-0.9169922","0.0859375","-30.53125","-21.53125","-18.84375"
"1574875646144","394","0.32128906","-0.9169922","0.033203125","-26.5","-21.21875","-18.03125"
"1574875646144","395","0.29589844","-0.9267578","0.028320312","-11.59375","-28.25","-13.90625"
"1574875646144","396","0.2841797","-0.9169922","0.017578125","-7.9375","-23.46875","-10.96875"
"1574875646146","397","0.29785156","-0.9160156","0.046875","-9.53125","-25.6875","-10.0"
"1574875646146","398","0.296875","-0.93066406","0.028320312","-12.71875","-23.65625","-10.53125"
"1574875646147","399","0.27929688","-0.921875","-0.001953125","-12.28125","-23.78125","-9.625"
"1574875646341","400","0.2919922","-0.9423828","0.015625","-13.8125","-19.6875","-7.0"
"1574875646343","401","0.32421875","-0.9091797","-0.0078125","-12.59375","-18.46875","-4.0625"
"1574875646343","402","0.3486328","-0.9267578","-0.0234375","-9.15625","-19.3125","-3.5"
"1574875646343","403","0.33691406","-0.9472656","-0.0107421875","7.1875","-21.40625","0.9375"
"1574875646343","404","0.29296875","-0.94628906","0.0048828125","10.3125","-16.6875","2.28125"
"1574875646344","405","0.296875","-0.9501953","-0.022460938","5.71875","-7.25","2.84375"
"1574875646344","406","0.3203125","-0.9355469","-0.03515625","5.71875","0.4375","3.5625"
"1574875646344","407","0.31933594","-0.93066406","-0.03125","9.5","4.28125","5.34375"
"1574875646344","408","0.328125","-0.9316406","-0.030273438","7.875","9.53125","6.875"
"1574875646346","409","0.3251953","-0.9267578","-0.01171875","10.0","13.3125","5.9375"
"1574875646538","410","0.3095703","-0.9316406","0.0126953125","10.1875","19.1875","6.5"
"1574875646539","411","0.31445312","-0.9404297","0.0078125","11.21875","22.125","6.4375"
"1574875646539","412","0.29882812","-0.9199219","0.017578125","14.15625","23.53125","8.03125"
"1574875646539","413","0.28808594","-0.9355469","0.01953125","14.59375","24.75","9.71875"
"1574875646539","414","0.2705078","-0.9345703","0.038085938","13.53125","25.09375","12.78125"
"1574875646540","415","0.2763672","-0.94433594","0.043945312","13.78125","22.84375","15.84375"
"1574875646540","416","0.2685547","-0.9511719","0.08691406","11.65625","25.09375","18.40625"
"1574875646540","417","0.2529297","-0.9472656","0.08691406","14.875","24.125","20.96875"
"1574875646540","418","0.23925781","-0.890625","0.03515625","21.21875","21.3125","21.21875"
"1574875646541","419","0.24707031","-0.9267578","0.08105469","19.59375","17.90625","26.09375"
"1574875646743","420","0.20019531","-0.9091797","0.07714844","18.0","21.125","25.71875"
"1574875646745","421","0.1484375","-1.0039062","0.15136719","32.875","25.40625","30.0625"
"1574875646745","422","0.15722656","-0.9580078","0.17675781","28.0","31.15625","26.875"
"1574875646746","423","0.20117188","-0.8984375","0.18554688","30.5","27.71875","30.125"
"1574875646746","424","0.14550781","-0.9121094","0.1953125","26.96875","18.34375","30.59375"
"1574875646746","425","0.10546875","-0.9111328","0.2548828","23.125","11.5625","33.59375"
"1574875646747","426","0.029296875","-0.9169922","0.21875","27.21875","11.3125","34.875"
"1574875646747","427","0.0107421875","-0.9199219","0.24804688","30.4375","12.59375","35.0"
"1574875646747","428","0.036132812","-0.87402344","0.25976562","28.6875","16.9375","35.78125"
"1574875646747","429","-0.030273438","-0.8828125","0.27734375","34.125","17.0","40.0625"
"1574875647140","430","-0.038085938","-0.9111328","0.30859375","31.71875","15.59375","38.34375"
"1574875647140","431","-0.076171875","-0.92089844","0.3330078","28.6875","15.59375","38.96875"
"1574875647140","432","-0.09472656","-0.90722656","0.37890625","31.96875","16.375","34.875"
"1574875647142","433","-0.04296875","-0.83984375","0.32421875","41.96875","5.21875","33.15625"
"1574875647142","434","-0.1015625","-0.85839844","0.39746094","40.28125","11.1875","36.21875"
"1574875647143","435","-0.18554688","-0.8671875","0.43652344","39.1875","2.09375","31.6875"
"1574875647143","436","-0.2109375","-0.8691406","0.48828125","46.125","2.53125","28.09375"
"1574875647143","437","-0.28027344","-0.8203125","0.48632812","34.53125","8.6875","28.90625"
"1574875647144","438","-0.19335938","-0.8330078","0.45117188","42.03125","7.40625","29.5"
"1574875647144","439","-0.18457031","-0.7861328","0.5107422","33.4375","7.71875","21.75"
"1574875647536","440","-0.2705078","-0.7783203","0.53027344","60.0625","0.8125","17.90625"
"1574875647537","441","-0.24414062","-0.7236328","0.4892578","54.5625","-0.15625","14.3125"
"1574875647537","442","-0.21777344","-0.70703125","0.57910156","31.59375","3.1875","11.25"
"1574875647538","443","-0.26367188","-0.66015625","0.5888672","35.46875","-7.71875","7.09375"
"1574875647538","444","-0.35839844","-0.72558594","0.63183594","41.125","-8.28125","8.75"
"1574875647540","445","-0.3125","-0.7705078","0.62402344","20.875","1.5","10.15625"
"1574875647540","446","-0.2109375","-0.67089844","0.6279297","10.4375","5.625","-0.84375"
"1574875647540","447","-0.3544922","-0.67578125","0.73046875","13.53125","-3.28125","4.0625"
"1574875647541","448","-0.3251953","-0.7060547","0.71972656","7.3125","-11.28125","1.25"
"1574875647541","449","-0.27441406","-0.67089844","0.63964844","13.1875","-1.8125","-0.90625"
"1574875647932","450","-0.30566406","-0.6513672","0.6972656","10.3125","-3.875","-2.71875"
"1574875647933","451","-0.34472656","-0.6855469","0.69140625","-1.03125","-4.6875","-3.21875"
"1574875647933","452","-0.2548828","-0.71972656","0.74609375","-7.6875","-4.3125","-3.8125"
"1574875647933","453","-0.35839844","-0.6738281","0.72265625","-6.96875","-12.125","-8.34375"
"1574875647934","454","-0.21875","-0.7001953","0.68066406","-9.03125","-11.34375","-4.84375"
"1574875647934","455","-0.25976562","-0.6748047","0.69140625","-18.125","-12.84375","-8.03125"
"1574875647934","456","-0.25","-0.70214844","0.6972656","-19.28125","-15.125","-10.84375"
"1574875647936","457","-0.19726562","-0.6904297","0.64453125","-21.125","-17.5","-13.28125"
"1574875647936","458","-0.24902344","-0.7167969","0.66015625","-25.9375","-17.75","-14.5"
"1574875647936","459","-0.15917969","-0.69433594","0.6230469","-26.0625","-17.875","-16.875"
"1574875648529","460","-0.21679688","-0.7050781","0.6484375","-26.375","-18.65625","-17.5625"
"1574875648529","461","-0.18457031","-0.75","0.62890625","-32.0","-20.375","-19.8125"
"1574875648529","462","-0.15136719","-0.7216797","0.5986328","-39.625","-22.0","-22.5"
"1574875648530","463","-0.15917969","-0.7373047","0.5761719","-40.28125","-23.1875","-25.125"
"1574875648530","464","-0.12792969","-0.734375","0.5751953","-45.40625","-19.625","-25.1875"
"1574875648530","465","-0.12695312","-0.78808594","0.57421875","-49.03125","-20.78125","-28.53125"
"1574875648531","466","-0.064453125","-1.0019531","0.59472656","-78.9375","-14.6875","-32.8125"
"1574875648531","467","0.0107421875","-1.1582031","0.5185547","-84.71875","-18.40625","-39.53125"
"1574875648531","468","0.07519531","-1.1425781","0.41601562","-53.34375","-13.53125","-39.78125"
"1574875648532","469","0.123046875","-1.1240234","0.34375","-55.0","-15.53125","-41.1875"
"1574875648727","470","0.16503906","-1.0126953","0.25878906","-55.96875","-13.84375","-41.125"
"1574875648728","471","0.12011719","-0.90527344","0.23632812","-41.6875","-14.125","-36.0625"
"1574875648728","472","0.12011719","-0.8486328","0.21289062","-36.8125","-20.4375","-31.21875"
"1574875648728","473","0.14453125","-0.88378906","0.23242188","-47.0625","-21.09375","-28.46875"
"1574875648729","474","0.10449219","-0.9511719","0.23828125","-45.65625","-16.75","-26.65625"
"1574875648729","475","0.12011719","-0.9423828","0.22070312","-40.96875","-8.53125","-23.53125"
"1574875648729","476","0.18554688","-0.9746094","0.13574219","-29.625","-1.75","-21.15625"
"1574875648729","477","0.22265625","-1.0214844","0.14160156","-19.96875","-1.1875","-16.5625"
"1574875648730","478","0.22363281","-0.890625","0.08496094","1.40625","3.375","-18.59375"
"1574875648730","479","0.35058594","-0.8955078","0.057617188","-1.03125","3.8125","-13.84375"
"1574875649128","480","0.3076172","-0.91796875","0.10058594","-9.46875","-4.875","-14.75"
"1574875649128","481","0.29296875","-0.9082031","0.056640625","-7.28125","-13.21875","-12.1875"
"1574875649129","482","0.35546875","-0.9433594","-0.025390625","-2.9375","-15.59375","-10.84375"
"1574875649129","483","0.30859375","-0.9394531","0.0546875","-10.125","-10.1875","-11.4375"
"1574875649129","484","0.30664062","-0.9296875","0.10839844","0.34375","-8.84375","-9.0625"
"1574875649130","485","0.3203125","-0.9404297","0.048828125","8.78125","-5.34375","-10.03125"
"1574875649130","486","0.3955078","-0.875","0.040039062","-6.90625","-16.21875","-10.65625"
"1574875649130","487","0.4580078","-0.8808594","0.14746094","-10.875","-29.40625","-6.875"
"1574875649130","488","0.24902344","-1.0351562","0.078125","-18.4375","-23.96875","9.0625"
"1574875649131","489","0.29101562","-0.9824219","0.052734375","-17.40625","-13.28125","15.65625"
"1574875649524","490","0.23242188","-0.8720703","0.07910156","-7.40625","-14.5625","10.46875"
"1574875649524","491","0.22851562","-0.93359375","-0.032226562","1.625","-4.625","13.8125"
"1574875649525","492","0.23242188","-1.0214844","0.08105469","-5.875","11.0","16.625"
"1574875649526","493","0.119140625","-1.0244141","0.12988281","-6.125","25.53125","17.0625"
"1574875649526","494","0.19921875","-0.94433594","-0.05859375","9.5625","19.375","18.6875"
"1574875649526","495","0.20703125","-0.91308594","-0.053710938","20.375","32.0625","23.28125"
"1574875649527","496","0.18359375","-0.99316406","0.057617188","21.46875","47.3125","26.75"
"1574875649527","497","0.28222656","-0.9580078","-0.016601562","26.40625","27.78125","18.59375"
"1574875649527","498","0.2783203","-0.92285156","0.09765625","15.8125","16.8125","20.21875"
"1574875649528","499","0.23828125","-1.0029297","0.0126953125","8.0625","3.625","14.25"
"1574875650516","500","0.24121094","-0.9550781","0.1484375","22.21875","-9.5625","11.0"
"1574875650516","501","0.080078125","-0.9394531","0.17675781","37.15625","-14.09375","16.125"
"1574875650517","502","0.05859375","-0.9863281","0.18652344","31.0625","-3.53125","16.03125"
"1574875650517","503","0.14257812","-0.8828125","0.16796875","44.59375","7.09375","12.46875"
"1574875650517","504","0.07324219","-0.94140625","0.15429688","39.53125","9.40625","12.46875"
"1574875650518","505","0.18554688","-1.078125","0.19726562","26.3125","8.9375","11.0"
"1574875650518","506","0.10839844","-0.94140625","0.22558594","34.78125","4.0","9.125"
"1574875650518","507","0.064453125","-0.8574219","0.35839844","31.96875","4.15625","13.75"
"1574875650519","508","0.045898438","-0.99609375","0.36328125","34.96875","7.21875","11.1875"
"1574875650519","509","0.13574219","-0.8730469","0.31933594","41.5625","15.59375","12.59375"
"1574875650713","510","0.091796875","-0.8671875","0.39160156","43.5","8.8125","15.53125"
"1574875650714","511","0.043945312","-0.93066406","0.3671875","47.71875","11.6875","17.65625"
"1574875650714","512","0.068359375","-0.92089844","0.36328125","47.1875","20.90625","21.03125"
"1574875650714","513","-0.0078125","-0.9082031","0.45703125","50.71875","18.9375","23.78125"
"1574875650715","514","-0.037109375","-0.8730469","0.45117188","51.125","31.75","21.4375"
"1574875650715","515","0.038085938","-0.8222656","0.5625","42.40625","25.59375","21.4375"
"1574875650715","516","-0.1171875","-0.81640625","0.59277344","49.5625","17.125","27.25"
"1574875650717","517","-0.09863281","-0.8496094","0.6279297","41.25","26.8125","24.6875"
"1574875650717","518","0.015625","-0.765625","0.64453125","48.5","12.28125","26.15625"
"1574875650717","519","-0.1796875","-0.7890625","0.7529297","43.625","11.875","25.0625"
"1574875650911","520","-0.091796875","-0.7949219","0.7011719","40.9375","19.0625","20.78125"
"1574875650911","521","-0.19433594","-0.71191406","0.7558594","36.4375","8.625","10.09375"
"1574875650911","522","-0.20996094","-0.6972656","0.6699219","41.5625","14.65625","12.96875"
"1574875650912","523","-0.26171875","-0.7402344","0.6298828","30.4375","18.6875","5.625"
"1574875650912","524","-0.18359375","-0.6767578","0.7626953","26.53125","20.78125","5.15625"
"1574875650912","525","-0.23046875","-0.66015625","0.76953125","31.5","23.03125","4.1875"
"1574875650912","526","-0.15136719","-0.6113281","0.7080078","29.59375","24.875","11.4375"
"1574875650913","527","-0.29785156","-0.6464844","0.7626953","22.75","25.09375","9.84375"
"1574875650913","528","-0.24511719","-0.58203125","0.78222656","19.875","28.59375","10.8125"
"1574875650914","529","-0.33984375","-0.67089844","0.8105469","8.15625","24.875","4.65625"
"1574875651112","530","-0.22949219","-0.5332031","0.8076172","14.21875","21.6875","7.90625"
"1574875651113","531","-0.31835938","-0.5986328","0.8095703","14.875","11.8125","7.09375"
"1574875651113","532","-0.3046875","-0.5986328","0.76464844","18.59375","13.6875","7.46875"
"1574875651113","533","-0.2998047","-0.5830078","0.77734375","13.34375","7.59375","5.75"
"1574875651114","534","-0.3408203","-0.5732422","0.7294922","14.09375","13.25","3.0"
"1574875651114","535","-0.23828125","-0.54589844","0.7783203","9.40625","8.3125","7.03125"
"1574875651114","536","-0.4140625","-0.59472656","0.8417969","7.6875","6.75","6.1875"
"1574875651114","537","-0.51171875","-0.58984375","0.7626953","3.40625","12.34375","4.65625"
"1574875651115","538","-0.4736328","-0.5722656","0.6982422","-3.375","19.4375","-1.5625"
"1574875651115","539","-0.36328125","-0.45898438","0.8125","4.3125","18.5625","-5.34375"
"1574875651513","540","-0.38476562","-0.5029297","0.7373047","3.21875","16.1875","-4.6875"
"1574875651515","541","-0.39160156","-0.5449219","0.6972656","-5.75","8.6875","-6.09375"
"1574875651515","542","-0.34570312","-0.5371094","0.6533203","-15.15625","11.5625","-5.40625"
"1574875651515","543","-0.23535156","-0.5234375","0.6640625","-20.6875","5.28125","0.75"
"1574875651516","544","-0.2705078","-0.55078125","0.6923828","-28.375","-10.71875","-4.96875"
"1574875651516","545","-0.45996094","-0.5830078","0.70214844","-28.15625","-22.875","-2.78125"
"1574875651520","546","-0.4560547","-0.65625","0.68652344","-38.40625","-13.71875","-9.5"
"1574875651520","547","-0.51660156","-0.5800781","0.69140625","-25.46875","-15.71875","-16.03125"
"1574875651521","548","-0.56933594","-0.640625","0.6767578","-48.09375","4.125","-18.90625"
"1574875651521","549","-0.24414062","-0.5517578","0.6230469","-50.4375","24.5625","-19.9375"
"1574875652105","550","-0.19726562","-0.6376953","0.55566406","-53.0","17.125","-11.03125"
"1574875652105","551","-0.35546875","-0.8144531","0.52441406","-57.375","4.78125","-14.0"
"1574875652106","552","-0.25683594","-0.73828125","0.53808594","-55.25","-7.5625","-22.0"
"1574875652107","553","-0.3046875","-0.7373047","0.5263672","-53.78125","-20.3125","-27.6875"
"1574875652108","554","-0.30664062","-0.7832031","0.52246094","-56.53125","-32.625","-34.9375"
"1574875652108","555","-0.29492188","-0.80078125","0.49902344","-50.1875","-27.625","-39.46875"
"1574875652108","556","-0.25878906","-0.8701172","0.49023438","-46.75","-29.59375","-40.75"
"1574875652108","557","-0.14648438","-0.89941406","0.43652344","-42.375","-28.96875","-46.125"
"1574875652109","558","-0.16113281","-0.88378906","0.390625","-49.1875","-31.71875","-47.71875"
"1574875652109","559","-0.15234375","-0.9082031","0.29589844","-54.5625","-32.75","-47.59375"
"1574875652306","560","-0.021484375","-0.8310547","0.24902344","-51.9375","-31.71875","-49.28125"
"1574875652306","561","0.0068359375","-0.83691406","0.234375","-51.71875","-36.96875","-48.375"
"1574875652306","562","-0.0029296875","-0.8925781","0.20019531","-59.6875","-39.84375","-48.0625"
"1574875652307","563","0.10839844","-0.91308594","0.20117188","-53.28125","-38.1875","-55.40625"
"1574875652307","564","0.06347656","-0.96191406","0.17871094","-48.34375","-37.40625","-52.59375"
"1574875652309","565","0.14160156","-0.9794922","0.12207031","-49.15625","-29.65625","-49.65625"
"1574875652309","566","0.19238281","-0.9199219","0.13476562","-38.71875","-30.25","-42.625"
"1574875652309","567","0.1328125","-0.9248047","0.09667969","-26.5625","-24.9375","-41.78125"
"1574875652310","568","0.18945312","-0.9394531","0.08203125","-25.875","-21.40625","-41.0"
"1574875652310","569","0.21289062","-0.9238281","0.049804688","-27.28125","-18.28125","-37.4375"
"1574875653298","570","0.29882812","-0.8671875","0.16796875","-16.5","-19.03125","-21.65625"
"1574875653298","571","0.26367188","-0.92089844","0.111328125","1.40625","-32.15625","-27.625"
"1574875653299","572","0.23925781","-0.90625","0.103515625","-33.625","-26.59375","-16.6875"
"1574875653299","573","0.29101562","-0.9736328","-0.00390625","-26.25","-26.28125","-16.21875"
"1574875653299","574","0.2919922","-0.9042969","-0.06347656","-27.78125","-24.28125","-15.0"
"1574875653300","575","0.3330078","-0.9140625","-0.09375","-28.15625","-22.0","-15.59375"
"1574875653300","576","0.3408203","-0.92089844","-0.018554688","-27.84375","-23.0","-16.21875"
"1574875653300","577","0.3623047","-0.9326172","-0.06347656","-20.625","-28.59375","-12.78125"
"1574875653301","578","0.3642578","-0.9609375","-0.103515625","-13.75","-25.125","-11.75"
"1574875653302","579","0.34179688","-0.93652344","-0.10546875","-11.84375","-20.4375","-11.15625"
"1574875653496","580","0.34765625","-0.89453125","-0.08984375","-11.1875","-20.59375","-9.875"
"1574875653496","581","0.32910156","-0.9140625","-0.07910156","-7.09375","-17.125","-6.6875"
"1574875653497","582","0.3251953","-0.9326172","-0.10546875","-2.5625","-11.34375","-1.9375"
"1574875653497","583","0.3515625","-0.9082031","-0.12597656","1.59375","-4.125","2.53125"
"1574875653497","584","0.37304688","-0.91015625","-0.12207031","5.3125","1.71875","8.8125"
"1574875653498","585","0.3544922","-0.9316406","-0.13085938","7.875","7.65625","12.53125"
"1574875653498","586","0.37402344","-0.91796875","-0.15917969","10.0625","12.65625","12.40625"
"1574875653498","587","0.3671875","-0.90234375","-0.12109375","18.0","14.0625","12.65625"
"1574875653499","588","0.34765625","-0.9033203","-0.11816406","19.34375","19.5","13.40625"
"1574875653500","589","0.3642578","-0.8964844","-0.14160156","23.0","21.625","12.34375"
"1574875653892","590","0.38476562","-0.86328125","-0.12597656","24.71875","20.34375","14.78125"
"1574875653892","591","0.3125","-0.92871094","-0.076171875","24.71875","20.53125","11.625"
"1574875653892","592","0.2890625","-0.9267578","0.00390625","24.15625","19.0","13.8125"
"1574875653893","593","0.3046875","-0.93359375","-0.046875","24.78125","20.53125","13.625"
"1574875653893","594","0.32714844","-0.9736328","-0.0087890625","30.6875","17.84375","19.5625"
"1574875653893","595","0.26757812","-0.96972656","-0.022460938","32.28125","18.875","20.28125"
"1574875653893","596","0.32617188","-0.9189453","-0.046875","30.4375","21.875","21.15625"
"1574875653894","597","0.28808594","-0.9628906","0.076171875","26.1875","21.125","23.46875"
"1574875653894","598","0.17382812","-0.9638672","0.111328125","26.53125","19.75","22.4375"
"1574875653894","599","0.2578125","-0.92871094","0.111328125","29.21875","16.375","19.8125"
"1574875654092","600","0.16503906","-0.9609375","0.13183594","27.21875","16.625","25.59375"
"1574875654094","601","0.22363281","-0.96875","0.16992188","27.53125","16.5","25.34375"
"1574875654094","602","0.14648438","-0.9189453","0.19628906","28.5625","10.34375","23.40625"
"1574875654094","603","0.09667969","-0.90722656","0.2265625","32.9375","5.75","27.25"
"1574875654095","604","0.045898438","-0.89453125","0.18359375","34.84375","11.625","28.90625"
"1574875654095","605","0.14160156","-0.8769531","0.25","37.84375","21.375","32.8125"
"1574875654095","606","0.064453125","-0.90527344","0.22851562","43.5","21.875","30.84375"
"1574875654095","607","0.022460938","-0.86816406","0.36523438","33.6875","18.6875","31.03125"
"1574875654096","608","-0.0048828125","-0.8691406","0.28222656","37.84375","20.15625","32.96875"
"1574875654096","609","0.046875","-0.83203125","0.28808594","43.875","20.15625","31.9375"
"1574875654294","610","-0.0146484375","-0.8779297","0.359375","42.28125","18.03125","31.75"
"1574875654294","611","-0.10644531","-0.92089844","0.44726562","31.71875","25.40625","33.28125"
"1574875654295","612","-0.052734375","-0.98046875","0.4111328","26.0625","22.96875","33.09375"
"1574875654296","613","-0.043945312","-0.85839844","0.43847656","31.59375","10.875","24.1875"
"1574875654297","614","-0.19335938","-0.8017578","0.44140625","34.53125","9.34375","27.0"
"1574875654297","615","-0.18457031","-0.8095703","0.40039062","27.875","18.28125","26.09375"
"1574875654298","616","-0.06738281","-0.77246094","0.4248047","27.09375","13.9375","21.03125"
"1574875654298","617","-0.19238281","-0.7949219","0.5029297","28.1875","4.46875","19.4375"
"1574875654298","618","-0.18457031","-0.79296875","0.43847656","20.6875","9.78125","18.21875"
"1574875654298","619","-0.12988281","-0.7373047","0.4453125","18.84375","6.75","10.09375"
"1574875654692","620","-0.29882812","-0.74316406","0.55566406","16.21875","-2.65625","8.5625"
"1574875654693","621","-0.3125","-0.80566406","0.4609375","9.15625","12.46875","12.0625"
"1574875654694","622","-0.06640625","-0.7265625","0.4814453","11.21875","-0.46875","-0.28125"
"1574875654694","623","-0.3330078","-0.78027344","0.5605469","5.65625","-13.21875","1.4375"
"1574875654694","624","-0.19726562","-0.8378906","0.5097656","-11.90625","0.5","-1.5625"
"1574875654699","625","-0.140625","-0.7558594","0.6035156","-7.21875","-18.15625","-14.5625"
"1574875654699","626","-0.40039062","-0.83691406","0.58984375","-5.125","-10.46875","-11.15625"
"1574875654700","627","-0.12695312","-0.86621094","0.59375","-17.53125","-1.375","-20.59375"
"1574875654700","628","-0.15722656","-0.7939453","0.5644531","-22.34375","-8.59375","-29.34375"
"1574875654700","629","-0.31933594","-0.8496094","0.60253906","-15.5","-11.9375","-25.96875"
"1574875655091","630","-0.12890625","-0.8720703","0.56347656","-25.46875","-5.65625","-29.625"
"1574875655091","631","-0.14648438","-0.86816406","0.56152344","-44.75","-9.75","-38.96875"
"1574875655092","632","-0.22558594","-0.9433594","0.5341797","-37.53125","1.71875","-36.90625"
"1574875655092","633","-0.072265625","-0.9160156","0.53808594","-47.90625","0.21875","-42.28125"
"1574875655092","634","-0.037109375","-0.9423828","0.49902344","-55.5","-6.15625","-40.25"
"1574875655092","635","-0.0029296875","-1.1113281","0.49316406","-37.1875","-11.21875","-40.0625"
"1574875655093","636","0.055664062","-1.1982422","0.43359375","-42.84375","-21.71875","-40.8125"
"1574875655094","637","0.08886719","-1.171875","0.31933594","-47.5","-17.9375","-38.4375"
"1574875655094","638","0.1875","-1.0087891","0.19042969","-38.65625","-17.375","-45.375"
"1574875655095","639","0.13378906","-1.0009766","0.23632812","-43.59375","-13.65625","-40.0"
"1574875655485","640","0.19921875","-0.9326172","0.17578125","-36.875","-18.65625","-37.5625"
"1574875655485","641","0.23730469","-0.8564453","0.15332031","-38.09375","-18.84375","-33.1875"
"1574875655486","642","0.22851562","-0.9033203","0.13964844","-30.21875","-14.1875","-26.40625"
"1574875655486","643","0.22363281","-0.9189453","0.12890625","-29.65625","-12.0625","-25.25"
"1574875655486","644","0.23632812","-0.9404297","0.09667969","-17.03125","-10.0","-19.625"
"1574875655486","645","0.2783203","-0.9667969","0.051757812","2.75","-4.125","-13.34375"
"1574875655487","646","0.3046875","-0.9189453","0.087890625","1.28125","-4.0625","-4.90625"
"1574875655487","647","0.23730469","-0.93847656","0.09472656","2.0625","-3.9375","-0.40625"
"1574875655487","648","0.24902344","-0.96484375","0.11816406","7.5625","-3.46875","-1.75"
"1574875655488","649","0.1640625","-0.9042969","0.13964844","28.0","3.875","-5.09375"
"1574875656081","650","0.3232422","-0.8701172","0.09863281","32.46875","-1.5625","0.40625"
"1574875656081","651","0.29882812","-1.0048828","0.16210938","28.375","7.09375","9.1875"
"1574875656082","652","0.3046875","-0.91308594","0.234375","19.46875","9.53125","6.6875"
"1574875656082","653","0.20214844","-0.8984375","0.32226562","27.8125","9.71875","4.1875"
"1574875656082","654","0.18457031","-0.9472656","0.15625","23.84375","-4.75","-2.0625"
"1574875656082","655","0.23632812","-0.88671875","0.20898438","16.84375","6.625","4.25"
"1574875656083","656","0.25","-0.8222656","0.265625","22.03125","10.40625","8.375"
"1574875656083","657","0.17675781","-0.859375","0.29296875","64.5","2.21875","12.71875"
"1574875656083","658","0.19726562","-1.0009766","0.2548828","50.84375","10.9375","21.5625"
"1574875656083","659","0.29492188","-0.9140625","0.28808594","34.0625","8.8125","23.21875"
"1574875656282","660","0.13671875","-0.92871094","0.45410156","38.75","16.1875","30.3125"
"1574875656284","661","0.15429688","-0.88671875","0.4560547","36.5625","25.15625","22.78125"
"1574875656284","662","0.17675781","-0.7890625","0.453125","59.375","27.5625","21.25"
"1574875656284","663","0.14453125","-0.8847656","0.48242188","66.34375","25.03125","26.40625"
"1574875656285","664","0.047851562","-0.94140625","0.47851562","68.71875","21.4375","21.3125"
"1574875656285","665","0.06542969","-0.875","0.54003906","50.96875","23.40625","21.03125"
"1574875656285","666","-0.0234375","-0.90722656","0.70703125","39.1875","6.0","13.75"
"1574875656286","667","0.055664062","-0.9277344","0.7128906","54.75","27.0625","2.59375"
"1574875656286","668","-0.049804688","-0.76953125","0.7949219","48.28125","25.78125","-6.625"
"1574875656286","669","-0.029296875","-0.8574219","0.70214844","57.375","27.0","-7.53125"
"1574875656678","670","-0.040039062","-0.7919922","0.8388672","46.25","33.71875","-8.9375"
"1574875656679","671","-0.06933594","-0.7832031","0.8251953","40.75","30.59375","-16.46875"
"1574875656679","672","-0.02734375","-0.734375","0.8027344","40.46875","41.84375","-15.96875"
"1574875656680","673","-0.044921875","-0.67089844","0.8808594","41.125","36.21875","-17.375"
"1574875656680","674","-0.0126953125","-0.64453125","0.8251953","32.28125","30.84375","-17.625"
"1574875656680","675","-0.103515625","-0.67871094","0.8769531","18.53125","25.71875","-17.125"
"1574875656681","676","0.06738281","-0.5644531","0.7939453","15.1875","22.84375","-11.75"
"1574875656681","677","-0.08984375","-0.6044922","0.7753906","6.875","12.71875","-14.8125"
"1574875656681","678","-0.0126953125","-0.59765625","0.7910156","-2.625","6.4375","-8.40625"
"1574875656681","679","-0.055664062","-0.5605469","0.7753906","-10.6875","-5.84375","-10.53125"
"1574875657275","680","0.055664062","-0.5751953","0.78027344","-21.625","-8.59375","-6.375"
"1574875657276","681","-9.765625E-4","-0.57421875","0.7861328","-36.3125","-28.0","-1.8125"
"1574875657276","682","-0.009765625","-0.5527344","0.7060547","-37.0625","-32.75","-0.90625"
"1574875657277","683","-0.025390625","-0.6220703","0.7998047","-44.0625","-44.71875","-4.75"
"1574875657277","684","-0.0107421875","-0.63671875","0.6845703","-51.46875","-42.8125","-2.125"
"1574875657277","685","0.072265625","-0.625","0.7011719","-53.21875","-43.5625","-4.96875"
"1574875657278","686","0.06542969","-0.65625","0.6347656","-65.4375","-46.3125","-1.8125"
"1574875657279","687","0.12109375","-0.72558594","0.53515625","-58.71875","-40.875","-3.21875"
"1574875657279","688","0.08300781","-0.7939453","0.54589844","-50.59375","-38.4375","-9.5625"
"1574875657279","689","0.036132812","-0.80859375","0.5253906","-58.1875","-37.28125","-7.59375"
"1574875658264","690","0.08886719","-0.7832031","0.49023438","-56.78125","-24.5625","-10.96875"
"1574875658265","691","0.11621094","-0.73339844","0.45703125","-52.0","-17.0625","-7.0625"
"1574875658265","692","0.08984375","-0.8154297","0.42285156","-47.125","-19.21875","-10.34375"
"1574875658266","693","0.12109375","-0.8857422","0.41015625","-49.625","-11.40625","-10.34375"
"1574875658266","694","0.17382812","-0.82714844","0.36621094","-50.4375","-14.5","-9.1875"
"1574875658267","695","0.14453125","-0.8720703","0.37890625","-53.53125","-19.03125","-12.90625"
"1574875658267","696","0.18945312","-0.8251953","0.29101562","-40.96875","-13.78125","-7.65625"
"1574875658270","697","0.19042969","-0.8027344","0.21875","-40.53125","-19.625","-12.0"
"1574875658270","698","0.21972656","-0.8925781","0.26171875","-44.75","-15.65625","-7.46875"
"1574875658271","699","0.265625","-0.89453125","0.21875","-54.6875","-16.21875","-12.25"
"1574875658271","700","0.31933594","-0.97265625","0.2265625","-42.5625","-19.625","-11.28125"
"1574875658271","701","0.20117188","-0.87402344","0.20703125","-19.0625","-23.90625","-13.40625"
"1574875658272","702","0.22460938","-0.77246094","0.20605469","-25.34375","-25.84375","-7.53125"
"1574875658272","703","0.2265625","-0.859375","0.17675781","-11.3125","-20.0625","-8.15625"
"1574875658272","704","0.2265625","-0.9121094","0.15820312","-10.3125","-18.65625","-8.46875"
"1574875658272","705","0.16699219","-0.7988281","0.18261719","-14.90625","-19.15625","-12.3125"
"1574875658273","706","0.3232422","-0.91015625","0.07421875","-14.90625","-17.0625","-8.59375"
"1574875658273","707","0.28125","-0.9658203","0.16699219","-2.03125","-21.21875","-2.53125"
"1574875658273","708","0.16503906","-0.89941406","0.14648438","1.6875","-11.15625","9.84375"
"1574875658274","709","0.32421875","-0.9873047","0.08105469","-3.96875","-4.5","9.59375"
"1574875658466","710","0.25195312","-0.9873047","0.0859375","1.75","-5.09375","5.6875"
"1574875658467","711","0.24023438","-0.89746094","0.09667969","1.15625","-4.875","8.5"
"1574875658467","712","0.31054688","-0.9248047","0.078125","-5.0","-1.875","5.21875"
"1574875658468","713","0.29492188","-0.9550781","0.07324219","-2.75","-7.25","5.28125"
"1574875658468","714","0.27441406","-0.97753906","0.03125","4.8125","-8.59375","6.5625"
"1574875658468","715","0.2998047","-0.9638672","-0.00390625","3.40625","-1.25","5.625"
"1574875658468","716","0.3125","-0.95996094","0.052734375","7.0","-10.0625","3.375"
"1574875658469","717","0.26367188","-0.9326172","0.057617188","14.03125","-9.5","5.875"
"1574875658469","718","0.29296875","-0.93359375","0.041992188","11.34375","-6.4375","5.28125"
"1574875658469","719","0.28027344","-0.9863281","0.060546875","8.0","-6.375","7.71875"
"1574875658667","720","0.2890625","-0.9716797","0.076171875","6.71875","-4.0","8.5625"
"1574875658669","721","0.29296875","-0.96484375","0.06640625","7.1875","-5.90625","7.96875"
"1574875658669","722","0.22753906","-0.9248047","0.08300781","7.375","-6.15625","10.78125"
"1574875658670","723","0.22851562","-0.96484375","0.087890625","4.15625","-5.40625","9.78125"
"1574875658670","724","0.23242188","-0.96777344","0.11035156","4.625","-4.75","10.34375"
"1574875658670","725","0.20117188","-0.93652344","0.13378906","3.78125","-1.4375","11.1875"
"1574875658671","726","0.15917969","-0.92871094","0.16503906","9.03125","0.15625","12.90625"
"1574875658671","727","0.22949219","-0.9638672","0.10644531","8.78125","6.3125","15.71875"
"1574875658671","728","0.11621094","-0.984375","0.16503906","17.09375","6.3125","10.65625"
"1574875658671","729","0.10644531","-0.9033203","0.17285156","15.9375","10.03125","9.53125"
"1574875659064","730","0.19921875","-0.90722656","0.171875","14.53125","10.28125","12.65625"
"1574875659065","731","0.14648438","-0.9785156","0.17578125","10.0625","5.34375","13.8125"
"1574875659065","732","0.11230469","-0.9746094","0.20898438","12.5","9.46875","14.625"
"1574875659066","733","0.12695312","-0.9013672","0.15527344","19.875","14.96875","16.875"
"1574875659067","734","0.13769531","-0.9160156","0.20019531","6.21875","11.8125","18.59375"
"1574875659067","735","0.09667969","-0.97558594","0.20019531","13.0","15.09375","21.625"
"1574875659068","736","0.0390625","-0.9746094","0.21972656","13.59375","20.59375","19.96875"
"1574875659068","737","0.125","-0.90722656","0.19042969","23.84375","22.25","20.21875"
"1574875659068","738","0.12207031","-0.93652344","0.203125","22.9375","14.4375","19.96875"
"1574875659068","739","0.041015625","-0.90527344","0.24023438","22.625","10.21875","18.75"
"1574875659461","740","0.052734375","-0.9160156","0.2841797","23.5","7.53125","22.65625"
"1574875659461","741","-0.034179688","-0.9277344","0.2998047","27.09375","8.125","17.65625"
"1574875659461","742","0.01953125","-0.9042969","0.3203125","24.90625","1.25","15.46875"
"1574875659461","743","0.0068359375","-0.8515625","0.3388672","28.625","7.59375","16.75"
"1574875659462","744","-0.029296875","-0.8730469","0.36816406","30.875","2.78125","18.15625"
"1574875659463","745","-0.115234375","-0.8925781","0.3798828","35.46875","6.0","20.59375"
"1574875659463","746","-0.111328125","-0.92578125","0.39746094","25.6875","13.375","19.0625"
"1574875659463","747","-0.047851562","-0.8808594","0.4267578","26.65625","16.6875","16.375"
"1574875659464","748","-0.09667969","-0.8779297","0.4189453","25.5625","14.3125","13.15625"
"1574875659464","749","-0.095703125","-0.91015625","0.45410156","21.28125","16.375","11.0625"
"1574875660253","750","-0.08984375","-0.87402344","0.3857422","19.03125","12.21875","7.59375"
"1574875660254","751","-0.078125","-0.8847656","0.5078125","15.6875","9.53125","8.375"
"1574875660254","752","-0.15820312","-0.8808594","0.44140625","11.65625","14.5625","7.65625"
"1574875660254","753","-0.10449219","-0.9189453","0.44726562","12.0625","12.71875","8.25"
"1574875660255","754","-0.125","-0.8691406","0.41992188","13.0625","8.3125","5.59375"
"1574875660255","755","-0.05859375","-0.8076172","0.43652344","19.9375","11.6875","7.59375"
"1574875660255","756","-0.1484375","-0.8095703","0.47265625","26.71875","9.0625","9.96875"
"1574875660256","757","-0.13964844","-0.8417969","0.46484375","14.40625","7.78125","11.25"
"1574875660257","758","-0.09375","-0.79296875","0.45507812","20.375","1.65625","9.53125"
"1574875660257","759","-0.13574219","-0.765625","0.4765625","23.0625","0.9375","7.21875"
"1574875660654","760","-0.13378906","-0.76953125","0.49121094","18.65625","-2.25","6.4375"
"1574875660654","761","-0.21777344","-0.79785156","0.5703125","15.625","-1.375","2.59375"
"1574875660655","762","-0.2109375","-0.8105469","0.5263672","12.03125","-2.375","4.78125"
"1574875660655","763","-0.15917969","-0.765625","0.5341797","13.78125","1.65625","1.3125"
"1574875660655","764","-0.21679688","-0.7480469","0.5761719","13.40625","-2.84375","1.1875"
"1574875660655","765","-0.13183594","-0.74902344","0.5996094","10.78125","-1.9375","0.15625"
"1574875660656","766","-0.20214844","-0.8125","0.62402344","16.59375","-9.1875","-3.9375"
"1574875660656","767","-0.20800781","-0.8652344","0.63183594","17.4375","-10.0","-8.21875"
"1574875660656","768","-0.25","-0.8652344","0.6220703","-19.40625","-3.53125","-13.53125"
"1574875660658","769","-0.12597656","-0.85253906","0.6035156","-30.53125","-4.8125","-22.375"
"1574875660852","770","-0.12402344","-0.7324219","0.59765625","-38.34375","-15.0","-28.46875"
"1574875660853","771","-0.0703125","-0.7089844","0.5136719","-27.46875","-16.40625","-26.59375"
"1574875660853","772","-0.0859375","-0.8125","0.53125","-33.28125","-20.78125","-28.90625"
"1574875660853","773","-0.15429688","-0.7578125","0.5332031","-31.375","-17.9375","-28.53125"
"1574875660854","774","-0.060546875","-0.75097656","0.44140625","-34.25","-15.0","-31.90625"
"1574875660854","775","-0.057617188","-0.69921875","0.43652344","-43.71875","-19.6875","-33.65625"
"1574875660854","776","-9.765625E-4","-0.578125","0.3330078","-52.9375","-21.9375","-37.6875"
"1574875660854","777","0.040039062","-0.4404297","0.20605469","-51.34375","-26.96875","-39.21875"
"1574875660855","778","0.07910156","-0.6191406","0.34277344","-57.125","-37.53125","-42.03125"
"1574875660855","779","0.04296875","-1.3994141","0.5175781","-79.40625","-60.90625","-35.875"
"1574875662241","780","0.57128906","-2.0","0.6689453","-59.21875","-33.71875","-65.21875"
"1574875662242","781","0.40527344","-1.6748047","0.3544922","-31.8125","2.15625","-31.53125"
"1574875662243","782","0.24804688","-0.6689453","0.21875","-9.78125","-3.21875","-9.75"
"1574875662244","783","-0.001953125","-0.3359375","0.17773438","-32.125","-14.9375","-10.0"
"1574875662244","784","0.16894531","-0.6074219","0.083984375","-45.59375","-18.96875","-16.75"
"1574875662244","785","0.1953125","-0.7207031","9.765625E-4","-67.28125","-20.84375","-21.75"
"1574875662245","786","0.23339844","-0.77734375","0.033203125","-54.625","-12.5","-24.5625"
"1574875662245","787","0.32128906","-0.95996094","-0.103515625","-31.3125","-7.125","-20.375"
"1574875662245","788","0.5078125","-1.1953125","0.0068359375","-28.09375","-9.8125","-6.1875"
"1574875662245","789","0.375","-1.2070312","-0.013671875","-10.3125","-11.40625","-1.875"
"1574875662438","790","0.2734375","-0.99609375","-0.017578125","-6.71875","-11.46875","-0.84375"
"1574875662438","791","0.2919922","-0.83496094","0.0126953125","-5.0625","-9.8125","-2.59375"
"1574875662439","792","0.21289062","-0.80566406","-0.02734375","-13.9375","-6.75","-4.6875"
"1574875662439","793","0.27246094","-0.86621094","-0.0078125","-19.96875","-2.71875","-6.875"
"1574875662439","794","0.2783203","-0.9482422","-0.064453125","-19.0","2.875","-8.09375"
"1574875662441","795","0.35839844","-1.0166016","-0.087890625","-13.9375","2.78125","-4.96875"
"1574875662441","796","0.3486328","-1.0126953","-0.076171875","-8.1875","-0.46875","0.5625"
"1574875662441","797","0.2998047","-0.9501953","-0.09667969","-6.125","-1.3125","0.34375"
"1574875662441","798","0.28808594","-0.9267578","-0.083984375","-0.6875","-4.3125","-1.25"
"1574875662442","799","0.2607422","-0.91015625","-0.08886719","-4.59375","-3.21875","-1.1875"
"1574875662640","800","0.3046875","-0.94921875","-0.076171875","-6.84375","-1.875","-0.09375"
"1574875662640","801","0.28710938","-0.9638672","-0.15429688","-3.59375","1.84375","0.21875"
"1574875662641","802","0.34570312","-0.9375","-0.08496094","1.6875","1.4375","-0.34375"
"1574875662641","803","0.32226562","-0.9404297","-0.123046875","3.28125","3.4375","-0.59375"
"1574875662641","804","0.3173828","-0.94921875","-0.078125","7.0625","1.65625","-1.8125"
"1574875662643","805","0.2919922","-0.9316406","-0.07421875","5.84375","3.8125","-2.90625"
"1574875662643","806","0.28710938","-0.94921875","-0.052734375","4.625","7.96875","-3.34375"
"1574875662643","807","0.2939453","-0.9560547","-0.059570312","0.0625","12.46875","-3.40625"
"1574875662644","808","0.34472656","-0.90722656","-0.059570312","4.3125","9.59375","-1.6875"
"1574875662644","809","0.37109375","-0.96972656","-0.0087890625","5.4375","3.625","-1.5625"
"1574875663235","810","0.24121094","-0.9765625","-0.041015625","1.09375","5.21875","-2.28125"
"1574875663235","811","0.3154297","-0.9169922","-0.01171875","6.46875","7.46875","-7.78125"
"1574875663236","812","0.32910156","-0.92089844","-0.053710938","0.25","6.5625","-7.0625"
"1574875663236","813","0.34570312","-0.9707031","-0.06640625","-5.375","1.96875","-4.6875"
"1574875663236","814","0.3798828","-0.9042969","-0.061523438","-9.65625","-3.21875","-4.125"
"1574875663237","815","0.38183594","-0.94433594","-0.0625","0.65625","-3.15625","-2.0625"
"1574875663237","816","0.39453125","-0.93652344","-0.10644531","0.1875","-1.125","0.6875"
"1574875663239","817","0.37695312","-0.90527344","-0.038085938","4.75","2.46875","6.875"
"1574875663240","818","0.31640625","-0.9482422","0.055664062","19.09375","0.03125","10.46875"
"1574875663240","819","0.2548828","-0.95214844","0.030273438","22.8125","7.46875","11.5"
"1574875663432","820","0.2890625","-0.9189453","0.005859375","14.9375","10.15625","12.59375"
"1574875663433","821","0.296875","-0.9248047","0.0","24.40625","11.875","14.1875"
"1574875663433","822","0.2890625","-0.9814453","-0.0029296875","20.75","18.34375","14.96875"
"1574875663433","823","0.33203125","-0.9589844","-0.045898438","15.9375","9.0","13.6875"
"1574875663433","824","0.33984375","-0.94140625","0.01953125","19.59375","2.09375","19.9375"
"1574875663434","825","0.2529297","-0.95214844","0.07128906","25.1875","5.4375","17.3125"
"1574875663434","826","0.22460938","-0.96191406","0.10253906","25.25","9.59375","14.96875"
"1574875663434","827","0.23046875","-0.93359375","0.072265625","31.0","12.53125","19.0"
"1574875663435","828","0.23046875","-0.921875","0.12695312","32.28125","10.59375","20.71875"
"1574875663437","829","0.20898438","-0.95703125","0.125","37.03125","12.40625","22.96875"
"1574875663437","830","0.19628906","-0.9765625","0.17089844","30.375","6.84375","24.0"
"1574875663438","831","0.13964844","-0.9433594","0.20605469","21.15625","11.5","26.34375"
"1574875663438","832","0.17382812","-0.9169922","0.17675781","25.25","18.46875","28.46875"
"1574875663438","833","0.12890625","-0.91015625","0.22167969","25.625","18.21875","30.0625"
"1574875663438","834","0.12207031","-0.9248047","0.21484375","29.84375","21.0625","30.65625"
"1574875663439","835","0.123046875","-0.9433594","0.26171875","24.40625","15.53125","27.6875"
"1574875663439","836","0.0068359375","-0.92578125","0.25585938","43.3125","20.15625","29.375"
"1574875663439","837","0.046875","-0.953125","0.33691406","46.6875","16.4375","32.0625"
"1574875663439","838","0.001953125","-0.93652344","0.36132812","44.5625","12.53125","34.8125"
"1574875663440","839","-0.01171875","-0.9511719","0.39746094","53.46875","14.125","36.71875"
"1574875663636","840","-0.0703125","-0.9189453","0.4814453","48.15625","15.21875","30.84375"
"1574875663638","841","-0.11035156","-0.9638672","0.5283203","61.40625","17.78125","30.40625"
"1574875663638","842","-0.19140625","-0.9189453","0.5996094","58.90625","22.90625","29.25"
"1574875663638","843","-0.3017578","-0.9511719","0.75390625","60.40625","42.375","30.34375"
"1574875663639","844","-0.13085938","-0.9111328","0.6328125","48.28125","20.96875","26.15625"
"1574875663639","845","-0.23339844","-0.82421875","0.71484375","46.875","19.84375","32.6875"
"1574875663639","846","-0.24023438","-0.84472656","0.6933594","49.3125","22.90625","28.21875"
"1574875663640","847","-0.25390625","-0.82714844","0.6953125","41.5625","21.1875","24.3125"
"1574875663640","848","-0.31152344","-0.7753906","0.7392578","33.75","20.15625","22.0"
"1574875663640","849","-0.3251953","-0.73535156","0.7421875","31.125","21.1875","19.3125"
"1574875664232","850","-0.34277344","-0.7685547","0.7519531","24.84375","17.84375","16.625"
"1574875664232","851","-0.3486328","-0.7089844","0.6953125","25.03125","16.5","11.4375"
"1574875664233","852","-0.30566406","-0.65722656","0.6777344","13.3125","14.3125","6.1875"
"1574875664233","853","-0.29785156","-0.60839844","0.64453125","12.125","11.0625","3.75"
"1574875664233","854","-0.3720703","-0.578125","0.6640625","9.875","0.375","0.6875"
"1574875664234","855","-0.30273438","-0.5830078","0.5644531","5.53125","2.875","-5.71875"
"1574875664234","856","-0.296875","-0.5859375","0.61621094","-3.25","7.46875","-7.78125"
"1574875664234","857","-0.31933594","-0.61816406","0.62890625","-15.4375","4.46875","-11.375"
"1574875664234","858","-0.29296875","-0.65527344","0.6425781","-19.0625","0.75","-13.78125"
"1574875664235","859","-0.27148438","-0.640625","0.62597656","-22.90625","-2.46875","-15.96875"
"1574875664430","860","-0.28808594","-0.66308594","0.6464844","-26.25","-2.0625","-17.4375"
"1574875664430","861","-0.23632812","-0.6777344","0.6621094","-31.25","-8.65625","-18.03125"
"1574875664430","862","-0.27929688","-0.71875","0.6455078","-32.125","-15.375","-19.875"
"1574875664430","863","-0.2783203","-0.7705078","0.60839844","-39.3125","-12.75","-21.46875"
"1574875664431","864","-0.20996094","-0.73535156","0.57128906","-43.71875","-12.5625","-26.59375"
"1574875664432","865","-0.17578125","-0.7216797","0.53125","-35.78125","-14.6875","-29.34375"
"1574875664432","866","-0.16503906","-0.796875","0.5175781","-40.40625","-22.9375","-31.46875"
"1574875664433","867","-0.20410156","-0.85058594","0.4921875","-45.28125","-21.84375","-35.9375"
"1574875664433","868","-0.12402344","-0.82910156","0.48828125","-42.5","-21.53125","-34.46875"
"1574875664433","869","-0.09375","-0.84277344","0.4404297","-47.375","-24.21875","-35.9375"
"1574875665026","870","-0.045898438","-0.8691406","0.42578125","-52.875","-28.59375","-36.15625"
"1574875665026","871","-0.034179688","-0.88183594","0.3857422","-49.8125","-33.3125","-35.8125"
"1574875665026","872","-0.0048828125","-0.83691406","0.33007812","-55.625","-35.1875","-35.0"
"1574875665027","873","0.036132812","-0.8564453","0.31152344","-49.4375","-36.34375","-33.59375"
"1574875665027","874","0.016601562","-0.88964844","0.29589844","-48.53125","-35.875","-33.59375"
"1574875665027","875","0.056640625","-0.91503906","0.26953125","-56.96875","-31.96875","-32.8125"
"1574875665027","876","0.08886719","-0.9550781","0.21679688","-45.59375","-29.34375","-36.0"
"1574875665029","877","0.11230469","-0.9375","0.20703125","-40.0","-28.53125","-31.84375"
"1574875665029","878","0.09667969","-0.9326172","0.16503906","-36.625","-26.34375","-30.84375"
"1574875665029","879","0.17089844","-0.921875","0.13671875","-33.40625","-26.59375","-30.90625"
"1574875665226","880","0.17089844","-0.88964844","0.12402344","-29.125","-28.0625","-27.875"
"1574875665226","881","0.15234375","-0.9189453","0.111328125","-28.875","-25.0","-23.53125"
"1574875665227","882","0.19824219","-0.9316406","0.10546875","-31.0625","-24.34375","-23.15625"
"1574875665227","883","0.18554688","-0.9189453","0.080078125","-23.09375","-20.84375","-22.0"
"1574875665227","884","0.2685547","-0.9589844","9.765625E-4","-27.96875","-16.875","-24.15625"
"1574875665228","885","0.2861328","-0.95214844","0.026367188","-22.90625","-16.40625","-23.03125"
"1574875665228","886","0.27734375","-0.8886719","-0.0029296875","-18.125","-15.53125","-20.4375"
"1574875665228","887","0.29492188","-0.8955078","-0.04296875","-21.96875","-15.84375","-17.0"
"1574875665228","888","0.36035156","-0.93066406","-0.052734375","-26.8125","-3.6875","-13.90625"
"1574875665230","889","0.30664062","-0.875","-0.07324219","-20.21875","-6.5625","-10.03125"
"1574875666216","890","0.3564453","-0.89941406","0.05078125","-17.71875","-20.375","-6.09375"
"1574875666217","891","0.1953125","-0.9580078","0.09765625","13.34375","-24.9375","-0.09375"
"1574875666217","892","0.23242188","-1.0185547","0.032226562","20.8125","-13.78125","1.0625"
"1574875666218","893","0.32128906","-0.9814453","-0.021484375","-0.6875","-7.5625","-5.21875"
"1574875666218","894","0.28125","-0.96875","-0.0068359375","1.59375","-10.53125","-3.09375"
"1574875666218","895","0.27539062","-0.91503906","-0.041992188","-2.15625","-3.46875","-2.28125"
"1574875666219","896","0.2939453","-0.88378906","-0.0107421875","-5.0","-0.71875","1.5"
"1574875666219","897","0.31640625","-0.90722656","-0.03125","1.6875","0.375","2.40625"
"1574875666219","898","0.3359375","-0.95214844","-0.02734375","1.53125","5.03125","3.3125"
"1574875666219","899","0.31640625","-0.9824219","-0.032226562","-0.5","9.0","4.90625"
"1574875666418","900","0.32714844","-0.9765625","-0.060546875","-3.96875","13.875","3.875"
"1574875666418","901","0.3359375","-0.9404297","-0.049804688","-3.0","16.5625","4.90625"
"1574875666419","902","0.3359375","-0.9003906","-0.04296875","1.28125","16.875","4.40625"
"1574875666419","903","0.359375","-0.9121094","-0.033203125","0.1875","14.84375","4.59375"
"1574875666420","904","0.33984375","-0.9199219","-0.051757812","3.65625","13.21875","7.28125"
"1574875666420","905","0.33007812","-0.9501953","-0.022460938","3.40625","15.21875","7.09375"
"1574875666420","906","0.3310547","-0.9345703","-0.06640625","7.5","13.875","6.90625"
"1574875666421","907","0.30566406","-0.93066406","-0.0390625","6.46875","15.71875","6.0625"
"1574875666421","908","0.30273438","-0.9248047","-0.018554688","9.5625","17.53125","8.03125"
"1574875666421","909","0.29101562","-0.91308594","-0.0048828125","7.5625","15.28125","8.03125"
"1574875666616","910","0.28710938","-0.92285156","-0.017578125","16.78125","11.875","11.25"
"1574875666617","911","0.2919922","-0.92578125","0.013671875","10.84375","13.875","13.15625"
"1574875666617","912","0.27539062","-0.91796875","0.005859375","15.8125","8.5","15.78125"
"1574875666619","913","0.24121094","-0.9296875","0.041015625","15.9375","9.125","17.90625"
"1574875666619","914","0.24414062","-0.9511719","0.044921875","14.59375","7.71875","23.15625"
"1574875666619","915","0.26171875","-0.9628906","0.08886719","21.125","8.8125","18.40625"
"1574875666620","916","0.21289062","-0.92285156","0.091796875","30.5","4.84375","19.125"
"1574875666620","917","0.19433594","-0.96777344","0.09863281","20.9375","3.4375","17.78125"
"1574875666620","918","0.16601562","-0.9404297","0.107421875","22.21875","11.0625","17.0"
"1574875666621","919","0.16015625","-0.9248047","0.13476562","22.21875","12.71875","20.84375"
"1574875666815","920","0.13769531","-0.9609375","0.14746094","22.9375","12.46875","18.15625"
"1574875666815","921","0.08203125","-0.9560547","0.18652344","21.71875","13.6875","20.65625"
"1574875666815","922","0.10839844","-0.9375","0.18554688","19.03125","15.28125","21.15625"
"1574875666816","923","0.09375","-0.9277344","0.1875","18.3125","13.09375","24.5625"
"1574875666816","924","0.07421875","-0.93066406","0.1875","28.96875","15.40625","25.0"
"1574875666817","925","0.047851562","-0.91796875","0.20117188","25.5625","9.3125","24.125"
"1574875666818","926","0.06542969","-0.88671875","0.2548828","32.875","13.4375","24.9375"
"1574875666818","927","-0.0087890625","-0.9003906","0.25585938","22.09375","12.28125","25.78125"
"1574875666818","928","-0.001953125","-0.91308594","0.2607422","28.96875","14.375","21.75"
"1574875666819","929","0.016601562","-0.83691406","0.24609375","26.25","10.15625","18.28125"
"1574875667213","930","0.0087890625","-0.7998047","0.2998047","24.40625","6.25","17.84375"
"1574875667214","931","-0.0029296875","-0.8330078","0.28222656","21.84375","-0.15625","16.03125"
"1574875667214","932","-0.024414062","-0.86035156","0.3515625","21.78125","0.5625","12.0625"
"1574875667214","933","-0.078125","-0.87109375","0.37304688","19.875","1.125","11.6875"
"1574875667214","934","-0.12792969","-0.8847656","0.3515625","18.90625","7.59375","11.4375"
"1574875667215","935","-0.018554688","-0.8173828","0.2998047","12.0625","10.46875","5.15625"
"1574875667215","936","-0.053710938","-0.7832031","0.37109375","5.3125","5.28125","1.5625"
"1574875667216","937","-0.025390625","-0.76953125","0.31933594","11.09375","-11.625","-4.6875"
"1574875667217","938","-0.12988281","-0.7636719","0.36621094","2.4375","-11.5625","-8.875"
"1574875667217","939","-0.043945312","-0.734375","0.328125","-20.75","-14.4375","-10.84375"
"1574875667808","940","-0.025390625","-0.6699219","0.25585938","-27.78125","-26.34375","-24.75"
"1574875667809","941","-0.107421875","-0.6279297","0.28222656","-22.15625","-27.625","-32.1875"
"1574875667809","942","-0.040039062","-0.61035156","0.1015625","-6.65625","-36.125","-40.5625"
"1574875667810","943","0.203125","-0.71875","0.43359375","-29.65625","-44.59375","-43.8125"
"1574875667810","944","0.1640625","-2.0","0.74316406","-36.25","-40.25","0.6875"
"1574875667810","945","0.9345703","-2.0","0.7011719","-32.90625","-11.21875","-33.4375"
"1574875667810","946","-0.09667969","-0.9199219","0.15429688","45.59375","18.15625","7.28125"
"1574875667811","947","0.32714844","-0.55371094","0.051757812","7.0","21.125","17.71875"
"1574875667811","948","0.0234375","-0.4736328","0.0625","-1.59375","5.03125","-7.65625"
"1574875667812","949","0.032226562","-0.38671875","0.1015625","-32.84375","5.34375","-17.8125"
"1574875668006","950","-0.045898438","-0.31347656","0.18945312","-69.59375","-3.28125","-19.4375"
"1574875668007","951","0.0068359375","-0.5371094","0.21875","-92.65625","-9.9375","-17.625"
"1574875668007","952","0.0390625","-0.8955078","0.095703125","-46.8125","-16.53125","-15.1875"
"1574875668008","953","0.28222656","-1.3037109","0.2548828","-22.46875","0.3125","-4.5625"
"1574875668008","954","0.18261719","-1.7128906","0.27441406","-26.75","5.09375","12.84375"
"1574875668008","955","0.20898438","-1.3398438","0.08886719","-1.09375","12.34375","5.34375"
"1574875668008","956","0.24902344","-0.90625","0.07519531","3.71875","12.53125","5.09375"
"1574875668009","957","0.16015625","-0.6972656","0.111328125","1.75","0.09375","3.625"
"1574875668009","958","0.068359375","-0.75","0.12988281","-15.03125","-4.5","4.78125"
"1574875668009","959","0.095703125","-0.84375","0.10546875","-26.75","-9.4375","4.78125"
"1574875668405","960","0.076171875","-0.9628906","0.14257812","-27.15625","-7.0625","6.75"
"1574875668406","961","0.015625","-1.0986328","0.11816406","-20.875","-4.9375","12.90625"
"1574875668406","962","0.14648438","-1.0908203","0.034179688","-17.40625","-3.03125","14.5"
"1574875668407","963","0.1171875","-0.9746094","0.0625","-6.78125","-5.90625","14.90625"
"1574875668407","964","0.05078125","-1.0429688","0.029296875","4.03125","-6.21875","16.25"
"1574875668407","965","0.09082031","-1.015625","0.0107421875","3.40625","0.4375","9.53125"
"1574875668407","966","0.08984375","-0.92285156","0.030273438","5.53125","-0.03125","8.5625"
"1574875668408","967","0.10253906","-0.92285156","0.01953125","10.0","-2.1875","6.0"
"1574875668408","968","0.15625","-0.9951172","0.032226562","8.90625","-7.5625","7.84375"
"1574875668408","969","0.09472656","-1.0283203","0.005859375","11.59375","-12.25","4.53125"
"1574875668802","970","0.037109375","-0.96484375","0.0087890625","20.9375","-10.65625","7.21875"
"1574875668803","971","0.01953125","-1.0097656","0.00390625","16.53125","-8.34375","6.4375"
"1574875668803","972","0.021484375","-1.0029297","0.024414062","21.28125","-13.15625","4.53125"
"1574875668804","973","0.020507812","-0.984375","-0.06542969","25.625","-15.96875","-2.46875"
"1574875668805","974","0.1015625","-0.9824219","0.07910156","27.09375","-30.0625","-5.03125"
"1574875668805","975","-0.02734375","-0.97558594","0.11425781","46.5625","-35.6875","0.28125"
"1574875668805","976","0.032226562","-1.078125","0.18359375","51.375","-39.65625","-3.5625"
"1574875668806","977","-0.0048828125","-0.97753906","0.30664062","62.5","-33.125","-9.875"
"1574875668806","978","-0.053710938","-1.0556641","0.2939453","44.90625","-30.5625","-14.875"
"1574875668807","979","0.025390625","-1.0107422","0.37597656","31.96875","-28.375","-12.90625"
"1574875669395","980","-0.0029296875","-0.98339844","0.35253906","-1.0","-12.4375","-11.375"
"1574875669396","981","0.09863281","-0.87890625","0.3095703","-9.96875","-24.34375","-21.15625"
"1574875669396","982","0.10058594","-0.7314453","0.1796875","-14.71875","-27.875","-22.1875"
"1574875669396","983","0.10644531","-0.75","0.19238281","-29.25","-18.78125","-22.125"
"1574875669396","984","0.13574219","-0.9169922","0.3310547","-45.125","-10.71875","-16.8125"
"1574875669397","985","0.095703125","-0.9511719","0.23925781","-41.875","-9.125","-12.5625"
"1574875669397","986","0.28515625","-1.0224609","0.33789062","-41.15625","13.5625","-26.78125"
"1574875669397","987","0.30664062","-1.0605469","0.21679688","-31.875","15.71875","-33.25"
"1574875669398","988","0.3544922","-0.9482422","0.123046875","-18.875","9.90625","-31.90625"
"1574875669398","989","0.36523438","-0.93847656","0.08691406","-33.53125","-0.09375","-25.71875"
"1574875669596","990","0.28027344","-1.0273438","0.11328125","-27.59375","0.21875","-16.75"
"1574875669597","991","0.28808594","-0.9511719","0.0703125","-31.0","3.375","-13.34375"
"1574875669597","992","0.30566406","-0.9169922","0.061523438","-17.03125","6.0625","-11.4375"
"1574875669597","993","0.23339844","-0.93066406","0.048828125","-15.5625","17.15625","-4.0"
"1574875669597","994","0.40234375","-0.9472656","-0.045898438","-11.78125","28.28125","-4.125"
"1574875669598","995","0.4111328","-0.9003906","0.087890625","-17.03125","20.34375","3.75"
"1574875669598","996","0.31445312","-0.92285156","0.048828125","2.625","28.875","9.375"
"1574875669599","997","0.3955078","-0.9140625","0.052734375","14.46875","24.625","13.4375"
"1574875669600","998","0.23144531","-0.9277344","0.0390625","8.46875","26.03125","16.5625"
"1574875669600","999","0.41210938","-0.8027344","-0.020507812","33.75","13.875","12.78125"
"1574875669995","1000","0.171875","-0.9765625","0.1328125","10.375","33.03125","23.71875"
"1574875669995","1001","0.28515625","-1.0136719","0.17285156","5.1875","25.15625","21.3125"
"1574875669996","1002","0.21582031","-0.92578125","0.08984375","23.78125","15.03125","21.375"
"1574875669996","1003","0.31835938","-0.87890625","0.09277344","36.25","-5.21875","19.125"
"1574875669996","1004","0.10449219","-0.92285156","0.17578125","21.46875","0.15625","29.5"
"1574875669996","1005","0.13867188","-1.0068359","0.12988281","20.5","2.65625","26.28125"
"1574875669997","1006","0.16015625","-0.9550781","0.203125","25.9375","-1.4375","22.78125"
"1574875669997","1007","0.115234375","-0.9707031","0.19433594","31.5","2.40625","24.5625"
"1574875669997","1008","0.12890625","-0.96191406","0.21679688","30.6875","3.0625","23.21875"
"1574875669998","1009","0.10546875","-0.9248047","0.27734375","41.3125","2.40625","24.375"
"1574875670392","1010","0.046875","-0.9277344","0.2734375","48.6875","3.8125","23.53125"
"1574875670392","1011","0.043945312","-0.91308594","0.31152344","39.53125","-0.84375","26.6875"
"1574875670392","1012","-0.015625","-0.9111328","0.41796875","40.53125","9.0","28.96875"
"1574875670393","1013","-0.016601562","-0.90625","0.4169922","35.8125","15.78125","29.125"
"1574875670393","1014","-0.02734375","-0.91503906","0.49902344","41.5","18.5","31.75"
"1574875670393","1015","-0.099609375","-0.92285156","0.515625","57.5","7.09375","31.875"
"1574875670394","1016","-0.005859375","-0.90234375","0.4814453","41.96875","17.90625","30.78125"
"1574875670394","1017","-0.07714844","-0.8623047","0.5498047","41.9375","18.75","33.78125"
"1574875670394","1018","-0.140625","-0.9042969","0.56933594","47.90625","17.0625","34.3125"
"1574875670394","1019","-0.2109375","-0.8798828","0.6386719","44.0","21.9375","32.0625"
"1574875670790","1020","-0.13183594","-0.83691406","0.61816406","47.0625","20.71875","27.84375"
"1574875670792","1021","-0.2529297","-0.8486328","0.6855469","41.5625","12.09375","25.21875"
"1574875670792","1022","-0.22265625","-0.8466797","0.65625","38.25","15.09375","17.78125"
"1574875670793","1023","-0.23925781","-0.8359375","0.72558594","31.59375","9.40625","13.75"
"1574875670793","1024","-0.30664062","-0.81347656","0.7392578","26.78125","10.03125","11.4375"
"1574875670793","1025","-0.3046875","-0.8017578","0.7314453","17.6875","15.59375","7.21875"
"1574875670794","1026","-0.24023438","-0.74316406","0.7089844","13.90625","21.8125","3.3125"
"1574875670794","1027","-0.28222656","-0.7167969","0.70996094","10.4375","16.8125","3.625"
"1574875670794","1028","-0.25878906","-0.6777344","0.6455078","10.6875","19.0","-0.65625"
"1574875670795","1029","-0.21191406","-0.6279297","0.6279297","12.6875","11.5625","-3.46875"
"1574875671187","1030","-0.28027344","-0.6738281","0.62890625","21.15625","6.96875","-2.125"
"1574875671187","1031","-0.19042969","-0.6777344","0.6796875","9.15625","11.0","-11.375"
"1574875671188","1032","-0.33398438","-0.5839844","0.6972656","8.125","-23.34375","-0.65625"
"1574875671189","1033","-0.20507812","-0.7558594","0.6894531","-0.0625","-10.96875","-0.09375"
"1574875671190","1034","-0.23828125","-0.703125","0.67578125","-0.4375","-13.71875","-8.53125"
"1574875671190","1035","-0.24804688","-0.71191406","0.6425781","-6.28125","-6.28125","-15.21875"
"1574875671190","1036","-0.2607422","-0.7109375","0.7421875","-16.5625","-8.84375","-14.75"
"1574875671190","1037","-0.20898438","-0.7314453","0.6699219","-19.53125","-13.28125","-16.875"
"1574875671191","1038","-0.21679688","-0.71777344","0.64941406","-27.21875","-13.28125","-18.03125"
"1574875671191","1039","-0.14746094","-0.75390625","0.64941406","-34.84375","-15.78125","-17.5625"
"1574875671584","1040","-0.13867188","-0.76953125","0.66015625","-42.4375","-28.0625","-22.0"
"1574875671584","1041","-0.15234375","-0.74316406","0.56933594","-38.53125","-29.34375","-24.75"
"1574875671584","1042","-0.13085938","-0.78027344","0.5683594","-40.90625","-26.96875","-26.03125"
"1574875671585","1043","-0.07128906","-0.74316406","0.55859375","-42.5","-26.96875","-26.65625"
"1574875671585","1044","-0.037109375","-0.7363281","0.49414062","-39.5","-27.8125","-24.9375"
"1574875671586","1045","-0.0068359375","-0.7441406","0.48828125","-41.625","-30.125","-23.34375"
"1574875671586","1046","-0.032226562","-0.79785156","0.4951172","-39.9375","-35.3125","-23.53125"
"1574875671587","1047","0.0107421875","-0.8359375","0.4921875","-41.5625","-34.90625","-24.15625"
"1574875671587","1048","0.057617188","-0.8330078","0.46191406","-41.15625","-34.09375","-24.5"
"1574875671587","1049","0.07324219","-0.80859375","0.41210938","-42.96875","-33.84375","-23.90625"
"1574875671982","1050","0.09375","-0.79785156","0.35839844","-44.875","-28.65625","-25.5625"
"1574875671983","1051","0.0625","-0.7783203","0.3173828","-46.875","-24.28125","-24.75"
"1574875671983","1052","0.08203125","-0.85253906","0.31054688","-47.8125","-21.59375","-21.03125"
"1574875671983","1053","0.025390625","-0.890625","0.27929688","-48.21875","-7.65625","-27.375"
"1574875671984","1054","0.18359375","-0.8535156","0.23828125","-48.53125","3.75","-18.53125"
"1574875671984","1055","0.19042969","-0.9111328","0.16308594","-48.71875","4.40625","-14.1875"
"1574875671984","1056","0.20117188","-0.9824219","0.20898438","-53.40625","0.9375","-11.9375"
"1574875671985","1057","0.22363281","-0.93652344","0.10449219","-48.21875","-12.3125","-9.4375"
"1574875671986","1058","0.19921875","-0.94921875","0.08105469","-41.75","-15.78125","-16.28125"
"1574875671986","1059","0.23339844","-0.89160156","0.028320312","-36.03125","-16.09375","-12.4375"
"1574875672379","1060","0.234375","-0.9121094","0.038085938","-23.75","-20.375","-12.0"
"1574875672380","1061","0.23339844","-0.8935547","0.024414062","-21.75","-28.125","-8.21875"
"1574875672380","1062","0.2626953","-0.95703125","0.013671875","-10.09375","-31.09375","-10.0"
"1574875672380","1063","0.23535156","-0.94628906","-9.765625E-4","5.71875","-29.9375","-5.40625"
"1574875672380","1064","0.25390625","-0.9433594","0.044921875","6.28125","-25.0","-6.1875"
"1574875672381","1065","0.20800781","-0.9433594","0.047851562","5.25","-31.78125","-9.6875"
"1574875672381","1066","0.26757812","-0.9609375","0.041992188","0.3125","-31.78125","-12.125"
"1574875672381","1067","0.20410156","-0.96191406","0.07421875","1.46875","-35.6875","-14.4375"
"1574875672382","1068","0.22851562","-0.9609375","0.06347656","-3.90625","-33.5","-18.09375"
"1574875672383","1069","0.24609375","-0.93652344","0.08300781","-8.90625","-29.40625","-19.375"
"1574875672975","1070","0.2939453","-0.9316406","0.030273438","-7.5625","-24.8125","-16.6875"
"1574875672976","1071","0.3544922","-0.8925781","0.095703125","-12.15625","-35.25","-12.90625"
"1574875672976","1072","0.22949219","-0.9580078","0.059570312","5.53125","-33.65625","-10.03125"
"1574875672976","1073","0.21777344","-1.0234375","-0.03515625","0.125","-4.5","-10.90625"
"1574875672976","1074","0.32128906","-0.94433594","0.00390625","-0.6875","6.25","-9.125"
"1574875672977","1075","0.328125","-0.9316406","-0.022460938","7.8125","4.21875","-9.1875"
"1574875672977","1076","0.3798828","-0.92578125","-0.040039062","9.21875","4.125","-4.5625"
"1574875672977","1077","0.37402344","-0.9013672","-0.013671875","12.375","0.75","-0.59375"
"1574875672978","1078","0.34472656","-0.9628906","0.013671875","13.125","0.5625","1.71875"
"1574875672978","1079","0.32910156","-0.9355469","0.036132812","10.0625","0.21875","4.34375"
"1574875673175","1080","0.30664062","-0.95214844","0.025390625","8.125","4.53125","6.3125"
"1574875673177","1081","0.32714844","-0.95214844","0.015625","14.8125","6.78125","7.28125"
"1574875673178","1082","0.32226562","-0.9482422","0.048828125","10.0625","13.8125","8.6875"
"1574875673178","1083","0.32714844","-0.9277344","0.057617188","-1.53125","16.25","8.75"
"1574875673178","1084","0.29492188","-0.93066406","0.068359375","2.1875","18.09375","9.25"
"1574875673179","1085","0.296875","-0.93359375","0.060546875","2.875","22.84375","9.25"
"1574875673179","1086","0.32421875","-0.9296875","0.029296875","0.46875","22.46875","9.125"
"1574875673179","1087","0.3466797","-0.9121094","0.0078125","3.46875","20.53125","12.15625"
"1574875673179","1088","0.3466797","-0.92285156","0.10253906","6.65625","19.84375","13.4375"
"1574875673180","1089","0.27441406","-0.9423828","0.11621094","14.6875","18.9375","13.5"
"1574875673571","1090","0.25585938","-0.93652344","0.15625","8.28125","18.5","16.25"
"1574875673572","1091","0.21582031","-0.94921875","0.11621094","3.15625","15.78125","16.3125"
"1574875673572","1092","0.2548828","-0.93359375","0.12109375","7.3125","20.84375","13.5625"
"1574875673573","1093","0.21484375","-0.9658203","0.14160156","11.96875","22.84375","16.5625"
"1574875673573","1094","0.16992188","-0.94140625","0.18457031","15.875","29.9375","15.34375"
"1574875673574","1095","0.14160156","-0.8955078","0.20214844","12.4375","33.53125","18.8125"
"1574875673574","1096","0.15527344","-0.9199219","0.18945312","0.25","29.25","25.28125"
"1574875673574","1097","0.20214844","-0.92578125","0.16796875","6.71875","21.3125","25.53125"
"1574875673574","1098","0.14453125","-0.92578125","0.203125","-2.75","35.53125","24.8125"
"1574875673575","1099","0.16796875","-0.859375","0.13964844","15.875","29.3125","25.46875"
"1574875673971","1100","0.16503906","-0.8935547","0.18554688","23.96875","31.8125","27.4375"
"1574875673972","1101","0.07421875","-0.9375","0.20507812","31.3125","38.0","25.46875"
"1574875673972","1102","0.08691406","-0.9667969","0.21777344","28.1875","31.46875","23.09375"
"1574875673972","1103","0.078125","-0.890625","0.24707031","24.34375","31.28125","26.625"
"1574875673973","1104","0.08105469","-0.90625","0.25","25.9375","19.25","24.25"
"1574875673974","1105","0.009765625","-0.9033203","0.26757812","36.90625","19.75","22.4375"
"1574875673975","1106","-0.07519531","-0.9277344","0.3125","43.5","11.625","28.90625"
"1574875673975","1107","-0.080078125","-0.9296875","0.265625","46.1875","13.09375","23.71875"
"1574875673975","1108","-0.095703125","-0.91015625","0.33691406","28.25","24.125","26.09375"
"1574875673976","1109","-0.107421875","-0.8808594","0.35546875","28.3125","17.125","27.96875"
"1574875674563","1110","-0.13183594","-0.90234375","0.3720703","25.125","15.71875","23.875"
"1574875674564","1111","-0.123046875","-0.84765625","0.40722656","32.03125","16.875","23.71875"
"1574875674564","1112","-0.20019531","-0.8535156","0.42382812","25.8125","8.9375","22.375"
"1574875674564","1113","-0.22851562","-0.8798828","0.4091797","35.21875","8.25","22.78125"
"1574875674564","1114","-0.23828125","-0.84375","0.42285156","27.46875","13.75","20.21875"
"1574875674565","1115","-0.23535156","-0.8154297","0.453125","14.6875","13.5625","19.96875"
"1574875674565","1116","-0.21679688","-0.82128906","0.4501953","11.59375","6.96875","16.625"
"1574875674566","1117","-0.23242188","-0.7685547","0.4501953","16.03125","2.71875","11.5625"
"1574875674566","1118","-0.18066406","-0.75390625","0.40527344","17.3125","-8.875","7.78125"
"1574875674567","1119","-0.2705078","-0.7753906","0.43066406","5.25","-3.40625","3.5625"
"1574875674765","1120","-0.17578125","-0.7988281","0.4892578","0.0","-8.9375","-1.25"
"1574875674765","1121","-0.34570312","-0.8310547","0.5019531","-5.0","-5.34375","-8.59375"
"1574875674766","1122","-0.15429688","-0.86816406","0.43847656","-4.90625","-16.65625","-11.09375"
"1574875674766","1123","-0.16503906","-0.75878906","0.46777344","-10.25","-17.8125","-19.3125"
"1574875674766","1124","-0.23828125","-0.8515625","0.51171875","-30.34375","-13.28125","-18.28125"
"1574875674766","1125","-0.16113281","-0.8544922","0.45996094","-31.125","-21.40625","-24.15625"
"1574875674767","1126","-0.20800781","-0.82421875","0.46972656","-32.84375","-17.375","-27.4375"
"1574875674767","1127","-0.15429688","-0.8251953","0.4638672","-46.09375","-19.03125","-30.3125"
"1574875674767","1128","-0.10058594","-0.7910156","0.38183594","-49.25","-21.46875","-34.71875"
"1574875674768","1129","-0.09667969","-0.73828125","0.28710938","-65.0","-24.15625","-37.9375"
"1574875675361","1130","-0.017578125","-0.62109375","0.23535156","-59.15625","-30.5","-50.4375"
"1574875675361","1131","-0.037109375","-0.83691406","0.3955078","-46.21875","-36.90625","-49.90625"
"1574875675362","1132","-0.04296875","-1.859375","0.33789062","-105.53125","-21.40625","-36.0"
"1574875675362","1133","0.33496094","-2.0","0.5625","-44.0625","-15.71875","-53.125"
"1574875675362","1134","0.19140625","-1.2861328","0.15136719","-0.625","-5.40625","-41.65625"
"1574875675363","1135","0.28515625","-0.8720703","0.08300781","17.375","-2.0625","-24.21875"
"1574875675363","1136","0.1015625","-0.6074219","0.10449219","4.4375","1.53125","-29.03125"
"1574875675363","1137","0.15039062","-0.63671875","0.045898438","-14.84375","-3.03125","-32.6875"
"1574875675363","1138","0.18945312","-0.67089844","0.061523438","-27.03125","-7.0","-35.75"
"1574875675364","1139","0.18652344","-0.81347656","0.10839844","-44.375","-11.5","-32.3125"
"1574875675560","1140","0.29296875","-1.0273438","0.05859375","-50.0","-10.21875","-24.8125"
"1574875675561","1141","0.31640625","-1.2734375","0.09863281","-55.78125","-7.125","-18.53125"
"1574875675561","1142","0.3125","-1.1699219","0.044921875","-29.90625","2.28125","-13.09375"
"1574875675561","1143","0.17578125","-0.93847656","0.07714844","-21.75","6.625","-8.75"
"1574875675561","1144","0.21582031","-0.8847656","0.013671875","-14.03125","11.375","-4.8125"
"1574875675562","1145","0.25097656","-0.8544922","0.026367188","-19.1875","7.71875","-8.34375"
"1574875675562","1146","0.28320312","-0.8876953","-0.05078125","-27.34375","3.5625","-4.25"
"1574875675562","1147","0.42773438","-0.9345703","-0.045898438","-25.71875","0.625","-7.46875"
"1574875675562","1148","0.2890625","-1.0048828","-0.038085938","-17.84375","-4.1875","-0.84375"
"1574875675563","1149","0.40039062","-0.96875","-0.123046875","-6.65625","-5.78125","-1.0625"
"1574875675957","1150","0.31347656","-0.93359375","-0.10449219","2.25","-8.28125","3.75"
"1574875675958","1151","0.3173828","-0.9160156","-0.076171875","2.25","-10.0625","10.65625"
"1574875675958","1152","0.33398438","-0.86328125","-0.061523438","29.03125","-17.25","8.375"
"1574875675959","1153","0.16015625","-0.9814453","-0.099609375","0.59375","2.28125","3.3125"
"1574875675960","1154","0.30566406","-0.96484375","-0.11035156","-4.65625","14.375","0.625"
"1574875675960","1155","0.27441406","-0.9189453","-0.049804688","-3.125","8.5","-0.78125"
"1574875675960","1156","0.2421875","-0.9609375","-0.09082031","1.15625","5.75","-1.6875"
"1574875675961","1157","0.27539062","-0.9814453","-0.091796875","-1.40625","1.90625","-0.78125"
"1574875675961","1158","0.2861328","-0.95410156","-0.10644531","1.46875","1.125","-1.6875"
"1574875675961","1159","0.28125","-0.95410156","-0.001953125","14.28125","-1.9375","0.6875"
"1574875676552","1160","0.2578125","-0.90527344","-0.068359375","38.1875","-7.84375","8.4375"
"1574875676552","1161","0.234375","-0.96191406","-0.01171875","31.96875","1.0625","2.96875"
"1574875676552","1162","0.25683594","-0.9746094","-0.07519531","27.65625","6.375","-1.75"
"1574875676553","1163","0.32421875","-0.8720703","-0.032226562","32.03125","6.3125","-2.65625"
"1574875676553","1164","0.18847656","-0.9921875","0.091796875","19.40625","9.0","-7.0625"
"1574875676557","1165","0.29589844","-1.09375","-0.0546875","-9.21875","2.15625","-11.03125"
"1574875676557","1166","0.31054688","-0.91015625","0.13964844","-3.5","-15.90625","-13.59375"
"1574875676557","1167","0.16503906","-0.9160156","0.05078125","8.34375","-0.34375","-6.6875"
"1574875676558","1168","0.35546875","-0.8691406","0.033203125","7.375","1.53125","-0.46875"
"1574875676558","1169","0.3671875","-0.92089844","0.10058594","20.125","-4.4375","8.21875"
"1574875676752","1170","0.25097656","-0.9550781","0.14257812","28.0","-3.9375","8.8125"
"1574875676753","1171","0.29785156","-0.98828125","0.107421875","44.0625","3.3125","10.875"
"1574875676753","1172","0.20507812","-1.0322266","0.23144531","36.5","1.78125","12.125"
"1574875676753","1173","0.18066406","-0.92871094","0.17578125","18.90625","10.59375","11.0625"
"1574875676754","1174","0.2783203","-0.8955078","0.24707031","8.15625","27.5625","5.75"
"1574875676754","1175","0.25097656","-0.95410156","0.21386719","3.84375","21.6875","11.375"
"1574875676754","1176","0.23632812","-0.95703125","0.25878906","8.90625","12.09375","20.53125"
"1574875676756","1177","0.18945312","-0.9121094","0.22363281","4.5625","15.40625","26.28125"
"1574875676757","1178","0.2548828","-0.9472656","0.20800781","4.21875","15.53125","25.46875"
"1574875676757","1179","0.18945312","-0.9658203","0.16894531","16.09375","14.90625","20.34375"
"1574875677151","1180","0.19433594","-0.97558594","0.19726562","16.09375","18.28125","17.46875"
"1574875677152","1181","0.15136719","-0.9472656","0.15625","9.625","25.34375","19.0"
"1574875677152","1182","0.13085938","-0.94628906","0.22753906","11.84375","23.34375","22.5"
"1574875677152","1183","0.15820312","-0.9111328","0.19726562","28.625","25.09375","29.75"
"1574875677152","1184","0.14648438","-0.921875","0.24023438","29.84375","18.21875","33.46875"
"1574875677153","1185","0.05078125","-0.94921875","0.3046875","38.625","15.40625","34.5625"
"1574875677153","1186","0.036132812","-0.9746094","0.2890625","43.3125","12.96875","30.53125"
"1574875677153","1187","0.041015625","-0.9345703","0.3701172","39.40625","10.03125","29.25"
"1574875677153","1188","-0.087890625","-1.0087891","0.35058594","47.46875","15.21875","31.21875"
"1574875677156","1189","0.013671875","-0.8984375","0.5058594","36.75","12.46875","33.90625"
"1574875677743","1190","-0.10058594","-1.0878906","0.4482422","42.53125","-2.59375","27.5625"
"1574875677744","1191","-0.048828125","-0.9560547","0.55859375","32.34375","7.84375","29.375"
"1574875677744","1192","-0.25878906","-0.96875","0.5410156","38.0625","11.0","27.3125"
"1574875677744","1193","-0.14550781","-0.87402344","0.6191406","26.78125","8.9375","11.8125"
"1574875677745","1194","-0.23535156","-0.9111328","0.5957031","29.78125","7.21875","14.625"
"1574875677745","1195","-0.13085938","-0.828125","0.5625","23.96875","5.6875","11.0625"
"1574875677745","1196","-0.28320312","-0.8623047","0.6074219","22.09375","5.34375","10.46875"
"1574875677745","1197","-0.20703125","-0.79589844","0.55859375","13.78125","15.71875","9.90625"
"1574875677746","1198","-0.1484375","-0.7675781","0.6972656","4.625","12.40625","9.125"
"1574875677746","1199","-0.28222656","-0.82714844","0.63183594","9.4375","5.875","9.59375"
"1574875677945","1200","-0.15820312","-0.8613281","0.55566406","-1.40625","16.375","6.0625"
"1574875677946","1201","-0.20019531","-0.83496094","0.59375","-0.1875","3.875","2.09375"
"1574875677946","1202","-0.2265625","-0.82128906","0.46289062","1.34375","8.3125","-2.40625"
"1574875677947","1203","-0.16015625","-0.80566406","0.5361328","-6.28125","13.15625","-3.875"
"1574875677947","1204","-0.15820312","-0.8300781","0.57714844","-6.71875","7.46875","-11.875"
"1574875677947","1205","-0.2109375","-0.8623047","0.5390625","-13.625","1.59375","-17.8125"
"1574875677947","1206","-0.12792969","-0.8330078","0.48339844","-21.25","-0.03125","-21.21875"
"1574875677948","1207","-0.14160156","-0.83984375","0.453125","-29.0","-1.75","-19.75"
"1574875677948","1208","-0.103515625","-0.8017578","0.51171875","-33.03125","-5.53125","-18.03125"
"1574875677948","1209","-0.13964844","-0.8330078","0.48339844","-36.15625","-13.03125","-18.96875"
"1574875678738","1210","-0.17480469","-0.86621094","0.45996094","-40.65625","-16.59375","-24.34375"
"1574875678738","1211","-0.13378906","-0.79296875","0.40722656","-38.15625","-12.3125","-29.21875"
"1574875678739","1212","-0.052734375","-0.7841797","0.36914062","-33.53125","-14.8125","-25.0625"
"1574875678739","1213","-0.08105469","-0.9189453","0.34570312","-29.125","-31.0","-22.875"
"1574875678740","1214","0.034179688","-0.9316406","0.32617188","-27.90625","-26.15625","-25.375"
"1574875678741","1215","-0.0107421875","-0.9267578","0.3359375","-23.5","-42.59375","-20.3125"
"1574875678748","1216","0.020507812","-0.9404297","0.3310547","-32.125","-44.53125","-20.53125"
"1574875678749","1217","0.001953125","-0.89453125","0.25390625","-33.34375","-41.1875","-23.28125"
"1574875678749","1218","0.080078125","-0.8964844","0.21289062","-34.5625","-35.0625","-20.125"
"1574875678749","1219","0.060546875","-0.9091797","0.15527344","-32.125","-26.03125","-17.125"
"1574875678935","1220","0.10644531","-0.89746094","0.20019531","-32.34375","-15.1875","-17.5625"
"1574875678935","1221","0.13867188","-0.91308594","0.203125","-36.75","-6.6875","-19.5"
"1574875678935","1222","0.16796875","-0.98828125","0.2265625","-36.75","-28.3125","-23.09375"
"1574875678936","1223","0.11425781","-0.9472656","0.203125","-37.4375","-33.1875","-24.28125"
"1574875678936","1224","0.2109375","-0.94140625","0.15332031","-29.96875","-45.75","-25.5"
"1574875678936","1225","0.21582031","-0.91015625","0.061523438","-22.78125","-53.6875","-24.75"
"1574875678936","1226","0.20507812","-0.91796875","0.022460938","-15.375","-49.96875","-18.53125"
"1574875678937","1227","0.2265625","-0.8925781","0.0703125","-14.53125","-44.96875","-17.75"
"1574875678937","1228","0.20410156","-0.91796875","0.016601562","-13.5625","-53.9375","-12.625"
"1574875678937","1229","0.25878906","-0.93359375","0.0146484375","-11.0625","-49.125","-9.75"
"1574875679136","1230","0.27148438","-0.9003906","-0.016601562","-8.96875","-46.5","-8.09375"
"1574875679137","1231","0.22460938","-0.921875","-0.0048828125","-3.96875","-40.625","-5.09375"
"1574875679137","1232","0.2578125","-0.96191406","0.021484375","-3.125","-43.3125","-11.875"
"1574875679137","1233","0.13574219","-0.90234375","0.01953125","-1.15625","-42.15625","-17.625"
"1574875679137","1234","0.22363281","-0.9550781","-0.049804688","-0.875","-24.6875","-14.75"
"1574875679138","1235","0.27441406","-0.9482422","-0.056640625","1.03125","-18.53125","-14.625"
"1574875679138","1236","0.3720703","-0.9716797","-0.021484375","-2.28125","-19.6875","-14.5"
"1574875679139","1237","0.296875","-0.9785156","0.01953125","-4.34375","-30.375","-19.5"
"1574875679139","1238","0.265625","-0.90625","0.032226562","-9.40625","-25.5625","-15.78125"
"1574875679140","1239","0.3017578","-0.9091797","-0.022460938","-4.65625","-21.9375","-14.875"
"1574875679535","1240","0.40527344","-0.9453125","-0.10839844","-8.5","-19.8125","-15.53125"
"1574875679536","1241","0.45214844","-0.87597656","-0.16894531","-8.5625","-19.75","-11.625"
"1574875679536","1242","0.3486328","-0.8691406","0.04296875","-3.5","-43.125","-1.25"
"1574875679537","1243","0.35351562","-0.9746094","0.044921875","4.3125","-38.5625","-3.28125"
"1574875679537","1244","0.3232422","-0.9404297","-0.0107421875","14.75","-28.0625","4.59375"
"1574875679537","1245","0.34570312","-0.92578125","-0.0390625","17.4375","-21.9375","7.71875"
"1574875679537","1246","0.2607422","-0.93652344","-0.016601562","16.84375","-14.4375","4.71875"
"1574875679538","1247","0.29101562","-0.91796875","-0.03125","13.34375","2.28125","5.15625"
"1574875679538","1248","0.34765625","-0.93359375","0.0","8.0625","11.75","4.3125"
"1574875679538","1249","0.3330078","-0.94921875","-0.0087890625","4.4375","16.3125","3.8125"
"1574875680328","1250","0.36328125","-0.9345703","-0.041992188","5.53125","20.03125","6.0"
"1574875680329","1251","0.37402344","-0.9355469","-0.060546875","6.78125","18.875","7.34375"
"1574875680329","1252","0.31054688","-0.9423828","0.0029296875","5.3125","19.5625","8.875"
"1574875680329","1253","0.22460938","-0.90625","0.0","7.5625","29.0625","12.28125"
"1574875680329","1254","0.296875","-0.9033203","-0.005859375","12.125","40.1875","15.46875"
"1574875680329","1255","0.31054688","-0.90234375","0.009765625","19.9375","40.5","22.53125"
"1574875680330","1256","0.2529297","-0.93359375","0.049804688","22.875","46.15625","26.21875"
"1574875680330","1257","0.21972656","-0.89746094","0.07421875","23.84375","48.71875","28.15625"
"1574875680330","1258","0.23339844","-0.921875","0.09472656","23.1875","49.75","26.5625"
"1574875680330","1259","0.140625","-0.9042969","0.18554688","22.6875","52.21875","30.0625"
"1574875680725","1260","0.1484375","-0.9375","0.18554688","22.34375","59.71875","33.03125"
"1574875680728","1261","0.17578125","-0.94628906","0.203125","26.34375","56.96875","30.3125"
"1574875680728","1262","0.16992188","-0.9091797","0.18359375","32.28125","49.46875","27.375"
"1574875680729","1263","0.17578125","-0.8730469","0.18945312","41.4375","39.5","27.1875"
"1574875680729","1264","0.048828125","-0.8642578","0.2548828","43.15625","30.125","29.9375"
"1574875680729","1265","0.059570312","-0.85839844","0.22753906","43.9375","30.46875","28.84375"
"1574875680729","1266","0.022460938","-0.8417969","0.28710938","47.53125","25.84375","25.15625"
"1574875680730","1267","-0.0068359375","-0.8486328","0.2998047","51.8125","30.125","23.65625"
"1574875680730","1268","0.0068359375","-0.8388672","0.29101562","52.40625","32.3125","21.8125"
"1574875680730","1269","0.009765625","-0.8671875","0.3876953","45.65625","30.46875","20.90625"
"1574875680730","1270","-0.10449219","-0.89746094","0.42382812","52.78125","30.0","18.28125"
"1574875680731","1271","-0.041992188","-0.86621094","0.40234375","57.96875","21.125","10.34375"
"1574875680731","1272","-0.16699219","-0.84765625","0.47265625","44.1875","21.625","13.34375"
"1574875680731","1273","-0.12890625","-0.8378906","0.421875","46.875","34.625","16.3125"
"1574875680732","1274","0.07714844","-0.78808594","0.50683594","40.03125","17.59375","2.90625"
"1574875680732","1275","-0.12792969","-0.81347656","0.5996094","38.3125","-1.75","7.59375"
"1574875680732","1276","-0.19433594","-0.8330078","0.4814453","18.65625","0.8125","0.5"
"1574875680732","1277","-0.14648438","-0.84277344","0.5498047","13.65625","2.46875","-7.46875"
"1574875680732","1278","-0.09765625","-0.8261719","0.6347656","-3.0625","12.96875","-10.28125"
"1574875680733","1279","-0.15039062","-0.8779297","0.6171875","-1.59375","5.28125","-16.15625"
"1574875681125","1280","-0.17382812","-0.8017578","0.6201172","-3.1875","0.3125","-20.3125"
"1574875681125","1281","-0.16210938","-0.8798828","0.5810547","-15.15625","3.25","-10.15625"
"1574875681126","1282","-0.107421875","-0.8417969","0.609375","-14.0","4.0625","-14.0"
"1574875681126","1283","-0.10644531","-0.8125","0.6113281","-20.28125","-0.59375","-12.71875"
"1574875681126","1284","-0.0078125","-0.7861328","0.60546875","-28.9375","-13.34375","-17.84375"
"1574875681128","1285","-0.11621094","-0.7841797","0.5361328","-22.53125","-25.375","-19.375"
"1574875681128","1286","-0.08984375","-0.7675781","0.46875","-29.84375","-21.65625","-21.65625"
"1574875681128","1287","0.036132812","-0.6748047","0.4580078","-32.0","-24.875","-25.65625"
"1574875681129","1288","0.0087890625","-0.5800781","0.328125","-34.5625","-35.5625","-25.0625"
"1574875681129","1289","0.01171875","-0.56152344","0.25390625","-31.4375","-36.0625","-25.125"
"1574875681521","1290","0.038085938","-0.7783203","0.3955078","-52.5625","-41.59375","-26.21875"
"1574875681521","1291","-0.0029296875","-1.5292969","0.6230469","-95.59375","-38.125","-24.875"
"1574875681522","1292","0.39257812","-2.0","0.7363281","-42.0","-11.5625","-37.625"
"1574875681522","1293","0.24707031","-1.5214844","0.43554688","-40.53125","-5.46875","-20.96875"
"1574875681522","1294","0.26660156","-0.9277344","0.20214844","-17.53125","-4.8125","-10.96875"
"1574875681522","1295","0.10253906","-0.5751953","0.19335938","-20.9375","-9.125","-8.9375"
"1574875681523","1296","0.055664062","-0.49902344","0.16601562","-35.90625","-4.75","-23.0"
"1574875681523","1297","0.15917969","-0.6660156","0.18652344","-52.25","-3.59375","-22.25"
"1574875681523","1298","0.04296875","-0.7265625","0.20507812","-51.46875","-7.125","-27.875"
