"# PR data"
"# Start time: 20191127T183900"
"# Subject: lukasz"
"# Activity type: Step ups"
"# Correctness: Incorrect"
"# Notes: "
""
"timestamp","seq","accel_x","accel_y","accel_z","gyro_x","gyro_y","gyro_z"
"1574876340578","0","0.38378906","-0.92089844","0.041992188","12.8125","-18.34375","0.09375"
"1574876340579","1","0.3408203","-0.8984375","0.0703125","20.375","-19.15625","0.28125"
"1574876340579","2","0.35351562","-0.95214844","0.028320312","21.34375","-17.875","0.5625"
"1574876340579","3","0.35546875","-0.92089844","0.05859375","14.59375","-9.5625","1.3125"
"1574876340580","4","0.36914062","-0.921875","0.05859375","19.15625","-6.5","1.1875"
"1574876340580","5","0.3486328","-0.91503906","0.07714844","17.5","-0.78125","1.4375"
"1574876340580","6","0.3642578","-0.9199219","0.078125","17.4375","0.5","-1.0625"
"1574876340581","7","0.3779297","-0.89453125","0.1015625","18.53125","3.25","-1.875"
"1574876340581","8","0.34472656","-0.89453125","0.16210938","18.0","4.21875","-3.15625"
"1574876340581","9","0.39453125","-0.8769531","0.14746094","14.28125","4.53125","-2.90625"
"1574876340975","10","0.41601562","-0.8984375","0.15429688","15.96875","0.15625","-4.8125"
"1574876340975","11","0.41308594","-0.91308594","0.1875","16.84375","0.8125","-4.3125"
"1574876340976","12","0.40234375","-0.8955078","0.15625","16.21875","3.4375","-8.9375"
"1574876340977","13","0.4345703","-0.8857422","0.25","14.75","3.0","-5.46875"
"1574876340978","14","0.36132812","-0.8828125","0.19921875","23.0","8.375","-8.9375"
"1574876340978","15","0.40527344","-0.86035156","0.22558594","19.65625","7.46875","-6.4375"
"1574876340978","16","0.42089844","-0.87597656","0.2421875","15.9375","3.5","-5.53125"
"1574876340978","17","0.4033203","-0.8613281","0.24609375","13.1875","8.25","-7.125"
"1574876340979","18","0.44726562","-0.8671875","0.24121094","9.15625","7.53125","-4.625"
"1574876340979","19","0.4345703","-0.85253906","0.22558594","4.3125","5.34375","-5.09375"
"1574876341572","20","0.43554688","-0.84277344","0.24316406","0.40625","3.1875","-0.71875"
"1574876341572","21","0.4267578","-0.84375","0.22949219","5.25","3.5625","1.25"
"1574876341572","22","0.4375","-0.8515625","0.24023438","5.53125","3.5","4.65625"
"1574876341573","23","0.39746094","-0.8652344","0.24121094","6.59375","7.65625","7.09375"
"1574876341573","24","0.41992188","-0.8310547","0.20703125","3.96875","11.875","11.5"
"1574876341574","25","0.40625","-0.88964844","0.2685547","-6.0","14.125","14.5"
"1574876341575","26","0.39648438","-0.87597656","0.20800781","-6.34375","17.59375","14.90625"
"1574876341575","27","0.46289062","-0.8828125","0.21289062","-12.21875","25.78125","14.78125"
"1574876341576","28","0.34765625","-0.88183594","0.23925781","-13.125","29.25","12.96875"
"1574876341576","29","0.38476562","-0.8925781","0.30859375","-17.21875","24.4375","14.25"
"1574876341772","30","0.119140625","-0.98828125","0.28222656","-7.5","27.5625","23.03125"
"1574876341772","31","0.4033203","-1.0458984","0.1875","-16.84375","43.71875","23.71875"
"1574876341773","32","0.25390625","-0.875","0.35839844","-14.09375","45.0625","20.40625"
"1574876341773","33","0.21289062","-0.99902344","0.37402344","-14.53125","28.34375","29.4375"
"1574876341773","34","0.28515625","-1.0498047","0.2861328","10.125","13.625","27.5"
"1574876341773","35","0.14941406","-0.98339844","0.3720703","-0.4375","14.84375","26.875"
"1574876341774","36","0.22265625","-0.97753906","0.2939453","0.1875","11.625","25.78125"
"1574876341775","37","0.13769531","-0.8984375","0.3076172","6.46875","2.9375","17.65625"
"1574876341776","38","0.11816406","-0.88671875","0.29785156","4.25","-0.90625","13.9375"
"1574876341776","39","0.12402344","-0.9423828","0.2841797","-6.0625","-1.75","10.53125"
"1574876342169","40","0.09667969","-0.94921875","0.32128906","-6.21875","-4.96875","1.375"
"1574876342170","41","0.11328125","-0.9785156","0.33398438","-3.5625","-6.4375","-1.375"
"1574876342170","42","0.08886719","-0.9902344","0.30371094","-8.84375","-11.34375","-4.84375"
"1574876342170","43","0.14453125","-0.953125","0.31640625","-11.40625","-11.75","-7.53125"
"1574876342170","44","0.11425781","-0.8964844","0.25097656","2.90625","-17.625","-8.21875"
"1574876342170","45","0.1328125","-0.90625","0.24804688","-8.4375","-12.75","-7.65625"
"1574876342171","46","0.16699219","-0.8925781","0.24609375","-1.21875","-16.21875","-10.65625"
"1574876342171","47","0.1640625","-0.8847656","0.24023438","-3.65625","-17.9375","-11.5"
"1574876342171","48","0.15527344","-0.8779297","0.21386719","-6.34375","-17.4375","-11.6875"
"1574876342173","49","0.18261719","-0.9013672","0.2109375","-4.78125","-17.3125","-12.90625"
"1574876342566","50","0.16503906","-0.9042969","0.22558594","-11.96875","-10.96875","-11.75"
"1574876342567","51","0.19921875","-0.91796875","0.19140625","-10.375","-10.1875","-12.25"
"1574876342567","52","0.2109375","-0.92089844","0.19042969","-9.21875","-8.9375","-12.78125"
"1574876342567","53","0.23339844","-0.9326172","0.18847656","-10.5625","-4.875","-14.875"
"1574876342567","54","0.20996094","-0.9121094","0.21191406","-7.46875","-10.0","-14.9375"
"1574876342568","55","0.2421875","-0.88964844","0.16015625","-4.28125","-7.3125","-13.46875"
"1574876342568","56","0.23632812","-0.9423828","0.17285156","-9.59375","-5.78125","-12.78125"
"1574876342568","57","0.23925781","-0.9345703","0.17382812","-11.1875","-3.40625","-12.0"
"1574876342568","58","0.2548828","-0.9042969","0.16210938","-14.40625","-7.0625","-12.25"
"1574876342569","59","0.27441406","-0.9140625","0.16894531","-13.5625","-11.6875","-15.53125"
"1574876342962","60","0.26953125","-0.90722656","0.10546875","-16.5","-14.125","-22.125"
"1574876342963","61","0.27539062","-0.9394531","0.15332031","-16.375","-12.84375","-21.75"
"1574876342964","62","0.28320312","-0.9609375","0.13183594","-23.3125","-10.28125","-14.125"
"1574876342964","63","0.3076172","-0.96972656","0.10644531","-26.9375","-10.96875","-14.0625"
"1574876342964","64","0.36035156","-0.88964844","0.06640625","-26.0","-13.28125","-12.84375"
"1574876342964","65","0.3623047","-0.88183594","0.047851562","-16.5","-16.65625","-9.5625"
"1574876342965","66","0.3642578","-0.8652344","0.083984375","-7.5","-18.09375","-3.875"
"1574876342965","67","0.3857422","-0.8613281","0.034179688","-5.9375","-22.3125","0.03125"
"1574876342965","68","0.36035156","-0.9033203","0.11328125","15.0","-15.84375","0.9375"
"1574876342965","69","0.32910156","-0.89941406","0.12695312","15.3125","-7.65625","2.46875"
"1574876343361","70","0.32910156","-0.92578125","0.09082031","6.53125","-0.84375","4.96875"
"1574876343361","71","0.38476562","-0.95703125","0.09375","6.78125","3.4375","2.90625"
"1574876343362","72","0.36328125","-0.95410156","0.09375","4.09375","6.6875","4.1875"
"1574876343363","73","0.39257812","-0.9238281","0.05078125","-8.625","5.5","0.875"
"1574876343364","74","0.41503906","-0.8925781","0.048828125","-4.09375","0.21875","-1.375"
"1574876343364","75","0.3623047","-0.88671875","0.057617188","-2.5625","2.59375","3.0"
"1574876343364","76","0.3701172","-0.8886719","0.047851562","-1.03125","7.03125","7.90625"
"1574876343365","77","0.36328125","-0.8701172","0.021484375","7.375","14.1875","9.0"
"1574876343365","78","0.36621094","-0.87597656","0.05078125","1.28125","7.34375","11.3125"
"1574876343365","79","0.33984375","-0.9511719","0.076171875","2.75","12.34375","15.71875"
"1574876343758","80","0.38085938","-0.8847656","0.08105469","10.3125","15.09375","14.0625"
"1574876343759","81","0.3310547","-0.91796875","0.07324219","12.03125","5.6875","9.90625"
"1574876343759","82","0.2783203","-0.9433594","0.12597656","16.28125","13.5","17.53125"
"1574876343759","83","0.32421875","-0.8486328","0.109375","6.53125","8.6875","14.375"
"1574876343760","84","0.31640625","-0.93359375","0.11035156","14.34375","0.03125","14.84375"
"1574876343761","85","0.22558594","-0.9404297","0.17578125","14.21875","4.125","19.75"
"1574876343762","86","0.26757812","-0.9267578","0.1171875","14.28125","5.6875","16.75"
"1574876343762","87","0.25097656","-0.97265625","0.12890625","20.875","0.4375","15.90625"
"1574876343762","88","0.21875","-0.9199219","0.17675781","15.96875","7.78125","19.625"
"1574876343763","89","0.24023438","-0.9248047","0.1328125","10.6875","4.53125","16.375"
"1574876344156","90","0.17382812","-0.9091797","0.1171875","13.53125","1.84375","13.6875"
"1574876344157","91","0.19824219","-0.91503906","0.14746094","1.21875","1.59375","15.46875"
"1574876344157","92","0.1953125","-0.9785156","0.15332031","3.46875","3.3125","13.875"
"1574876344157","93","0.14355469","-0.9082031","0.17382812","0.0625","-0.28125","10.46875"
"1574876344158","94","0.12890625","-0.9580078","0.20800781","-9.46875","2.84375","13.03125"
"1574876344158","95","0.020507812","-1.0136719","0.19140625","-14.34375","-3.21875","19.96875"
"1574876344158","96","0.18066406","-0.93359375","0.1953125","0.40625","7.71875","16.25"
"1574876344158","97","0.06933594","-1.0283203","0.2421875","-11.71875","3.9375","20.09375"
"1574876344159","98","0.06933594","-1.0048828","0.18164062","-24.90625","0.5","10.59375"
"1574876344159","99","0.0546875","-1.1044922","0.12011719","-33.625","-0.46875","3.1875"
"1574876344552","100","0.11230469","-1.0478516","0.13769531","-11.25","12.21875","-3.5625"
"1574876344553","101","0.21777344","-0.97265625","0.0859375","-1.53125","15.9375","-2.46875"
"1574876344553","102","0.24414062","-1.1123047","0.09667969","2.0625","16.0","4.65625"
"1574876344553","103","0.22851562","-1.2167969","0.16601562","16.71875","8.0625","0.5"
"1574876344553","104","0.08886719","-1.0107422","0.12207031","-3.25","7.65625","-0.84375"
"1574876344554","105","0.25","-0.9580078","0.052734375","7.1875","4.0","-10.21875"
"1574876344554","106","0.18945312","-1.0136719","0.057617188","-0.5","-10.71875","-9.0"
"1574876344554","107","0.18261719","-0.99609375","0.05859375","-10.625","-11.09375","-17.125"
"1574876344554","108","0.234375","-0.8720703","0.080078125","-5.375","-21.65625","-21.75"
"1574876344556","109","0.17773438","-0.9501953","0.07519531","-5.625","-22.625","-15.78125"
"1574876345349","110","0.19433594","-1.0029297","0.052734375","-7.21875","-16.34375","-18.34375"
"1574876345349","111","0.17773438","-0.9482422","0.1328125","-5.4375","-23.53125","-19.125"
"1574876345349","112","0.20898438","-0.9921875","0.061523438","-4.15625","-23.21875","-16.53125"
"1574876345350","113","0.20605469","-0.9423828","0.02734375","-3.4375","-20.375","-18.90625"
"1574876345350","114","0.18164062","-0.9091797","0.1015625","-2.4375","-15.0625","-12.5"
"1574876345350","115","0.2734375","-0.9824219","0.08300781","-4.71875","-7.4375","-12.65625"
"1574876345350","116","0.24023438","-0.9863281","0.0859375","-0.625","-8.875","-16.03125"
"1574876345351","117","0.19042969","-0.93359375","0.08691406","7.3125","-6.4375","-10.96875"
"1574876345351","118","0.24414062","-0.9472656","0.0546875","-0.75","-1.6875","-10.15625"
"1574876345351","119","0.22265625","-0.9863281","0.10644531","4.8125","1.1875","-7.40625"
"1574876345546","120","0.24121094","-0.9794922","0.08691406","-3.25","7.34375","-10.96875"
"1574876345547","121","0.3017578","-0.9580078","0.05078125","-5.1875","2.9375","-13.78125"
"1574876345547","122","0.2626953","-0.8964844","0.06933594","0.65625","1.90625","-15.59375"
"1574876345548","123","0.2763672","-0.94140625","0.06933594","-0.875","-0.09375","-14.25"
"1574876345548","124","0.27734375","-1.0371094","0.12792969","-8.4375","2.59375","-11.28125"
"1574876345548","125","0.28125","-0.88671875","0.09472656","-8.375","6.3125","-7.71875"
"1574876345548","126","0.36035156","-0.83691406","0.0068359375","-4.84375","-0.09375","-9.375"
"1574876345549","127","0.359375","-0.95410156","0.07519531","-14.34375","-10.59375","-6.8125"
"1574876345549","128","0.36816406","-0.9794922","0.036132812","-10.3125","-5.84375","-10.59375"
"1574876345549","129","0.4013672","-0.9091797","0.0068359375","-6.125","-6.09375","-8.46875"
"1574876345745","130","0.3955078","-0.9003906","0.037109375","4.8125","-5.09375","-4.84375"
"1574876345745","131","0.38183594","-0.89746094","0.068359375","9.34375","-2.96875","-1.5"
"1574876345746","132","0.4453125","-0.921875","0.0625","8.0","-2.40625","-0.84375"
"1574876345747","133","0.35839844","-0.95410156","0.07421875","14.8125","-0.78125","-1.875"
"1574876345748","134","0.34179688","-0.9326172","0.0390625","11.78125","7.03125","-1.5"
"1574876345748","135","0.4033203","-0.8964844","0.059570312","12.9375","15.15625","-1.0"
"1574876345748","136","0.3798828","-0.8955078","0.07519531","15.125","14.90625","-1.0"
"1574876345748","137","0.40429688","-0.90234375","0.07421875","16.59375","15.21875","-0.65625"
"1574876345749","138","0.4248047","-0.8847656","0.08886719","14.875","11.3125","2.96875"
"1574876345749","139","0.3857422","-0.92871094","0.09667969","13.0625","9.25","3.9375"
"1574876346341","140","0.40429688","-0.88183594","0.11425781","3.40625","8.25","8.375"
"1574876346341","141","0.38671875","-0.921875","0.1171875","-4.28125","3.25","11.625"
"1574876346342","142","0.36523438","-0.9082031","0.109375","-10.375","7.71875","13.625"
"1574876346342","143","0.36523438","-0.9765625","0.11621094","-19.78125","8.3125","16.5625"
"1574876346342","144","0.35351562","-0.9082031","0.040039062","-19.28125","15.84375","14.1875"
"1574876346344","145","0.37402344","-0.9169922","0.043945312","-4.28125","25.53125","18.40625"
"1574876346344","146","0.45214844","-0.921875","0.045898438","29.28125","28.21875","22.125"
"1574876346344","147","0.13769531","-0.93847656","0.2841797","18.5","25.65625","19.9375"
"1574876346345","148","0.24023438","-1.0058594","0.18652344","9.9375","44.875","19.625"
"1574876346345","149","0.23925781","-1.1181641","0.26660156","17.8125","53.5","26.625"
"1574876346540","150","0.08300781","-1.2167969","0.24316406","-16.125","44.5625","29.5"
"1574876346540","151","0.30078125","-1.1806641","0.2548828","5.0","50.0625","25.65625"
"1574876346540","152","0.09863281","-0.9628906","0.2763672","7.875","29.5","21.4375"
"1574876346540","153","0.07324219","-0.95703125","0.08496094","12.125","14.84375","21.4375"
"1574876346541","154","0.028320312","-1.0390625","0.22851562","-11.0","21.625","22.84375"
"1574876346541","155","0.12109375","-1.0068359","0.20019531","-5.6875","9.40625","16.875"
"1574876346541","156","0.06542969","-0.9658203","0.21875","-2.625","3.1875","9.90625"
"1574876346542","157","0.024414062","-0.9453125","0.25976562","-7.9375","0.25","7.53125"
"1574876346543","158","0.03515625","-0.9482422","0.140625","1.875","-1.8125","5.09375"
"1574876346543","159","0.07128906","-0.953125","0.23925781","-7.9375","-7.65625","-2.84375"
"1574876346937","160","0.0546875","-0.9189453","0.2109375","-4.15625","-15.53125","-4.75"
"1574876346937","161","0.078125","-0.91796875","0.18164062","-8.125","-16.9375","-5.96875"
"1574876346938","162","0.0546875","-0.9111328","0.171875","-8.6875","-20.125","-5.21875"
"1574876346938","163","0.056640625","-0.8964844","0.19042969","-5.875","-17.0","-6.375"
"1574876346938","164","0.07714844","-0.94433594","0.17578125","-5.375","-17.5","-7.3125"
"1574876346938","165","0.08203125","-0.9394531","0.17382812","-7.46875","-17.125","-12.0"
"1574876346939","166","0.10449219","-0.9121094","0.14160156","-12.03125","-20.3125","-14.3125"
"1574876346939","167","0.13574219","-0.92871094","0.12597656","-11.25","-23.34375","-14.6875"
"1574876346939","168","0.12207031","-0.9453125","0.12597656","-13.875","-23.84375","-17.5"
"1574876346940","169","0.1328125","-0.94140625","0.1171875","-9.96875","-24.6875","-18.15625"
"1574876347338","170","0.10839844","-0.9355469","0.08203125","-11.65625","-21.34375","-15.53125"
"1574876347338","171","0.14746094","-0.94433594","0.07324219","-13.5625","-18.65625","-15.71875"
"1574876347338","172","0.15820312","-0.9482422","0.051757812","-10.03125","-15.71875","-16.8125"
"1574876347339","173","0.15234375","-0.9638672","0.06347656","-9.90625","-14.9375","-18.46875"
"1574876347339","174","0.17382812","-0.96191406","0.037109375","-6.40625","-8.59375","-17.5625"
"1574876347339","175","0.2109375","-0.9550781","0.045898438","-13.875","-12.5625","-20.375"
"1574876347339","176","0.21875","-0.9355469","0.018554688","-7.5625","-17.125","-21.71875"
"1574876347340","177","0.21777344","-0.9394531","0.0087890625","-12.65625","-15.3125","-20.96875"
"1574876347340","178","0.24609375","-0.9199219","-0.028320312","3.28125","-13.53125","-24.03125"
"1574876347340","179","0.25683594","-0.9326172","0.009765625","5.25","-14.375","-16.8125"
"1574876347733","180","0.3203125","-0.9501953","0.02734375","-1.28125","-14.25","-18.09375"
"1574876347735","181","0.3623047","-0.8808594","0.030273438","12.125","-21.21875","-18.65625"
"1574876347735","182","0.3095703","-0.9345703","0.061523438","10.71875","-31.65625","-6.875"
"1574876347735","183","0.35058594","-0.95996094","0.06347656","15.875","-20.65625","-5.96875"
"1574876347736","184","0.29882812","-0.80078125","0.17089844","30.875","-20.5625","-1.875"
"1574876347736","185","0.2578125","-0.9296875","0.23046875","8.46875","-15.59375","2.90625"
"1574876347736","186","0.3935547","-1.0068359","0.08984375","-16.78125","-14.03125","-3.8125"
"1574876347737","187","0.4423828","-1.0566406","0.09472656","-7.6875","-2.78125","-4.1875"
"1574876347737","188","0.28808594","-0.9316406","0.07324219","-8.75","1.65625","-5.09375"
"1574876347737","189","0.3388672","-0.8183594","0.0078125","-10.25","8.25","-5.09375"
"1574876348130","190","0.43554688","-0.8261719","0.005859375","-8.1875","7.65625","-4.5"
"1574876348131","191","0.390625","-0.859375","0.07128906","2.6875","0.25","-2.96875"
"1574876348131","192","0.38183594","-0.87109375","0.015625","3.90625","-2.53125","2.21875"
"1574876348133","193","0.38476562","-0.91308594","0.08496094","4.03125","-0.03125","3.9375"
"1574876348133","194","0.3173828","-0.8310547","0.10253906","14.15625","-3.8125","3.0"
"1574876348133","195","0.28027344","-0.89941406","0.08203125","6.9375","-2.0625","9.4375"
"1574876348134","196","0.328125","-0.9091797","0.109375","4.15625","11.8125","13.9375"
"1574876348134","197","0.25","-0.78027344","0.12109375","13.96875","11.9375","7.96875"
"1574876348134","198","0.27246094","-0.8261719","0.111328125","1.8125","13.8125","12.21875"
"1574876348134","199","0.30859375","-0.86328125","0.123046875","-5.75","9.84375","13.5"
"1574876348527","200","0.2529297","-0.8935547","0.14160156","-9.15625","8.5","14.125"
"1574876348527","201","0.2607422","-0.8642578","0.047851562","-17.46875","8.9375","12.21875"
"1574876348528","202","0.34277344","-0.78027344","0.055664062","-17.09375","4.21875","6.5"
"1574876348528","203","0.2548828","-0.90527344","0.15722656","-6.71875","-8.59375","12.15625"
"1574876348528","204","0.25878906","-1.0673828","0.06347656","20.625","-3.15625","2.96875"
"1574876348529","205","0.3671875","-1.3408203","-0.04296875","19.40625","-3.59375","-2.46875"
"1574876348529","206","0.375","-1.3203125","-0.005859375","3.90625","-5.28125","-1.875"
"1574876348529","207","0.34570312","-1.1025391","-0.022460938","-4.15625","5.75","-0.90625"
"1574876348530","208","0.4111328","-1.2871094","-0.04296875","19.9375","-2.46875","-3.875"
"1574876348530","209","0.22070312","-1.0478516","0.044921875","25.6875","19.90625","3.5"
"1574876348924","210","0.3701172","-0.7060547","0.0126953125","21.40625","7.78125","3.75"
"1574876348925","211","0.34570312","-0.94921875","-0.001953125","31.65625","-5.78125","9.125"
"1574876348925","212","0.24707031","-0.93066406","0.0126953125","18.25","0.09375","15.21875"
"1574876348925","213","0.29589844","-0.9326172","0.048828125","3.09375","1.96875","10.9375"
"1574876348926","214","0.31835938","-0.9970703","0.095703125","9.5","-3.46875","4.0"
"1574876348926","215","0.22265625","-0.9326172","0.09082031","-0.3125","-9.6875","1.125"
"1574876348926","216","0.31933594","-0.85058594","0.045898438","3.28125","-5.90625","-3.6875"
"1574876348927","217","0.19628906","-0.87402344","0.14257812","17.375","-10.96875","3.25"
"1574876348928","218","0.19042969","-1.0664062","0.07128906","18.0625","-2.46875","0.03125"
"1574876348928","219","0.21386719","-0.95703125","0.19433594","17.875","9.96875","-1.1875"
"1574876349718","220","0.19628906","-1.0419922","0.21777344","-5.125","15.9375","3.375"
"1574876349719","221","0.27441406","-0.99121094","0.18066406","-6.53125","14.84375","-1.125"
"1574876349719","222","0.18652344","-0.87402344","0.16992188","-8.0625","1.4375","-1.125"
"1574876349720","223","0.18652344","-0.90625","0.171875","-6.28125","1.59375","-0.15625"
"1574876349720","224","0.203125","-0.9248047","0.17773438","-8.84375","6.0625","-5.09375"
"1574876349721","225","0.18652344","-0.9746094","0.18652344","-9.28125","3.625","-6.25"
"1574876349721","226","0.29589844","-1.0107422","0.15234375","-5.125","0.75","-11.5"
"1574876349721","227","0.359375","-0.9453125","0.15234375","-5.5625","-13.84375","-18.46875"
"1574876349721","228","0.29589844","-0.83691406","0.16699219","5.96875","-19.4375","-18.03125"
"1574876349722","229","0.29882812","-0.8183594","0.21191406","-7.40625","-25.375","-8.34375"
"1574876349724","230","0.31347656","-0.96875","0.20214844","-10.875","-30.125","-5.53125"
"1574876349725","231","0.3125","-0.953125","0.15722656","-12.875","-22.9375","-8.09375"
"1574876349725","232","0.36132812","-0.93359375","0.13476562","-5.6875","-10.71875","-9.4375"
"1574876349725","233","0.35253906","-0.9238281","0.109375","3.96875","-1.375","-7.0"
"1574876349726","234","0.33398438","-0.9160156","0.115234375","2.375","3.3125","-2.71875"
"1574876349726","235","0.38867188","-0.9550781","0.12792969","3.40625","6.1875","-5.15625"
"1574876349726","236","0.39257812","-0.8925781","0.12890625","9.21875","2.59375","-6.1875"
"1574876349726","237","0.38867188","-0.88671875","0.11035156","6.9375","-3.9375","-5.34375"
"1574876349727","238","0.36523438","-0.8886719","0.13476562","2.375","-4.4375","-1.1875"
"1574876349727","239","0.35058594","-0.8955078","0.111328125","3.21875","1.65625","-0.9375"
"1574876350315","240","0.3642578","-0.9423828","0.13964844","-9.65625","2.28125","0.03125"
"1574876350315","241","0.37695312","-0.921875","0.09863281","-7.09375","7.90625","1.84375"
"1574876350316","242","0.4140625","-0.92089844","0.10058594","-15.15625","9.90625","6.0625"
"1574876350316","243","0.375","-0.921875","0.078125","-10.6875","7.90625","6.3125"
"1574876350316","244","0.39648438","-0.9091797","0.0703125","-12.34375","17.15625","8.4375"
"1574876350316","245","0.3564453","-0.9482422","0.06640625","-9.65625","22.0","11.1875"
"1574876350317","246","0.3017578","-0.97265625","0.01953125","-8.0","33.03125","5.6875"
"1574876350317","247","0.51171875","-0.8076172","0.16015625","-15.8125","31.6875","17.0625"
"1574876350317","248","0.13769531","-1.046875","0.19433594","-7.5625","18.6875","25.84375"
"1574876350317","249","0.2548828","-1.2226562","-0.016601562","-8.6875","41.71875","14.25"
"1574876350515","250","0.3173828","-1.0605469","0.15722656","-6.78125","51.0","24.5625"
"1574876350516","251","0.20703125","-1.1552734","0.23046875","-0.3125","51.65625","30.34375"
"1574876350516","252","0.21777344","-1.2119141","0.13769531","13.53125","47.9375","36.28125"
"1574876350517","253","0.111328125","-0.96191406","0.15820312","6.09375","38.53125","41.59375"
"1574876350517","254","0.09082031","-0.9980469","0.076171875","-2.03125","28.9375","37.0"
"1574876350518","255","0.13183594","-1.0566406","0.072265625","-2.3125","25.09375","24.375"
"1574876350518","256","0.10546875","-0.8876953","0.234375","4.625","21.3125","17.71875"
"1574876350518","257","0.02734375","-0.9169922","0.12207031","-1.09375","14.71875","17.53125"
"1574876350518","258","0.107421875","-0.9550781","0.111328125","-5.0625","11.1875","12.0625"
"1574876350519","259","0.038085938","-0.8798828","0.13378906","-5.75","-0.71875","7.84375"
"1574876350913","260","0.032226562","-0.9277344","0.09667969","-6.78125","-3.875","6.875"
"1574876350913","261","0.041992188","-0.9873047","0.12207031","-10.375","-6.375","3.0625"
"1574876350914","262","-0.015625","-0.9394531","0.10253906","-10.4375","-11.21875","0.875"
"1574876350914","263","0.025390625","-0.9707031","0.08300781","-6.34375","-11.28125","-1.0625"
"1574876350914","264","0.0126953125","-0.98339844","0.08300781","-5.25","-12.5625","-5.59375"
"1574876350915","265","0.0107421875","-0.9511719","0.09667969","-7.625","-11.625","-5.21875"
"1574876350916","266","0.038085938","-0.9404297","0.047851562","-4.9375","-15.71875","-7.84375"
"1574876350916","267","0.0234375","-0.93066406","0.06933594","-4.90625","-12.375","-11.03125"
"1574876350916","268","0.037109375","-0.9472656","0.06640625","-8.625","-15.53125","-12.71875"
"1574876350918","269","0.080078125","-0.9316406","0.04296875","-1.96875","-17.0625","-17.625"
"1574876351311","270","0.07910156","-0.95703125","0.05078125","-3.71875","-19.15625","-17.6875"
"1574876351311","271","0.083984375","-0.9794922","0.03515625","-3.84375","-22.8125","-19.5625"
"1574876351312","272","0.107421875","-0.97265625","0.03125","-6.84375","-23.40625","-23.78125"
"1574876351312","273","0.123046875","-0.9736328","0.053710938","-13.0625","-29.46875","-23.65625"
"1574876351312","274","0.123046875","-0.9638672","0.0146484375","-9.15625","-33.625","-26.21875"
"1574876351312","275","0.14648438","-0.9345703","9.765625E-4","0.1875","-33.84375","-27.0"
"1574876351313","276","0.19140625","-0.93847656","-0.015625","3.09375","-35.875","-25.78125"
"1574876351314","277","0.19824219","-0.97265625","-0.0029296875","2.6875","-34.40625","-30.375"
"1574876351315","278","0.20019531","-0.92871094","0.001953125","10.78125","-36.34375","-34.75"
"1574876351315","279","0.25","-0.9345703","0.0146484375","9.21875","-37.34375","-34.8125"
"1574876351905","280","0.2919922","-1.0","0.032226562","8.0625","-38.375","-31.53125"
"1574876351906","281","0.30859375","-0.9199219","0.047851562","17.8125","-44.96875","-36.09375"
"1574876351906","282","0.30371094","-0.8652344","0.13671875","11.28125","-41.125","-19.03125"
"1574876351906","283","0.24609375","-0.92578125","0.16113281","7.0","-20.71875","-7.84375"
"1574876351906","284","0.27246094","-1.0","0.13769531","-13.4375","3.75","0.15625"
"1574876351907","285","0.4013672","-1.0410156","0.064453125","-15.28125","9.25","0.75"
"1574876351907","286","0.42382812","-0.9580078","0.020507812","-21.3125","1.5","-3.875"
"1574876351907","287","0.40820312","-0.8857422","-0.013671875","-17.59375","-1.5625","-6.625"
"1574876351908","288","0.42871094","-0.89453125","-0.013671875","-13.3125","1.125","-5.53125"
"1574876351909","289","0.40234375","-0.8642578","0.018554688","-12.46875","0.375","-4.0625"
"1574876352105","290","0.41992188","-0.8720703","-0.03125","-2.3125","7.03125","-1.875"
"1574876352106","291","0.37304688","-0.86621094","0.041015625","-3.78125","6.75","-0.40625"
"1574876352106","292","0.34375","-0.8203125","-0.009765625","3.71875","-0.03125","-0.84375"
"1574876352106","293","0.36132812","-0.8515625","-0.00390625","-1.21875","2.21875","2.90625"
"1574876352107","294","0.33203125","-0.80566406","0.029296875","1.09375","3.9375","2.65625"
"1574876352107","295","0.3779297","-0.8144531","0.001953125","-4.71875","0.9375","5.28125"
"1574876352107","296","0.38183594","-0.90625","0.111328125","7.6875","6.78125","11.3125"
"1574876352107","297","0.2783203","-0.82128906","0.051757812","5.0625","-1.9375","6.25"
"1574876352108","298","0.28320312","-0.8955078","0.013671875","3.40625","1.125","12.53125"
"1574876352108","299","0.26757812","-0.8515625","0.07128906","-4.71875","6.75","17.65625"
"1574876352503","300","0.30371094","-0.7939453","0.021484375","-6.0625","3.0","7.90625"
"1574876352505","301","0.3076172","-0.81933594","0.03515625","-5.125","-3.46875","10.65625"
"1574876352505","302","0.18066406","-0.91015625","0.11230469","-1.28125","14.78125","17.0625"
"1574876352506","303","0.37402344","-1.1669922","-0.111328125","14.15625","8.6875","1.90625"
"1574876352506","304","0.4638672","-1.3896484","-0.0107421875","19.03125","12.78125","-0.28125"
"1574876352506","305","0.3671875","-1.2685547","-0.06933594","-0.25","-8.71875","-4.3125"
"1574876352507","306","0.2939453","-1.1474609","-0.01171875","0.0","7.21875","2.90625"
"1574876352507","307","0.30566406","-1.0566406","-0.17480469","0.90625","11.96875","7.78125"
"1574876352508","308","0.38085938","-1.0019531","-0.11425781","1.34375","19.5","3.4375"
"1574876352508","309","0.37597656","-0.84375","-0.15039062","0.125","14.5625","-2.0"
"1574876352901","310","0.39648438","-0.8642578","0.005859375","10.6875","5.5625","0.5625"
"1574876352902","311","0.32128906","-0.96875","-0.057617188","6.9375","-3.8125","4.84375"
"1574876352902","312","0.33007812","-0.9394531","-0.024414062","6.71875","-4.9375","5.34375"
"1574876352902","313","0.28515625","-0.9375","-0.047851562","10.1875","-5.46875","10.03125"
"1574876352903","314","0.32128906","-0.93847656","-0.0546875","4.5625","-0.53125","10.59375"
"1574876352903","315","0.28320312","-0.94628906","0.0126953125","8.46875","-7.90625","8.8125"
"1574876352903","316","0.22460938","-0.984375","-0.037109375","7.1875","-6.03125","8.15625"
"1574876352904","317","0.2529297","-0.953125","0.0126953125","8.21875","-2.53125","2.65625"
"1574876352904","318","0.24414062","-0.9609375","-0.033203125","0.71875","0.375","3.0625"
"1574876352904","319","0.28515625","-0.9511719","0.017578125","7.4375","-4.4375","-3.8125"
"1574876353496","320","0.18066406","-0.98535156","0.056640625","6.34375","1.25","-0.03125"
"1574876353496","321","0.26171875","-0.9892578","-0.0068359375","-6.53125","9.40625","-0.9375"
"1574876353496","322","0.3330078","-0.90234375","0.0068359375","3.28125","2.03125","-8.71875"
"1574876353497","323","0.24023438","-0.9423828","0.03125","7.3125","-2.59375","-10.15625"
"1574876353497","324","0.24902344","-0.9814453","0.036132812","-4.65625","0.09375","-10.03125"
"1574876353498","325","0.28710938","-0.96777344","0.0546875","-7.15625","2.34375","-10.46875"
"1574876353498","326","0.3466797","-0.88671875","0.024414062","-2.5625","-4.125","-15.21875"
"1574876353498","327","0.35058594","-0.90722656","0.053710938","2.125","-18.09375","-16.03125"
"1574876353499","328","0.32617188","-0.91015625","0.1171875","-1.78125","-18.40625","-12.71875"
"1574876353499","329","0.35058594","-0.94921875","0.10839844","-14.40625","-23.46875","-8.875"
"1574876353895","330","0.35546875","-0.9580078","0.051757812","-18.5","-17.375","-8.40625"
"1574876353895","331","0.41601562","-0.9511719","0.030273438","-8.0625","-14.1875","-7.65625"
"1574876353896","332","0.35253906","-0.93359375","0.0078125","10.3125","-6.09375","-7.46875"
"1574876353896","333","0.35351562","-0.9511719","0.024414062","17.6875","3.0625","-8.8125"
"1574876353896","334","0.4033203","-0.859375","0.0390625","17.75","11.375","-5.78125"
"1574876353896","335","0.36328125","-0.9238281","0.08496094","11.59375","13.3125","-4.75"
"1574876353896","336","0.3984375","-0.90527344","0.08105469","2.0625","11.125","-7.1875"
"1574876353898","337","0.40722656","-0.9111328","0.044921875","-6.0625","7.71875","-3.875"
"1574876353898","338","0.36132812","-0.88378906","0.05078125","-2.28125","15.34375","-2.0625"
"1574876353899","339","0.44140625","-0.88378906","0.028320312","-8.0","13.9375","1.125"
"1574876354092","340","0.39648438","-0.9404297","0.047851562","-15.28125","14.84375","7.46875"
"1574876354092","341","0.4423828","-0.9326172","0.05078125","-21.84375","18.34375","8.3125"
"1574876354093","342","0.43066406","-0.8955078","0.0234375","-12.75","39.8125","7.96875"
"1574876354093","343","0.38964844","-0.90234375","-0.026367188","-20.875","20.71875","11.6875"
"1574876354093","344","0.34472656","-0.8779297","-0.119140625","-30.03125","19.4375","18.53125"
"1574876354094","345","0.359375","-1.0039062","-0.043945312","-4.71875","38.0","17.0625"
"1574876354094","346","0.36621094","-1.0126953","0.078125","13.90625","30.1875","11.5"
"1574876354094","347","0.28222656","-1.1376953","0.09765625","32.53125","28.78125","15.34375"
"1574876354094","348","0.22460938","-1.3808594","0.087890625","13.84375","52.5","15.34375"
"1574876354095","349","0.3095703","-1.1894531","0.12890625","10.0","60.25","15.78125"
"1574876354489","350","0.31054688","-0.8779297","0.09765625","32.28125","51.28125","6.0625"
"1574876354490","351","0.17675781","-0.9326172","0.095703125","19.78125","19.0625","15.90625"
"1574876354490","352","0.17285156","-0.98339844","0.11035156","-11.3125","17.125","19.0625"
"1574876354490","353","0.2861328","-0.93359375","0.087890625","-13.125","1.125","10.65625"
"1574876354491","354","0.107421875","-0.9091797","0.13378906","2.96875","-4.8125","10.65625"
"1574876354491","355","0.109375","-0.9316406","0.11425781","-6.59375","-2.125","12.96875"
"1574876354491","356","0.19628906","-0.9560547","0.087890625","-6.96875","-2.0625","10.15625"
"1574876354491","357","0.20214844","-0.90722656","0.14160156","-3.59375","-6.625","4.25"
"1574876354491","358","0.1796875","-0.9355469","0.12011719","-4.28125","-15.0","5.59375"
"1574876354492","359","0.21972656","-0.95996094","0.07421875","-3.125","-18.40625","-0.34375"
"1574876354888","360","0.19921875","-0.9580078","0.15234375","-0.5","-19.9375","2.15625"
"1574876354890","361","0.14648438","-0.9238281","0.099609375","0.71875","-23.0","-0.21875"
"1574876354890","362","0.19824219","-0.9824219","0.11035156","3.96875","-21.09375","-0.28125"
"1574876354890","363","0.15039062","-0.921875","0.12402344","-6.96875","-23.65625","-0.84375"
"1574876354891","364","0.20507812","-0.87402344","0.080078125","-5.25","-32.09375","0.15625"
"1574876354891","365","0.19042969","-0.9394531","0.061523438","-3.375","-32.5","-3.15625"
"1574876354891","366","0.13769531","-0.95410156","0.068359375","-5.0625","-37.15625","-0.9375"
"1574876354891","367","0.14160156","-0.9716797","0.05078125","-4.59375","-31.0","-1.25"
"1574876354892","368","0.14746094","-0.9716797","0.041015625","-1.78125","-24.21875","-3.40625"
"1574876354892","369","0.19628906","-0.9375","0.051757812","2.6875","-17.0","-2.90625"
"1574876355484","370","0.17089844","-0.9160156","0.072265625","7.5625","-21.90625","-3.15625"
"1574876355484","371","0.15625","-0.94628906","0.043945312","6.21875","-19.625","-0.59375"
"1574876355485","372","0.20996094","-0.95996094","0.043945312","4.09375","-19.75","-2.125"
"1574876355486","373","0.21777344","-0.95996094","0.06640625","6.46875","-20.25","-3.8125"
"1574876355486","374","0.19628906","-1.0185547","0.13378906","4.03125","-22.75","-3.625"
"1574876355486","375","0.18652344","-0.9375","0.038085938","6.875","-19.5625","-4.125"
"1574876355487","376","0.24609375","-0.89746094","0.030273438","2.6875","-22.875","-6.1875"
"1574876355487","377","0.14648438","-0.9423828","0.083984375","4.5","-19.5625","-1.9375"
"1574876355487","378","0.20800781","-0.9511719","0.049804688","-2.4375","-15.90625","-6.125"
"1574876355487","379","0.23046875","-0.9580078","0.0234375","6.46875","-16.46875","-8.09375"
"1574876355878","380","0.17675781","-0.9658203","0.049804688","0.96875","-14.5","-8.71875"
"1574876355878","381","0.20019531","-0.9375","0.038085938","2.1875","-10.59375","-14.0625"
"1574876355878","382","0.17773438","-0.9003906","0.034179688","8.46875","-12.375","-14.25"
"1574876355879","383","0.23925781","-0.90722656","0.0107421875","3.84375","-12.0625","-15.59375"
"1574876355879","384","0.31933594","-0.84375","0.06933594","3.09375","-17.1875","-12.84375"
"1574876355880","385","0.2919922","-0.85546875","0.080078125","8.71875","-27.5","-10.65625"
"1574876355881","386","0.35546875","-0.9375","0.09863281","6.59375","-32.625","-11.625"
"1574876355882","387","0.31347656","-1.1181641","0.15332031","-10.4375","-26.34375","-3.40625"
"1574876355882","388","0.36328125","-1.1152344","0.047851562","-20.53125","-10.28125","-10.34375"
"1574876355882","389","0.42773438","-1.0400391","-0.034179688","-22.71875","9.0","-11.4375"
"1574876356081","390","0.44140625","-0.89160156","-0.0029296875","-8.375","-0.65625","-12.375"
"1574876356081","391","0.3798828","-0.8359375","-0.0078125","-6.78125","-4.875","-4.125"
"1574876356081","392","0.37597656","-0.8388672","0.013671875","-5.375","7.03125","-3.625"
"1574876356082","393","0.36914062","-0.86035156","0.06347656","2.0","7.78125","0.5"
"1574876356082","394","0.33984375","-0.8613281","0.020507812","7.875","12.46875","0.5"
"1574876356082","395","0.37597656","-0.8613281","0.057617188","-18.0625","6.84375","5.875"
"1574876356082","396","0.3466797","-0.8515625","0.072265625","-9.03125","3.5","1.5625"
"1574876356084","397","0.296875","-0.82910156","0.052734375","-1.0","3.625","5.46875"
"1574876356084","398","0.31152344","-0.84375","0.07421875","-0.375","7.84375","9.5"
"1574876356084","399","0.34472656","-0.86816406","0.09082031","1.09375","12.15625","11.3125"
"1574876356477","400","0.2578125","-0.85546875","0.080078125","3.46875","1.5","8.15625"
"1574876356477","401","0.2578125","-0.86328125","0.09667969","-7.15625","7.53125","16.125"
"1574876356478","402","0.2548828","-0.8330078","0.055664062","-3.78125","1.65625","14.3125"
"1574876356478","403","0.22558594","-0.86035156","0.015625","-17.78125","5.09375","13.34375"
"1574876356478","404","0.24023438","-1.03125","-0.0029296875","6.28125","4.15625","3.4375"
"1574876356478","405","0.32128906","-1.3632812","-0.12109375","48.8125","0.8125","1.1875"
"1574876356479","406","0.265625","-1.1904297","-0.037109375","9.09375","27.0625","2.53125"
"1574876356479","407","0.41210938","-1.1796875","-0.1328125","38.5625","19.375","-1.9375"
"1574876356479","408","0.43164062","-1.234375","0.07128906","19.53125","40.0625","7.71875"
"1574876356480","409","0.22167969","-1.0869141","0.052734375","6.78125","34.625","11.375"
"1574876356875","410","0.3671875","-0.9423828","-0.025390625","-11.0625","33.03125","12.125"
"1574876356875","411","0.359375","-0.8623047","-0.0107421875","-5.375","17.0","4.65625"
"1574876356875","412","0.28320312","-0.8535156","0.0146484375","-5.1875","1.3125","-0.53125"
"1574876356876","413","0.30371094","-0.9511719","-0.044921875","-5.8125","-6.9375","-2.40625"
"1574876356876","414","0.2705078","-0.9091797","0.047851562","4.3125","-10.40625","-2.71875"
"1574876356876","415","0.28320312","-0.95703125","0.020507812","6.34375","-10.90625","-2.78125"
"1574876356876","416","0.296875","-0.9394531","0.029296875","7.0625","-13.46875","-2.28125"
"1574876356877","417","0.2607422","-0.921875","0.08691406","10.125","-22.1875","-3.15625"
"1574876356877","418","0.22753906","-0.9746094","0.041992188","4.5625","-19.21875","-3.5625"
"1574876356877","419","0.2421875","-0.9433594","0.05078125","5.4375","-17.3125","-4.5625"
"1574876357274","420","0.21289062","-0.9873047","0.10449219","0.34375","-11.28125","-3.75"
"1574876357275","421","0.22460938","-0.9345703","0.06542969","1.9375","-4.125","-4.90625"
"1574876357276","422","0.296875","-0.94628906","0.107421875","3.15625","-8.21875","-5.28125"
"1574876357276","423","0.22363281","-1.0576172","0.080078125","-8.125","-0.71875","-6.125"
"1574876357276","424","0.3330078","-0.9189453","0.056640625","-8.25","-4.6875","-8.46875"
"1574876357276","425","0.2841797","-0.92285156","0.016601562","-0.0625","-13.09375","-8.875"
"1574876357277","426","0.25195312","-0.9316406","0.0029296875","-5.0625","-7.5625","-8.9375"
"1574876357277","427","0.2529297","-1.0205078","0.06933594","-3.59375","1.0625","-8.875"
"1574876357277","428","0.23925781","-0.9951172","0.08984375","-15.09375","5.9375","-6.03125"
"1574876357277","429","0.30078125","-0.94140625","0.06542969","-10.5","6.78125","-10.40625"
"1574876358265","430","0.33691406","-0.9003906","0.061523438","-7.40625","6.25","-12.3125"
"1574876358265","431","0.30566406","-0.8300781","0.0703125","-3.4375","-3.53125","-10.78125"
"1574876358265","432","0.29101562","-0.8642578","0.0859375","-7.9375","-3.75","-4.90625"
"1574876358269","433","0.33496094","-0.9423828","0.12597656","-15.21875","-0.53125","-2.53125"
"1574876358269","434","0.38183594","-0.9316406","0.06933594","-12.46875","1.0","-2.40625"
"1574876358269","435","0.4404297","-0.9160156","0.024414062","-4.15625","4.90625","-1.4375"
"1574876358270","436","0.4501953","-0.93359375","0.046875","2.0625","-1.5625","-3.5"
"1574876358270","437","0.35351562","-0.97265625","0.030273438","12.9375","-3.15625","-4.96875"
"1574876358270","438","0.37890625","-0.94921875","-0.029296875","2.8125","5.28125","-5.03125"
"1574876358271","439","0.42773438","-0.93359375","0.0087890625","6.9375","8.5625","-5.15625"
"1574876358271","440","0.39453125","-0.8955078","0.03515625","7.0","9.53125","-8.21875"
"1574876358271","441","0.4169922","-0.8857422","0.016601562","4.09375","9.59375","-4.75"
"1574876358272","442","0.43066406","-0.9003906","0.018554688","1.15625","4.125","-4.125"
"1574876358272","443","0.4033203","-0.9033203","0.033203125","-1.65625","4.21875","-0.78125"
"1574876358272","444","0.3984375","-0.8808594","0.0048828125","-4.09375","11.25","1.0"
"1574876358272","445","0.40527344","-0.92285156","0.034179688","-11.71875","6.0","5.9375"
"1574876358273","446","0.29003906","-0.8623047","0.03515625","28.875","7.28125","7.53125"
"1574876358273","447","0.3076172","-1.0390625","0.041992188","-1.15625","18.9375","6.5"
"1574876358273","448","0.3515625","-0.9316406","0.03515625","-25.15625","48.90625","16.5625"
"1574876358274","449","0.4873047","-0.92578125","0.03515625","-20.46875","49.59375","19.8125"
"1574876358664","450","0.4658203","-0.8652344","0.11621094","0.59375","35.90625","27.4375"
"1574876358665","451","0.20117188","-1.1005859","0.043945312","10.5","37.9375","37.25"
"1574876358665","452","0.49023438","-1.2724609","0.030273438","13.59375","52.375","24.375"
"1574876358665","453","0.24023438","-1.1699219","0.25097656","10.375","45.125","32.5625"
"1574876358665","454","0.22265625","-1.0683594","0.17578125","11.15625","43.96875","22.3125"
"1574876358666","455","0.21679688","-0.9941406","0.06933594","11.78125","23.75","18.28125"
"1574876358666","456","0.10253906","-0.8964844","0.18359375","5.375","13.3125","16.875"
"1574876358667","457","0.07421875","-0.9628906","0.13183594","1.59375","9.53125","12.28125"
"1574876358668","458","0.15332031","-0.9550781","0.15820312","-5.6875","3.125","7.71875"
"1574876358668","459","0.018554688","-0.8876953","0.17871094","-1.78125","8.6875","8.9375"
"1574876359062","460","0.080078125","-0.9326172","0.125","-8.3125","9.40625","11.25"
"1574876359063","461","0.115234375","-0.95410156","0.16601562","-4.21875","10.46875","9.3125"
"1574876359063","462","0.099609375","-0.9394531","0.1484375","-5.0625","4.59375","2.53125"
"1574876359063","463","0.107421875","-0.97265625","0.109375","-0.0625","0.5","2.96875"
"1574876359064","464","0.10058594","-1.0019531","0.1484375","-6.46875","-1.6875","0.875"
"1574876359064","465","0.07714844","-0.9560547","0.15820312","-0.5625","-2.1875","1.0"
"1574876359064","466","0.10546875","-0.9667969","0.13867188","-2.375","-0.78125","0.4375"
"1574876359064","467","0.078125","-0.94921875","0.16015625","-5.5625","-4.3125","0.03125"
"1574876359064","468","0.09765625","-0.93652344","0.12109375","-3.5","-5.03125","2.96875"
"1574876359065","469","0.10839844","-0.9326172","0.140625","-5.0","-7.25","0.8125"
"1574876359856","470","0.0703125","-0.9296875","0.12109375","-2.9375","-9.0","1.125"
"1574876359857","471","0.06347656","-0.96875","0.12792969","-4.28125","-7.5625","0.875"
"1574876359857","472","0.06347656","-0.98339844","0.107421875","-6.40625","-4.125","0.75"
"1574876359857","473","0.06640625","-0.98339844","0.11328125","-4.90625","-1.0625","-2.0625"
"1574876359858","474","0.080078125","-0.9638672","0.10839844","-7.28125","-1.3125","-3.03125"
"1574876359858","475","0.09472656","-0.953125","0.060546875","-7.6875","-1.6875","-3.6875"
"1574876359858","476","0.125","-0.9326172","0.0859375","-14.34375","-9.625","-3.625"
"1574876359858","477","0.095703125","-0.9033203","0.034179688","-8.96875","-10.1875","-6.03125"
"1574876359859","478","0.08886719","-0.9951172","0.01953125","-10.4375","-17.25","-7.96875"
"1574876359859","479","0.115234375","-0.9941406","0.0146484375","-1.03125","-17.0","-12.125"
"1574876360054","480","0.12988281","-0.96484375","0.024414062","-0.5625","-18.96875","-14.75"
"1574876360054","481","0.15429688","-0.96972656","0.022460938","0.90625","-21.09375","-14.25"
"1574876360055","482","0.13964844","-0.9501953","0.028320312","2.75","-23.1875","-13.90625"
"1574876360055","483","0.16699219","-0.9355469","0.037109375","3.09375","-25.625","-14.1875"
"1574876360055","484","0.19433594","-0.92285156","0.021484375","3.59375","-29.65625","-15.53125"
"1574876360055","485","0.2109375","-0.9199219","0.037109375","8.0","-39.84375","-19.25"
"1574876360056","486","0.20117188","-0.8808594","0.009765625","12.1875","-47.46875","-23.59375"
"1574876360056","487","0.25","-0.8105469","0.0390625","4.5","-51.84375","-28.65625"
"1574876360057","488","0.21289062","-1.0058594","0.0859375","12.25","-61.375","-23.53125"
"1574876360057","489","0.2421875","-1.0019531","0.041015625","5.0625","-41.65625","-8.8125"
"1574876360451","490","0.3779297","-0.92871094","0.140625","-10.25","-41.71875","-7.25"
"1574876360452","491","0.3310547","-1.0068359","0.14355469","-5.625","-40.125","-4.5625"
"1574876360452","492","0.35058594","-1.1044922","0.02734375","-15.28125","-24.21875","-5.21875"
"1574876360452","493","0.41601562","-1.0273438","0.041992188","-9.59375","-23.1875","-9.9375"
"1574876360452","494","0.32714844","-0.9296875","0.018554688","2.75","-18.34375","-7.1875"
"1574876360453","495","0.34960938","-0.8798828","-0.055664062","-4.53125","-14.9375","-4.125"
"1574876360453","496","0.37597656","-0.9658203","-0.029296875","9.09375","-10.0625","-3.75"
"1574876360453","497","0.34375","-0.8623047","-0.0087890625","6.59375","-3.21875","-1.875"
"1574876360453","498","0.34277344","-0.8574219","0.0234375","7.375","-2.71875","-1.25"
"1574876360454","499","0.2939453","-0.87890625","0.032226562","4.375","-2.59375","1.3125"
"1574876360652","500","0.29296875","-0.8642578","0.038085938","9.5","2.09375","0.9375"
"1574876360652","501","0.25585938","-0.89160156","0.05078125","4.03125","6.3125","4.40625"
"1574876360653","502","0.2763672","-0.8779297","0.061523438","-0.625","6.78125","4.25"
"1574876360653","503","0.22265625","-0.9140625","0.08203125","3.03125","12.59375","3.8125"
"1574876360653","504","0.33496094","-0.8720703","0.0048828125","-1.53125","17.78125","3.875"
"1574876360654","505","0.23730469","-0.8857422","0.099609375","0.40625","13.09375","2.90625"
"1574876360654","506","0.32128906","-0.81933594","0.021484375","-6.0625","18.5625","5.03125"
"1574876360655","507","0.26171875","-0.8300781","0.052734375","-3.71875","6.25","3.125"
"1574876360655","508","0.19824219","-0.7734375","-0.009765625","-24.96875","8.875","11.75"
"1574876360655","509","0.19042969","-0.875","0.08496094","-11.71875","18.03125","14.5625"
"1574876361048","510","0.4482422","-1.1767578","-0.14648438","7.0","7.65625","-8.15625"
"1574876361049","511","0.3701172","-1.546875","0.037109375","28.9375","0.3125","-0.65625"
"1574876361049","512","0.23046875","-1.4648438","-0.06542969","-17.28125","20.96875","7.46875"
"1574876361049","513","0.43164062","-1.1162109","-0.16503906","-19.53125","27.84375","5.28125"
"1574876361050","514","0.3330078","-0.94140625","-0.10058594","4.09375","18.875","8.25"
"1574876361050","515","0.21386719","-0.8564453","-0.10449219","20.25","15.03125","17.96875"
"1574876361050","516","0.39160156","-0.84375","-0.15820312","14.75","10.34375","12.0"
"1574876361051","517","0.26660156","-0.9433594","-0.046875","18.71875","-3.46875","11.8125"
"1574876361051","518","0.23535156","-0.91503906","0.005859375","17.09375","0.4375","10.875"
"1574876361051","519","0.27539062","-0.9160156","0.0048828125","16.78125","-5.71875","5.34375"
"1574876361644","520","0.22851562","-0.95996094","0.037109375","14.53125","-4.8125","4.25"
"1574876361645","521","0.20898438","-0.9824219","0.037109375","10.78125","-4.5","3.125"
"1574876361645","522","0.22558594","-0.9921875","0.0625","1.21875","-1.0625","2.28125"
"1574876361645","523","0.22753906","-0.9814453","0.049804688","1.59375","-1.1875","0.40625"
"1574876361646","524","0.17773438","-0.97558594","0.049804688","8.15625","2.65625","-0.15625"
"1574876361646","525","0.20214844","-0.9707031","0.026367188","7.25","8.4375","-0.03125"
"1574876361646","526","0.20410156","-0.9404297","0.056640625","10.25","11.9375","3.25"
"1574876361646","527","0.21679688","-0.9941406","0.076171875","-6.125","10.28125","-0.46875"
"1574876361646","528","0.26660156","-0.9140625","0.12402344","7.6875","-1.5","-5.90625"
"1574876361648","529","0.20214844","-0.9355469","0.087890625","8.34375","-4.625","-6.4375"
"1574876362040","530","0.21777344","-0.9746094","0.09082031","4.15625","-4.75","-9.3125"
"1574876362041","531","0.203125","-0.98828125","0.13574219","-5.0625","-15.0625","-16.625"
"1574876362041","532","0.15820312","-1.0078125","0.09082031","-12.71875","-7.1875","-12.96875"
"1574876362041","533","0.2265625","-0.98828125","0.083984375","-18.6875","0.03125","-11.09375"
"1574876362042","534","0.296875","-0.90234375","0.046875","-15.3125","-7.375","-16.03125"
"1574876362042","535","0.33789062","-0.8652344","0.087890625","-14.71875","-11.34375","-22.625"
"1574876362042","536","0.28808594","-0.9863281","0.115234375","-4.15625","-15.0625","-12.96875"
"1574876362042","537","0.32714844","-0.9345703","0.08496094","-7.625","-14.375","-12.5"
"1574876362042","538","0.28125","-0.90625","0.111328125","-12.75","-11.40625","-12.3125"
"1574876362043","539","0.3720703","-0.9082031","0.08300781","-9.84375","1.25","-6.1875"
"1574876362242","540","0.3828125","-0.9765625","0.052734375","-4.34375","-1.625","-7.84375"
"1574876362244","541","0.35058594","-0.9658203","0.018554688","3.90625","-0.34375","-13.15625"
"1574876362244","542","0.40820312","-0.88964844","0.021484375","2.1875","5.34375","-11.4375"
"1574876362245","543","0.42089844","-0.88671875","0.022460938","16.96875","4.0","-10.34375"
"1574876362245","544","0.39648438","-0.921875","0.06738281","9.5","-1.25","-8.46875"
"1574876362245","545","0.43945312","-0.90625","0.064453125","15.96875","3.25","-5.65625"
"1574876362246","546","0.38867188","-0.8720703","0.06640625","9.40625","-3.40625","-5.65625"
"1574876362246","547","0.4033203","-0.88183594","0.059570312","13.0625","-3.03125","0.5"
"1574876362246","548","0.3876953","-0.90527344","0.068359375","5.25","-0.40625","2.21875"
"1574876362246","549","0.40429688","-0.9189453","0.06347656","1.8125","0.75","5.34375"
"1574876362638","550","0.3720703","-0.96191406","0.05078125","-5.9375","3.125","7.53125"
"1574876362639","551","0.38671875","-0.9082031","0.045898438","-11.84375","11.1875","8.9375"
"1574876362639","552","0.31445312","-0.9716797","0.017578125","-5.6875","25.71875","17.125"
"1574876362640","553","0.390625","-0.97265625","0.036132812","-12.65625","38.78125","21.6875"
"1574876362640","554","0.43652344","-0.9453125","0.12695312","-7.34375","33.34375","21.21875"
"1574876362641","555","0.17675781","-1.1757812","0.09765625","7.1875","36.8125","23.15625"
"1574876362641","556","0.35546875","-1.1064453","0.04296875","3.59375","54.28125","16.375"
"1574876362641","557","0.23144531","-1.0371094","0.2548828","2.875","53.5","24.8125"
"1574876362641","558","0.19824219","-1.0634766","0.115234375","0.0625","51.46875","20.46875"
"1574876362642","559","0.32226562","-0.92871094","0.1015625","6.03125","41.84375","21.75"
"1574876363036","560","0.171875","-0.8886719","0.18164062","3.53125","22.0","20.78125"
"1574876363037","561","0.10546875","-0.984375","0.11816406","0.46875","13.375","17.0"
"1574876363037","562","0.16503906","-1.0078125","0.13183594","-8.8125","8.8125","14.1875"
"1574876363037","563","0.10449219","-0.9111328","0.20507812","-4.9375","4.59375","10.59375"
"1574876363038","564","0.080078125","-0.9746094","0.13378906","-1.21875","8.9375","10.21875"
"1574876363039","565","0.0703125","-0.9589844","0.13671875","-6.71875","13.5","9.1875"
"1574876363039","566","0.10839844","-0.9326172","0.119140625","-7.03125","12.15625","9.1875"
"1574876363039","567","0.09375","-0.9902344","0.10839844","-3.71875","11.0","5.21875"
"1574876363040","568","0.07421875","-0.9482422","0.13574219","-3.375","10.03125","4.65625"
"1574876363040","569","0.08984375","-0.9667969","0.14648438","-6.0","9.0","6.8125"
"1574876363435","570","0.08105469","-0.99902344","0.1328125","-11.53125","8.0625","7.65625"
"1574876363435","571","0.09667969","-0.9785156","0.10839844","-8.4375","6.90625","5.28125"
"1574876363436","572","0.08300781","-0.98046875","0.10058594","-7.03125","3.9375","7.28125"
"1574876363436","573","0.0703125","-0.98046875","0.10058594","-9.71875","5.40625","5.8125"
"1574876363436","574","0.091796875","-0.99902344","0.07324219","-6.71875","2.78125","2.59375"
"1574876363436","575","0.080078125","-0.9560547","0.08203125","-5.3125","0.03125","1.625"
"1574876363437","576","0.09472656","-0.984375","0.06640625","1.34375","-1.3125","0.875"
"1574876363438","577","0.06738281","-1.0273438","0.14453125","7.5625","1.71875","1.5625"
"1574876363439","578","0.053710938","-0.9560547","0.068359375","3.84375","-2.0","2.40625"
"1574876363439","579","0.06542969","-1.0244141","0.12207031","-8.25","-3.75","2.40625"
"1574876364029","580","0.060546875","-1.0087891","0.060546875","-5.0","-3.28125","1.0"
"1574876364030","581","0.083984375","-0.9765625","0.051757812","-6.71875","-1.5","0.21875"
"1574876364030","582","0.07714844","-0.9921875","0.040039062","-12.71875","-5.78125","-1.8125"
"1574876364030","583","0.109375","-1.0029297","0.013671875","-10.03125","-8.53125","-5.71875"
"1574876364031","584","0.10058594","-0.97265625","0.040039062","-6.0","-13.28125","-8.40625"
"1574876364031","585","0.1015625","-0.9560547","0.0","-6.71875","-16.09375","-10.09375"
"1574876364031","586","0.10839844","-0.9589844","-0.037109375","-3.90625","-16.8125","-12.4375"
"1574876364031","587","0.111328125","-0.9453125","-0.021484375","-9.53125","-19.3125","-15.0"
"1574876364032","588","0.15820312","-0.9140625","-0.041015625","-4.21875","-19.3125","-16.6875"
"1574876364033","589","0.12011719","-0.9667969","-0.0390625","0.53125","-19.625","-22.5625"
"1574876364229","590","0.12988281","-0.9707031","-0.016601562","1.6875","-17.25","-28.53125"
"1574876364230","591","0.16796875","-0.9042969","-0.0078125","10.25","-21.15625","-28.25"
"1574876364230","592","0.21972656","-0.8955078","0.03515625","11.96875","-23.1875","-24.6875"
"1574876364230","593","0.21386719","-0.8730469","0.046875","19.71875","-36.34375","-27.375"
"1574876364231","594","0.21972656","-0.8847656","0.048828125","27.75","-44.78125","-33.1875"
"1574876364231","595","0.28515625","-0.8613281","0.020507812","38.8125","-51.125","-40.75"
"1574876364231","596","0.33691406","-0.91015625","0.109375","35.40625","-60.53125","-38.71875"
"1574876364231","597","0.40527344","-0.86328125","0.18261719","49.5625","-78.03125","-26.53125"
"1574876364232","598","0.3017578","-0.9785156","0.2734375","34.0","-74.0625","-14.625"
"1574876364232","599","0.1953125","-1.0986328","0.2890625","-0.6875","-44.34375","3.0"
"1574876364627","600","0.3232422","-1.0791016","0.109375","-12.21875","-12.25","0.15625"
"1574876364627","601","0.40820312","-1.0214844","0.10546875","-19.78125","-24.9375","-4.375"
"1574876364628","602","0.3798828","-0.94433594","0.15429688","-22.59375","-20.375","-3.9375"
"1574876364628","603","0.43359375","-0.8935547","0.0146484375","-24.375","-13.03125","-6.75"
"1574876364629","604","0.41308594","-0.8544922","-0.047851562","-23.125","-12.0625","-3.03125"
"1574876364629","605","0.37597656","-0.8847656","-0.016601562","-16.375","-0.96875","-0.15625"
"1574876364629","606","0.38378906","-0.8876953","0.01171875","-14.09375","8.625","-2.0"
"1574876364630","607","0.37109375","-0.8691406","0.032226562","-14.46875","11.875","-1.1875"
"1574876364630","608","0.3779297","-0.84277344","0.029296875","-17.09375","14.3125","0.5625"
"1574876364630","609","0.41601562","-0.8232422","0.032226562","-10.1875","12.59375","2.40625"
"1574876365023","610","0.36132812","-0.80566406","0.0390625","5.96875","8.5625","6.375"
"1574876365024","611","0.34472656","-0.8671875","0.052734375","10.84375","10.09375","9.1875"
"1574876365024","612","0.3046875","-0.86816406","0.028320312","7.5","15.46875","12.90625"
"1574876365025","613","0.33203125","-0.85839844","0.09277344","4.15625","11.375","11.9375"
"1574876365025","614","0.3466797","-0.9121094","0.08984375","-0.6875","3.6875","13.40625"
"1574876365026","615","0.2705078","-0.8769531","0.123046875","8.125","4.21875","12.90625"
"1574876365026","616","0.2685547","-0.8828125","0.0546875","-2.3125","3.75","15.40625"
"1574876365026","617","0.17773438","-0.8701172","0.06347656","-11.46875","12.28125","23.84375"
"1574876365026","618","0.25097656","-0.7783203","0.10449219","-4.59375","12.59375","15.21875"
"1574876365027","619","0.20996094","-0.7783203","0.03515625","-19.71875","7.71875","11.125"
"1574876365422","620","0.20800781","-0.96777344","0.03125","-10.6875","14.96875","21.9375"
"1574876365423","621","0.42578125","-1.3496094","-0.15722656","19.59375","20.59375","-1.625"
"1574876365423","622","0.48046875","-1.4560547","-0.020507812","15.125","1.125","1.1875"
"1574876365423","623","0.22460938","-1.34375","-0.048828125","4.4375","3.9375","6.0"
"1574876365423","624","0.36328125","-1.2089844","-0.09082031","-1.90625","11.125","1.4375"
"1574876365425","625","0.20703125","-0.9511719","-0.123046875","5.0","15.03125","2.65625"
"1574876365425","626","0.24023438","-0.71191406","-0.17285156","10.6875","12.15625","0.9375"
"1574876365426","627","0.3017578","-0.89453125","-0.11816406","5.4375","5.875","8.625"
"1574876365426","628","0.28027344","-1.0664062","-0.08886719","15.4375","4.71875","8.09375"
"1574876365426","629","0.2734375","-0.96191406","-0.0146484375","11.96875","1.71875","4.59375"
"1574876366017","630","0.33496094","-0.9199219","-0.026367188","21.40625","-3.9375","-0.90625"
"1574876366017","631","0.29492188","-0.96191406","-0.029296875","16.84375","-13.46875","-6.125"
"1574876366017","632","0.21875","-0.9394531","-0.017578125","20.25","-5.46875","-9.0"
"1574876366018","633","0.20703125","-0.9511719","0.05078125","3.84375","-5.96875","-3.09375"
"1574876366018","634","0.20996094","-0.95703125","0.051757812","10.4375","5.34375","-3.09375"
"1574876366018","635","0.23339844","-0.921875","0.052734375","18.71875","11.9375","1.0625"
"1574876366018","636","0.32617188","-1.0351562","0.059570312","-15.8125","12.96875","1.5625"
"1574876366019","637","0.2841797","-0.95996094","0.099609375","5.65625","2.28125","-1.4375"
"1574876366019","638","0.234375","-0.9736328","0.02734375","1.6875","-6.875","-5.96875"
"1574876366020","639","0.265625","-0.91503906","0.099609375","-1.71875","-6.15625","-9.0"
"1574876366218","640","0.13769531","-0.94628906","0.12011719","7.125","-1.3125","-6.09375"
"1574876366218","641","0.25585938","-1.0146484","0.07421875","-9.71875","1.375","-8.40625"
"1574876366219","642","0.25195312","-0.95214844","0.08105469","-5.1875","-2.0","-12.90625"
"1574876366219","643","0.2998047","-0.828125","0.036132812","5.0625","-11.6875","-15.1875"
"1574876366219","644","0.3544922","-0.80078125","0.07910156","-3.5","-22.5625","-7.53125"
"1574876366219","645","0.29492188","-0.9355469","0.23046875","-26.9375","-20.0625","-2.78125"
"1574876366219","646","0.36621094","-1.0683594","0.1640625","-4.53125","-21.21875","-13.09375"
"1574876366220","647","0.38964844","-0.9472656","0.013671875","-8.5625","-18.34375","-9.625"
"1574876366220","648","0.4658203","-0.98046875","0.0068359375","-22.40625","-16.15625","-9.625"
"1574876366220","649","0.41210938","-0.9746094","0.046875","2.0625","-11.8125","-5.09375"
"1574876366614","650","0.3544922","-0.9091797","0.0546875","-2.4375","-0.40625","-5.46875"
"1574876366614","651","0.3701172","-0.90625","0.029296875","2.125","5.34375","-2.34375"
"1574876366615","652","0.31835938","-0.890625","0.033203125","7.125","9.53125","-2.34375"
"1574876366615","653","0.35546875","-0.8876953","0.053710938","3.53125","10.65625","-3.15625"
"1574876366615","654","0.3671875","-0.9003906","0.040039062","5.96875","12.65625","-1.25"
"1574876366615","655","0.3388672","-0.8720703","0.030273438","0.3125","17.65625","3.25"
"1574876366616","656","0.3408203","-0.95703125","0.056640625","2.0625","17.96875","4.53125"
"1574876366616","657","0.3408203","-0.96777344","0.040039062","-2.5625","21.6875","8.21875"
"1574876366616","658","0.3935547","-0.94140625","0.001953125","-14.15625","24.8125","9.53125"
"1574876366616","659","0.5283203","-0.8310547","-0.0087890625","-7.28125","36.9375","14.1875"
"1574876367011","660","0.42578125","-0.94628906","0.060546875","-12.40625","13.03125","19.0"
"1574876367013","661","0.28710938","-1.0224609","-0.016601562","5.375","17.0","15.09375"
"1574876367013","662","0.37890625","-1.0908203","0.1015625","12.625","22.96875","17.1875"
"1574876367013","663","0.043945312","-1.4550781","0.296875","20.0","41.03125","32.5"
"1574876367014","664","0.203125","-1.3242188","0.13867188","21.0625","71.5625","17.96875"
"1574876367014","665","0.37402344","-0.8388672","0.17089844","48.46875","64.46875","19.3125"
"1574876367014","666","0.11230469","-0.8779297","0.22167969","21.65625","33.15625","18.46875"
"1574876367015","667","0.119140625","-1.1132812","0.17578125","-3.5625","27.96875","16.875"
"1574876367015","668","0.20019531","-0.94140625","0.17871094","-8.8125","25.15625","8.5"
"1574876367015","669","0.15039062","-0.9013672","0.19921875","-2.875","11.8125","9.125"
"1574876367410","670","0.12402344","-0.9355469","0.20019531","-6.0","8.5","5.75"
"1574876367410","671","0.119140625","-0.90625","0.19433594","-2.03125","5.875","5.625"
"1574876367411","672","0.09277344","-0.9628906","0.24023438","5.71875","4.84375","5.6875"
"1574876367412","673","0.07519531","-0.9013672","0.21875","-4.21875","5.03125","3.3125"
"1574876367412","674","0.08203125","-0.9003906","0.21484375","-13.75","5.875","4.0"
"1574876367413","675","0.09472656","-0.8925781","0.17382812","-13.125","2.03125","2.03125"
"1574876367413","676","0.11035156","-0.8701172","0.15136719","-13.5","-1.1875","2.53125"
"1574876367413","677","0.08300781","-0.88671875","0.13671875","-14.59375","-0.90625","-1.125"
"1574876367414","678","0.07910156","-0.9121094","0.12792969","-16.96875","-3.6875","-2.125"
"1574876367414","679","0.09277344","-0.9248047","0.09082031","-13.375","-1.75","-2.59375"
"1574876368202","680","0.07910156","-1.0029297","0.13769531","-28.75","-2.1875","-4.25"
"1574876368203","681","0.140625","-0.9013672","0.049804688","-23.5625","-8.65625","-9.8125"
"1574876368203","682","0.13085938","-0.90234375","0.048828125","-9.90625","-13.65625","-3.8125"
"1574876368203","683","0.107421875","-0.9404297","0.040039062","-8.96875","-19.09375","-5.28125"
"1574876368205","684","0.14160156","-0.92285156","0.03515625","1.59375","-21.78125","-8.28125"
"1574876368206","685","0.12988281","-0.97753906","0.03515625","2.0625","-26.34375","-7.59375"
"1574876368207","686","0.125","-1.0195312","0.022460938","-3.25","-24.75","-11.09375"
"1574876368207","687","0.111328125","-1.0039062","0.04296875","-7.875","-25.625","-11.5"
"1574876368207","688","0.1015625","-1.0205078","-0.02734375","-1.28125","-15.78125","-12.375"
"1574876368208","689","0.26464844","-0.91503906","-0.04296875","11.59375","-10.34375","-17.125"
"1574876368208","690","0.17578125","-0.8876953","0.091796875","9.8125","-19.375","-11.8125"
"1574876368209","691","0.19921875","-0.9814453","0.06738281","12.625","-29.65625","-9.75"
"1574876368209","692","0.18261719","-1.0517578","0.037109375","8.53125","-32.875","-13.53125"
"1574876368209","693","0.24023438","-0.8857422","0.015625","7.125","-31.84375","-19.6875"
"1574876368209","694","0.3330078","-0.7890625","-0.01171875","19.03125","-42.28125","-22.125"
"1574876368210","695","0.31445312","-0.95410156","0.109375","14.875","-59.375","-20.3125"
"1574876368210","696","0.33789062","-0.9589844","0.13183594","27.21875","-60.46875","-16.5625"
"1574876368210","697","0.32617188","-0.87402344","0.20214844","25.03125","-76.46875","-11.5"
"1574876368211","698","0.21386719","-0.93359375","0.18164062","12.5625","-55.875","-8.59375"
"1574876368211","699","0.23925781","-0.9951172","0.109375","-6.84375","-40.9375","-7.125"
"1574876368601","700","0.30371094","-1.078125","0.072265625","-17.78125","-27.875","-3.34375"
"1574876368602","701","0.3935547","-1.0839844","0.087890625","-27.28125","-20.4375","-9.5625"
"1574876368602","702","0.32226562","-0.99316406","0.095703125","-18.375","-10.125","-8.34375"
"1574876368602","703","0.32910156","-0.8623047","-0.0078125","-16.0","2.9375","-10.0"
"1574876368603","704","0.38183594","-0.828125","-0.025390625","-10.9375","7.59375","-3.6875"
"1574876368603","705","0.33007812","-0.8828125","0.025390625","-1.53125","13.625","-3.9375"
"1574876368603","706","0.36328125","-0.8984375","0.0390625","-3.5","20.46875","-6.5"
"1574876368603","707","0.35058594","-0.8613281","0.037109375","-2.75","19.6875","-4.90625"
"1574876368603","708","0.36328125","-0.8779297","0.03515625","-3.65625","19.25","-4.8125"
"1574876368604","709","0.38085938","-0.79589844","0.048828125","-1.78125","19.3125","-2.0625"
"1574876368999","710","0.36132812","-0.77734375","0.03125","-9.03125","8.75","3.75"
"1574876369000","711","0.36035156","-0.9238281","0.06347656","-13.5","14.65625","15.53125"
"1574876369000","712","0.3720703","-0.8808594","0.038085938","-6.0625","22.40625","10.59375"
"1574876369000","713","0.27148438","-0.8183594","0.040039062","10.71875","18.46875","9.3125"
"1574876369000","714","0.23046875","-0.8730469","0.10253906","6.21875","8.0625","20.84375"
"1574876369001","715","0.22070312","-0.859375","0.11328125","-3.84375","17.59375","14.71875"
"1574876369001","716","0.20800781","-0.8378906","0.076171875","-8.25","3.8125","9.96875"
"1574876369001","717","0.25976562","-0.8876953","0.032226562","-18.4375","9.65625","12.71875"
"1574876369002","718","0.32910156","-1.0244141","0.051757812","-13.625","9.53125","7.53125"
"1574876369002","719","0.44726562","-1.3740234","-0.07714844","13.125","-0.78125","-10.53125"
"1574876369396","720","0.28125","-1.4501953","-0.07324219","8.84375","5.15625","-3.625"
"1574876369398","721","0.38867188","-0.99902344","-0.140625","-0.5","9.0625","-5.03125"
"1574876369398","722","0.41503906","-0.9482422","-0.10644531","-4.9375","-3.875","0.8125"
"1574876369399","723","0.24609375","-0.98535156","-0.11425781","20.375","0.5625","2.03125"
"1574876369399","724","0.28515625","-0.96972656","-0.11425781","10.84375","19.5","18.46875"
"1574876369399","725","0.43554688","-1.0791016","-0.12402344","7.4375","13.6875","9.5"
"1574876369400","726","0.25","-0.9199219","0.016601562","23.75","12.84375","12.90625"
"1574876369400","727","0.2578125","-0.87597656","0.053710938","17.875","9.53125","13.875"
"1574876369400","728","0.32910156","-0.953125","-0.01171875","19.53125","-1.625","4.53125"
"1574876369400","729","0.24121094","-0.97265625","0.07421875","5.90625","-3.875","10.71875"
"1574876369794","730","0.31152344","-0.95214844","0.02734375","-0.3125","-3.21875","3.9375"
"1574876369795","731","0.26464844","-0.9667969","0.05078125","7.0","-10.59375","4.46875"
"1574876369795","732","0.20800781","-0.9394531","0.044921875","5.4375","-10.34375","5.21875"
"1574876369796","733","0.2607422","-0.96777344","0.026367188","5.0625","-3.28125","3.75"
"1574876369796","734","0.24804688","-0.9560547","0.055664062","5.0","-5.21875","-0.28125"
"1574876369797","735","0.25390625","-0.94433594","0.022460938","9.09375","-9.5625","-2.0625"
"1574876369797","736","0.26464844","-0.90527344","0.037109375","13.46875","-11.46875","-4.25"
"1574876369797","737","0.16308594","-0.9609375","0.14453125","5.125","-7.0625","-0.21875"
"1574876369798","738","0.15234375","-0.9746094","0.0703125","5.65625","-0.71875","0.40625"
"1574876369798","739","0.28320312","-0.9794922","0.029296875","11.65625","0.5","0.8125"
"1574876370192","740","0.14453125","-1.0087891","0.08984375","-1.28125","8.5625","4.1875"
"1574876370193","741","0.33203125","-0.9248047","-0.0029296875","-3.84375","13.09375","0.4375"
"1574876370193","742","0.3076172","-0.9267578","0.0859375","3.65625","1.5","-10.65625"
"1574876370193","743","0.23046875","-0.9238281","0.13476562","8.96875","-0.53125","-11.9375"
"1574876370193","744","0.21972656","-0.9736328","0.17382812","0.34375","-5.78125","-10.78125"
"1574876370195","745","0.20703125","-0.9746094","0.16699219","-6.1875","-1.125","-7.71875"
"1574876370195","746","0.3466797","-0.9111328","0.15136719","-12.03125","-7.65625","-11.09375"
"1574876370195","747","0.31835938","-0.95996094","0.14550781","-1.78125","-24.34375","-15.96875"
"1574876370196","748","0.28320312","-0.9277344","0.11328125","-9.90625","-23.40625","-15.78125"
"1574876370196","749","0.3486328","-0.92089844","0.1171875","-6.53125","-23.21875","-15.71875"
"1574876370592","750","0.3486328","-0.9609375","0.13769531","-9.15625","-14.1875","-12.0"
"1574876370593","751","0.36523438","-0.9667969","0.09863281","-10.375","-6.28125","-12.625"
"1574876370593","752","0.3876953","-0.9082031","0.078125","-4.53125","-4.125","-10.53125"
"1574876370593","753","0.32421875","-0.91796875","0.0859375","4.6875","0.5","-7.25"
"1574876370593","754","0.31933594","-0.93847656","0.076171875","2.75","11.375","-6.3125"
"1574876370594","755","0.36132812","-0.90527344","0.068359375","2.1875","13.5625","-7.46875"
"1574876370594","756","0.33984375","-0.8847656","0.083984375","21.0","19.125","-0.09375"
"1574876370595","757","0.46875","-0.91503906","0.08300781","1.875","19.4375","-4.90625"
"1574876370595","758","0.3623047","-0.921875","0.08691406","6.28125","15.03125","-3.21875"
"1574876370595","759","0.39746094","-0.9003906","0.08496094","-0.125","16.3125","0.625"
"1574876370987","760","0.40234375","-0.92285156","0.10449219","-3.4375","13.625","1.71875"
"1574876370988","761","0.3564453","-0.9345703","0.061523438","-3.5","14.71875","5.8125"
"1574876370989","762","0.3984375","-0.9111328","0.06738281","-11.3125","10.46875","7.78125"
"1574876370989","763","0.32714844","-0.9394531","0.05859375","20.125","11.6875","8.375"
"1574876370989","764","0.35058594","-0.91796875","0.055664062","0.3125","21.6875","10.65625"
"1574876370989","765","0.39160156","-0.96972656","0.07519531","-6.53125","25.59375","14.25"
"1574876370990","766","0.3544922","-0.984375","0.16992188","-9.46875","18.625","19.4375"
"1574876370990","767","0.12011719","-1.1767578","0.2109375","-6.28125","29.4375","30.1875"
"1574876370990","768","0.25097656","-1.3046875","0.13378906","-19.0","62.9375","23.84375"
"1574876370990","769","0.23339844","-1.2236328","0.24316406","3.90625","65.9375","32.75"
"1574876371385","770","0.1640625","-0.97753906","0.19921875","13.0625","69.125","23.53125"
"1574876371386","771","0.23046875","-0.9765625","0.16015625","19.84375","57.46875","27.5625"
"1574876371386","772","0.17480469","-0.89746094","0.17871094","16.09375","51.34375","24.5"
"1574876371386","773","0.13769531","-0.8857422","0.20800781","4.5","41.53125","30.71875"
"1574876371387","774","0.1640625","-0.92285156","0.17773438","-4.84375","28.15625","26.09375"
"1574876371387","775","0.11035156","-0.9199219","0.22460938","-12.28125","16.5625","17.3125"
"1574876371387","776","0.05078125","-0.9394531","0.20117188","-10.3125","3.6875","13.09375"
"1574876371387","777","0.059570312","-0.9326172","0.17578125","-6.59375","5.8125","10.09375"
"1574876371388","778","0.059570312","-0.95410156","0.19335938","-19.125","-3.6875","7.65625"
"1574876371388","779","0.01953125","-0.96875","0.1796875","-4.9375","-10.53125","3.0625"
"1574876371783","780","0.02734375","-0.9892578","0.17675781","-5.9375","-11.5","1.125"
"1574876371785","781","0.03125","-0.9560547","0.14453125","-4.53125","-14.6875","-1.25"
"1574876371785","782","0.041992188","-0.9580078","0.13964844","-5.6875","-14.25","-2.28125"
"1574876371786","783","0.024414062","-0.9404297","0.1640625","-0.6875","-20.0625","-3.625"
"1574876371786","784","0.026367188","-0.9091797","0.12695312","1.6875","-23.1875","-2.59375"
"1574876371786","785","0.024414062","-0.90527344","0.103515625","-0.3125","-24.5","-4.5"
"1574876371786","786","0.055664062","-0.88671875","0.12597656","-3.25","-21.34375","-8.875"
"1574876371787","787","0.041992188","-0.9189453","0.115234375","-5.5","-24.6875","-10.65625"
"1574876371787","788","0.06347656","-0.9404297","0.12207031","-1.0","-26.90625","-13.28125"
"1574876371787","789","0.07128906","-0.9472656","0.11230469","0.3125","-30.25","-14.25"
"1574876372178","790","0.076171875","-0.9658203","0.13085938","-2.4375","-29.875","-14.25"
"1574876372179","791","0.10449219","-0.9550781","0.12109375","-0.125","-29.03125","-15.34375"
"1574876372179","792","0.14746094","-0.890625","0.09667969","-4.59375","-33.25","-18.59375"
"1574876372180","793","0.17382812","-0.9404297","0.08691406","9.6875","-37.40625","-20.0625"
"1574876372180","794","0.16113281","-0.953125","0.0703125","9.40625","-49.25","-28.84375"
"1574876372181","795","0.23242188","-0.9160156","0.09472656","20.0625","-52.53125","-32.1875"
"1574876372181","796","0.21679688","-0.98339844","0.14550781","13.40625","-54.25","-34.28125"
"1574876372181","797","0.2421875","-1.0214844","0.16601562","11.90625","-51.375","-30.75"
"1574876372181","798","0.2705078","-0.8955078","0.18261719","15.5","-50.03125","-28.28125"
"1574876372182","799","0.24609375","-0.83984375","0.24414062","17.15625","-49.78125","-17.3125"
"1574876372773","800","0.21679688","-0.87109375","0.21679688","13.53125","-36.21875","-7.375"
"1574876372774","801","0.20117188","-0.91015625","0.2890625","4.4375","-15.0","-1.8125"
"1574876372774","802","0.23632812","-0.9863281","0.22753906","-16.25","-2.0","-4.3125"
"1574876372774","803","0.40722656","-0.9863281","0.14355469","-14.59375","17.125","-8.40625"
"1574876372774","804","0.4326172","-0.91796875","0.11816406","-6.90625","16.5","-9.5625"
"1574876372776","805","0.39160156","-0.86816406","0.11035156","-10.5625","11.96875","-4.84375"
"1574876372776","806","0.40625","-0.8720703","0.10839844","-13.625","11.25","-6.4375"
"1574876372777","807","0.38671875","-0.86035156","0.09863281","-13.625","11.125","-1.1875"
"1574876372777","808","0.3701172","-0.85839844","0.08886719","-11.65625","10.59375","0.03125"
"1574876372778","809","0.41015625","-0.86328125","0.052734375","-10.9375","14.3125","3.875"
"1574876373173","810","0.38964844","-0.9169922","0.13378906","-3.5625","4.0625","2.28125"
"1574876373173","811","0.29882812","-0.85253906","0.06542969","4.25","5.875","7.71875"
"1574876373173","812","0.31152344","-0.859375","0.125","10.84375","17.0625","7.65625"
"1574876373174","813","0.28515625","-0.86816406","0.19433594","8.96875","10.15625","7.34375"
"1574876373174","814","0.35058594","-0.8652344","0.10839844","5.78125","10.75","4.59375"
"1574876373174","815","0.29101562","-0.9404297","0.16015625","2.75","6.125","10.8125"
"1574876373174","816","0.27148438","-0.8642578","0.171875","-8.6875","9.125","13.5"
"1574876373176","817","0.31835938","-0.88671875","0.16015625","-8.25","-2.0","10.875"
"1574876373176","818","0.17578125","-0.91015625","0.13964844","-1.46875","1.125","10.15625"
"1574876373176","819","0.171875","-0.87109375","0.14941406","-10.75","14.0625","15.09375"
"1574876373370","820","0.15332031","-0.8232422","0.16503906","-18.25","20.90625","13.34375"
"1574876373371","821","0.18457031","-0.9453125","0.13378906","-33.8125","25.15625","15.34375"
"1574876373371","822","0.3701172","-1.1933594","-0.024414062","-4.65625","36.875","-0.9375"
"1574876373371","823","0.4033203","-1.5527344","0.18945312","-12.40625","11.3125","1.25"
"1574876373371","824","0.15136719","-1.3330078","-0.041015625","-34.375","24.9375","11.3125"
"1574876373372","825","0.5078125","-1.0146484","-0.19335938","-28.8125","16.25","-0.03125"
"1574876373372","826","0.38085938","-0.9707031","-0.083984375","2.96875","-14.03125","6.375"
"1574876373372","827","0.22167969","-0.8486328","-0.1328125","9.5625","-22.1875","9.3125"
"1574876373372","828","0.2890625","-0.8310547","-0.034179688","12.875","-31.59375","12.28125"
"1574876373372","829","0.13964844","-0.9472656","-0.024414062","9.9375","-33.5","13.6875"
"1574876373768","830","0.17578125","-0.95410156","-0.021484375","9.8125","-31.96875","10.875"
"1574876373769","831","0.23828125","-0.96972656","-0.009765625","3.53125","-31.09375","9.25"
"1574876373769","832","0.2109375","-1.0029297","-0.047851562","0.84375","-31.59375","3.6875"
"1574876373769","833","0.23339844","-0.9824219","-0.02734375","4.625","-29.46875","-1.4375"
"1574876373769","834","0.14160156","-0.96875","0.0078125","14.34375","-22.125","-1.0625"
"1574876373769","835","0.16015625","-1.0273438","-0.028320312","5.65625","-8.09375","0.21875"
"1574876373770","836","0.20019531","-0.953125","0.026367188","11.40625","-9.125","-6.875"
"1574876373770","837","0.068359375","-1.0117188","0.009765625","7.5","6.84375","-0.84375"
"1574876373770","838","0.2548828","-0.94921875","-0.005859375","8.96875","7.71875","-8.71875"
"1574876373770","839","0.11230469","-0.9472656","0.0703125","11.65625","3.125","-5.78125"
"1574876374167","840","0.12695312","-0.9716797","0.025390625","3.03125","14.96875","-4.90625"
"1574876374168","841","0.19335938","-1.0019531","0.056640625","-7.03125","11.875","-10.90625"
"1574876374168","842","0.15820312","-0.97753906","0.0048828125","2.3125","19.375","-14.3125"
"1574876374169","843","0.2939453","-0.8798828","0.10058594","3.03125","6.25","-17.5625"
"1574876374170","844","0.19726562","-0.9082031","0.140625","0.84375","-1.0625","-11.75"
"1574876374170","845","0.30273438","-0.984375","0.12988281","-14.40625","-3.03125","-8.71875"
"1574876374171","846","0.38476562","-1.0214844","0.056640625","8.96875","-8.59375","-11.875"
"1574876374171","847","0.3046875","-0.9394531","0.07519531","5.84375","-6.6875","-8.15625"
"1574876374171","848","0.33984375","-0.9550781","0.15429688","-6.0625","-0.40625","-6.5"
"1574876374171","849","0.3154297","-0.9277344","0.06347656","10.625","6.1875","-4.75"
"1574876374564","850","0.3486328","-0.9453125","0.038085938","15.1875","16.0","-5.84375"
"1574876374565","851","0.35546875","-0.9160156","0.08300781","10.5","15.65625","-4.1875"
"1574876374565","852","0.36035156","-0.921875","0.078125","22.15625","12.84375","-6.375"
"1574876374566","853","0.37304688","-0.8935547","0.099609375","15.0","7.09375","-5.59375"
"1574876374566","854","0.328125","-0.9199219","0.13183594","7.8125","3.625","-1.875"
"1574876374567","855","0.2919922","-0.92285156","0.13476562","4.25","8.4375","3.25"
"1574876374567","856","0.32714844","-0.9169922","0.119140625","-1.28125","11.75","6.375"
"1574876374567","857","0.29492188","-0.9296875","0.12109375","2.6875","17.71875","10.46875"
"1574876374568","858","0.29492188","-0.92285156","0.087890625","3.21875","21.6875","11.875"
"1574876374568","859","0.38867188","-0.9453125","0.13769531","2.8125","20.90625","16.625"
"1574876374963","860","0.20996094","-0.96972656","0.14550781","4.15625","23.9375","20.71875"
"1574876374964","861","0.2890625","-1.0390625","0.10253906","12.375","39.375","21.875"
"1574876374964","862","0.34570312","-0.91015625","0.1171875","17.625","43.53125","19.125"
"1574876374964","863","0.17578125","-0.9560547","0.29296875","17.6875","48.65625","27.375"
"1574876374964","864","0.16113281","-1.0957031","0.18652344","25.0625","68.5625","25.65625"
"1574876374966","865","0.21582031","-1.1132812","0.22949219","33.8125","63.4375","21.15625"
"1574876374966","866","0.016601562","-1.0400391","0.40039062","19.09375","63.5","25.59375"
"1574876374967","867","0.017578125","-1.1171875","0.4033203","9.9375","55.125","25.90625"
"1574876374967","868","-0.029296875","-1.1181641","0.38183594","7.125","44.21875","20.34375"
"1574876374967","869","-0.029296875","-1.0263672","0.35351562","4.15625","38.28125","21.375"
"1574876375360","870","-0.046875","-1.0214844","0.3515625","-8.90625","36.15625","16.375"
"1574876375360","871","-0.0146484375","-0.93066406","0.31152344","-12.71875","21.75","13.40625"
"1574876375360","872","-0.034179688","-0.87890625","0.2607422","-4.34375","11.1875","10.40625"
"1574876375361","873","-0.10253906","-0.8828125","0.27148438","-6.28125","13.15625","9.125"
"1574876375361","874","-0.0859375","-0.9042969","0.24023438","-10.75","7.90625","6.4375"
"1574876375361","875","-0.048828125","-0.8984375","0.23535156","-8.5","2.71875","3.4375"
"1574876375361","876","-0.061523438","-0.8828125","0.26464844","-8.5625","-5.90625","-0.21875"
"1574876375363","877","-0.072265625","-0.91308594","0.22753906","-7.40625","-16.09375","-1.625"
"1574876375363","878","-0.068359375","-0.92089844","0.24609375","-10.5","-22.5625","-6.1875"
"1574876375363","879","-0.103515625","-0.9121094","0.23730469","-10.3125","-24.75","-8.34375"
"1574876375953","880","-0.03125","-0.9121094","0.1796875","-13.9375","-28.65625","-12.0"
"1574876375954","881","-0.0390625","-0.8935547","0.22265625","-13.3125","-30.9375","-15.90625"
"1574876375954","882","-0.046875","-0.91503906","0.19824219","-11.59375","-33.3125","-16.34375"
"1574876375954","883","9.765625E-4","-0.921875","0.16992188","-11.0","-36.90625","-17.8125"
"1574876375954","884","-0.0029296875","-0.93359375","0.20214844","-9.71875","-34.09375","-20.1875"
"1574876375955","885","0.0087890625","-0.92285156","0.17871094","-6.46875","-36.0625","-18.46875"
"1574876375955","886","0.0390625","-0.9277344","0.17089844","-5.25","-35.625","-18.46875"
"1574876375955","887","0.05078125","-0.94433594","0.16796875","-6.78125","-35.75","-18.59375"
"1574876375956","888","0.04296875","-0.96484375","0.16015625","-12.59375","-35.75","-20.78125"
"1574876375957","889","0.14160156","-0.9580078","0.1015625","-4.21875","-36.40625","-23.71875"
"1574876376351","890","0.1171875","-0.92285156","0.12890625","-4.15625","-40.03125","-27.5"
"1574876376352","891","0.18359375","-0.87890625","0.111328125","1.03125","-40.9375","-30.0625"
"1574876376352","892","0.23925781","-0.9238281","0.14160156","3.09375","-46.5625","-30.6875"
"1574876376352","893","0.13574219","-1.0419922","0.1875","8.0","-44.53125","-26.40625"
"1574876376352","894","0.25976562","-0.9580078","0.16894531","-0.9375","-38.5625","-26.40625"
"1574876376352","895","0.27148438","-0.90722656","0.24023438","-1.09375","-41.46875","-24.875"
"1574876376353","896","0.24316406","-0.9277344","0.18554688","6.09375","-36.59375","-15.59375"
"1574876376353","897","0.19921875","-0.9296875","0.17480469","-13.1875","-15.90625","-15.34375"
"1574876376353","898","0.30273438","-0.9345703","0.22851562","-9.40625","8.5625","-14.5625"
"1574876376354","899","0.36621094","-0.90722656","0.14648438","-6.34375","5.03125","-13.59375"
"1574876376552","900","0.37304688","-0.890625","0.13769531","-9.96875","11.3125","-13.53125"
"1574876376553","901","0.3779297","-0.90625","0.15429688","-12.28125","9.59375","-12.0625"
"1574876376554","902","0.40039062","-0.8876953","0.140625","-10.25","7.53125","-10.71875"
"1574876376554","903","0.3935547","-0.8457031","0.10253906","-8.1875","-0.34375","-10.34375"
"1574876376554","904","0.3642578","-0.8769531","0.15234375","-11.125","0.4375","-4.25"
"1574876376554","905","0.34375","-0.8779297","0.12792969","-9.84375","-2.0","-1.8125"
"1574876376555","906","0.3359375","-0.8417969","0.10058594","-5.1875","-0.71875","3.5625"
"1574876376555","907","0.29101562","-0.8125","0.12207031","-1.84375","7.03125","8.15625"
"1574876376555","908","0.265625","-0.83496094","0.14648438","4.375","3.375","8.15625"
"1574876376555","909","0.20703125","-0.92578125","0.08203125","9.28125","4.53125","8.15625"
"1574876376950","910","0.30078125","-0.95996094","0.18164062","-17.28125","17.46875","13.15625"
"1574876376950","911","0.28222656","-0.828125","0.16308594","-1.46875","13.03125","8.4375"
"1574876376951","912","0.20019531","-0.9091797","0.13574219","-5.125","10.53125","19.625"
"1574876376952","913","0.18164062","-0.81640625","0.09667969","-15.625","17.46875","23.65625"
"1574876376952","914","0.22558594","-0.8222656","0.12597656","-18.6875","11.5625","29.25"
"1574876376953","915","0.16113281","-0.92578125","0.12890625","-13.25","17.84375","25.15625"
"1574876376953","916","0.3623047","-1.0927734","-0.034179688","-17.28125","10.21875","16.5"
"1574876376953","917","0.2998047","-1.4560547","-0.11621094","11.53125","5.9375","11.9375"
"1574876376953","918","0.38476562","-1.4775391","-0.030273438","9.4375","11.625","2.78125"
"1574876376954","919","0.37695312","-1.0683594","-0.037109375","10.96875","15.65625","13.15625"
"1574876377347","920","0.3310547","-0.9638672","0.015625","17.09375","-5.53125","17.25"
"1574876377348","921","0.16113281","-0.92089844","-0.041015625","12.25","-13.03125","24.25"
"1574876377348","922","0.22265625","-0.9658203","-0.026367188","4.09375","-12.25","14.71875"
"1574876377348","923","0.23046875","-1.0175781","-0.0048828125","6.875","-22.0625","8.09375"
"1574876377349","924","0.1328125","-0.875","0.018554688","6.9375","-19.21875","7.53125"
"1574876377350","925","0.23828125","-0.9667969","0.0146484375","7.0","-13.78125","2.53125"
"1574876377351","926","0.19238281","-1.0126953","0.030273438","9.75","-18.59375","3.1875"
"1574876377351","927","0.18359375","-0.984375","0.03125","-1.28125","-13.90625","2.59375"
"1574876377351","928","0.18652344","-0.9189453","-0.017578125","8.65625","-20.84375","-0.59375"
"1574876377352","929","0.14648438","-0.9277344","0.021484375","16.15625","-19.375","2.71875"
"1574876377745","930","0.11230469","-0.99121094","0.020507812","18.0625","-14.6875","3.0"
"1574876377745","931","0.14160156","-1.0302734","0.09863281","21.65625","-4.8125","1.78125"
"1574876377746","932","-0.016601562","-0.9355469","0.14453125","23.3125","6.375","0.75"
"1574876377746","933","0.14355469","-0.9667969","0.119140625","5.3125","27.125","4.1875"
"1574876377746","934","0.13867188","-1.0029297","0.18554688","12.03125","25.96875","0.28125"
"1574876377746","935","0.07910156","-1.0048828","0.16308594","7.4375","23.03125","-6.375"
"1574876377746","936","0.18066406","-0.94921875","0.15234375","-5.3125","25.46875","-10.71875"
"1574876377748","937","0.19824219","-0.921875","0.13574219","-4.65625","14.0625","-17.0"
"1574876377748","938","0.16699219","-0.9326172","0.19238281","-1.71875","7.21875","-18.46875"
"1574876377749","939","0.16601562","-1.0214844","0.20214844","-5.875","6.6875","-16.28125"
"1574876378142","940","0.2783203","-0.92089844","0.13671875","4.21875","-5.34375","-23.09375"
"1574876378142","941","0.36914062","-0.8310547","0.22265625","12.4375","-26.90625","-27.8125"
"1574876378142","942","0.296875","-0.91308594","0.20117188","9.5625","-40.375","-23.15625"
"1574876378142","943","0.2939453","-0.9785156","0.17089844","9.40625","-30.375","-14.3125"
"1574876378143","944","0.31640625","-0.9609375","0.23339844","-1.59375","-22.4375","-16.15625"
"1574876378143","945","0.3984375","-0.9980469","0.17578125","4.8125","-25.0625","-18.03125"
"1574876378143","946","0.3232422","-0.921875","0.09863281","16.96875","-14.5","-15.59375"
"1574876378143","947","0.35839844","-0.9140625","0.18261719","9.4375","-10.59375","-16.09375"
"1574876378144","948","0.39941406","-0.86035156","0.15136719","14.59375","-7.90625","-12.5"
"1574876378145","949","0.3720703","-0.88964844","0.17382812","7.1875","-6.625","-10.90625"
"1574876378539","950","0.33984375","-0.89941406","0.18847656","3.21875","-2.65625","-7.96875"
"1574876378539","951","0.3984375","-0.8769531","0.1484375","10.84375","0.4375","-6.125"
"1574876378539","952","0.3779297","-0.8701172","0.16015625","11.46875","4.15625","-1.8125"
"1574876378540","953","0.375","-0.85253906","0.14160156","12.6875","5.9375","-0.53125"
"1574876378540","954","0.40429688","-0.9033203","0.19140625","-1.21875","12.03125","7.34375"
"1574876378540","955","0.3671875","-0.9707031","0.16601562","-5.1875","10.53125","4.1875"
"1574876378541","956","0.421875","-0.9267578","0.14746094","-12.34375","15.53125","9.65625"
"1574876378541","957","0.3857422","-1.0","0.1640625","-9.46875","20.46875","8.5625"
"1574876378541","958","0.36523438","-0.9580078","0.25195312","-16.5","22.90625","12.96875"
"1574876378541","959","0.31933594","-0.9667969","0.31640625","-21.8125","17.59375","26.75"
"1574876378937","960","0.12890625","-1.3300781","0.28125","15.3125","49.59375","26.34375"
"1574876378939","961","0.24609375","-1.2861328","0.3359375","7.5","81.125","33.71875"
"1574876378939","962","0.20996094","-0.9267578","0.29296875","23.3125","77.15625","28.59375"
"1574876378940","963","0.24023438","-0.9013672","0.15136719","38.3125","49.15625","23.53125"
"1574876378940","964","0.16992188","-0.9042969","0.37402344","-2.75","34.09375","33.65625"
"1574876378940","965","0.125","-0.9316406","0.27929688","-5.1875","11.0625","25.0625"
"1574876378941","966","0.111328125","-0.9667969","0.2705078","5.59375","-4.5","19.875"
"1574876378941","967","-0.0126953125","-0.8964844","0.29101562","3.59375","-1.4375","17.3125"
"1574876378941","968","0.01171875","-0.86328125","0.28320312","-2.375","0.375","20.28125"
"1574876378942","969","0.018554688","-0.86328125","0.31640625","-1.03125","-0.34375","15.21875"
"1574876379335","970","0.0107421875","-0.8496094","0.28808594","0.78125","-0.40625","13.875"
"1574876379335","971","0.015625","-0.8574219","0.29882812","-8.1875","-2.46875","12.125"
"1574876379336","972","-0.015625","-0.890625","0.296875","-7.21875","-7.3125","10.65625"
"1574876379337","973","-0.0068359375","-0.8857422","0.26171875","-15.625","-7.25","5.03125"
"1574876379337","974","0.017578125","-0.9003906","0.27441406","-13.3125","-5.90625","1.78125"
"1574876379338","975","-0.02734375","-0.92578125","0.25","-18.5","-7.1875","0.09375"
"1574876379338","976","0.032226562","-0.9404297","0.21484375","-18.3125","-7.78125","-3.875"
"1574876379338","977","0.041015625","-0.91015625","0.20507812","-18.75","-11.46875","-7.65625"
"1574876379339","978","0.040039062","-0.9160156","0.18066406","-17.46875","-18.59375","-8.65625"
"1574876379339","979","0.068359375","-0.92871094","0.1484375","-14.03125","-20.71875","-11.28125"
"1574876379732","980","0.07519531","-0.9824219","0.15332031","-14.46875","-26.46875","-15.0625"
"1574876379733","981","0.076171875","-0.9707031","0.15429688","-14.15625","-27.875","-19.03125"
"1574876379733","982","0.12402344","-0.9667969","0.11230469","-9.53125","-32.3125","-21.9375"
"1574876379733","983","0.10253906","-0.9550781","0.13183594","-14.96875","-33.84375","-23.53125"
"1574876379734","984","0.15039062","-0.9316406","0.059570312","-12.59375","-35.6875","-26.53125"
"1574876379735","985","0.21191406","-0.9375","0.08886719","-6.96875","-42.53125","-33.53125"
"1574876379736","986","0.16992188","-0.9560547","0.072265625","-6.34375","-43.5625","-35.0625"
"1574876379736","987","0.2734375","-0.9716797","0.0859375","-10.375","-43.625","-37.09375"
"1574876379737","988","0.2734375","-1.0400391","0.1015625","-16.0625","-42.46875","-33.90625"
"1574876379737","989","0.29296875","-1.0527344","0.12402344","-12.9375","-34.90625","-33.375"
"1574876380328","990","0.25878906","-0.9794922","0.09472656","-18.5","-24.40625","-21.71875"
"1574876380328","991","0.3388672","-0.8730469","0.049804688","-15.75","-11.625","-19.8125"
"1574876380329","992","0.37597656","-0.84375","0.064453125","-17.78125","-17.5625","-17.125"
"1574876380329","993","0.37304688","-0.90234375","0.044921875","-7.09375","-21.15625","-13.78125"
"1574876380329","994","0.3701172","-0.9140625","0.034179688","-8.4375","-22.125","-14.6875"
"1574876380330","995","0.38085938","-0.9091797","0.005859375","-11.46875","-22.375","-13.21875"
"1574876380330","996","0.34570312","-0.9316406","-0.009765625","-12.9375","-17.6875","-10.90625"
"1574876380330","997","0.328125","-0.921875","0.024414062","-8.375","-17.8125","-6.1875"
"1574876380331","998","0.3779297","-0.9316406","0.036132812","-6.34375","-5.34375","-4.125"
"1574876380331","999","0.3935547","-0.96191406","-0.025390625","-6.71875","0.3125","-4.90625"
"1574876380528","1000","0.38476562","-0.9267578","-0.017578125","-14.84375","-3.28125","-3.625"
"1574876380528","1001","0.34277344","-0.89160156","-0.048828125","-8.0","-0.71875","-3.15625"
"1574876380529","1002","0.39257812","-0.8857422","-0.059570312","3.09375","-0.28125","1.5"
"1574876380529","1003","0.34277344","-0.8417969","0.08496094","19.28125","8.9375","8.5"
"1574876380529","1004","0.23925781","-0.93066406","0.13378906","4.8125","22.0625","14.0"
"1574876380529","1005","0.359375","-1.0078125","-0.036132812","-17.21875","19.125","10.03125"
"1574876380530","1006","0.4736328","-0.95996094","-0.10644531","-14.03125","7.78125","9.0"
"1574876380530","1007","0.4033203","-0.890625","-0.05078125","-9.53125","3.75","8.75"
"1574876380530","1008","0.3671875","-0.8769531","-0.055664062","2.8125","-0.84375","8.21875"
"1574876380531","1009","0.36523438","-0.8046875","-0.03515625","-10.03125","-4.0","8.15625"
"1574876380924","1010","0.39648438","-0.81152344","-0.03515625","2.625","-8.78125","9.375"
"1574876380925","1011","0.27148438","-0.8046875","-0.001953125","16.40625","-11.75","10.03125"
"1574876380925","1012","0.23828125","-0.8652344","-0.03515625","-1.34375","-17.5","16.03125"
"1574876380925","1013","0.31152344","-0.84375","0.03125","-11.25","-2.53125","15.84375"
"1574876380925","1014","0.10253906","-0.8076172","0.0625","28.1875","1.3125","12.125"
"1574876380926","1015","0.13085938","-0.8125","-0.020507812","3.03125","1.65625","20.03125"
"1574876380926","1016","0.25390625","-0.828125","0.078125","9.34375","4.21875","17.1875"
"1574876380926","1017","0.17480469","-0.8857422","0.055664062","15.125","4.34375","13.03125"
"1574876380926","1018","0.1796875","-0.83984375","0.051757812","5.3125","12.71875","12.96875"
"1574876380927","1019","0.16894531","-1.0078125","0.10839844","1.34375","18.03125","9.96875"
"1574876381322","1020","0.29296875","-1.234375","-0.09277344","16.71875","7.53125","-6.5625"
"1574876381324","1021","0.2265625","-1.2431641","-0.05859375","-5.0625","24.0","-3.8125"
"1574876381324","1022","0.21777344","-1.2714844","-0.038085938","4.3125","25.03125","1.4375"
"1574876381325","1023","0.40722656","-1.2519531","-0.038085938","6.65625","27.4375","-3.40625"
"1574876381325","1024","0.19921875","-1.0488281","0.032226562","-4.21875","30.46875","2.03125"
"1574876381325","1025","0.39453125","-1.0820312","-0.1328125","3.96875","22.40625","-4.3125"
"1574876381325","1026","0.44628906","-1.0615234","-0.14746094","-12.65625","3.5","-9.4375"
"1574876381326","1027","0.36621094","-0.8935547","-0.119140625","-13.375","1.0625","-5.09375"
"1574876381326","1028","0.42285156","-0.984375","-0.083984375","-4.03125","-9.875","-3.625"
"1574876381326","1029","0.32910156","-0.97753906","-0.10058594","-1.65625","-14.09375","-0.9375"
"1574876381720","1030","0.3232422","-0.92871094","-0.08691406","5.125","-15.84375","0.6875"
"1574876381721","1031","0.30371094","-0.9609375","-0.08300781","10.78125","-19.03125","0.8125"
"1574876381721","1032","0.26953125","-0.91796875","-0.07324219","9.5625","-19.375","-1.8125"
"1574876381722","1033","0.25585938","-0.9169922","-0.04296875","14.34375","-19.6875","-1.125"
"1574876381723","1034","0.27441406","-1.0117188","-0.033203125","4.875","-15.3125","1.625"
"1574876381723","1035","0.27246094","-0.9785156","-0.0126953125","10.375","-13.65625","-4.5625"
"1574876381723","1036","0.25976562","-0.984375","-0.02734375","5.25","-9.875","-3.46875"
"1574876381724","1037","0.26367188","-0.95214844","-0.059570312","2.5625","-9.9375","-6.375"
"1574876381724","1038","0.25390625","-0.92089844","-0.0390625","5.71875","-8.71875","-3.6875"
"1574876381724","1039","0.2890625","-0.90625","-0.049804688","-0.1875","-7.65625","-9.5"
