"# PR data"
"# Start time: 20191127T183552"
"# Subject: lukasz"
"# Activity type: Wall push offs"
"# Correctness: Incorrect"
"# Notes: "
""
"timestamp","seq","accel_x","accel_y","accel_z","gyro_x","gyro_y","gyro_z"
"1574876152362","0","0.38964844","-0.92089844","-0.045898438","2.25","-2.3125","0.21875"
"1574876152363","1","0.39648438","-0.9111328","-0.055664062","2.8125","-3.34375","-0.53125"
"1574876152363","2","0.38085938","-0.9160156","-0.064453125","5.59375","-4.25","-0.03125"
"1574876152364","3","0.38964844","-0.91503906","-0.0546875","3.21875","-2.96875","0.03125"
"1574876152364","4","0.39453125","-0.92285156","-0.06640625","2.125","-2.46875","-0.9375"
"1574876152364","5","0.3857422","-0.92089844","-0.05859375","0.96875","-2.46875","-0.53125"
"1574876152364","6","0.37597656","-0.9160156","-0.043945312","-0.3125","-2.375","-0.65625"
"1574876152365","7","0.38085938","-0.9199219","-0.061523438","2.375","-0.15625","-0.90625"
"1574876152365","8","0.38476562","-0.9238281","-0.051757812","1.625","-0.09375","-0.53125"
"1574876152365","9","0.38183594","-0.9111328","-0.047851562","-0.3125","-1.03125","-0.84375"
"1574876152758","10","0.3828125","-0.9121094","-0.041015625","2.125","-3.65625","-0.34375"
"1574876152759","11","0.39160156","-0.921875","-0.049804688","0.59375","-2.90625","-0.78125"
"1574876152759","12","0.38867188","-0.9140625","-0.05078125","1.46875","-2.96875","-0.71875"
"1574876152760","13","0.38867188","-0.9189453","-0.046875","3.15625","-2.0","-0.59375"
"1574876152760","14","0.38671875","-0.9238281","-0.053710938","1.28125","-1.03125","-1.1875"
"1574876152761","15","0.3955078","-0.91503906","-0.043945312","0.34375","-2.375","-0.84375"
"1574876152761","16","0.39453125","-0.91308594","-0.059570312","2.125","-2.59375","-0.71875"
"1574876152761","17","0.40039062","-0.9189453","-0.047851562","-0.3125","-3.6875","-0.46875"
"1574876152762","18","0.4091797","-0.91796875","-0.053710938","3.28125","-2.65625","-0.15625"
"1574876152762","19","0.3828125","-0.9033203","-0.037109375","1.875","-4.125","-1.3125"
"1574876153159","20","0.3935547","-0.9277344","-0.045898438","13.71875","-3.46875","0.09375"
"1574876153159","21","0.3671875","-0.9199219","-0.015625","7.0","-0.71875","1.6875"
"1574876153160","22","0.3779297","-0.91015625","-0.020507812","4.03125","3.875","0.6875"
"1574876153160","23","0.37304688","-0.9345703","-0.049804688","-0.375","3.6875","0.4375"
"1574876153160","24","0.41308594","-0.9267578","-0.064453125","0.1875","0.5625","-1.875"
"1574876153161","25","0.40039062","-0.9140625","-0.087890625","5.5","-0.78125","-3.03125"
"1574876153162","26","0.39257812","-0.8925781","-0.06347656","5.125","-3.46875","-2.96875"
"1574876153162","27","0.38183594","-0.8935547","-0.0146484375","2.75","-9.4375","-0.9375"
"1574876153162","28","0.3955078","-0.91796875","-0.005859375","4.5625","-9.1875","-1.125"
"1574876153162","29","0.38671875","-0.91015625","-0.0126953125","4.375","-9.6875","1.375"
"1574876153555","30","0.42089844","-0.8828125","-0.0078125","12.625","-12.90625","1.78125"
"1574876153555","31","0.4736328","-0.85253906","0.0029296875","20.0","-16.8125","3.25"
"1574876153556","32","0.4765625","-0.8574219","0.060546875","26.84375","-24.34375","6.75"
"1574876153556","33","0.43554688","-0.9423828","0.028320312","28.9375","-21.90625","6.3125"
"1574876153556","34","0.41503906","-0.9580078","0.015625","26.71875","-11.875","6.875"
"1574876153556","35","0.42382812","-0.88964844","0.022460938","26.78125","-3.6875","7.15625"
"1574876153557","36","0.43847656","-0.84277344","0.03515625","21.59375","-2.375","6.5"
"1574876153558","37","0.45117188","-0.88378906","0.05859375","13.96875","-2.3125","6.5"
"1574876153559","38","0.45703125","-0.9140625","0.028320312","2.3125","-3.75","3.4375"
"1574876153559","39","0.40722656","-0.9560547","0.078125","-6.21875","-1.0625","4.65625"
"1574876153950","40","0.3671875","-0.9746094","0.025390625","-30.78125","9.46875","1.3125"
"1574876153951","41","0.44433594","-0.9814453","-0.0048828125","-40.15625","17.15625","-0.21875"
"1574876153951","42","0.4453125","-1.0800781","0.053710938","-16.0625","21.5625","-0.21875"
"1574876153951","43","0.28125","-0.99609375","0.11328125","-29.5","22.125","7.28125"
"1574876153952","44","0.15625","-0.88964844","0.08203125","-18.75","48.125","12.59375"
"1574876153952","45","0.23242188","-0.8720703","0.001953125","2.375","50.0625","17.59375"
"1574876153952","46","0.3173828","-0.91503906","-0.14453125","-2.8125","32.5","7.09375"
"1574876153952","47","0.3720703","-1.0322266","-0.041992188","-10.625","19.3125","8.3125"
"1574876153953","48","0.22851562","-0.9248047","-0.025390625","2.5625","16.0","7.96875"
"1574876153954","49","0.31347656","-0.8847656","-0.064453125","1.875","16.0","3.375"
"1574876154348","50","0.27148438","-0.9003906","-0.033203125","9.6875","6.625","1.0"
"1574876154349","51","0.25195312","-0.9160156","-0.06347656","13.0625","-2.375","-8.8125"
"1574876154349","52","0.29785156","-0.8876953","0.0","-5.0","1.1875","-18.40625"
"1574876154349","53","0.48632812","-0.95410156","-0.095703125","-29.4375","-34.9375","-25.25"
"1574876154349","54","0.51171875","-1.078125","-0.017578125","-26.0","-32.3125","-19.09375"
"1574876154350","55","0.37304688","-0.8125","0.072265625","11.65625","-28.65625","-11.28125"
"1574876154350","56","0.33691406","-0.85058594","0.026367188","11.84375","-29.40625","-4.5"
"1574876154350","57","0.3388672","-0.91308594","-0.0048828125","1.03125","-27.8125","-3.34375"
"1574876154350","58","0.3359375","-0.91796875","0.032226562","11.84375","-23.40625","0.625"
"1574876154351","59","0.33496094","-0.90527344","0.025390625","21.34375","-13.84375","2.21875"
"1574876154747","60","0.3876953","-0.9082031","0.046875","19.28125","-3.09375","4.78125"
"1574876154748","61","0.3388672","-0.8720703","0.044921875","24.03125","-1.4375","5.21875"
"1574876154748","62","0.38476562","-0.8925781","0.036132812","27.9375","-0.09375","6.875"
"1574876154749","63","0.3701172","-0.92089844","0.0703125","24.65625","-1.875","7.09375"
"1574876154749","64","0.34765625","-0.8886719","0.080078125","19.78125","-0.28125","7.53125"
"1574876154749","65","0.33691406","-0.93066406","0.119140625","14.875","1.59375","5.6875"
"1574876154749","66","0.33984375","-0.953125","0.12597656","13.125","3.3125","5.875"
"1574876154750","67","0.33398438","-0.92578125","0.14453125","10.5625","4.0625","5.28125"
"1574876154750","68","0.33984375","-0.9238281","0.13867188","9.6875","4.84375","5.6875"
"1574876154750","69","0.33789062","-0.93066406","0.13183594","11.40625","3.875","4.96875"
"1574876155341","70","0.30664062","-0.9277344","0.14941406","11.59375","1.4375","3.875"
"1574876155342","71","0.3125","-0.94628906","0.15039062","13.3125","1.84375","4.125"
"1574876155342","72","0.31445312","-0.9560547","0.15722656","10.0625","2.65625","3.5"
"1574876155343","73","0.31835938","-0.9550781","0.16503906","9.6875","3.4375","3.75"
"1574876155344","74","0.28710938","-0.93359375","0.17675781","5.59375","0.5625","2.09375"
"1574876155344","75","0.30371094","-0.9345703","0.15429688","5.5","-0.96875","1.90625"
"1574876155344","76","0.30859375","-0.93847656","0.16308594","2.0625","-1.125","1.25"
"1574876155345","77","0.2998047","-0.92578125","0.16210938","0.65625","-0.53125","1.25"
"1574876155345","78","0.29101562","-0.9267578","0.15722656","0.125","0.21875","1.6875"
"1574876155345","79","0.30566406","-0.9238281","0.17382812","0.78125","1.3125","2.34375"
"1574876155541","80","0.30273438","-0.9267578","0.16992188","2.1875","3.9375","2.40625"
"1574876155542","81","0.3095703","-0.9316406","0.15722656","4.625","4.46875","3.5"
"1574876155542","82","0.30566406","-0.9267578","0.16699219","4.5625","4.53125","3.75"
"1574876155542","83","0.31152344","-0.9248047","0.171875","4.375","3.5625","3.5"
"1574876155543","84","0.30859375","-0.9267578","0.1640625","4.6875","2.46875","3.125"
"1574876155544","85","0.3125","-0.9199219","0.1796875","4.21875","1.0625","3.375"
"1574876155545","86","0.28710938","-0.9277344","0.18164062","4.03125","0.3125","2.71875"
"1574876155545","87","0.29101562","-0.93359375","0.17480469","3.15625","-0.46875","2.71875"
"1574876155545","88","0.28125","-0.9248047","0.19824219","2.6875","-0.40625","2.28125"
"1574876155546","89","0.28027344","-0.93652344","0.1875","1.8125","0.5","1.90625"
"1574876155938","90","0.265625","-0.9375","0.1953125","1.34375","0.4375","1.71875"
"1574876155939","91","0.27246094","-0.92871094","0.20019531","0.78125","3.9375","1.84375"
"1574876155939","92","0.29003906","-0.9326172","0.19238281","0.59375","2.34375","1.84375"
"1574876155939","93","0.2763672","-0.9355469","0.1953125","2.3125","1.3125","2.28125"
"1574876155940","94","0.28027344","-0.9326172","0.20019531","2.6875","1.4375","2.40625"
"1574876155940","95","0.27539062","-0.93066406","0.2109375","0.65625","2.34375","1.625"
"1574876155940","96","0.26757812","-0.9326172","0.20019531","0.3125","1.1875","1.3125"
"1574876155941","97","0.26757812","-0.93652344","0.21386719","0.46875","0.5","1.0"
"1574876155942","98","0.26464844","-0.9394531","0.22167969","-1.65625","2.21875","0.21875"
"1574876155942","99","0.25585938","-0.9433594","0.22949219","-0.8125","1.375","-0.34375"
"1574876156336","100","0.25683594","-0.9433594","0.23144531","-1.0","2.40625","-0.40625"
"1574876156337","101","0.2578125","-0.953125","0.24414062","0.84375","1.3125","-0.71875"
"1574876156337","102","0.24609375","-0.9433594","0.25195312","-1.53125","-1.3125","-1.4375"
"1574876156337","103","0.24902344","-0.9482422","0.24414062","-1.28125","-1.3125","-2.21875"
"1574876156337","104","0.24511719","-0.95214844","0.22753906","-2.875","-2.46875","-2.84375"
"1574876156338","105","0.25097656","-0.94628906","0.23339844","-1.40625","-1.6875","-3.03125"
"1574876156338","106","0.27441406","-0.9404297","0.21679688","-0.875","-0.34375","-3.75"
"1574876156338","107","0.2763672","-0.94433594","0.19921875","0.125","-0.46875","-4.125"
"1574876156338","108","0.2734375","-0.9375","0.20214844","-3.375","-2.25","-4.5625"
"1574876156340","109","0.27929688","-0.93847656","0.1953125","-6.0625","-1.9375","-4.75"
"1574876156735","110","0.28515625","-0.9296875","0.1875","-11.71875","-3.8125","-6.25"
"1574876156736","111","0.3076172","-0.94140625","0.16503906","-7.5625","-6.28125","-6.1875"
"1574876156736","112","0.29101562","-0.93066406","0.16699219","-9.15625","-6.75","-6.6875"
"1574876156736","113","0.2998047","-0.9238281","0.16015625","-10.5","-7.71875","-6.6875"
"1574876156737","114","0.3173828","-0.92285156","0.1328125","-8.3125","-6.5","-7.125"
"1574876156737","115","0.33007812","-0.9082031","0.15136719","-5.3125","-10.53125","-7.0"
"1574876156737","116","0.3310547","-0.88964844","0.16503906","3.96875","-15.0","-6.875"
"1574876156737","117","0.30859375","-0.875","0.17871094","10.6875","0.03125","-7.125"
"1574876156738","118","0.3046875","-0.98535156","0.087890625","-21.96875","4.71875","-0.84375"
"1574876156738","119","0.38867188","-0.9511719","0.051757812","-18.6875","-3.40625","-2.1875"
"1574876157332","120","0.3330078","-0.9111328","0.047851562","-18.375","-11.875","-2.34375"
"1574876157333","121","0.38183594","-0.9082031","0.020507812","-11.65625","-13.34375","-6.125"
"1574876157334","122","0.40039062","-0.9003906","0.16210938","-16.625","-12.125","-8.34375"
"1574876157334","123","0.26367188","-0.921875","0.10253906","-28.09375","-16.15625","-4.25"
"1574876157335","124","0.38671875","-0.9628906","0.02734375","-24.4375","-3.6875","-3.75"
"1574876157335","125","0.37304688","-0.92089844","-0.03125","-15.875","-7.5","-2.0"
"1574876157335","126","0.33691406","-0.8769531","-0.07714844","-9.09375","-7.5625","-1.4375"
"1574876157335","127","0.37695312","-0.8876953","-0.10449219","-17.59375","14.5625","-7.375"
"1574876157336","128","0.48828125","-0.91015625","0.11035156","3.28125","-10.0","-9.25"
"1574876157336","129","0.30371094","-0.9169922","-0.03125","-7.21875","-12.0","-6.3125"
"1574876157528","130","0.38867188","-0.9453125","-0.034179688","-7.5","-5.03125","-5.21875"
"1574876157528","131","0.3876953","-0.9042969","-0.057617188","-8.0","-2.65625","-3.75"
"1574876157529","132","0.3857422","-0.9121094","-0.037109375","-12.875","1.3125","-3.40625"
"1574876157529","133","0.41601562","-0.92089844","-0.037109375","-9.21875","-4.9375","-2.96875"
"1574876157529","134","0.36621094","-0.89453125","-0.044921875","-9.15625","-7.78125","-1.4375"
"1574876157530","135","0.39160156","-0.9140625","-0.061523438","-2.4375","-4.75","-0.40625"
"1574876157530","136","0.38671875","-0.91015625","-0.07910156","3.09375","-2.375","1.71875"
"1574876157530","137","0.38867188","-0.9082031","-0.09082031","5.25","1.90625","1.78125"
"1574876157531","138","0.3779297","-0.9169922","-0.0625","5.5","2.03125","1.5625"
"1574876157531","139","0.39648438","-0.91015625","-0.0625","5.125","1.125","1.5"
"1574876157926","140","0.40625","-0.9111328","-0.060546875","9.03125","0.15625","2.71875"
"1574876157926","141","0.38867188","-0.9121094","-0.041015625","6.65625","-3.15625","2.34375"
"1574876157927","142","0.3720703","-0.91796875","-0.03125","4.25","-3.34375","2.59375"
"1574876157927","143","0.37402344","-0.92578125","-0.053710938","4.15625","-1.3125","1.71875"
"1574876157927","144","0.375","-0.92089844","-0.049804688","3.15625","-0.84375","2.46875"
"1574876157928","145","0.3798828","-0.9160156","-0.041992188","3.65625","0.5","2.90625"
"1574876157929","146","0.38476562","-0.9140625","-0.043945312","3.53125","0.9375","3.4375"
"1574876157929","147","0.3857422","-0.90234375","-0.043945312","3.34375","0.21875","3.25"
"1574876157929","148","0.37597656","-0.92871094","-0.041015625","5.96875","1.125","3.3125"
"1574876157929","149","0.3720703","-0.9199219","-0.018554688","5.25","-0.03125","3.5"
"1574876158520","150","0.36523438","-0.92089844","0.0","4.3125","0.03125","3.4375"
"1574876158521","151","0.35839844","-0.93847656","-0.0126953125","5.4375","0.6875","3.0"
"1574876158521","152","0.35058594","-0.92578125","0.0068359375","5.90625","0.625","3.25"
"1574876158522","153","0.3330078","-0.9316406","0.013671875","3.65625","3.5625","2.71875"
"1574876158522","154","0.34375","-0.94921875","0.020507812","7.125","9.125","3.1875"
"1574876158522","155","0.30273438","-0.92578125","0.017578125","3.46875","13.875","2.65625"
"1574876158522","156","0.36621094","-0.93066406","0.02734375","0.65625","17.65625","4.3125"
"1574876158524","157","0.32910156","-0.9296875","0.037109375","0.53125","16.625","3.75"
"1574876158524","158","0.32226562","-0.9345703","0.036132812","-2.09375","17.90625","3.0625"
"1574876158524","159","0.32910156","-0.94628906","0.045898438","-5.5625","21.125","2.96875"
"1574876158722","160","0.33789062","-0.9433594","0.05859375","-7.8125","21.3125","3.6875"
"1574876158723","161","0.29589844","-0.9472656","0.045898438","-8.0625","23.6875","3.5625"
"1574876158723","162","0.31835938","-0.9326172","0.024414062","-7.625","26.6875","4.0"
"1574876158723","163","0.32421875","-0.9423828","0.024414062","-6.0","27.4375","4.3125"
"1574876158723","164","0.3310547","-0.9316406","0.033203125","-3.84375","25.21875","4.96875"
"1574876158724","165","0.36035156","-0.9277344","0.040039062","-2.15625","19.5625","6.625"
"1574876158724","166","0.3857422","-0.9160156","0.02734375","6.03125","9.59375","7.71875"
"1574876158724","167","0.35351562","-0.9199219","0.056640625","13.125","-4.5625","8.375"
"1574876158724","168","0.33789062","-0.93847656","0.055664062","15.4375","-12.5","6.96875"
"1574876158726","169","0.33496094","-0.9267578","0.064453125","18.90625","-20.125","7.53125"
"1574876159120","170","0.28515625","-0.93066406","0.078125","19.09375","-24.75","4.125"
"1574876159121","171","0.2685547","-0.9423828","0.10644531","17.5625","-24.15625","5.03125"
"1574876159121","172","0.2783203","-0.9345703","0.07421875","17.6875","-20.5","2.53125"
"1574876159121","173","0.2841797","-0.94140625","0.103515625","18.0625","-22.625","3.3125"
"1574876159122","174","0.2626953","-0.9472656","0.11425781","15.875","-20.5","0.625"
"1574876159122","175","0.29003906","-0.94433594","0.103515625","13.53125","-17.9375","2.03125"
"1574876159122","176","0.24511719","-0.9560547","0.13769531","11.46875","-15.25","-0.71875"
"1574876159122","177","0.24023438","-0.96972656","0.13769531","8.125","-6.375","1.6875"
"1574876159123","178","0.20214844","-0.9716797","0.16308594","1.34375","1.0625","-0.65625"
"1574876159123","179","0.21777344","-0.97558594","0.15136719","-4.53125","12.65625","0.15625"
"1574876159516","180","0.24511719","-0.96484375","0.14355469","-6.40625","18.6875","1.375"
"1574876159520","181","0.28710938","-0.94921875","0.14550781","-7.09375","22.46875","2.46875"
"1574876159520","182","0.2890625","-0.93066406","0.13867188","-8.4375","19.90625","1.625"
"1574876159521","183","0.2939453","-0.9394531","0.1328125","-5.875","15.78125","0.6875"
"1574876159521","184","0.26464844","-0.9550781","0.14453125","-7.875","12.65625","-0.78125"
"1574876159521","185","0.28320312","-0.95703125","0.13964844","-5.9375","12.34375","0.34375"
"1574876159522","186","0.2890625","-0.93359375","0.1328125","-2.5625","9.46875","0.5"
"1574876159522","187","0.2685547","-0.96484375","0.16992188","-0.8125","2.40625","2.78125"
"1574876159522","188","0.2626953","-0.9580078","0.16992188","-1.21875","0.03125","0.21875"
"1574876159522","189","0.24707031","-0.9716797","0.15917969","-3.0","-2.46875","-1.6875"
"1574876159915","190","0.24804688","-0.96191406","0.16210938","-3.375","-3.09375","-2.21875"
"1574876159915","191","0.21777344","-0.9628906","0.16894531","-3.71875","-1.03125","-3.5625"
"1574876159915","192","0.25195312","-0.9716797","0.14746094","0.0","-0.28125","-1.0625"
"1574876159916","193","0.22167969","-0.98046875","0.16992188","0.125","0.3125","-2.21875"
"1574876159917","194","0.24511719","-0.9892578","0.16894531","-0.125","3.9375","-1.875"
"1574876159917","195","0.22460938","-0.97753906","0.16894531","-3.90625","3.625","-2.90625"
"1574876159917","196","0.2607422","-0.96875","0.15234375","-4.09375","3.1875","-3.21875"
"1574876159918","197","0.25976562","-0.95214844","0.14160156","-3.5","1.125","-3.28125"
"1574876159918","198","0.24609375","-0.9580078","0.14941406","-6.1875","-0.71875","-4.1875"
"1574876159918","199","0.2529297","-0.95996094","0.12988281","-8.5625","1.5","-7.375"
"1574876160510","200","0.2763672","-0.953125","0.13574219","-8.4375","0.03125","-7.71875"
"1574876160511","201","0.27441406","-0.95703125","0.12402344","-9.53125","-1.875","-9.875"
"1574876160511","202","0.2763672","-0.95410156","0.11328125","-10.09375","-1.25","-11.03125"
"1574876160512","203","0.2939453","-0.9511719","0.09472656","-14.0","-3.59375","-11.5"
"1574876160512","204","0.3232422","-0.9433594","0.083984375","-9.78125","-4.875","-10.46875"
"1574876160514","205","0.30859375","-0.9296875","0.07714844","-6.96875","-9.375","-9.875"
"1574876160514","206","0.3095703","-0.9238281","0.08203125","-5.3125","-9.75","-10.03125"
"1574876160515","207","0.33007812","-0.9277344","0.049804688","-4.28125","-9.75","-9.5625"
"1574876160515","208","0.3330078","-0.92089844","0.051757812","-0.125","-10.90625","-7.3125"
"1574876160515","209","0.3486328","-0.91308594","0.040039062","-2.6875","-8.84375","-6.5625"
"1574876160708","210","0.36523438","-0.93359375","0.0087890625","-2.03125","-7.84375","-5.09375"
"1574876160708","211","0.37402344","-0.90234375","0.0078125","-4.15625","-7.25","-5.21875"
"1574876160709","212","0.38867188","-0.89453125","-0.016601562","-4.9375","-5.71875","-3.15625"
"1574876160709","213","0.3955078","-0.8925781","-0.0146484375","-2.8125","-6.15625","-2.40625"
"1574876160709","214","0.38476562","-0.9277344","-0.029296875","-2.75","-8.46875","-2.28125"
"1574876160709","215","0.4111328","-0.9199219","-0.055664062","-2.21875","-11.6875","-3.28125"
"1574876160710","216","0.3955078","-0.8984375","-0.05078125","-4.53125","-11.46875","-3.21875"
"1574876160711","217","0.3955078","-0.90234375","-0.036132812","-3.5625","-10.34375","-3.75"
"1574876160712","218","0.38378906","-0.8857422","-0.04296875","-6.59375","-11.5625","-3.5625"
"1574876160712","219","0.40527344","-0.9111328","-0.06347656","-2.6875","-9.0625","-2.65625"
"1574876161501","220","0.3857422","-0.90625","-0.052734375","-2.9375","-8.59375","-1.75"
"1574876161502","221","0.390625","-0.90722656","-0.06347656","-1.21875","-5.59375","-0.59375"
"1574876161502","222","0.40234375","-0.9111328","-0.059570312","-0.5625","-4.25","0.03125"
"1574876161503","223","0.3876953","-0.90527344","-0.048828125","1.21875","-2.53125","0.40625"
"1574876161503","224","0.38378906","-0.9033203","-0.051757812","0.53125","0.625","0.34375"
"1574876161504","225","0.40820312","-0.91308594","-0.0625","1.59375","3.375","0.9375"
"1574876161504","226","0.38476562","-0.91308594","-0.059570312","2.125","4.84375","1.125"
"1574876161504","227","0.4033203","-0.9160156","-0.029296875","0.90625","5.75","1.5625"
"1574876161504","228","0.38476562","-0.89941406","-0.029296875","1.59375","5.34375","1.71875"
"1574876161506","229","0.3935547","-0.9160156","-0.028320312","1.9375","3.875","3.0625"
"1574876161700","230","0.3701172","-0.92285156","-0.0087890625","1.09375","4.78125","2.71875"
"1574876161701","231","0.37695312","-0.91308594","-0.0126953125","1.46875","5.4375","2.65625"
"1574876161701","232","0.38476562","-0.9248047","-0.0078125","1.21875","4.125","3.25"
"1574876161701","233","0.3515625","-0.9326172","0.009765625","-2.75","1.375","3.0625"
"1574876161702","234","0.3251953","-0.9375","0.0087890625","2.5625","3.0","2.71875"
"1574876161702","235","0.35058594","-0.9404297","0.03515625","4.03125","4.53125","3.25"
"1574876161702","236","0.3623047","-0.9355469","0.0078125","5.1875","3.1875","4.1875"
"1574876161703","237","0.36621094","-0.9238281","0.009765625","7.9375","-0.96875","5.625"
"1574876161703","238","0.37304688","-0.9248047","0.0","7.4375","-2.53125","6.1875"
"1574876161703","239","0.375","-0.9277344","0.024414062","12.03125","-6.28125","7.28125"
"1574876161900","240","0.32714844","-0.9326172","0.03125","11.59375","-8.15625","5.34375"
"1574876161902","241","0.31835938","-0.93359375","0.029296875","8.90625","-4.875","4.78125"
"1574876161902","242","0.31445312","-0.94140625","0.036132812","10.5625","-3.8125","4.0"
"1574876161902","243","0.30664062","-0.9423828","0.030273438","9.8125","-1.125","3.9375"
"1574876161903","244","0.30371094","-0.9316406","0.047851562","5.3125","1.59375","3.4375"
"1574876161903","245","0.31933594","-0.93847656","0.047851562","3.53125","4.15625","2.09375"
"1574876161903","246","0.31640625","-0.9375","0.044921875","2.4375","4.96875","1.375"
"1574876161903","247","0.32421875","-0.9316406","0.045898438","2.3125","7.09375","0.9375"
"1574876161904","248","0.3330078","-0.9296875","0.044921875","4.3125","7.46875","0.9375"
"1574876161904","249","0.3251953","-0.9267578","0.055664062","4.875","7.28125","0.5"
"1574876162299","250","0.33984375","-0.93066406","0.047851562","3.84375","7.40625","1.1875"
"1574876162299","251","0.3310547","-0.9248047","0.0703125","3.65625","5.40625","1.6875"
"1574876162299","252","0.32421875","-0.92871094","0.07324219","6.03125","3.1875","2.40625"
"1574876162304","253","0.33984375","-0.93359375","0.072265625","7.5625","1.65625","2.03125"
"1574876162304","254","0.3232422","-0.92578125","0.07128906","12.0625","-0.28125","2.65625"
"1574876162305","255","0.30859375","-0.9375","0.1015625","9.75","-0.53125","2.53125"
"1574876162305","256","0.3046875","-0.93847656","0.09765625","9.28125","0.25","2.78125"
"1574876162305","257","0.29882812","-0.94140625","0.10644531","6.875","2.15625","2.71875"
"1574876162306","258","0.29101562","-0.93847656","0.11816406","5.78125","2.53125","2.65625"
"1574876162306","259","0.29882812","-0.9404297","0.107421875","2.96875","4.0625","2.46875"
"1574876162697","260","0.31054688","-0.93847656","0.10449219","4.375","5.15625","3.25"
"1574876162698","261","0.30078125","-0.9296875","0.125","3.34375","5.40625","3.4375"
"1574876162698","262","0.2998047","-0.9433594","0.123046875","3.84375","6.1875","3.5"
"1574876162699","263","0.2939453","-0.9345703","0.119140625","2.90625","5.5","3.5"
"1574876162699","264","0.28710938","-0.9316406","0.13183594","1.28125","7.84375","2.90625"
"1574876162700","265","0.29589844","-0.92871094","0.13183594","3.53125","7.59375","4.0"
"1574876162701","266","0.2841797","-0.9345703","0.15234375","1.46875","6.625","4.3125"
"1574876162701","267","0.2763672","-0.94140625","0.14648438","4.625","6.0625","3.625"
"1574876162701","268","0.2705078","-0.9345703","0.15820312","1.03125","5.4375","3.6875"
"1574876162702","269","0.26660156","-0.95214844","0.16308594","4.75","5.875","2.78125"
"1574876163094","270","0.23632812","-0.9472656","0.203125","-1.21875","4.78125","4.0625"
"1574876163095","271","0.26660156","-0.9433594","0.15429688","2.1875","3.9375","3.75"
"1574876163095","272","0.23828125","-0.953125","0.16503906","0.78125","1.375","1.90625"
"1574876163096","273","0.2626953","-0.9511719","0.16503906","-1.21875","1.59375","0.75"
"1574876163096","274","0.25195312","-0.9580078","0.17480469","-0.6875","-0.15625","0.34375"
"1574876163096","275","0.24511719","-0.9658203","0.18652344","1.15625","-1.75","-0.78125"
"1574876163096","276","0.24804688","-0.96484375","0.1875","-1.90625","-0.46875","-1.8125"
"1574876163098","277","0.23632812","-0.95703125","0.17382812","-2.09375","-2.0","-1.875"
"1574876163099","278","0.23925781","-0.9628906","0.17578125","-2.6875","-3.28125","-1.0"
"1574876163099","279","0.22558594","-0.96484375","0.20800781","-3.96875","-3.53125","-0.28125"
"1574876163491","280","0.23925781","-0.9765625","0.20019531","-2.875","-1.9375","-0.90625"
"1574876163492","281","0.21875","-0.97558594","0.19042969","-4.28125","-3.09375","-2.125"
"1574876163492","282","0.23925781","-0.9707031","0.19824219","-4.90625","-2.125","-3.21875"
"1574876163492","283","0.22460938","-0.9667969","0.19042969","-3.375","-2.375","-3.40625"
"1574876163492","284","0.24804688","-0.9589844","0.18359375","-3.25","-4.5","-3.6875"
"1574876163493","285","0.2548828","-0.9580078","0.171875","-0.375","-6.21875","-4.375"
"1574876163493","286","0.26171875","-0.9589844","0.18164062","-3.0625","-6.21875","-5.09375"
"1574876163493","287","0.24804688","-0.953125","0.15234375","-1.96875","-6.8125","-5.96875"
"1574876163493","288","0.2705078","-0.95703125","0.171875","-2.15625","-7.0625","-6.09375"
"1574876163495","289","0.27734375","-0.9423828","0.14257812","-5.25","-9.1875","-8.03125"
"1574876164085","290","0.28710938","-0.9501953","0.12792969","-6.21875","-9.8125","-8.40625"
"1574876164085","291","0.28515625","-0.9404297","0.12402344","-6.84375","-10.125","-9.3125"
"1574876164086","292","0.31054688","-0.94140625","0.10644531","-8.8125","-9.8125","-9.6875"
"1574876164086","293","0.31640625","-0.9394531","0.1015625","-8.625","-10.0625","-10.15625"
"1574876164086","294","0.31640625","-0.9316406","0.09765625","-10.09375","-10.59375","-9.4375"
"1574876164086","295","0.32421875","-0.9189453","0.091796875","-11.71875","-10.96875","-8.53125"
"1574876164087","296","0.36621094","-0.93652344","0.04296875","-10.375","-8.40625","-5.15625"
"1574876164087","297","0.34277344","-0.91796875","0.0390625","-8.0625","-8.71875","-4.96875"
"1574876164087","298","0.35351562","-0.92089844","0.029296875","-4.90625","-7.65625","-3.6875"
"1574876164088","299","0.3515625","-0.921875","0.01171875","-3.96875","-6.3125","-4.0625"
"1574876164288","300","0.36816406","-0.91503906","0.0107421875","-4.53125","-6.03125","-3.46875"
"1574876164290","301","0.3671875","-0.9160156","0.013671875","-2.625","-4.6875","-4.25"
"1574876164290","302","0.3720703","-0.91796875","-0.001953125","-5.625","-4.1875","-4.125"
"1574876164291","303","0.38964844","-0.9003906","-0.001953125","-7.5","-6.9375","-2.71875"
"1574876164291","304","0.3876953","-0.90722656","-0.016601562","-3.4375","-7.78125","-3.40625"
"1574876164291","305","0.3984375","-0.91015625","-0.026367188","-1.90625","-7.1875","-3.09375"
"1574876164291","306","0.38183594","-0.9042969","-0.026367188","-2.625","-7.0","-3.09375"
"1574876164292","307","0.39941406","-0.90234375","-0.0390625","-1.71875","-5.03125","-2.71875"
"1574876164292","308","0.3701172","-0.90234375","-0.0390625","-1.03125","-3.40625","-2.53125"
"1574876164292","309","0.39257812","-0.90625","-0.024414062","0.34375","0.5","-0.71875"
"1574876164684","310","0.38671875","-0.9111328","-0.026367188","-3.0625","0.3125","-1.5625"
"1574876164685","311","0.40429688","-0.90625","-0.026367188","2.0625","-0.28125","-0.09375"
"1574876164685","312","0.3984375","-0.9082031","-0.022460938","1.34375","-1.25","0.34375"
"1574876164686","313","0.40625","-0.9042969","-0.017578125","5.0625","-1.3125","1.78125"
"1574876164687","314","0.38085938","-0.91503906","-0.0048828125","1.34375","-2.0","1.90625"
"1574876164687","315","0.3798828","-0.9140625","0.001953125","1.9375","-1.875","1.84375"
"1574876164688","316","0.36914062","-0.9091797","-0.0029296875","0.59375","-2.0625","1.375"
"1574876164688","317","0.38476562","-0.9248047","-0.013671875","5.3125","-1.25","1.25"
"1574876164688","318","0.36132812","-0.9248047","0.0068359375","4.375","0.4375","1.625"
"1574876164688","319","0.37109375","-0.9189453","0.0068359375","1.46875","2.03125","1.71875"
"1574876165082","320","0.3828125","-0.91308594","0.0087890625","1.40625","0.8125","2.15625"
"1574876165083","321","0.38085938","-0.92285156","-0.0029296875","1.34375","-0.03125","2.28125"
"1574876165083","322","0.38085938","-0.921875","-0.0029296875","1.53125","-2.65625","2.09375"
"1574876165083","323","0.36816406","-0.91796875","0.026367188","1.40625","-5.71875","2.21875"
"1574876165083","324","0.3876953","-0.92089844","0.0078125","4.21875","-6.6875","3.0"
"1574876165085","325","0.36035156","-0.91503906","0.013671875","6.875","-9.125","3.6875"
"1574876165085","326","0.3564453","-0.92285156","0.0107421875","6.78125","-8.40625","3.6875"
"1574876165086","327","0.34570312","-0.91503906","0.024414062","8.40625","-6.5625","3.5625"
"1574876165086","328","0.3330078","-0.92871094","0.026367188","7.375","-4.3125","3.5"
"1574876165086","329","0.3564453","-0.9277344","0.013671875","7.625","-0.40625","3.9375"
"1574876165478","330","0.33789062","-0.9169922","0.03125","6.34375","-0.96875","3.8125"
"1574876165478","331","0.359375","-0.92089844","0.02734375","9.34375","0.15625","4.25"
"1574876165479","332","0.36621094","-0.92285156","0.037109375","8.71875","-1.375","3.625"
"1574876165479","333","0.36132812","-0.9199219","0.028320312","14.21875","-5.09375","3.8125"
"1574876165479","334","0.35742188","-0.9160156","0.06640625","11.40625","-7.59375","4.53125"
"1574876165479","335","0.34375","-0.92871094","0.055664062","14.40625","-9.125","4.3125"
"1574876165480","336","0.33203125","-0.9345703","0.07324219","13.25","-9.125","4.0625"
"1574876165481","337","0.3017578","-0.93847656","0.09082031","11.03125","-7.1875","2.46875"
"1574876165481","338","0.30566406","-0.93652344","0.08691406","8.71875","-2.59375","1.90625"
"1574876165482","339","0.30859375","-0.93066406","0.08203125","7.375","0.375","1.5"
"1574876165877","340","0.3076172","-0.9394531","0.08886719","4.375","4.84375","1.6875"
"1574876165877","341","0.328125","-0.92285156","0.08886719","4.3125","7.21875","1.96875"
"1574876165877","342","0.33691406","-0.9169922","0.08691406","4.5625","7.59375","3.0"
"1574876165878","343","0.35839844","-0.9121094","0.08691406","8.0","4.71875","3.5625"
"1574876165878","344","0.34277344","-0.9111328","0.09765625","10.0625","0.6875","3.875"
"1574876165878","345","0.33398438","-0.9169922","0.10253906","12.0625","-2.90625","3.625"
"1574876165879","346","0.31835938","-0.9267578","0.13085938","11.09375","-4.9375","2.96875"
"1574876165879","347","0.30859375","-0.9296875","0.14355469","11.15625","-5.65625","3.5625"
"1574876165879","348","0.3017578","-0.9355469","0.15820312","11.46875","-6.03125","3.3125"
"1574876165880","349","0.27441406","-0.94628906","0.1796875","9.15625","-4.8125","2.03125"
"1574876166275","350","0.2939453","-0.94921875","0.18261719","5.5","-2.71875","1.6875"
"1574876166275","351","0.28515625","-0.9501953","0.20703125","2.90625","-0.84375","1.1875"
"1574876166275","352","0.28222656","-0.9433594","0.18945312","-0.25","-0.28125","0.625"
"1574876166276","353","0.29101562","-0.9453125","0.21875","-0.5","2.46875","0.40625"
"1574876166276","354","0.28027344","-0.92871094","0.19824219","-3.3125","3.125","-0.40625"
"1574876166276","355","0.3095703","-0.93359375","0.19238281","0.78125","0.375","1.0"
"1574876166277","356","0.27929688","-0.9375","0.20117188","-0.1875","0.5","-0.09375"
"1574876166277","357","0.3154297","-0.9345703","0.19824219","0.46875","3.3125","0.875"
"1574876166277","358","0.3076172","-0.9326172","0.20996094","2.4375","-0.21875","1.90625"
"1574876166277","359","0.28808594","-0.9482422","0.21777344","1.34375","0.5625","1.25"
"1574876166870","360","0.2841797","-0.9404297","0.22070312","-1.71875","-1.875","0.40625"
"1574876166871","361","0.28027344","-0.95214844","0.21191406","-3.375","-2.53125","-1.5"
"1574876166871","362","0.28320312","-0.9560547","0.2109375","-4.53125","-3.46875","-2.28125"
"1574876166872","363","0.28320312","-0.93652344","0.2109375","-5.1875","-0.96875","-3.15625"
"1574876166872","364","0.27734375","-0.9433594","0.18164062","-4.09375","-1.0625","-3.28125"
"1574876166872","365","0.29101562","-0.93652344","0.18847656","-5.375","0.5","-3.34375"
"1574876166872","366","0.28320312","-0.9501953","0.18359375","-6.46875","1.1875","-3.6875"
"1574876166873","367","0.2939453","-0.9423828","0.17871094","-7.5625","1.25","-3.5"
"1574876166873","368","0.296875","-0.94140625","0.16796875","-7.75","1.0","-3.875"
"1574876166873","369","0.30859375","-0.93847656","0.16113281","-7.625","0.4375","-3.875"
"1574876167268","370","0.30371094","-0.9433594","0.16015625","-9.28125","-0.46875","-4.25"
"1574876167268","371","0.3076172","-0.9404297","0.1328125","-9.21875","-0.40625","-4.84375"
"1574876167269","372","0.31640625","-0.93847656","0.13085938","-9.40625","-0.90625","-4.25"
"1574876167270","373","0.3125","-0.9326172","0.125","-9.71875","-0.78125","-4.96875"
"1574876167270","374","0.31347656","-0.9345703","0.10839844","-11.90625","0.4375","-4.75"
"1574876167270","375","0.32421875","-0.9316406","0.08691406","-8.1875","1.125","-5.15625"
"1574876167271","376","0.3310547","-0.93359375","0.091796875","-8.25","1.96875","-4.3125"
"1574876167271","377","0.3486328","-0.93066406","0.07324219","-8.5","1.3125","-4.4375"
"1574876167271","378","0.3466797","-0.91308594","0.0546875","-8.3125","1.125","-3.5"
"1574876167271","379","0.35546875","-0.92285156","0.055664062","-7.6875","0.25","-3.625"
"1574876167862","380","0.3544922","-0.921875","0.044921875","-7.9375","-0.84375","-4.1875"
"1574876167862","381","0.3642578","-0.91308594","0.020507812","-7.34375","-2.125","-3.21875"
"1574876167863","382","0.35839844","-0.91015625","0.018554688","-9.53125","-1.875","-3.8125"
"1574876167863","383","0.34960938","-0.9267578","0.0126953125","-9.53125","-1.75","-4.3125"
"1574876167863","384","0.35839844","-0.9189453","0.013671875","-10.1875","-0.90625","-3.875"
"1574876167864","385","0.3623047","-0.9160156","0.005859375","-9.46875","-0.15625","-3.5625"
"1574876167864","386","0.37695312","-0.9121094","-0.01953125","-3.1875","-0.53125","-3.03125"
"1574876167864","387","0.3623047","-0.93066406","0.038085938","-4.90625","-1.125","-2.28125"
"1574876167865","388","0.38378906","-0.9121094","-0.00390625","-4.90625","0.5","-2.34375"
"1574876167865","389","0.3720703","-0.9091797","0.0146484375","-5.9375","-0.71875","-2.53125"
"1574876167865","390","0.36523438","-0.921875","0.0087890625","-4.71875","-1.0625","-1.8125"
"1574876167866","391","0.36132812","-0.9199219","0.0087890625","-3.71875","0.5625","-2.46875"
"1574876167866","392","0.36914062","-0.92089844","0.0078125","-5.25","1.0625","-2.21875"
"1574876167866","393","0.37304688","-0.9111328","-0.0068359375","-4.28125","3.625","-2.28125"
"1574876167867","394","0.36132812","-0.90234375","-0.0029296875","-6.28125","4.84375","-2.1875"
"1574876167867","395","0.37402344","-0.9140625","-0.033203125","-7.09375","8.625","-2.59375"
"1574876167867","396","0.3828125","-0.9082031","-0.041015625","-5.4375","10.75","-2.0625"
"1574876167868","397","0.40039062","-0.9003906","-0.04296875","-0.8125","12.15625","-1.375"
"1574876167870","398","0.40722656","-0.8964844","-0.018554688","-5.875","8.625","-0.59375"
"1574876167870","399","0.4267578","-0.90234375","-0.04296875","-2.03125","6.25","-0.9375"
"1574876168262","400","0.4091797","-0.9121094","-0.036132812","0.125","0.03125","0.09375"
"1574876168263","401","0.4013672","-0.9111328","-0.0234375","1.59375","-1.875","0.5625"
"1574876168263","402","0.38867188","-0.92578125","-0.0234375","2.90625","-1.9375","-0.09375"
"1574876168263","403","0.3720703","-0.9199219","-0.01953125","4.9375","-1.9375","0.5"
"1574876168263","404","0.3671875","-0.92285156","-0.0087890625","2.6875","-2.25","1.4375"
"1574876168264","405","0.3701172","-0.921875","-0.009765625","1.9375","-0.03125","1.4375"
"1574876168264","406","0.37597656","-0.92285156","-0.0078125","2.0625","2.15625","2.21875"
"1574876168264","407","0.3642578","-0.92089844","-9.765625E-4","1.15625","2.65625","1.78125"
"1574876168264","408","0.36914062","-0.9169922","0.0029296875","1.03125","2.9375","1.5"
"1574876168266","409","0.37890625","-0.92089844","0.0048828125","1.28125","3.4375","2.15625"
"1574876168659","410","0.3701172","-0.91308594","0.00390625","-0.6875","2.71875","1.96875"
"1574876168659","411","0.38183594","-0.9160156","0.001953125","1.21875","2.71875","2.46875"
"1574876168659","412","0.3623047","-0.91796875","0.0029296875","1.8125","1.3125","2.34375"
"1574876168660","413","0.37109375","-0.92285156","0.0078125","2.3125","2.59375","2.59375"
"1574876168660","414","0.3623047","-0.92089844","0.0048828125","4.03125","1.96875","2.84375"
"1574876168660","415","0.3544922","-0.9277344","0.0126953125","3.78125","1.78125","2.65625"
"1574876168660","416","0.36816406","-0.9277344","0.01171875","3.46875","3.1875","3.3125"
"1574876168661","417","0.3388672","-0.9140625","0.0107421875","1.6875","2.78125","3.25"
"1574876168661","418","0.359375","-0.9326172","0.028320312","3.78125","4.78125","4.1875"
"1574876168661","419","0.3466797","-0.92285156","0.017578125","2.4375","6.3125","3.4375"
"1574876169057","420","0.3544922","-0.9267578","0.0234375","6.875","4.0625","4.59375"
"1574876169058","421","0.3466797","-0.921875","0.026367188","5.71875","4.46875","4.46875"
"1574876169058","422","0.34277344","-0.9394531","0.044921875","4.03125","4.0625","4.1875"
"1574876169058","423","0.3544922","-0.92089844","0.04296875","3.90625","3.75","5.28125"
"1574876169059","424","0.33398438","-0.9326172","0.05078125","3.71875","2.09375","4.59375"
"1574876169059","425","0.32617188","-0.92871094","0.057617188","2.75","2.53125","4.34375"
"1574876169060","426","0.3251953","-0.9316406","0.045898438","3.59375","3.5625","3.1875"
"1574876169060","427","0.3310547","-0.9355469","0.0625","3.71875","2.71875","3.5625"
"1574876169060","428","0.3154297","-0.9296875","0.061523438","4.875","3.875","3.25"
"1574876169060","429","0.3154297","-0.9423828","0.08496094","4.25","3.375","3.5"
"1574876169651","430","0.3154297","-0.9375","0.07519531","6.9375","1.71875","4.3125"
"1574876169652","431","0.30566406","-0.9482422","0.10546875","7.25","-0.09375","4.65625"
"1574876169652","432","0.31347656","-0.9472656","0.09375","7.8125","-0.96875","5.46875"
"1574876169653","433","0.28515625","-0.94921875","0.12207031","2.875","-3.34375","5.09375"
"1574876169653","434","0.2861328","-0.9550781","0.11328125","4.625","-3.46875","3.4375"
"1574876169653","435","0.24707031","-0.96777344","0.119140625","-0.75","-0.59375","0.75"
"1574876169659","436","0.2705078","-0.9511719","0.107421875","0.3125","0.875","1.625"
"1574876169659","437","0.28125","-0.95703125","0.115234375","-0.1875","2.28125","0.4375"
"1574876169659","438","0.26660156","-0.96191406","0.119140625","0.53125","4.34375","-0.09375"
"1574876169660","439","0.2578125","-0.95703125","0.12402344","-4.09375","6.625","-0.21875"
"1574876169852","440","0.2841797","-0.95214844","0.11328125","-5.8125","8.375","-0.9375"
"1574876169852","441","0.31640625","-0.9501953","0.09277344","-3.96875","8.375","0.625"
"1574876169853","442","0.27929688","-0.9394531","0.099609375","-3.5625","5.625","1.1875"
"1574876169853","443","0.2685547","-0.9609375","0.10449219","-6.65625","9.46875","0.5625"
"1574876169853","444","0.29589844","-0.953125","0.07910156","-3.96875","10.59375","1.5"
"1574876169854","445","0.27929688","-0.9472656","0.08691406","-6.0625","11.6875","1.78125"
"1574876169854","446","0.30566406","-0.93847656","0.076171875","-3.4375","11.5625","3.6875"
"1574876169854","447","0.2783203","-0.9394531","0.099609375","-3.71875","8.4375","3.4375"
"1574876169854","448","0.29003906","-0.953125","0.08203125","-2.21875","9.34375","2.34375"
"1574876169855","449","0.26464844","-0.94628906","0.09472656","-6.53125","8.3125","0.75"
"1574876170447","450","0.28515625","-0.9472656","0.078125","-3.5","9.34375","0.4375"
"1574876170447","451","0.25097656","-0.94921875","0.08886719","-4.71875","8.375","-0.21875"
"1574876170447","452","0.29785156","-0.94628906","0.06542969","-1.21875","10.28125","0.8125"
"1574876170448","453","0.2626953","-0.95410156","0.091796875","-2.875","5.875","0.09375"
"1574876170448","454","0.26757812","-0.9511719","0.068359375","-3.71875","6.375","-0.03125"
"1574876170449","455","0.27441406","-0.9550781","0.08203125","-3.59375","6.25","-0.21875"
"1574876170449","456","0.29101562","-0.9453125","0.0546875","-2.375","2.21875","0.8125"
"1574876170449","457","0.27246094","-0.9501953","0.07324219","0.125","-1.375","0.34375"
"1574876170450","458","0.24316406","-0.9609375","0.06347656","1.625","-1.5","-0.21875"
"1574876170450","459","0.25683594","-0.9628906","0.08984375","-1.15625","-2.53125","0.4375"
"1574876170647","460","0.28808594","-0.95996094","0.068359375","-1.28125","-3.34375","0.34375"
"1574876170647","461","0.2548828","-0.9628906","0.07128906","3.21875","-6.5","0.9375"
"1574876170648","462","0.27246094","-0.95703125","0.072265625","2.5625","-7.65625","2.15625"
"1574876170648","463","0.24707031","-0.9580078","0.09765625","1.09375","-8.59375","0.8125"
"1574876170648","464","0.24023438","-0.97558594","0.1015625","3.40625","-10.0625","1.6875"
"1574876170649","465","0.25878906","-0.97558594","0.1015625","1.03125","-10.65625","2.09375"
"1574876170649","466","0.27148438","-0.96777344","0.07910156","1.875","-9.75","2.28125"
"1574876170649","467","0.21875","-0.96875","0.09277344","-2.03125","-10.40625","-1.0625"
"1574876170650","468","0.22070312","-0.9716797","0.087890625","-3.3125","-8.21875","-2.0625"
"1574876170652","469","0.2529297","-0.97265625","0.07519531","2.1875","-7.78125","-3.9375"
"1574876171244","470","0.25195312","-0.95996094","0.078125","0.40625","-8.28125","-3.625"
"1574876171244","471","0.24511719","-0.96875","0.08691406","-0.125","-8.03125","-4.4375"
"1574876171244","472","0.28222656","-0.96875","0.06347656","-0.0625","-5.59375","-3.46875"
"1574876171245","473","0.2685547","-0.9609375","0.046875","2.5","-6.375","-2.125"
"1574876171245","474","0.28027344","-0.96777344","0.06347656","-0.6875","-4.375","0.8125"
"1574876171245","475","0.26171875","-0.9580078","0.032226562","-0.125","-4.0625","1.0"
"1574876171245","476","0.28710938","-0.95410156","0.051757812","1.8125","-7.0625","1.3125"
"1574876171245","477","0.28125","-0.97753906","0.052734375","3.09375","-4.1875","0.9375"
"1574876171246","478","0.2607422","-0.9472656","0.046875","5.25","-2.25","1.4375"
"1574876171246","479","0.25683594","-0.92871094","0.06738281","1.6875","6.1875","0.21875"
"1574876171442","480","0.2607422","-0.9296875","0.068359375","-5.5625","15.21875","-1.6875"
"1574876171442","481","0.31445312","-0.93847656","0.01953125","-1.21875","15.59375","-3.03125"
"1574876171443","482","0.31347656","-0.8955078","0.07324219","-1.84375","11.25","-6.8125"
"1574876171443","483","0.3828125","-0.9453125","0.052734375","-3.25","2.34375","-8.59375"
"1574876171443","484","0.33789062","-0.93847656","0.083984375","-4.03125","-10.34375","-9.625"
"1574876171443","485","0.2841797","-0.9746094","0.08105469","-4.90625","-15.375","-7.53125"
"1574876171444","486","0.27929688","-0.9667969","0.04296875","-5.0","-13.40625","-6.03125"
"1574876171444","487","0.25878906","-0.98535156","0.06738281","-0.0625","-9.75","-4.375"
"1574876171444","488","0.2705078","-0.96972656","0.061523438","-0.875","-3.8125","-2.71875"
"1574876171444","489","0.28125","-0.9628906","0.060546875","-2.9375","0.15625","-1.75"
"1574876171839","490","0.32617188","-0.94628906","0.041992188","-3.3125","2.78125","-0.65625"
"1574876171840","491","0.33496094","-0.92871094","0.03515625","-2.28125","0.3125","-0.28125"
"1574876171840","492","0.33398438","-0.9296875","0.029296875","1.53125","-1.9375","-0.65625"
"1574876171842","493","0.34472656","-0.93066406","0.033203125","0.1875","-4.375","-1.9375"
"1574876171842","494","0.3125","-0.9404297","0.048828125","0.40625","-5.21875","-3.40625"
"1574876171842","495","0.33007812","-0.9404297","0.041015625","2.875","-6.6875","-3.8125"
"1574876171842","496","0.3125","-0.9550781","0.056640625","0.53125","-4.9375","-4.3125"
"1574876171843","497","0.3310547","-0.9433594","0.040039062","0.0625","-2.78125","-1.875"
"1574876171843","498","0.2861328","-0.9140625","0.052734375","-7.8125","5.21875","-3.03125"
"1574876171843","499","0.30371094","-0.93847656","0.033203125","-8.75","7.84375","-2.0625"
"1574876172236","500","0.36132812","-0.9169922","0.0068359375","-9.84375","6.3125","-6.6875"
"1574876172237","501","0.37109375","-0.91796875","-0.01171875","-4.46875","-3.59375","-10.03125"
"1574876172237","502","0.36914062","-0.93066406","0.02734375","-5.8125","-10.0","-10.78125"
"1574876172237","503","0.36328125","-0.9453125","0.0126953125","-4.21875","-14.25","-10.59375"
"1574876172237","504","0.3076172","-0.96875","0.017578125","0.1875","-16.34375","-7.0625"
"1574876172242","505","0.29785156","-0.9638672","0.0146484375","-3.59375","-8.28125","-4.5625"
"1574876172243","506","0.328125","-0.9326172","0.00390625","-1.71875","-5.65625","-3.15625"
"1574876172243","507","0.34277344","-0.9433594","0.016601562","-1.46875","-2.96875","-2.46875"
"1574876172244","508","0.37109375","-0.9140625","0.051757812","8.78125","0.4375","-1.5"
"1574876172244","509","0.35351562","-0.9199219","0.037109375","4.03125","-1.75","0.4375"
"1574876172634","510","0.3515625","-0.96972656","-0.025390625","-0.3125","-5.71875","0.40625"
"1574876172634","511","0.3955078","-0.9199219","-0.028320312","-0.1875","-6.625","0.15625"
"1574876172635","512","0.3671875","-0.9121094","-0.028320312","-2.3125","-7.59375","0.75"
"1574876172635","513","0.3720703","-0.9003906","0.009765625","-5.1875","-7.90625","-1.5625"
"1574876172635","514","0.35742188","-0.9238281","-0.01171875","-5.625","-7.96875","-3.03125"
"1574876172635","515","0.37109375","-0.9453125","-0.020507812","-6.0625","-8.59375","-3.5"
"1574876172636","516","0.36132812","-0.9296875","-0.044921875","-4.84375","-9.1875","-4.1875"
"1574876172637","517","0.3623047","-0.92285156","-0.044921875","-6.125","-4.5","-3.875"
"1574876172638","518","0.375","-0.9169922","-0.021484375","-6.78125","-4.1875","-4.1875"
"1574876172638","519","0.3671875","-0.9189453","-0.051757812","-10.9375","-6.875","-4.25"
"1574876173427","520","0.3935547","-0.92578125","-0.051757812","-5.0625","-3.75","-4.25"
"1574876173427","521","0.37597656","-0.91503906","-0.05859375","-5.0","-5.03125","-4.3125"
"1574876173428","522","0.40234375","-0.9111328","-0.064453125","-6.53125","-4.375","-3.9375"
"1574876173428","523","0.39453125","-0.8984375","-0.07714844","-5.1875","-5.40625","-3.875"
"1574876173428","524","0.390625","-0.9091797","-0.10058594","-7.8125","-4.6875","-4.1875"
"1574876173428","525","0.42578125","-0.8964844","-0.13476562","-5.25","-3.65625","-4.0625"
"1574876173428","526","0.40234375","-0.9189453","-0.111328125","-5.625","-3.53125","-6.4375"
"1574876173429","527","0.41503906","-0.8925781","-0.12011719","-6.34375","-1.8125","-5.15625"
"1574876173429","528","0.41503906","-0.89160156","-0.11425781","-7.75","-3.09375","-4.3125"
"1574876173429","529","0.41503906","-0.87402344","-0.13574219","-6.0625","-1.9375","-4.5"
"1574876173626","530","0.43066406","-0.90234375","-0.17382812","-4.78125","-2.84375","-5.34375"
"1574876173626","531","0.4326172","-0.8847656","-0.15234375","-4.9375","-2.46875","-3.03125"
"1574876173627","532","0.43945312","-0.8730469","-0.19140625","-3.78125","-1.1875","-3.40625"
"1574876173627","533","0.43847656","-0.8847656","-0.14746094","-0.4375","-2.59375","-1.25"
"1574876173627","534","0.421875","-0.8984375","-0.12792969","6.53125","-3.65625","0.9375"
"1574876173627","535","0.42578125","-0.9013672","-0.125","9.03125","-1.4375","4.0625"
"1574876173628","536","0.41796875","-0.8798828","-0.12988281","10.375","-0.09375","4.53125"
"1574876173628","537","0.40625","-0.8808594","-0.12207031","7.8125","3.0625","4.78125"
"1574876173628","538","0.40625","-0.875","-0.08203125","2.6875","9.71875","2.71875"
"1574876173628","539","0.40234375","-0.9013672","-0.13183594","9.03125","16.5625","-0.53125"
"1574876174026","540","0.42089844","-0.89746094","-0.115234375","11.21875","18.09375","-1.375"
"1574876174027","541","0.4326172","-0.89160156","-0.103515625","6.59375","15.65625","-0.84375"
"1574876174027","542","0.4736328","-0.890625","-0.06542969","9.5625","7.84375","1.125"
"1574876174028","543","0.4560547","-0.8984375","-0.033203125","7.625","2.28125","3.625"
"1574876174028","544","0.3984375","-0.9013672","-0.049804688","6.875","-2.0","3.8125"
"1574876174029","545","0.36914062","-0.9316406","-0.048828125","4.15625","2.84375","5.75"
"1574876174029","546","0.3642578","-0.9316406","-0.03515625","6.71875","4.34375","6.125"
"1574876174029","547","0.3515625","-0.9277344","-0.032226562","7.1875","9.25","6.5"
"1574876174029","548","0.390625","-0.9248047","-0.036132812","4.5","14.71875","6.8125"
"1574876174030","549","0.39453125","-0.9160156","-0.024414062","2.96875","14.25","7.46875"
"1574876174422","550","0.38183594","-0.921875","-0.009765625","0.53125","11.375","7.21875"
"1574876174422","551","0.39941406","-0.9121094","9.765625E-4","-2.9375","9.59375","8.5"
"1574876174422","552","0.36914062","-0.9267578","0.0078125","1.46875","10.09375","7.40625"
"1574876174423","553","0.35742188","-0.9248047","0.0107421875","1.6875","9.0625","6.96875"
"1574876174424","554","0.36816406","-0.92089844","-0.0107421875","3.59375","8.125","6.8125"
"1574876174424","555","0.359375","-0.91503906","0.036132812","2.3125","4.65625","6.4375"
"1574876174424","556","0.3564453","-0.9248047","0.0234375","5.125","1.71875","5.28125"
"1574876174425","557","0.3486328","-0.9375","0.01953125","6.53125","0.875","5.625"
"1574876174425","558","0.32617188","-0.9345703","0.037109375","5.5","0.8125","4.90625"
"1574876174425","559","0.31347656","-0.95214844","0.055664062","2.625","2.09375","4.40625"
"1574876174821","560","0.32910156","-0.94628906","0.037109375","3.40625","4.15625","4.90625"
"1574876174821","561","0.3076172","-0.9423828","0.057617188","4.4375","1.78125","4.34375"
"1574876174822","562","0.3017578","-0.9550781","0.044921875","5.4375","2.875","3.9375"
"1574876174822","563","0.31640625","-0.9511719","0.036132812","5.0","4.15625","3.375"
"1574876174822","564","0.31640625","-0.9482422","0.046875","2.8125","2.46875","3.1875"
"1574876174823","565","0.31347656","-0.9433594","0.048828125","3.34375","0.9375","2.96875"
"1574876174824","566","0.31835938","-0.94628906","0.036132812","1.875","1.0","2.40625"
"1574876174824","567","0.31445312","-0.9404297","0.053710938","1.09375","-0.59375","2.59375"
"1574876174824","568","0.30859375","-0.94921875","0.044921875","3.28125","0.21875","1.96875"
"1574876174825","569","0.3017578","-0.94921875","0.041015625","0.84375","-0.84375","1.6875"
"1574876175218","570","0.3154297","-0.9375","0.051757812","-0.1875","0.6875","2.71875"
"1574876175219","571","0.30664062","-0.9433594","0.037109375","2.25","0.03125","2.34375"
"1574876175219","572","0.3017578","-0.9296875","0.06542969","0.0","0.15625","3.0625"
"1574876175219","573","0.33496094","-0.94921875","0.028320312","1.53125","0.09375","2.15625"
"1574876175220","574","0.30566406","-0.9433594","0.041015625","2.5","-1.6875","1.5625"
"1574876175220","575","0.30566406","-0.9316406","0.048828125","3.03125","-1.75","2.84375"
"1574876175220","576","0.3154297","-0.9404297","0.053710938","3.09375","-0.96875","1.90625"
"1574876175222","577","0.3017578","-0.9501953","0.044921875","3.40625","-1.0625","1.125"
"1574876175222","578","0.29589844","-0.94628906","0.068359375","2.90625","-2.25","0.875"
"1574876175222","579","0.28125","-0.95703125","0.06542969","4.4375","-1.75","0.6875"
"1574876175810","580","0.29101562","-0.9560547","0.05859375","4.5625","-2.25","2.03125"
"1574876175810","581","0.2763672","-0.9355469","0.076171875","4.09375","0.03125","1.90625"
"1574876175810","582","0.30566406","-0.9453125","0.06347656","3.59375","0.6875","2.84375"
"1574876175810","583","0.28125","-0.95410156","0.072265625","2.5625","-0.34375","2.65625"
"1574876175811","584","0.28125","-0.95214844","0.07714844","2.5","1.71875","2.65625"
"1574876175811","585","0.29882812","-0.9511719","0.064453125","2.8125","0.5","2.34375"
"1574876175811","586","0.28125","-0.95214844","0.07714844","3.65625","-0.46875","1.3125"
"1574876175811","587","0.2783203","-0.94921875","0.10839844","-1.15625","1.53125","0.8125"
"1574876175812","588","0.2734375","-0.9560547","0.068359375","1.09375","1.78125","0.875"
"1574876175813","589","0.2919922","-0.9472656","0.087890625","-1.34375","1.125","1.4375"
"1574876176012","590","0.28222656","-0.9550781","0.083984375","-1.34375","-2.0625","-0.09375"
"1574876176013","591","0.27539062","-0.9580078","0.09472656","-1.0","-2.375","0.40625"
"1574876176013","592","0.28027344","-0.95410156","0.08691406","-1.59375","-0.03125","-0.34375"
"1574876176013","593","0.3046875","-0.9501953","0.07519531","-1.0","-5.15625","-0.71875"
"1574876176013","594","0.24707031","-0.9560547","0.12207031","-0.5625","-4.125","-4.125"
"1574876176014","595","0.28710938","-0.97753906","0.080078125","-0.3125","-4.125","-3.6875"
"1574876176014","596","0.2705078","-0.9453125","0.1015625","-1.34375","-4.875","-3.625"
"1574876176014","597","0.28027344","-0.97265625","0.10058594","1.28125","-2.96875","-2.53125"
"1574876176014","598","0.29101562","-0.9580078","0.10253906","-1.28125","-2.40625","-1.25"
"1574876176015","599","0.26660156","-0.953125","0.08496094","-0.3125","-3.21875","-1.25"
"1574876176410","600","0.27734375","-0.95703125","0.087890625","-2.28125","-3.21875","-2.21875"
"1574876176411","601","0.29296875","-0.95410156","0.07910156","-2.625","-3.28125","-3.28125"
"1574876176411","602","0.2919922","-0.95214844","0.06933594","-1.03125","-3.21875","-4.84375"
"1574876176412","603","0.3095703","-0.953125","0.0625","-1.40625","-3.9375","-3.6875"
"1574876176412","604","0.30664062","-0.9511719","0.061523438","-3.0","-4.125","-3.15625"
"1574876176412","605","0.28808594","-0.9472656","0.024414062","9.34375","-1.9375","-3.75"
"1574876176413","606","0.31347656","-0.9560547","0.078125","13.46875","0.4375","-1.5"
"1574876176413","607","0.3125","-0.9404297","0.078125","10.625","0.09375","0.4375"
"1574876176413","608","0.2890625","-0.9511719","0.08691406","4.15625","1.3125","0.875"
"1574876176414","609","0.2919922","-0.9433594","0.09863281","-0.6875","2.84375","0.15625"
"1574876176807","610","0.32714844","-0.94433594","0.07910156","-5.0","3.625","0.03125"
"1574876176807","611","0.31933594","-0.9199219","0.07910156","-1.28125","1.90625","-1.0"
"1574876176807","612","0.2998047","-0.9189453","0.10644531","3.03125","-1.25","-2.34375"
"1574876176809","613","0.328125","-0.92285156","0.103515625","23.5","-0.71875","-5.46875"
"1574876176810","614","0.33203125","-0.9404297","0.083984375","15.0625","-5.65625","-3.5"
"1574876176810","615","0.33203125","-0.92871094","0.1015625","5.375","-3.15625","-3.75"
"1574876176810","616","0.2998047","-0.9238281","0.10839844","-0.0625","-4.5625","-4.625"
"1574876176811","617","0.3486328","-0.96191406","0.0859375","4.21875","-2.0625","-1.375"
"1574876176811","618","0.3173828","-0.9345703","0.115234375","-2.5","-1.8125","-1.1875"
"1574876176811","619","0.31933594","-0.93359375","0.107421875","-1.90625","-2.46875","0.40625"
"1574876177205","620","0.31445312","-0.93847656","0.09277344","-0.3125","-1.625","-0.28125"
"1574876177206","621","0.33789062","-0.9267578","0.08984375","-0.375","0.15625","0.625"
"1574876177206","622","0.3310547","-0.9121094","0.080078125","-1.0","0.625","0.4375"
"1574876177206","623","0.34570312","-0.9199219","0.07324219","0.53125","-0.09375","-0.78125"
"1574876177206","624","0.31640625","-0.9345703","0.09863281","-2.3125","-1.8125","-1.5625"
"1574876177208","625","0.3408203","-0.93359375","0.095703125","0.34375","-1.9375","-2.28125"
"1574876177208","626","0.30664062","-0.9355469","0.12597656","-2.4375","-4.5625","-3.40625"
"1574876177209","627","0.33203125","-0.9404297","0.080078125","-1.0","-4.6875","-2.28125"
"1574876177209","628","0.33007812","-0.9296875","0.099609375","-1.09375","-2.71875","-2.0"
"1574876177209","629","0.34570312","-0.93359375","0.09863281","-1.21875","-3.15625","-0.28125"
"1574876177603","630","0.33398438","-0.93847656","0.09472656","-1.53125","-4.5","-1.0625"
"1574876177603","631","0.33007812","-0.9345703","0.109375","-2.21875","-4.5625","-2.1875"
"1574876177603","632","0.31445312","-0.9316406","0.09863281","-2.875","-4.25","-3.15625"
"1574876177604","633","0.328125","-0.93652344","0.11035156","-3.96875","-4.8125","-3.40625"
"1574876177604","634","0.34375","-0.9394531","0.09082031","-1.71875","-2.96875","-2.78125"
"1574876177604","635","0.3544922","-0.93066406","0.07910156","-2.5","-2.84375","-2.65625"
"1574876177605","636","0.35058594","-0.9345703","0.083984375","-3.65625","-4.1875","-1.875"
"1574876177606","637","0.3330078","-0.9277344","0.07128906","-4.78125","-4.9375","-2.59375"
"1574876177607","638","0.3515625","-0.92578125","0.07910156","-5.9375","-4.0","-2.96875"
"1574876177607","639","0.32714844","-0.93066406","0.08105469","-5.4375","-4.875","-2.53125"
"1574876178199","640","0.359375","-0.9433594","0.044921875","-4.46875","-4.1875","-4.0625"
"1574876178199","641","0.3828125","-0.9091797","0.08496094","-7.625","-8.21875","-3.5"
"1574876178199","642","0.30078125","-0.92871094","0.083984375","4.375","-8.84375","0.03125"
"1574876178200","643","0.36523438","-0.9316406","0.03125","-9.90625","-3.65625","-2.28125"
"1574876178200","644","0.37695312","-0.94921875","0.0146484375","-10.5","-3.34375","0.8125"
"1574876178200","645","0.35253906","-0.8925781","-0.009765625","-13.375","-4.96875","-0.34375"
"1574876178201","646","0.39746094","-0.93359375","0.0234375","-14.59375","-10.40625","-2.125"
"1574876178201","647","0.35058594","-0.9472656","0.015625","-13.0","-11.6875","-3.625"
"1574876178201","648","0.3515625","-0.9316406","-0.009765625","-13.5","-9.75","-3.09375"
"1574876178203","649","0.37597656","-0.93359375","-0.018554688","-14.34375","-10.28125","-3.5"
"1574876178596","650","0.3671875","-0.9199219","-0.025390625","-11.84375","-9.5625","-2.78125"
"1574876178597","651","0.3642578","-0.94433594","-0.016601562","-14.0","-11.03125","-4.5"
"1574876178597","652","0.35839844","-0.92871094","-0.043945312","-16.0","-10.28125","-4.4375"
"1574876178597","653","0.35546875","-0.9267578","-0.091796875","-13.4375","-8.84375","-5.53125"
"1574876178598","654","0.36035156","-0.9267578","-0.06640625","-13.0","-6.625","-6.5625"
"1574876178598","655","0.43652344","-0.9111328","-0.07324219","-13.3125","0.9375","-7.0"
"1574876178599","656","0.36132812","-0.94628906","-0.087890625","-2.6875","-4.75","-2.46875"
"1574876178599","657","0.3857422","-0.91308594","-0.095703125","-1.0","-0.65625","-3.28125"
"1574876178599","658","0.36328125","-0.9121094","-0.055664062","-3.1875","-1.4375","-1.375"
"1574876178599","659","0.4013672","-0.91503906","-0.07421875","-0.125","-0.15625","-2.0625"
"1574876178795","660","0.40722656","-0.9091797","-0.08886719","2.1875","-2.84375","-1.625"
"1574876178796","661","0.36914062","-0.9111328","-0.099609375","2.90625","-2.25","-1.75"
"1574876178797","662","0.41601562","-0.90234375","-0.11425781","1.28125","-1.375","-1.625"
"1574876178797","663","0.41601562","-0.9013672","-0.10644531","0.71875","-2.3125","-1.5"
"1574876178798","664","0.41503906","-0.89746094","-0.12695312","0.90625","-3.03125","-1.25"
"1574876178798","665","0.42285156","-0.9033203","-0.13085938","0.0","-3.8125","-2.125"
"1574876178798","666","0.4111328","-0.8964844","-0.13769531","-1.21875","-3.40625","-2.53125"
"1574876178798","667","0.41308594","-0.89160156","-0.12597656","-2.375","-4.6875","-2.0"
"1574876178799","668","0.41796875","-0.8984375","-0.1171875","-0.9375","-2.90625","-1.8125"
"1574876178799","669","0.41308594","-0.91308594","-0.11328125","-1.09375","0.25","-2.1875"
"1574876179193","670","0.42871094","-0.9091797","-0.12011719","-0.5625","3.1875","-2.71875"
"1574876179194","671","0.39160156","-0.8886719","-0.09375","-3.3125","-3.28125","-1.625"
"1574876179194","672","0.40234375","-0.90625","-0.11230469","-2.5","4.53125","-2.1875"
"1574876179196","673","0.41992188","-0.89941406","-0.13476562","1.40625","6.84375","-1.125"
"1574876179196","674","0.4326172","-0.8886719","-0.12988281","1.75","8.375","0.5625"
"1574876179196","675","0.4423828","-0.8955078","-0.12695312","5.53125","8.1875","1.4375"
"1574876179197","676","0.42285156","-0.89746094","-0.10253906","5.5","4.53125","1.25"
"1574876179197","677","0.42578125","-0.8984375","-0.11035156","6.875","5.8125","2.90625"
"1574876179197","678","0.4033203","-0.8955078","-0.09277344","5.4375","5.875","3.375"
"1574876179198","679","0.4091797","-0.9013672","-0.10253906","5.0625","6.125","4.1875"
"1574876180184","680","0.41503906","-0.90234375","-0.09765625","3.84375","6.78125","4.0"
"1574876180185","681","0.41308594","-0.90234375","-0.09277344","4.375","5.15625","3.9375"
"1574876180185","682","0.4111328","-0.9169922","-0.072265625","4.15625","1.96875","3.1875"
"1574876180185","683","0.39746094","-0.90527344","-0.07519531","1.9375","3.8125","2.59375"
"1574876180186","684","0.390625","-0.90722656","-0.068359375","2.1875","2.28125","3.3125"
"1574876180187","685","0.38085938","-0.921875","-0.048828125","0.40625","0.875","3.0625"
"1574876180188","686","0.375","-0.92089844","-0.04296875","0.125","2.84375","4.3125"
"1574876180188","687","0.37597656","-0.92578125","-0.072265625","0.90625","4.59375","4.3125"
"1574876180188","688","0.38476562","-0.91503906","-0.043945312","2.8125","5.5625","4.125"
"1574876180189","689","0.38378906","-0.92089844","-0.045898438","2.375","5.4375","4.78125"
"1574876180381","690","0.375","-0.9199219","-0.041992188","3.34375","5.34375","3.6875"
"1574876180382","691","0.3828125","-0.9277344","-0.041015625","6.40625","5.6875","3.8125"
"1574876180382","692","0.36816406","-0.91796875","-0.033203125","5.1875","1.5","3.4375"
"1574876180383","693","0.375","-0.92285156","-0.0234375","6.15625","0.9375","3.625"
"1574876180383","694","0.36523438","-0.9316406","-0.036132812","4.5625","0.5625","2.96875"
"1574876180383","695","0.3623047","-0.9277344","-0.018554688","3.59375","0.8125","1.125"
"1574876180383","696","0.37304688","-0.92089844","-0.032226562","1.6875","1.59375","1.375"
"1574876180386","697","0.35839844","-0.9248047","-0.017578125","1.59375","2.03125","1.3125"
"1574876180386","698","0.36132812","-0.9326172","-0.024414062","2.75","2.875","1.125"
"1574876180386","699","0.36328125","-0.9267578","-0.015625","4.21875","1.59375","2.34375"
"1574876180389","700","0.34570312","-0.93652344","-0.013671875","4.6875","6.0625","2.34375"
"1574876180389","701","0.36621094","-0.9375","-0.025390625","5.71875","7.46875","3.5"
"1574876180390","702","0.36035156","-0.92285156","-0.005859375","3.84375","4.78125","3.9375"
"1574876180390","703","0.36914062","-0.9199219","-0.0029296875","5.5","4.96875","4.0"
"1574876180390","704","0.35351562","-0.92578125","0.009765625","4.6875","2.875","4.0"
"1574876180391","705","0.34960938","-0.9248047","0.001953125","4.8125","3.0","3.8125"
"1574876180391","706","0.34179688","-0.92871094","0.01953125","3.90625","3.125","3.25"
"1574876180391","707","0.32714844","-0.9433594","0.025390625","2.875","3.875","2.03125"
"1574876180391","708","0.34179688","-0.9277344","0.0029296875","3.96875","4.71875","2.96875"
"1574876180392","709","0.33496094","-0.93652344","0.026367188","5.5","3.25","3.6875"
"1574876180784","710","0.3564453","-0.9326172","0.030273438","8.34375","3.1875","4.90625"
"1574876180785","711","0.3388672","-0.9140625","0.0234375","5.375","-0.53125","5.03125"
"1574876180785","712","0.33496094","-0.9326172","0.044921875","8.15625","-0.65625","3.0625"
"1574876180785","713","0.33007812","-0.9355469","0.033203125","7.0","-0.96875","3.75"
"1574876180786","714","0.3203125","-0.9345703","0.045898438","6.53125","-2.78125","2.59375"
"1574876180786","715","0.32714844","-0.94140625","0.040039062","7.5625","-1.8125","3.8125"
"1574876180786","716","0.30371094","-0.9394531","0.052734375","7.625","-1.25","3.4375"
"1574876180786","717","0.3046875","-0.9394531","0.0625","4.375","0.375","3.3125"
"1574876180787","718","0.30273438","-0.9423828","0.056640625","3.34375","2.15625","2.78125"
"1574876180787","719","0.31640625","-0.93847656","0.068359375","1.9375","2.84375","2.53125"
"1574876181575","720","0.3095703","-0.94140625","0.061523438","3.34375","4.125","2.09375"
"1574876181577","721","0.31054688","-0.93847656","0.072265625","3.90625","4.84375","2.21875"
"1574876181577","722","0.3232422","-0.9394531","0.064453125","2.96875","4.53125","1.71875"
"1574876181577","723","0.3154297","-0.9326172","0.07324219","3.09375","1.78125","2.28125"
"1574876181578","724","0.30273438","-0.94433594","0.08105469","1.8125","2.40625","2.71875"
"1574876181578","725","0.29882812","-0.94921875","0.08203125","1.59375","2.53125","2.78125"
"1574876181578","726","0.3076172","-0.9423828","0.08105469","0.40625","2.53125","3.0"
"1574876181579","727","0.27929688","-0.95214844","0.09472656","0.40625","3.5625","3.375"
"1574876181579","728","0.27148438","-0.9550781","0.08984375","-2.15625","6.0","3.3125"
"1574876181579","729","0.26953125","-0.9550781","0.109375","-3.25","9.3125","3.5"
"1574876181971","730","0.27148438","-0.9453125","0.083984375","-2.21875","11.5625","2.84375"
"1574876181971","731","0.2705078","-0.9560547","0.103515625","-1.84375","10.46875","3.0625"
"1574876181971","732","0.28125","-0.94628906","0.08984375","-2.09375","13.625","3.0625"
"1574876181973","733","0.30078125","-0.9511719","0.10253906","-1.71875","9.1875","2.78125"
"1574876181973","734","0.2890625","-0.95996094","0.115234375","-0.25","5.4375","4.0625"
"1574876181973","735","0.23925781","-0.9580078","0.119140625","-0.0625","3.75","2.59375"
"1574876181974","736","0.2529297","-0.96777344","0.09765625","-3.4375","8.4375","1.625"
"1574876181974","737","0.3154297","-0.9453125","0.060546875","-1.59375","4.21875","3.3125"
"1574876181974","738","0.27539062","-0.93847656","0.09082031","0.125","0.21875","3.8125"
"1574876181974","739","0.3046875","-0.95214844","0.09375","3.03125","-6.625","4.25"
"1574876182171","740","0.23730469","-0.9501953","0.115234375","2.1875","-12.1875","0.75"
"1574876182172","741","0.25878906","-0.97265625","0.08984375","3.96875","-12.4375","-0.71875"
"1574876182172","742","0.19140625","-0.984375","0.17871094","-2.15625","-13.46875","-3.8125"
"1574876182173","743","0.18847656","-1.0019531","0.14550781","-2.375","-7.4375","-5.46875"
"1574876182173","744","0.22363281","-1.0","0.11328125","-1.71875","-5.53125","-5.71875"
"1574876182174","745","0.21777344","-0.98828125","0.13964844","-3.96875","-2.78125","-5.40625"
"1574876182175","746","0.25683594","-0.9794922","0.11621094","-3.96875","-3.75","-4.625"
"1574876182175","747","0.25683594","-0.97753906","0.10253906","-0.3125","-4.75","-3.625"
"1574876182175","748","0.24121094","-0.96777344","0.14257812","-1.84375","-6.8125","-2.125"
"1574876182176","749","0.2841797","-0.9716797","0.07714844","-2.15625","-6.5","-2.0625"
"1574876182569","750","0.2529297","-0.9667969","0.0859375","1.6875","-7.59375","-3.5"
"1574876182569","751","0.27441406","-0.953125","0.099609375","1.9375","-6.4375","-3.34375"
"1574876182570","752","0.28808594","-0.9628906","0.08105469","5.78125","-5.53125","-5.84375"
"1574876182570","753","0.30273438","-0.9560547","0.07324219","1.75","-7.3125","-4.8125"
"1574876182570","754","0.2939453","-0.94921875","0.0859375","0.25","-5.96875","-4.5625"
"1574876182570","755","0.3095703","-0.9375","0.053710938","-4.84375","-6.8125","-4.90625"
"1574876182571","756","0.29785156","-0.9453125","0.05859375","-5.75","-8.59375","-4.625"
"1574876182572","757","0.30566406","-0.9345703","0.057617188","-6.96875","-6.5625","-4.4375"
"1574876182572","758","0.34277344","-0.9345703","0.03125","-4.46875","-6.8125","-4.375"
"1574876182572","759","0.29589844","-0.9394531","0.04296875","-5.3125","-8.84375","-5.59375"
"1574876182969","760","0.33496094","-0.9345703","0.0146484375","-5.0625","-6.6875","-4.90625"
"1574876182970","761","0.31054688","-0.93652344","0.03125","-7.21875","-5.71875","-6.3125"
"1574876182970","762","0.3388672","-0.93359375","0.0","-6.40625","-1.875","-5.09375"
"1574876182970","763","0.34570312","-0.9199219","0.0068359375","-6.40625","-1.75","-5.03125"
"1574876182970","764","0.328125","-0.9326172","0.013671875","-5.6875","-2.0625","-4.1875"
"1574876182971","765","0.3544922","-0.93652344","0.0126953125","-7.40625","-0.59375","-4.4375"
"1574876182971","766","0.33007812","-0.9394531","-0.0048828125","-4.40625","-1.25","-5.15625"
"1574876182971","767","0.34960938","-0.9248047","0.017578125","-8.5","-3.40625","-4.6875"
"1574876182971","768","0.3564453","-0.9316406","-0.0048828125","-8.25","-5.78125","-4.84375"
"1574876182972","769","0.33984375","-0.92285156","-9.765625E-4","-4.40625","-5.15625","-4.0"
"1574876183364","770","0.36328125","-0.92285156","-0.021484375","-4.09375","-5.46875","-3.21875"
"1574876183364","771","0.35546875","-0.91796875","-0.013671875","-3.5","-6.09375","-3.9375"
"1574876183365","772","0.36035156","-0.9326172","-0.03515625","-1.53125","-5.90625","-4.125"
"1574876183365","773","0.37109375","-0.9189453","-0.02734375","-2.09375","-6.8125","-4.1875"
"1574876183365","774","0.36621094","-0.9199219","-0.03125","-3.5","-7.65625","-5.34375"
"1574876183365","775","0.36523438","-0.93066406","-0.029296875","-3.4375","-8.40625","-4.5625"
"1574876183366","776","0.3798828","-0.9189453","-0.043945312","-4.09375","-8.15625","-4.25"
"1574876183366","777","0.3779297","-0.91796875","-0.059570312","-4.15625","-9.0625","-3.8125"
"1574876183366","778","0.375","-0.92285156","-0.055664062","-4.59375","-7.96875","-4.0625"
"1574876183366","779","0.38183594","-0.9238281","-0.06542969","-7.75","-9.0","-4.6875"
"1574876183565","780","0.35839844","-0.9042969","-0.048828125","-9.15625","-7.1875","-5.03125"
"1574876183566","781","0.39746094","-0.9169922","-0.09472656","-6.96875","-2.59375","-4.3125"
"1574876183567","782","0.38085938","-0.92089844","-0.07421875","-9.59375","-1.5625","-5.34375"
"1574876183567","783","0.41992188","-0.89453125","-0.10546875","-9.28125","-1.5625","-4.5"
"1574876183567","784","0.4189453","-0.92285156","-0.09082031","-11.125","-3.09375","-3.9375"
"1574876183568","785","0.38476562","-0.9013672","-0.11328125","-9.21875","-4.375","-4.90625"
"1574876183568","786","0.40722656","-0.90722656","-0.109375","-10.125","-3.9375","-5.03125"
"1574876183568","787","0.40429688","-0.9042969","-0.12011719","-9.40625","-5.28125","-5.28125"
"1574876183568","788","0.41308594","-0.8935547","-0.12207031","-8.90625","-4.25","-4.5625"
"1574876183569","789","0.42089844","-0.9033203","-0.15527344","-8.125","-4.875","-4.90625"
"1574876183963","790","0.4169922","-0.8857422","-0.15234375","-6.0625","-5.15625","-4.3125"
"1574876183963","791","0.43066406","-0.8925781","-0.1640625","-5.5","-4.25","-3.28125"
"1574876183963","792","0.41601562","-0.8847656","-0.15917969","-5.125","-5.28125","-3.15625"
"1574876183965","793","0.42089844","-0.89453125","-0.16308594","-1.90625","-3.40625","-2.59375"
"1574876183965","794","0.421875","-0.8857422","-0.16308594","-0.75","-0.90625","-0.90625"
"1574876183965","795","0.4326172","-0.8955078","-0.1640625","0.3125","-0.40625","-0.53125"
"1574876183965","796","0.43164062","-0.8857422","-0.16601562","2.1875","0.5","-0.40625"
"1574876183966","797","0.4248047","-0.8955078","-0.16113281","2.125","-0.15625","0.40625"
"1574876183966","798","0.4296875","-0.8828125","-0.15234375","3.96875","1.0","1.0625"
"1574876183966","799","0.4423828","-0.8876953","-0.16015625","4.3125","0.03125","2.09375"
"1574876184755","800","0.41796875","-0.8964844","-0.1484375","4.75","-1.0625","1.78125"
"1574876184756","801","0.43164062","-0.89160156","-0.14648438","4.5","1.125","2.84375"
"1574876184756","802","0.41015625","-0.89160156","-0.140625","5.125","0.75","3.0625"
"1574876184757","803","0.4140625","-0.90234375","-0.13769531","6.46875","3.0625","3.25"
"1574876184757","804","0.41503906","-0.89746094","-0.13964844","5.59375","4.0625","4.25"
"1574876184759","805","0.41796875","-0.9003906","-0.119140625","7.5625","5.8125","4.125"
"1574876184760","806","0.41992188","-0.8955078","-0.12988281","6.15625","4.90625","4.0625"
"1574876184760","807","0.42285156","-0.8984375","-0.12695312","10.4375","0.5625","5.53125"
"1574876184760","808","0.4033203","-0.9042969","-0.09863281","8.46875","1.0625","4.3125"
"1574876184761","809","0.4169922","-0.90234375","-0.10449219","9.9375","0.25","5.03125"
"1574876184955","810","0.39648438","-0.90722656","-0.078125","8.84375","-7.78125","6.125"
"1574876184955","811","0.3486328","-0.9091797","-0.043945312","13.90625","-1.1875","4.25"
"1574876184956","812","0.4189453","-0.9199219","-0.10839844","9.6875","6.25","3.25"
"1574876184956","813","0.390625","-0.8955078","-0.09082031","10.1875","5.03125","6.5625"
"1574876184956","814","0.38085938","-0.9082031","-0.06640625","10.90625","2.9375","6.0"
"1574876184956","815","0.3984375","-0.91796875","-0.064453125","11.40625","3.375","6.5"
"1574876184957","816","0.36328125","-0.921875","-0.043945312","10.0625","2.65625","6.0625"
"1574876184961","817","0.36816406","-0.9169922","-0.049804688","8.0625","5.28125","6.5"
"1574876184961","818","0.3701172","-0.921875","-0.047851562","7.625","4.90625","6.0"
"1574876184961","819","0.35351562","-0.921875","-0.038085938","10.375","6.125","5.21875"
"1574876185156","820","0.36816406","-0.92089844","-0.020507812","10.125","5.28125","6.0625"
"1574876185156","821","0.34960938","-0.9160156","-0.022460938","11.15625","4.34375","6.25"
"1574876185157","822","0.3486328","-0.9277344","9.765625E-4","8.34375","4.65625","5.875"
"1574876185157","823","0.3486328","-0.9375","0.00390625","19.46875","9.0625","5.34375"
"1574876185157","824","0.3173828","-0.9326172","0.020507812","10.625","6.5625","5.625"
"1574876185158","825","0.31835938","-0.9267578","0.032226562","8.46875","8.4375","6.4375"
"1574876185158","826","0.3359375","-0.9316406","0.041015625","8.78125","9.3125","7.59375"
"1574876185158","827","0.3154297","-0.9316406","0.061523438","7.5625","8.4375","6.0"
"1574876185158","828","0.34375","-0.93652344","0.05078125","7.1875","7.53125","5.6875"
"1574876185159","829","0.32617188","-0.9267578","0.07421875","8.15625","3.75","5.8125"
"1574876185553","830","0.30566406","-0.94140625","0.07519531","7.4375","0.03125","4.0625"
"1574876185553","831","0.30078125","-0.9472656","0.08691406","4.75","0.5","3.875"
"1574876185553","832","0.2734375","-0.94628906","0.08886719","3.46875","0.03125","3.625"
"1574876185554","833","0.27539062","-0.95214844","0.07519531","-2.5","5.21875","4.34375"
"1574876185554","834","0.23632812","-0.9716797","0.13671875","-1.65625","4.84375","3.5625"
"1574876185554","835","0.2685547","-0.9716797","0.09082031","-1.78125","9.40625","3.3125"
"1574876185554","836","0.28515625","-0.9580078","0.11425781","0.25","7.28125","4.3125"
"1574876185555","837","0.265625","-0.95214844","0.12890625","1.6875","4.96875","2.90625"
"1574876185555","838","0.25390625","-0.9736328","0.11328125","4.3125","2.28125","2.53125"
"1574876185555","839","0.26464844","-0.9814453","0.13574219","1.75","5.40625","0.6875"
"1574876186146","840","0.265625","-0.9736328","0.14160156","1.40625","2.34375","1.1875"
"1574876186148","841","0.26953125","-0.94628906","0.13964844","2.96875","4.21875","1.375"
"1574876186148","842","0.26367188","-0.9736328","0.15234375","-2.15625","-1.375","0.21875"
"1574876186149","843","0.2685547","-0.96484375","0.13183594","-1.53125","-4.4375","0.625"
"1574876186149","844","0.2421875","-0.96777344","0.13183594","-0.6875","-5.59375","0.5"
"1574876186149","845","0.23339844","-0.9638672","0.14160156","-1.53125","-2.90625","0.09375"
"1574876186150","846","0.28320312","-0.9785156","0.10644531","-3.25","-1.5","-0.53125"
"1574876186150","847","0.2578125","-0.96191406","0.099609375","-2.6875","-0.71875","-1.125"
"1574876186150","848","0.26171875","-0.9550781","0.12109375","-4.9375","1.25","-2.1875"
"1574876186151","849","0.2841797","-0.9580078","0.09472656","-1.53125","-1.375","-1.5625"
"1574876186544","850","0.27929688","-0.9589844","0.08691406","0.125","-2.65625","-0.34375"
"1574876186544","851","0.2861328","-0.9453125","0.0703125","0.34375","-2.65625","-1.25"
"1574876186544","852","0.2734375","-0.9423828","0.078125","0.53125","-2.125","-0.78125"
"1574876186545","853","0.28515625","-0.9511719","0.08496094","2.875","-0.40625","-1.625"
"1574876186546","854","0.2841797","-0.9501953","0.07421875","3.53125","0.25","-0.28125"
"1574876186546","855","0.28222656","-0.9472656","0.0625","5.4375","3.0625","-0.46875"
"1574876186546","856","0.30664062","-0.9511719","0.03515625","4.5625","-1.75","0.6875"
"1574876186547","857","0.2705078","-0.94140625","0.12792969","3.78125","-2.3125","0.21875"
"1574876186547","858","0.2705078","-0.96875","0.08105469","-0.75","1.1875","-3.6875"
"1574876186547","859","0.2919922","-0.94628906","0.09082031","-3.65625","-1.4375","-2.40625"
"1574876186744","860","0.2998047","-0.9589844","0.09082031","-7.21875","-2.0625","-4.3125"
"1574876186745","861","0.29492188","-0.9423828","0.0625","-4.28125","-4.3125","-3.5625"
"1574876186745","862","0.30078125","-0.93066406","0.08203125","-2.03125","-6.28125","-2.46875"
"1574876186745","863","0.28027344","-0.94921875","0.06640625","-5.0","-4.875","-3.5625"
"1574876186745","864","0.29589844","-0.9375","0.049804688","-2.4375","-3.75","-2.46875"
"1574876186746","865","0.28222656","-0.9345703","0.08300781","-2.8125","-1.3125","-2.0"
"1574876186747","866","0.33203125","-0.9433594","0.051757812","-2.8125","3.3125","-1.6875"
"1574876186747","867","0.30273438","-0.94140625","0.048828125","0.125","0.8125","-0.28125"
"1574876186747","868","0.29296875","-0.9511719","0.07519531","-3.84375","-0.40625","-2.0625"
"1574876186748","869","0.32910156","-0.9326172","0.046875","-1.65625","-4.125","-1.8125"
"1574876187143","870","0.34570312","-0.92089844","0.034179688","-0.25","-3.75","-0.59375"
"1574876187144","871","0.28222656","-0.9345703","0.07128906","1.46875","-1.1875","-0.71875"
"1574876187144","872","0.3251953","-0.93652344","0.015625","4.5","2.21875","1.0"
"1574876187144","873","0.28125","-0.94433594","0.091796875","6.15625","4.71875","1.3125"
"1574876187145","874","0.28320312","-0.9628906","0.078125","0.59375","5.75","0.75"
"1574876187145","875","0.33203125","-0.9638672","0.072265625","0.25","1.5","-0.46875"
"1574876187145","876","0.265625","-0.9765625","0.13769531","0.0625","-2.71875","-3.03125"
"1574876187146","877","0.31445312","-0.94628906","0.0859375","-1.40625","-0.71875","-3.21875"
"1574876187147","878","0.2998047","-0.9326172","0.06933594","-3.375","-4.0","-4.25"
"1574876187147","879","0.29492188","-0.9589844","0.06347656","-1.96875","-4.3125","-2.59375"
"1574876187540","880","0.30371094","-0.9453125","0.07128906","-3.3125","-2.3125","-3.40625"
"1574876187541","881","0.30273438","-0.95214844","0.10253906","-3.59375","-3.8125","-3.625"
"1574876187541","882","0.3017578","-0.9550781","0.08105469","-6.28125","-2.0","-4.4375"
"1574876187541","883","0.328125","-0.9472656","0.06933594","-4.46875","-2.90625","-3.8125"
"1574876187542","884","0.32714844","-0.9326172","0.0546875","-5.0","-3.875","-4.3125"
"1574876187542","885","0.31347656","-0.94921875","0.068359375","-3.3125","-5.46875","-3.5625"
"1574876187542","886","0.3251953","-0.9345703","0.052734375","-2.875","-4.4375","-3.15625"
"1574876187542","887","0.31445312","-0.9501953","0.06933594","-2.4375","-3.9375","-3.5625"
"1574876187543","888","0.3388672","-0.9375","0.040039062","-3.0625","-3.09375","-3.34375"
"1574876187543","889","0.32910156","-0.9404297","0.051757812","-1.59375","-4.625","-4.8125"
"1574876188137","890","0.3310547","-0.94140625","0.045898438","-3.4375","-4.0","-4.5625"
"1574876188138","891","0.3330078","-0.9375","0.03125","-3.5625","-3.9375","-5.03125"
"1574876188138","892","0.3515625","-0.9326172","0.028320312","-2.75","-5.71875","-3.34375"
"1574876188139","893","0.34277344","-0.9345703","0.01953125","-3.71875","-4.5625","-4.125"
"1574876188139","894","0.3564453","-0.93359375","0.021484375","-2.09375","-3.59375","-4.25"
"1574876188139","895","0.3359375","-0.9345703","0.018554688","-2.5","-6.03125","-5.28125"
"1574876188139","896","0.35839844","-0.9345703","0.026367188","-3.96875","-3.40625","-5.46875"
"1574876188140","897","0.35351562","-0.9238281","0.0048828125","-5.9375","-5.09375","-5.96875"
"1574876188140","898","0.3486328","-0.92871094","0.00390625","-3.5","-6.75","-5.71875"
"1574876188140","899","0.3642578","-0.9248047","-0.001953125","-4.28125","-4.5625","-5.78125"
"1574876188335","900","0.375","-0.92578125","-0.026367188","-2.15625","-2.65625","-5.78125"
"1574876188337","901","0.37890625","-0.9160156","-0.0087890625","-4.71875","-3.65625","-5.78125"
"1574876188337","902","0.38671875","-0.9140625","-0.0029296875","-5.1875","-4.1875","-5.65625"
"1574876188338","903","0.38378906","-0.921875","-0.017578125","-3.65625","-7.1875","-6.75"
"1574876188338","904","0.41210938","-0.90625","0.0","-1.09375","-11.625","-6.5625"
"1574876188338","905","0.36914062","-0.8876953","-0.041015625","1.03125","-11.9375","-7.1875"
"1574876188339","906","0.3671875","-0.9140625","-0.029296875","2.5625","-8.46875","-7.71875"
"1574876188339","907","0.40820312","-0.921875","-0.022460938","3.15625","-6.4375","-6.4375"
"1574876188339","908","0.41308594","-0.9121094","-0.052734375","-2.75","-5.90625","-4.125"
"1574876188340","909","0.4482422","-0.87890625","-0.0625","0.0625","-2.0625","-2.21875"
"1574876188733","910","0.45214844","-0.8701172","-0.061523438","6.21875","-5.84375","2.59375"
"1574876188733","911","0.42578125","-0.8769531","-0.06640625","6.40625","-6.5625","1.5625"
"1574876188733","912","0.40429688","-0.91503906","-0.046875","4.8125","-7.71875","1.125"
"1574876188735","913","0.4140625","-0.8984375","-0.043945312","5.65625","-8.78125","1.625"
"1574876188735","914","0.42089844","-0.90625","-0.061523438","5.84375","-7.71875","1.375"
"1574876188735","915","0.40527344","-0.9003906","-0.04296875","3.46875","-5.65625","1.375"
"1574876188736","916","0.39648438","-0.8857422","-0.03125","0.0625","-1.5","3.25"
"1574876188736","917","0.40820312","-0.9423828","-0.032226562","0.25","-0.84375","3.125"
"1574876188736","918","0.42382812","-0.9033203","-0.041992188","3.65625","-1.6875","5.53125"
"1574876188736","919","0.38085938","-0.8779297","-0.053710938","1.9375","5.03125","7.65625"
"1574876189328","920","0.4189453","-0.8886719","-0.06640625","1.09375","9.25","6.6875"
"1574876189329","921","0.4033203","-0.92089844","-0.059570312","0.65625","8.6875","6.5"
"1574876189329","922","0.40625","-0.9267578","-0.060546875","9.75","2.28125","2.46875"
"1574876189329","923","0.4169922","-0.90234375","-0.037109375","10.78125","8.8125","1.4375"
"1574876189329","924","0.38964844","-0.89746094","-0.015625","7.875","-0.09375","2.40625"
"1574876189331","925","0.39648438","-0.9111328","-0.022460938","6.65625","1.4375","2.96875"
"1574876189331","926","0.3642578","-0.9326172","-0.016601562","5.71875","1.1875","2.46875"
"1574876189332","927","0.37890625","-0.90722656","-0.029296875","5.71875","5.875","2.28125"
"1574876189332","928","0.38671875","-0.91308594","-0.0126953125","3.71875","6.6875","2.65625"
"1574876189332","929","0.3984375","-0.89941406","-0.020507812","6.09375","6.625","3.625"
"1574876189528","930","0.3779297","-0.92089844","0.01953125","2.0625","6.3125","3.9375"
"1574876189528","931","0.3642578","-0.93847656","0.0068359375","2.875","6.25","4.125"
"1574876189529","932","0.3671875","-0.90625","0.017578125","2.375","7.71875","5.40625"
"1574876189530","933","0.35058594","-0.9394531","0.01953125","-0.875","4.34375","3.75"
"1574876189530","934","0.37695312","-0.91015625","0.015625","-2.28125","7.59375","4.90625"
"1574876189531","935","0.359375","-0.9121094","0.016601562","1.34375","5.75","5.15625"
"1574876189531","936","0.3544922","-0.9189453","0.029296875","3.15625","6.375","4.96875"
"1574876189532","937","0.39257812","-0.91503906","0.03515625","6.8125","5.40625","7.09375"
"1574876189533","938","0.3671875","-0.91308594","0.030273438","12.6875","-0.78125","6.8125"
"1574876189533","939","0.3486328","-0.91015625","0.047851562","12.9375","-1.5625","6.1875"
"1574876190124","940","0.32617188","-0.94140625","0.078125","12.4375","-3.40625","6.4375"
"1574876190124","941","0.3017578","-0.92871094","0.09472656","13.53125","-3.65625","5.625"
"1574876190125","942","0.29785156","-0.9345703","0.091796875","13.0625","-0.84375","6.0"
"1574876190125","943","0.29296875","-0.94140625","0.09863281","10.375","1.0","6.0625"
"1574876190125","944","0.2939453","-0.9375","0.09277344","12.5","3.125","7.21875"
"1574876190125","945","0.27734375","-0.9433594","0.12011719","10.0625","4.46875","5.625"
"1574876190125","946","0.296875","-0.92871094","0.1171875","11.65625","4.46875","6.75"
"1574876190126","947","0.31835938","-0.94140625","0.123046875","13.34375","4.28125","7.53125"
"1574876190126","948","0.2890625","-0.9355469","0.14355469","13.0625","3.25","6.6875"
"1574876190126","949","0.25976562","-0.9423828","0.16308594","8.46875","2.15625","5.28125"
"1574876190323","950","0.26953125","-0.9589844","0.16699219","6.65625","1.1875","2.65625"
"1574876190324","951","0.21289062","-0.96875","0.19921875","3.09375","0.625","1.0625"
"1574876190324","952","0.24804688","-0.9423828","0.1953125","-2.3125","9.3125","1.625"
"1574876190324","953","0.2421875","-0.95703125","0.19628906","-4.90625","6.625","0.6875"
"1574876190325","954","0.25097656","-0.94433594","0.20605469","-3.59375","7.71875","1.5625"
"1574876190325","955","0.2548828","-0.9580078","0.21679688","-4.71875","3.8125","0.15625"
"1574876190325","956","0.25585938","-0.9550781","0.20703125","-2.03125","0.75","-0.46875"
"1574876190325","957","0.24316406","-0.97753906","0.21777344","-0.9375","0.375","-1.5625"
"1574876190326","958","0.25390625","-0.9453125","0.20117188","-1.71875","-1.875","-0.40625"
"1574876190326","959","0.23046875","-0.95996094","0.21582031","-3.5","-3.40625","-1.375"
"1574876190721","960","0.23925781","-0.9628906","0.19726562","-3.84375","-3.46875","-1.25"
"1574876190723","961","0.24707031","-0.97265625","0.19628906","-3.96875","-1.4375","-1.6875"
"1574876190723","962","0.23632812","-0.98339844","0.17285156","-0.5","0.8125","-2.46875"
"1574876190724","963","0.22851562","-0.94628906","0.17871094","-4.84375","3.5625","-3.09375"
"1574876190724","964","0.28125","-0.9580078","0.14746094","-3.96875","3.25","-0.84375"
"1574876190724","965","0.28320312","-0.9404297","0.15429688","-2.6875","0.09375","-0.59375"
"1574876190725","966","0.28027344","-0.9472656","0.15136719","-2.875","-1.375","-1.375"
"1574876190725","967","0.28320312","-0.9375","0.1328125","-1.46875","-3.53125","-2.0"
"1574876190725","968","0.27929688","-0.9433594","0.14160156","-3.0","-4.25","-3.5625"
"1574876190725","969","0.27441406","-0.9375","0.13671875","-2.875","-3.9375","-4.125"
"1574876191117","970","0.30078125","-0.9394531","0.11425781","-1.03125","-1.625","-2.53125"
"1574876191117","971","0.2783203","-0.9482422","0.12207031","-1.53125","-1.875","-2.40625"
"1574876191117","972","0.26464844","-0.96875","0.16992188","-2.75","-0.28125","-3.75"
"1574876191119","973","0.27246094","-0.9277344","0.12011719","-8.84375","3.75","-5.78125"
"1574876191119","974","0.33398438","-0.93847656","0.09667969","-4.03125","-0.78125","-3.46875"
"1574876191119","975","0.29492188","-0.9267578","0.10644531","-3.5625","-3.9375","-2.90625"
"1574876191120","976","0.3173828","-0.93652344","0.091796875","-3.59375","-2.40625","-2.96875"
"1574876191120","977","0.2919922","-0.9453125","0.111328125","-4.09375","-3.15625","-3.625"
"1574876191120","978","0.3076172","-0.9355469","0.09667969","-3.96875","-1.625","-2.90625"
"1574876191120","979","0.30859375","-0.9326172","0.10644531","-6.40625","-3.28125","-4.125"
"1574876191514","980","0.3388672","-0.94628906","0.08691406","-4.71875","-2.90625","-2.84375"
"1574876191515","981","0.30273438","-0.9355469","0.07714844","-4.21875","-3.46875","-3.9375"
"1574876191515","982","0.34570312","-0.92871094","0.080078125","-7.03125","-4.125","-2.40625"
"1574876191515","983","0.32128906","-0.92578125","0.0703125","-5.125","-5.09375","-2.96875"
"1574876191515","984","0.31933594","-0.9394531","0.07421875","-5.375","-5.28125","-2.78125"
"1574876191517","985","0.31933594","-0.93652344","0.060546875","-3.84375","-3.8125","-2.59375"
"1574876191517","986","0.31835938","-0.9345703","0.06738281","-4.59375","-2.65625","-3.03125"
"1574876191517","987","0.34179688","-0.921875","0.041992188","-4.03125","-2.53125","-2.0"
"1574876191518","988","0.31640625","-0.9394531","0.07324219","-5.9375","-2.53125","-2.65625"
"1574876191518","989","0.3408203","-0.93066406","0.03125","-3.84375","-0.21875","-2.34375"
"1574876191913","990","0.33007812","-0.9345703","0.06542969","-4.46875","-2.25","-2.28125"
"1574876191914","991","0.3486328","-0.9316406","0.05078125","-5.5","-2.90625","-2.46875"
"1574876191914","992","0.33398438","-0.9345703","0.041015625","-1.84375","-5.96875","-2.90625"
"1574876191914","993","0.3310547","-0.93847656","0.061523438","-2.6875","-5.21875","-2.90625"
"1574876191914","994","0.33398438","-0.94140625","0.037109375","-3.5","-5.21875","-3.09375"
"1574876191915","995","0.31933594","-0.9433594","0.048828125","-2.5625","-6.15625","-4.1875"
"1574876191915","996","0.328125","-0.9345703","0.037109375","-4.65625","-4.8125","-4.5"
"1574876191917","997","0.33398438","-0.9355469","0.032226562","-4.90625","-5.65625","-5.03125"
"1574876191918","998","0.34179688","-0.9423828","0.028320312","-4.78125","-6.9375","-4.84375"
"1574876191918","999","0.3359375","-0.9404297","0.028320312","-6.34375","-5.90625","-5.46875"
"1574876192311","1000","0.35058594","-0.93652344","0.020507812","-8.0625","-5.53125","-6.1875"
"1574876192311","1001","0.34570312","-0.9394531","0.02734375","-10.03125","-6.4375","-6.625"
"1574876192312","1002","0.3486328","-0.9316406","0.0029296875","-9.96875","-6.3125","-7.71875"
"1574876192312","1003","0.36523438","-0.9355469","-0.00390625","-10.5625","-4.96875","-8.21875"
"1574876192312","1004","0.3564453","-0.9169922","9.765625E-4","-14.09375","-4.96875","-7.84375"
"1574876192312","1005","0.38183594","-0.90234375","-0.038085938","-14.65625","-2.1875","-7.71875"
"1574876192313","1006","0.38085938","-0.9267578","-0.060546875","-16.5625","-1.03125","-7.375"
"1574876192313","1007","0.3779297","-0.9121094","-0.0703125","-15.625","2.78125","-7.96875"
"1574876192313","1008","0.43847656","-0.8642578","-0.11230469","-15.375","6.0625","-7.46875"
"1574876192315","1009","0.45898438","-0.8808594","-0.11425781","-11.71875","2.40625","-6.75"
"1574876192708","1010","0.44628906","-0.87597656","-0.16015625","-6.0625","0.625","-5.65625"
"1574876192709","1011","0.47070312","-0.8847656","-0.16308594","-2.3125","0.5625","-4.84375"
"1574876192709","1012","0.44921875","-0.87890625","-0.13671875","-6.21875","-7.125","-3.46875"
"1574876192709","1013","0.4091797","-0.8720703","-0.11035156","-2.5","-5.15625","-2.46875"
"1574876192710","1014","0.421875","-0.8984375","-0.14746094","-2.8125","0.6875","-2.125"
"1574876192710","1015","0.4560547","-0.8720703","-0.140625","-1.03125","3.25","-0.09375"
"1574876192710","1016","0.4404297","-0.87402344","-0.14550781","0.59375","3.6875","-0.28125"
"1574876192710","1017","0.4560547","-0.8798828","-0.14355469","2.5","5.21875","1.3125"
"1574876192711","1018","0.45214844","-0.8701172","-0.13476562","0.40625","5.15625","3.4375"
"1574876192711","1019","0.4345703","-0.87890625","-0.140625","6.8125","5.03125","4.3125"
"1574876193104","1020","0.4375","-0.8984375","-0.11621094","2.5625","7.28125","5.75"
"1574876193105","1021","0.4560547","-0.8652344","-0.13183594","4.4375","3.625","6.96875"
"1574876193106","1022","0.4560547","-0.8808594","-0.15917969","9.21875","0.6875","6.625"
"1574876193106","1023","0.41503906","-0.875","-0.12792969","12.125","-3.53125","8.4375"
"1574876193106","1024","0.40527344","-0.875","-0.107421875","19.09375","-0.84375","10.28125"
"1574876193107","1025","0.41210938","-0.8847656","-0.061523438","15.375","1.59375","11.4375"
"1574876193107","1026","0.4013672","-0.8828125","-0.08300781","17.375","-0.09375","12.28125"
"1574876193107","1027","0.39746094","-0.89941406","-0.0625","20.875","2.09375","12.71875"
"1574876193107","1028","0.3544922","-0.9296875","-0.0390625","21.84375","2.03125","11.5625"
"1574876193108","1029","0.34277344","-0.9189453","-0.005859375","21.21875","3.0625","9.59375"
"1574876194097","1030","0.3623047","-0.91308594","0.00390625","17.6875","2.03125","9.25"
"1574876194098","1031","0.34277344","-0.9296875","0.037109375","14.34375","2.40625","9.1875"
"1574876194098","1032","0.3125","-0.9404297","0.046875","15.0625","0.15625","9.5"
"1574876194100","1033","0.28710938","-0.9433594","0.09863281","10.90625","3.6875","11.0625"
"1574876194100","1034","0.3310547","-0.97558594","0.10546875","6.09375","4.90625","11.5"
"1574876194100","1035","0.25","-0.9453125","0.12597656","4.9375","-0.78125","10.03125"
"1574876194101","1036","0.25585938","-0.9580078","0.12792969","1.8125","3.1875","7.28125"
"1574876194101","1037","0.25","-0.96777344","0.13964844","4.15625","4.125","4.59375"
"1574876194101","1038","0.2763672","-0.9609375","0.125","3.21875","3.0625","3.8125"
"1574876194102","1039","0.28125","-0.9638672","0.12988281","5.4375","-0.09375","1.71875"
"1574876194296","1040","0.26953125","-0.9638672","0.12792969","5.90625","-2.125","1.78125"
"1574876194297","1041","0.234375","-0.98046875","0.15722656","2.875","-1.1875","0.9375"
"1574876194297","1042","0.28222656","-0.9667969","0.14257812","4.15625","2.15625","0.875"
"1574876194298","1043","0.25878906","-0.9873047","0.140625","-1.46875","-0.96875","0.4375"
"1574876194298","1044","0.25683594","-0.9814453","0.13085938","2.125","-1.25","0.5"
"1574876194299","1045","0.25683594","-0.9638672","0.13964844","-0.5","0.6875","-0.09375"
"1574876194300","1046","0.2890625","-0.95703125","0.12695312","-0.125","1.25","1.0"
"1574876194300","1047","0.27148438","-0.9589844","0.13085938","0.40625","-0.84375","1.125"
"1574876194300","1048","0.24804688","-0.9609375","0.16308594","6.40625","1.0","1.71875"
"1574876194301","1049","0.26464844","-0.9638672","0.115234375","1.34375","1.53125","-0.40625"
"1574876194493","1050","0.296875","-0.95996094","0.11425781","2.125","1.25","1.125"
"1574876194493","1051","0.26660156","-0.95410156","0.11328125","1.15625","0.875","0.34375"
"1574876194494","1052","0.27246094","-0.96191406","0.119140625","-1.59375","1.0","-0.09375"
"1574876194494","1053","0.28125","-0.9658203","0.10449219","-2.5","0.3125","-0.71875"
"1574876194494","1054","0.26953125","-0.95410156","0.10839844","-2.4375","-0.09375","-0.84375"
"1574876194494","1055","0.27929688","-0.95214844","0.1015625","-0.875","-0.84375","-0.71875"
"1574876194494","1056","0.27734375","-0.95214844","0.09375","0.53125","-2.125","-0.90625"
"1574876194496","1057","0.29492188","-0.9433594","0.09667969","-0.0625","-1.75","0.09375"
"1574876194496","1058","0.28222656","-0.94921875","0.08496094","2.1875","-1.8125","-0.40625"
"1574876194496","1059","0.28125","-0.9511719","0.10253906","-0.0625","-2.0625","-1.4375"
"1574876194894","1060","0.27734375","-0.9423828","0.080078125","1.6875","-0.40625","-0.46875"
"1574876194895","1061","0.2919922","-0.93359375","0.08300781","0.3125","-0.34375","-0.84375"
"1574876194895","1062","0.29101562","-0.9423828","0.08203125","2.875","-2.0","-0.78125"
"1574876194895","1063","0.28808594","-0.94140625","0.095703125","2.0625","-1.5","-0.90625"
"1574876194896","1064","0.30859375","-0.9345703","0.07519531","2.3125","0.09375","-1.0625"
"1574876194896","1065","0.29101562","-0.94433594","0.09375","1.625","-0.28125","-1.125"
"1574876194896","1066","0.3046875","-0.93847656","0.091796875","0.53125","0.09375","-1.8125"
"1574876194896","1067","0.2939453","-0.93652344","0.08300781","-2.28125","-0.71875","-2.21875"
"1574876194897","1068","0.3154297","-0.9423828","0.076171875","-1.0","-2.65625","-1.625"
"1574876194898","1069","0.28320312","-0.94140625","0.095703125","-1.03125","-2.53125","-2.53125"
"1574876195292","1070","0.31152344","-0.94140625","0.0703125","-0.0625","-1.8125","-1.625"
"1574876195292","1071","0.2919922","-0.94140625","0.08496094","-1.90625","-1.5","-1.9375"
"1574876195293","1072","0.32226562","-0.93847656","0.0625","-1.21875","-1.1875","-1.375"
"1574876195293","1073","0.30664062","-0.9375","0.07910156","0.0625","-3.28125","-0.53125"
"1574876195293","1074","0.30273438","-0.9375","0.07714844","-1.0","-1.75","-1.0625"
"1574876195293","1075","0.30664062","-0.9404297","0.076171875","0.0","0.3125","-0.46875"
"1574876195294","1076","0.32226562","-0.9296875","0.06933594","-1.53125","0.4375","0.15625"
"1574876195294","1077","0.29589844","-0.9375","0.08691406","-0.9375","-0.28125","-0.59375"
"1574876195294","1078","0.30566406","-0.9472656","0.08984375","-0.25","-0.40625","0.09375"
"1574876195294","1079","0.26660156","-0.96777344","0.11328125","1.21875","1.96875","-2.21875"
"1574876195490","1080","0.3017578","-0.9453125","0.1015625","-1.65625","0.5625","-0.09375"
"1574876195491","1081","0.30273438","-0.9453125","0.09667969","-1.65625","-2.78125","-0.84375"
"1574876195491","1082","0.28027344","-0.95410156","0.09277344","-0.375","-0.96875","-1.1875"
"1574876195492","1083","0.3203125","-0.93847656","0.078125","0.125","0.8125","-0.53125"
"1574876195492","1084","0.30273438","-0.93652344","0.099609375","-2.5625","-0.15625","-1.1875"
"1574876195492","1085","0.28320312","-0.953125","0.087890625","1.21875","1.96875","-3.5"
"1574876195492","1086","0.3203125","-0.94140625","0.09277344","-3.375","1.5","-3.875"
"1574876195493","1087","0.3076172","-0.9326172","0.091796875","-4.40625","-1.4375","-4.75"
"1574876195493","1088","0.3310547","-0.93847656","0.0703125","-1.09375","-3.21875","-2.90625"
"1574876195493","1089","0.31640625","-0.93066406","0.07714844","-0.8125","-2.84375","-2.21875"
"1574876195888","1090","0.3076172","-0.93847656","0.083984375","-0.75","-3.53125","-1.9375"
"1574876195888","1091","0.31347656","-0.95703125","0.078125","-1.53125","0.3125","-2.21875"
"1574876195889","1092","0.3095703","-0.94433594","0.076171875","-3.0","-0.28125","-3.28125"
"1574876195890","1093","0.29589844","-0.96191406","0.109375","-6.84375","0.3125","-4.25"
"1574876195891","1094","0.3203125","-0.9404297","0.06738281","-5.9375","2.09375","-4.6875"
"1574876195891","1095","0.34375","-0.93066406","0.053710938","-2.875","1.0","-3.34375"
"1574876195891","1096","0.33691406","-0.9169922","0.04296875","-1.65625","-2.125","-1.6875"
"1574876195891","1097","0.32714844","-0.9433594","0.05859375","-2.15625","-2.84375","-1.375"
"1574876195892","1098","0.32226562","-0.9345703","0.083984375","-4.28125","-1.1875","-3.34375"
"1574876195892","1099","0.31054688","-0.95214844","0.09765625","-2.4375","1.96875","-3.75"
"1574876196286","1100","0.3564453","-0.9160156","0.01171875","1.625","4.40625","-1.5625"
"1574876196286","1101","0.35839844","-0.91308594","0.06347656","1.53125","0.15625","0.5625"
"1574876196287","1102","0.34960938","-0.9501953","0.037109375","2.375","-4.1875","1.0625"
"1574876196287","1103","0.29296875","-0.92871094","0.08886719","2.1875","-5.46875","-3.40625"
"1574876196287","1104","0.3330078","-0.9550781","0.08984375","-3.71875","-1.5","-4.5"
"1574876196289","1105","0.3388672","-0.9482422","0.06933594","-9.15625","-1.875","-8.03125"
"1574876196289","1106","0.39257812","-0.9003906","0.024414062","-5.625","-0.84375","-5.59375"
"1574876196290","1107","0.37597656","-0.90722656","-0.0107421875","0.40625","-5.96875","-3.5"
"1574876196290","1108","0.36621094","-0.9375","0.033203125","-1.46875","-12.4375","-2.71875"
"1574876196290","1109","0.31054688","-0.94628906","0.099609375","-0.625","-13.09375","-6.625"
"1574876196682","1110","0.34179688","-0.9609375","0.10644531","-7.9375","-7.5","-7.375"
"1574876196683","1111","0.3330078","-0.93652344","0.06347656","-8.4375","-1.375","-7.25"
"1574876196683","1112","0.38476562","-0.9140625","0.0107421875","-8.4375","0.15625","-2.71875"
"1574876196683","1113","0.36328125","-0.9472656","0.029296875","-3.65625","-2.125","-2.21875"
"1574876196683","1114","0.33984375","-0.9267578","0.09765625","2.125","-2.1875","-4.84375"
"1574876196684","1115","0.3486328","-0.96972656","0.076171875","0.0","-5.96875","-7.71875"
"1574876196684","1116","0.359375","-0.94921875","0.0390625","-7.9375","-6.875","-9.125"
"1574876196685","1117","0.32226562","-0.9453125","0.056640625","-18.3125","-2.90625","-10.46875"
"1574876196686","1118","0.37890625","-0.9267578","0.041015625","-21.75","-1.75","-10.03125"
"1574876196686","1119","0.34375","-0.9433594","0.013671875","-26.1875","-0.15625","-10.84375"
