"# PR data"
"# Start time: 20191127T183417"
"# Subject: lukasz"
"# Activity type: Shoulder press"
"# Correctness: Incorrect"
"# Notes: "
""
"timestamp","seq","accel_x","accel_y","accel_z","gyro_x","gyro_y","gyro_z"
"1574876057355","0","0.39453125","-0.9248047","0.013671875","6.59375","1.5","0.5"
"1574876057355","1","0.40722656","-0.9326172","-0.0029296875","-0.125","-0.40625","0.9375"
"1574876057355","2","0.3984375","-0.92578125","-0.001953125","-7.40625","-3.875","-0.65625"
"1574876057355","3","0.39257812","-0.9316406","0.0087890625","-5.8125","-6.4375","-1.125"
"1574876057356","4","0.38671875","-0.91015625","-0.0078125","-9.34375","-7.65625","-2.53125"
"1574876057356","5","0.38867188","-0.9169922","-0.0146484375","-3.0","-11.8125","-2.125"
"1574876057356","6","0.39648438","-0.9111328","-0.022460938","2.125","-14.3125","-0.46875"
"1574876057356","7","0.3876953","-0.9013672","0.0146484375","4.3125","-13.59375","2.21875"
"1574876057357","8","0.37890625","-0.8955078","-0.0234375","2.1875","-6.375","1.3125"
"1574876057357","9","0.3857422","-0.91503906","-0.01171875","0.25","-5.53125","-0.53125"
"1574876058150","10","0.3701172","-0.91015625","-0.0048828125","-0.5625","-5.46875","-0.28125"
"1574876058150","11","0.3984375","-0.9111328","-0.0107421875","1.28125","-5.15625","-0.03125"
"1574876058150","12","0.390625","-0.91308594","-0.0146484375","1.46875","-2.375","-0.09375"
"1574876058155","13","0.38964844","-0.9160156","-0.0146484375","2.1875","-2.46875","0.34375"
"1574876058156","14","0.38867188","-0.9199219","-0.017578125","1.28125","-1.125","0.5"
"1574876058156","15","0.3828125","-0.9199219","-0.026367188","-2.625","-2.0","-0.28125"
"1574876058157","16","0.3935547","-0.92285156","-0.034179688","2.5","1.5","0.5625"
"1574876058157","17","0.3876953","-0.9140625","-0.024414062","4.25","1.96875","0.5625"
"1574876058157","18","0.38378906","-0.921875","-0.01171875","4.03125","2.28125","1.1875"
"1574876058157","19","0.38671875","-0.92089844","-0.0146484375","2.8125","0.21875","0.5625"
"1574876058158","20","0.39941406","-0.93066406","0.001953125","-1.28125","1.0625","0.625"
"1574876058158","21","0.37695312","-0.921875","-0.0107421875","-0.3125","-1.875","0.28125"
"1574876058158","22","0.38671875","-0.92089844","-0.009765625","-2.375","-1.25","0.40625"
"1574876058159","23","0.38476562","-0.91503906","-0.016601562","-8.125","-3.09375","-1.75"
"1574876058159","24","0.39160156","-0.92871094","-0.0234375","-2.625","-3.40625","-1.0625"
"1574876058159","25","0.38085938","-0.9189453","-0.016601562","-5.25","-4.1875","-0.78125"
"1574876058160","26","0.39648438","-0.92871094","-0.030273438","-5.125","-2.53125","-1.9375"
"1574876058160","27","0.39160156","-0.9326172","-0.044921875","-2.03125","-4.125","-2.1875"
"1574876058160","28","0.38867188","-0.91796875","-0.044921875","-5.4375","-1.125","-2.84375"
"1574876058160","29","0.3857422","-0.92089844","-0.048828125","-8.8125","0.625","-3.8125"
"1574876058352","30","0.4033203","-0.92285156","-0.060546875","-12.34375","-1.1875","-3.21875"
"1574876058353","31","0.3935547","-0.9160156","-0.059570312","-18.4375","-3.65625","-4.625"
"1574876058353","32","0.3955078","-0.90625","-0.053710938","-12.46875","1.84375","-4.625"
"1574876058353","33","0.42285156","-0.91015625","-0.078125","-7.21875","0.3125","-4.6875"
"1574876058353","34","0.41992188","-0.8955078","-0.08105469","-4.34375","-2.375","-4.375"
"1574876058354","35","0.42871094","-0.890625","-0.08984375","-4.59375","0.75","-5.15625"
"1574876058354","36","0.4267578","-0.9169922","-0.08886719","-2.75","0.6875","-5.78125"
"1574876058355","37","0.4345703","-0.90722656","-0.09765625","-4.9375","-1.875","-4.75"
"1574876058355","38","0.40820312","-0.890625","-0.06933594","-4.78125","-8.59375","-4.5"
"1574876058355","39","0.42382812","-0.9091797","-0.078125","-4.34375","-4.875","-4.84375"
"1574876059343","40","0.4140625","-0.9013672","-0.11230469","-4.21875","-2.0","-6.09375"
"1574876059343","41","0.44140625","-0.8769531","-0.10546875","-1.59375","-0.21875","-5.21875"
"1574876059343","42","0.45117188","-0.8925781","-0.12207031","1.875","-4.6875","-4.8125"
"1574876059343","43","0.42871094","-0.8925781","-0.11035156","1.8125","-6.875","-3.75"
"1574876059344","44","0.42578125","-0.9082031","-0.099609375","-7.15625","-8.28125","-5.84375"
"1574876059344","45","0.4404297","-0.90722656","-0.0859375","-6.40625","-0.53125","-6.25"
"1574876059344","46","0.41796875","-0.9013672","-0.08203125","-10.5625","-4.9375","-3.9375"
"1574876059344","47","0.4404297","-0.8964844","-0.12109375","-8.0625","-4.0","-5.78125"
"1574876059345","48","0.43945312","-0.8925781","-0.1171875","-6.125","-3.21875","-4.4375"
"1574876059345","49","0.44628906","-0.87890625","-0.123046875","-5.875","-1.8125","-6.09375"
"1574876059347","50","0.45703125","-0.8623047","-0.13378906","-7.21875","0.3125","-6.875"
"1574876059347","51","0.46972656","-0.8798828","-0.14550781","-6.71875","-7.125","-4.96875"
"1574876059347","52","0.4638672","-0.8671875","-0.14453125","-5.75","-4.375","-5.53125"
"1574876059348","53","0.45996094","-0.8652344","-0.14355469","-3.65625","-5.46875","-4.96875"
"1574876059348","54","0.48632812","-0.8701172","-0.15332031","-3.65625","-3.875","-6.25"
"1574876059348","55","0.48535156","-0.8808594","-0.14355469","-2.625","-12.0","-4.0625"
"1574876059349","56","0.48046875","-0.8671875","-0.17578125","-1.84375","-9.6875","-4.6875"
"1574876059349","57","0.45996094","-0.8613281","-0.16503906","-5.8125","-8.59375","-5.59375"
"1574876059349","58","0.4716797","-0.88378906","-0.16992188","-4.40625","-4.4375","-5.78125"
"1574876059349","59","0.44140625","-0.86328125","-0.1484375","-13.0625","-1.3125","-6.25"
"1574876059545","60","0.4951172","-0.8613281","-0.19433594","-12.28125","1.65625","-6.09375"
"1574876059547","61","0.49121094","-0.85058594","-0.203125","-9.90625","-0.40625","-5.28125"
"1574876059548","62","0.5136719","-0.85058594","-0.20800781","-9.65625","2.65625","-4.5625"
"1574876059548","63","0.51171875","-0.83691406","-0.18652344","-11.3125","1.53125","-5.78125"
"1574876059548","64","0.49414062","-0.8378906","-0.22949219","-6.0625","3.5","-5.90625"
"1574876059548","65","0.5126953","-0.83984375","-0.23828125","-5.5625","2.40625","-3.40625"
"1574876059549","66","0.49121094","-0.8310547","-0.23632812","-3.0","-3.75","-0.90625"
"1574876059549","67","0.4970703","-0.84472656","-0.21972656","-3.4375","-2.3125","-1.25"
"1574876059549","68","0.50390625","-0.8388672","-0.23046875","-3.0","-2.90625","-0.65625"
"1574876059550","69","0.51660156","-0.84472656","-0.22949219","-2.4375","-7.90625","-0.21875"
"1574876060142","70","0.50390625","-0.83984375","-0.22558594","-2.03125","-5.34375","0.15625"
"1574876060143","71","0.53027344","-0.8261719","-0.25683594","-3.1875","-7.3125","-0.84375"
"1574876060143","72","0.5214844","-0.82421875","-0.2578125","-1.03125","-10.53125","-0.84375"
"1574876060144","73","0.44628906","-0.8378906","-0.17382812","-17.09375","-11.6875","-2.78125"
"1574876060145","74","0.46875","-0.8388672","-0.24316406","-0.4375","1.78125","-6.5"
"1574876060145","75","0.48535156","-0.83496094","-0.25097656","-3.0","-3.59375","-2.90625"
"1574876060145","76","0.4736328","-0.8613281","-0.2529297","2.0","2.09375","-0.21875"
"1574876060145","77","0.49804688","-0.82128906","-0.2421875","-2.15625","-2.3125","2.03125"
"1574876060146","78","0.49316406","-0.8359375","-0.24609375","8.21875","1.25","3.375"
"1574876060146","79","0.515625","-0.8486328","-0.25195312","10.78125","2.65625","6.96875"
"1574876060341","80","0.5214844","-0.83984375","-0.21582031","8.59375","7.40625","7.53125"
"1574876060341","81","0.49804688","-0.84765625","-0.23046875","4.3125","9.1875","9.0"
"1574876060342","82","0.4794922","-0.82714844","-0.22167969","0.90625","8.0625","9.96875"
"1574876060342","83","0.515625","-0.8359375","-0.23144531","1.28125","14.375","11.625"
"1574876060342","84","0.51660156","-0.85058594","-0.24121094","4.3125","7.59375","9.25"
"1574876060344","85","0.47460938","-0.8515625","-0.19238281","5.59375","3.3125","9.0"
"1574876060344","86","0.45117188","-0.8564453","-0.22363281","-0.3125","-2.84375","5.59375"
"1574876060344","87","0.49609375","-0.88964844","-0.20117188","-2.03125","0.15625","3.875"
"1574876060345","88","0.44921875","-0.8574219","-0.21777344","-3.375","-1.5625","2.71875"
"1574876060345","89","0.45703125","-0.8466797","-0.24609375","-3.375","-0.78125","2.90625"
"1574876060738","90","0.484375","-0.8408203","-0.24414062","2.0","2.21875","5.28125"
"1574876060738","91","0.46777344","-0.8300781","-0.2578125","10.0","2.84375","6.3125"
"1574876060738","92","0.48339844","-0.85546875","-0.17675781","13.84375","3.3125","9.5"
"1574876060739","93","0.47265625","-0.8623047","-0.21972656","17.5","-1.8125","8.9375"
"1574876060739","94","0.4482422","-0.8779297","-0.16699219","19.40625","-1.8125","9.3125"
"1574876060739","95","0.3984375","-0.9111328","-0.15917969","12.4375","-3.34375","7.53125"
"1574876060739","96","0.4609375","-0.8847656","-0.19726562","15.1875","3.25","5.9375"
"1574876060740","97","0.46777344","-0.88671875","-0.18554688","23.25","-2.84375","6.625"
"1574876060740","98","0.40820312","-0.89941406","-0.119140625","24.65625","-6.875","9.25"
"1574876060740","99","0.39941406","-0.88378906","-0.1328125","20.0","-1.125","7.53125"
"1574876061136","100","0.4248047","-0.90722656","-0.12988281","10.4375","2.78125","7.28125"
"1574876061136","101","0.38476562","-0.92871094","-0.09765625","6.28125","2.34375","9.0"
"1574876061136","102","0.3876953","-0.8857422","-0.12109375","8.34375","5.625","10.09375"
"1574876061137","103","0.43554688","-0.92089844","-0.103515625","15.125","7.53125","11.8125"
"1574876061137","104","0.36132812","-0.953125","-0.052734375","9.5","2.65625","11.6875"
"1574876061137","105","0.3623047","-0.9589844","-0.037109375","-0.9375","4.96875","9.65625"
"1574876061137","106","0.3466797","-0.9394531","-0.043945312","3.40625","6.125","3.5625"
"1574876061138","107","0.34375","-0.93652344","-0.06933594","0.40625","7.09375","2.53125"
"1574876061138","108","0.328125","-0.9404297","-0.076171875","-3.78125","8.9375","0.15625"
"1574876061139","109","0.34277344","-0.9296875","-0.048828125","-9.09375","13.3125","-1.1875"
"1574876061533","110","0.37890625","-0.8798828","-0.08203125","-2.75","15.03125","0.5"
"1574876061534","111","0.38964844","-0.96875","-0.0703125","-3.84375","17.0","-1.5"
"1574876061534","112","0.37695312","-0.90527344","-0.0703125","-0.1875","14.78125","0.28125"
"1574876061534","113","0.38867188","-0.9140625","-0.06738281","-6.53125","13.15625","-1.125"
"1574876061535","114","0.40429688","-0.8984375","-0.11230469","-1.84375","8.1875","-0.21875"
"1574876061535","115","0.4111328","-0.9355469","-0.09472656","3.78125","4.0","-0.53125"
"1574876061535","116","0.39746094","-0.90527344","-0.07714844","6.40625","3.125","1.1875"
"1574876061535","117","0.4013672","-0.91308594","-0.07324219","9.21875","0.8125","3.75"
"1574876061536","118","0.37890625","-0.9296875","-0.01953125","5.78125","-0.21875","5.03125"
"1574876061536","119","0.36914062","-0.9121094","-0.017578125","4.09375","-3.8125","5.40625"
"1574876061930","120","0.3544922","-0.9267578","-0.0029296875","6.34375","-4.8125","5.6875"
"1574876061932","121","0.33789062","-0.95214844","0.029296875","6.21875","-3.53125","4.96875"
"1574876061932","122","0.3232422","-0.9511719","0.0","5.375","-2.90625","4.78125"
"1574876061932","123","0.31835938","-0.9453125","-0.009765625","3.03125","-1.125","4.3125"
"1574876061933","124","0.33398438","-0.921875","-0.029296875","-0.1875","3.5625","1.125"
"1574876061933","125","0.3544922","-0.9404297","-0.033203125","-2.03125","4.90625","-0.03125"
"1574876061933","126","0.359375","-0.96191406","-0.041015625","-0.8125","5.34375","-0.78125"
"1574876061934","127","0.35839844","-0.9736328","-0.040039062","-1.34375","3.0","-1.8125"
"1574876061934","128","0.37695312","-0.9423828","-0.051757812","-4.59375","1.1875","-1.5625"
"1574876061934","129","0.36621094","-0.94140625","-0.0625","-6.0625","-0.28125","-4.6875"
"1574876062327","130","0.35742188","-0.9355469","-0.076171875","-9.96875","-0.65625","-4.96875"
"1574876062327","131","0.3876953","-0.9199219","-0.056640625","-3.65625","-2.1875","-4.84375"
"1574876062327","132","0.37890625","-0.9033203","-0.0546875","-10.5625","-2.1875","-5.40625"
"1574876062328","133","0.37695312","-0.92285156","-0.08886719","-6.28125","-1.6875","-6.125"
"1574876062329","134","0.38378906","-0.9013672","-0.07519531","-6.65625","-1.625","-6.875"
"1574876062329","135","0.3828125","-0.9111328","-0.048828125","-6.21875","-2.0625","-8.15625"
"1574876062329","136","0.3984375","-0.90234375","-0.078125","-4.09375","-4.75","-7.65625"
"1574876062329","137","0.3955078","-0.9248047","-0.08300781","-4.71875","-6.5625","-7.65625"
"1574876062330","138","0.3984375","-0.9013672","-0.09472656","-8.0","-7.0","-8.40625"
"1574876062330","139","0.40820312","-0.9091797","-0.09765625","-6.125","-9.5","-8.28125"
"1574876062924","140","0.39160156","-0.9091797","-0.09375","-10.3125","-9.625","-8.59375"
"1574876062924","141","0.38476562","-0.9121094","-0.09082031","-12.71875","-12.96875","-8.59375"
"1574876062925","142","0.38867188","-0.91308594","-0.080078125","-13.5","-10.125","-9.8125"
"1574876062925","143","0.40625","-0.8955078","-0.13769531","-12.53125","-10.34375","-9.125"
"1574876062925","144","0.42578125","-0.9091797","-0.13867188","-10.125","-11.15625","-8.40625"
"1574876062927","145","0.41992188","-0.89746094","-0.14453125","-7.21875","-11.46875","-8.15625"
"1574876062927","146","0.4296875","-0.88964844","-0.14648438","-6.40625","-11.75","-7.25"
"1574876062927","147","0.42578125","-0.8935547","-0.15332031","-7.21875","-13.40625","-7.90625"
"1574876062928","148","0.4423828","-0.89746094","-0.18554688","-3.65625","-12.84375","-6.5625"
"1574876062928","149","0.4267578","-0.88671875","-0.17382812","-3.65625","-12.78125","-5.21875"
"1574876063520","150","0.42285156","-0.890625","-0.19335938","-2.21875","-7.3125","-5.15625"
"1574876063521","151","0.45214844","-0.88671875","-0.20898438","-2.6875","-8.15625","-3.15625"
"1574876063521","152","0.43847656","-0.87597656","-0.20507812","0.90625","-6.9375","-2.40625"
"1574876063521","153","0.4482422","-0.86816406","-0.20410156","1.53125","-4.3125","-2.21875"
"1574876063522","154","0.4580078","-0.8730469","-0.20996094","2.6875","-2.1875","-1.625"
"1574876063522","155","0.47070312","-0.8574219","-0.21679688","5.375","-1.375","-1.375"
"1574876063522","156","0.47460938","-0.86816406","-0.19921875","3.15625","-2.59375","-1.125"
"1574876063524","157","0.48339844","-0.8671875","-0.19824219","2.8125","-6.625","-0.53125"
"1574876063524","158","0.41992188","-0.875","-0.17480469","2.4375","-10.84375","-0.03125"
"1574876063524","159","0.4013672","-0.8828125","-0.20410156","-1.15625","-2.90625","-2.96875"
"1574876063721","160","0.4638672","-0.87402344","-0.21386719","3.78125","1.4375","-2.125"
"1574876063722","161","0.45117188","-0.85839844","-0.203125","3.03125","3.6875","-0.78125"
"1574876063722","162","0.46777344","-0.88378906","-0.20117188","2.1875","4.90625","-0.46875"
"1574876063722","163","0.45214844","-0.8769531","-0.18164062","1.6875","3.3125","0.40625"
"1574876063723","164","0.45996094","-0.8730469","-0.18164062","-4.03125","4.0625","-0.46875"
"1574876063723","165","0.4765625","-0.8876953","-0.19042969","-0.4375","1.1875","-0.84375"
"1574876063723","166","0.4404297","-0.86621094","-0.18554688","-2.09375","-0.34375","-2.59375"
"1574876063723","167","0.4638672","-0.88378906","-0.18457031","-3.5","1.4375","-3.6875"
"1574876063724","168","0.45507812","-0.87597656","-0.19433594","-4.46875","0.625","-4.0"
"1574876063730","169","0.45117188","-0.8808594","-0.17871094","-2.21875","1.96875","-4.125"
"1574876064315","170","0.47070312","-0.8652344","-0.19726562","-5.4375","2.9375","-4.125"
"1574876064316","171","0.48339844","-0.86816406","-0.18652344","0.0625","-0.28125","-3.03125"
"1574876064316","172","0.46777344","-0.859375","-0.22070312","-2.4375","-2.25","-2.28125"
"1574876064316","173","0.47558594","-0.8730469","-0.20996094","2.0","-3.6875","-1.0625"
"1574876064317","174","0.4794922","-0.8652344","-0.23144531","7.3125","-4.125","0.15625"
"1574876064317","175","0.47460938","-0.87109375","-0.16796875","8.78125","-7.71875","-1.125"
"1574876064317","176","0.43945312","-0.8613281","-0.1875","-3.90625","-6.9375","-5.15625"
"1574876064317","177","0.49609375","-0.84375","-0.19140625","-6.84375","-7.4375","-5.65625"
"1574876064317","178","0.44628906","-0.8496094","-0.15039062","-9.59375","-14.3125","-6.09375"
"1574876064318","179","0.43164062","-0.8955078","-0.21191406","-12.59375","-5.21875","-6.03125"
"1574876064514","180","0.47851562","-0.8496094","-0.27929688","4.09375","-3.03125","-0.15625"
"1574876064516","181","0.49414062","-0.8564453","-0.22070312","17.03125","-2.25","6.25"
"1574876064516","182","0.46777344","-0.8613281","-0.18066406","15.4375","0.625","8.5625"
"1574876064517","183","0.44726562","-0.875","-0.1875","14.53125","1.3125","9.1875"
"1574876064517","184","0.44335938","-0.88378906","-0.17480469","8.71875","2.53125","9.59375"
"1574876064517","185","0.46191406","-0.8955078","-0.18847656","10.5625","1.375","8.75"
"1574876064518","186","0.4345703","-0.88378906","-0.18066406","6.875","0.25","5.6875"
"1574876064518","187","0.43554688","-0.8964844","-0.17285156","-0.125","-0.78125","3.0"
"1574876064518","188","0.43652344","-0.8808594","-0.16601562","-4.21875","1.25","1.5625"
"1574876064519","189","0.4482422","-0.8779297","-0.20019531","-4.40625","2.46875","-0.03125"
"1574876065306","190","0.4609375","-0.87402344","-0.19335938","0.46875","0.4375","2.46875"
"1574876065306","191","0.4296875","-0.86621094","-0.1796875","-4.03125","-1.0625","1.1875"
"1574876065307","192","0.484375","-0.86816406","-0.18847656","2.5625","0.8125","1.78125"
"1574876065308","193","0.43164062","-0.86328125","-0.17773438","0.90625","-2.78125","0.625"
"1574876065308","194","0.4453125","-0.8828125","-0.20605469","0.0","-0.65625","-0.40625"
"1574876065309","195","0.44140625","-0.8720703","-0.18652344","-0.5625","-0.84375","-1.5"
"1574876065309","196","0.4501953","-0.86816406","-0.20703125","-5.875","1.125","-2.84375"
"1574876065309","197","0.46679688","-0.92578125","-0.1875","17.21875","-3.6875","-0.71875"
"1574876065309","198","0.43066406","-0.8847656","-0.15332031","11.90625","0.21875","0.28125"
"1574876065310","199","0.46289062","-0.8984375","-0.1484375","19.28125","1.3125","0.625"
"1574876065505","200","0.43554688","-0.87597656","-0.13769531","7.4375","1.1875","3.375"
"1574876065505","201","0.44921875","-0.8847656","-0.14355469","10.90625","5.21875","3.375"
"1574876065505","202","0.43066406","-0.8798828","-0.15039062","6.46875","9.46875","5.03125"
"1574876065506","203","0.4404297","-0.8828125","-0.12988281","2.125","7.90625","3.4375"
"1574876065506","204","0.45410156","-0.86328125","-0.15136719","-1.65625","11.125","1.71875"
"1574876065507","205","0.46875","-0.87890625","-0.14746094","-3.65625","10.53125","0.40625"
"1574876065508","206","0.47753906","-0.87402344","-0.16796875","-5.625","5.4375","1.125"
"1574876065508","207","0.4033203","-0.875","-0.12988281","0.59375","4.84375","0.625"
"1574876065508","208","0.4033203","-0.9042969","-0.11425781","-14.46875","1.59375","1.5625"
"1574876065508","209","0.4267578","-0.8574219","-0.1796875","-0.5","3.6875","3.625"
"1574876065901","210","0.42871094","-0.9169922","-0.13574219","-2.625","4.46875","6.875"
"1574876065902","211","0.39257812","-0.8886719","-0.1484375","-3.78125","5.75","6.125"
"1574876065902","212","0.4326172","-0.86816406","-0.12695312","4.75","8.8125","10.15625"
"1574876065902","213","0.37402344","-0.96972656","-0.09277344","5.5","9.90625","5.28125"
"1574876065903","214","0.39941406","-0.8964844","-0.083984375","-0.3125","11.625","6.875"
"1574876065903","215","0.3955078","-0.875","-0.13574219","9.5","8.9375","8.3125"
"1574876065903","216","0.40722656","-0.9082031","-0.16015625","20.125","11.3125","10.8125"
"1574876065903","217","0.4091797","-0.9355469","-0.109375","16.03125","6.5","11.1875"
"1574876065904","218","0.38085938","-0.94628906","-0.061523438","14.59375","8.25","8.09375"
"1574876065904","219","0.39257812","-0.9238281","-0.04296875","11.53125","7.03125","6.375"
"1574876066103","220","0.40820312","-0.9160156","-0.018554688","8.90625","1.78125","6.8125"
"1574876066104","221","0.3955078","-0.92578125","-0.033203125","7.4375","-3.15625","6.3125"
"1574876066104","222","0.36816406","-0.94628906","-0.04296875","6.78125","-4.8125","6.1875"
"1574876066104","223","0.32714844","-0.95214844","-0.048828125","4.5","-3.59375","5.53125"
"1574876066105","224","0.3359375","-0.91796875","-0.047851562","-4.03125","2.15625","4.125"
"1574876066105","225","0.3642578","-0.93847656","-0.06347656","3.84375","4.65625","1.90625"
"1574876066105","226","0.36914062","-0.9199219","-0.037109375","0.3125","2.28125","1.625"
"1574876066105","227","0.36816406","-0.921875","-0.057617188","-0.8125","2.46875","0.09375"
"1574876066106","228","0.3828125","-0.93847656","-0.051757812","-1.78125","0.4375","-1.5625"
"1574876066107","229","0.3935547","-0.9199219","-0.055664062","-3.3125","-2.65625","-1.5625"
"1574876066501","230","0.38867188","-0.9248047","-0.061523438","-2.4375","-4.3125","-2.28125"
"1574876066502","231","0.36523438","-0.9472656","-0.0625","-0.5","-7.78125","-4.125"
"1574876066502","232","0.3515625","-0.91796875","-0.047851562","-5.5","-7.0","-3.8125"
"1574876066502","233","0.36035156","-0.9248047","-0.05859375","-3.71875","-6.375","-4.4375"
"1574876066502","234","0.37695312","-0.93652344","-0.064453125","-1.09375","-5.46875","-3.15625"
"1574876066503","235","0.36523438","-0.9111328","-0.0625","-2.9375","-6.15625","-1.875"
"1574876066503","236","0.37402344","-0.9345703","-0.076171875","-2.3125","-2.71875","-2.125"
"1574876066503","237","0.38183594","-0.91503906","-0.08105469","-2.4375","-2.40625","-2.53125"
"1574876066503","238","0.38964844","-0.90234375","-0.083984375","-2.75","-3.6875","-2.71875"
"1574876066504","239","0.38671875","-0.9355469","-0.083984375","0.40625","-4.1875","-3.34375"
"1574876067295","240","0.3701172","-0.93359375","-0.060546875","-1.09375","-3.28125","-3.46875"
"1574876067296","241","0.3955078","-0.89746094","-0.08203125","-2.375","-4.25","-3.75"
"1574876067296","242","0.40722656","-0.9169922","-0.0859375","2.6875","-7.5625","-4.8125"
"1574876067297","243","0.36035156","-0.9160156","-0.051757812","0.53125","-7.4375","-4.84375"
"1574876067297","244","0.3828125","-0.94140625","-0.06542969","-1.0","-5.09375","-4.8125"
"1574876067297","245","0.3798828","-0.9404297","-0.064453125","-7.15625","-6.15625","-7.375"
"1574876067297","246","0.3828125","-0.9248047","-0.095703125","-1.53125","-10.59375","-6.5"
"1574876067298","247","0.4248047","-0.9169922","-0.107421875","-2.09375","-7.25","-4.84375"
"1574876067298","248","0.4169922","-0.921875","-0.11816406","-4.9375","-4.625","-5.78125"
"1574876067298","249","0.4091797","-0.88378906","-0.12890625","-2.15625","-0.71875","-7.71875"
"1574876067491","250","0.421875","-0.8955078","-0.14355469","-2.5625","-0.84375","-8.40625"
"1574876067491","251","0.4345703","-0.89941406","-0.10253906","-5.0","-3.15625","-7.46875"
"1574876067491","252","0.43066406","-0.8935547","-0.12109375","-6.71875","1.78125","-9.625"
"1574876067493","253","0.42578125","-0.8857422","-0.13183594","-6.53125","-3.6875","-8.21875"
"1574876067493","254","0.43652344","-0.88183594","-0.125","-9.96875","-1.4375","-7.59375"
"1574876067493","255","0.47753906","-0.8720703","-0.13964844","-6.78125","-2.125","-9.25"
"1574876067493","256","0.47753906","-0.8720703","-0.13964844","-5.0625","-3.46875","-7.90625"
"1574876067494","257","0.47070312","-0.87402344","-0.13476562","-5.5625","-9.4375","-6.5625"
"1574876067494","258","0.4658203","-0.8613281","-0.15429688","-10.09375","-5.65625","-7.53125"
"1574876067494","259","0.45996094","-0.8691406","-0.16894531","-8.84375","-4.0625","-9.0625"
"1574876067694","260","0.44335938","-0.86816406","-0.14160156","-15.625","-6.09375","-8.8125"
"1574876067694","261","0.46191406","-0.8613281","-0.18945312","-4.28125","-4.3125","-8.71875"
"1574876067694","262","0.46875","-0.86035156","-0.171875","-2.3125","-5.21875","-4.6875"
"1574876067695","263","0.4736328","-0.85546875","-0.171875","-0.625","-2.0625","-4.3125"
"1574876067695","264","0.48828125","-0.84277344","-0.17871094","-2.375","-2.0625","-3.15625"
"1574876067696","265","0.47265625","-0.86621094","-0.17578125","2.4375","-4.0625","-1.0625"
"1574876067696","266","0.46972656","-0.86621094","-0.18066406","-0.8125","-1.1875","-1.125"
"1574876067697","267","0.47265625","-0.8623047","-0.16894531","-2.03125","-1.9375","-0.15625"
"1574876067697","268","0.47265625","-0.8623047","-0.17382812","-3.375","1.125","0.03125"
"1574876067698","269","0.4736328","-0.8691406","-0.19824219","1.15625","1.125","0.5625"
"1574876068092","270","0.4765625","-0.8574219","-0.1796875","4.4375","-0.59375","3.0"
"1574876068092","271","0.48046875","-0.8613281","-0.1796875","3.65625","1.90625","3.75"
"1574876068093","272","0.4814453","-0.87109375","-0.18261719","0.34375","3.25","5.34375"
"1574876068093","273","0.46972656","-0.8613281","-0.18359375","1.09375","1.84375","4.84375"
"1574876068093","274","0.47558594","-0.8828125","-0.15625","3.03125","-0.28125","5.21875"
"1574876068093","275","0.43847656","-0.8574219","-0.1640625","-2.9375","-1.75","2.65625"
"1574876068094","276","0.4658203","-0.8613281","-0.19824219","3.21875","0.9375","2.40625"
"1574876068095","277","0.4716797","-0.8408203","-0.18359375","6.53125","1.96875","4.0"
"1574876068095","278","0.45507812","-0.87402344","-0.16015625","7.0","0.03125","2.03125"
"1574876068096","279","0.46289062","-0.8925781","-0.15332031","2.75","3.0625","2.46875"
"1574876068683","280","0.43554688","-0.88964844","-0.15429688","3.15625","2.09375","1.375"
"1574876068683","281","0.4404297","-0.9042969","-0.13867188","-3.90625","2.59375","1.90625"
"1574876068684","282","0.44726562","-0.8808594","-0.15722656","-4.65625","6.5625","1.84375"
"1574876068684","283","0.4560547","-0.8720703","-0.15332031","0.65625","4.40625","2.21875"
"1574876068684","284","0.4609375","-0.8564453","-0.16894531","3.03125","1.4375","3.4375"
"1574876068684","285","0.4736328","-0.8701172","-0.17578125","2.3125","3.375","3.4375"
"1574876068684","286","0.5019531","-0.8798828","-0.17480469","10.90625","-0.40625","5.875"
"1574876068684","287","0.39941406","-0.85546875","-0.14941406","4.6875","-4.3125","5.21875"
"1574876068685","288","0.5019531","-0.88964844","-0.13476562","11.96875","-4.625","4.59375"
"1574876068685","289","0.37109375","-0.875","-0.10839844","3.65625","-8.71875","5.6875"
"1574876069282","290","0.4482422","-0.88183594","-0.16015625","7.625","0.6875","7.46875"
"1574876069283","291","0.4326172","-0.9140625","-0.16894531","10.96875","4.40625","7.96875"
"1574876069283","292","0.484375","-0.8613281","-0.16699219","11.34375","9.125","9.3125"
"1574876069283","293","0.46679688","-0.9140625","-0.16210938","16.78125","0.25","3.25"
"1574876069284","294","0.4033203","-0.91015625","-0.115234375","-3.0","-2.25","2.59375"
"1574876069284","295","0.4140625","-0.9033203","-0.109375","0.65625","-1.625","2.03125"
"1574876069284","296","0.40429688","-0.92871094","-0.068359375","-11.125","-3.75","-1.0625"
"1574876069285","297","0.43164062","-0.89941406","-0.14257812","-4.46875","4.84375","0.4375"
"1574876069289","298","0.41992188","-0.87890625","-0.13867188","-3.375","-1.4375","1.5"
"1574876069289","299","0.4189453","-0.9121094","-0.11816406","-0.4375","-2.90625","2.34375"
"1574876069483","300","0.38867188","-0.9042969","-0.11621094","-0.4375","-3.03125","1.90625"
"1574876069485","301","0.453125","-0.9326172","-0.1171875","9.6875","1.0","3.6875"
"1574876069485","302","0.3935547","-0.9082031","-0.11425781","4.5625","-4.1875","2.59375"
"1574876069486","303","0.40039062","-0.9238281","-0.11621094","6.09375","-5.03125","3.875"
"1574876069486","304","0.35253906","-0.8984375","-0.12207031","-3.78125","-3.53125","1.625"
"1574876069486","305","0.40234375","-0.9375","-0.125","1.8125","2.65625","0.875"
"1574876069487","306","0.38378906","-0.91015625","-0.11425781","3.21875","4.15625","1.125"
"1574876069487","307","0.41210938","-0.89453125","-0.12207031","6.875","6.5","1.5"
"1574876069487","308","0.3955078","-0.90527344","-0.10546875","7.25","9.0","-0.65625"
"1574876069488","309","0.42285156","-0.9111328","-0.095703125","8.15625","6.90625","0.21875"
"1574876070275","310","0.40429688","-0.89453125","-0.06640625","3.78125","4.96875","-0.03125"
"1574876070276","311","0.41503906","-0.91015625","-0.08300781","3.53125","2.78125","1.96875"
"1574876070276","312","0.3544922","-0.9160156","-0.05078125","0.34375","2.34375","-0.46875"
"1574876070277","313","0.40039062","-0.8984375","-0.07324219","0.46875","6.75","2.09375"
"1574876070277","314","0.40429688","-0.91796875","-0.072265625","4.375","5.4375","2.34375"
"1574876070278","315","0.38964844","-0.89746094","-0.072265625","4.75","4.53125","2.59375"
"1574876070278","316","0.41210938","-0.92578125","-0.08496094","7.5","5.6875","2.96875"
"1574876070278","317","0.39453125","-0.90625","-0.059570312","1.6875","6.0625","3.4375"
"1574876070278","318","0.39746094","-0.92089844","-0.080078125","3.78125","6.0625","3.9375"
"1574876070279","319","0.3857422","-0.9277344","-0.06347656","2.1875","5.625","3.375"
"1574876070870","320","0.390625","-0.91015625","-0.0703125","5.375","8.625","4.40625"
"1574876070870","321","0.39648438","-0.9111328","-0.057617188","0.0","4.90625","3.8125"
"1574876070870","322","0.3857422","-0.91015625","-0.055664062","4.6875","5.34375","5.03125"
"1574876070871","323","0.3828125","-0.92089844","-0.05078125","2.8125","6.90625","4.25"
"1574876070871","324","0.37890625","-0.94140625","-0.04296875","0.3125","8.5","3.75"
"1574876070872","325","0.3876953","-0.9189453","-0.045898438","4.6875","3.9375","3.25"
"1574876070872","326","0.37695312","-0.9316406","-0.026367188","5.90625","2.59375","2.09375"
"1574876070872","327","0.36523438","-0.94140625","-0.0048828125","0.78125","1.5","-1.1875"
"1574876070873","328","0.3701172","-0.92578125","-0.0107421875","0.96875","-1.625","-2.0625"
"1574876070873","329","0.37402344","-0.921875","-0.009765625","1.15625","-3.15625","-2.0"
"1574876070875","330","0.37109375","-0.9326172","-0.026367188","-1.34375","-2.65625","-2.96875"
"1574876070875","331","0.37597656","-0.9316406","-0.041015625","-4.46875","-3.6875","-3.875"
"1574876070875","332","0.38085938","-0.9345703","-0.046875","-7.09375","-3.34375","-4.375"
"1574876070875","333","0.38671875","-0.92285156","-0.047851562","-9.28125","-3.59375","-4.84375"
"1574876070876","334","0.390625","-0.91796875","-0.051757812","-8.25","-2.90625","-4.75"
"1574876070876","335","0.39257812","-0.9169922","-0.06542969","-7.28125","-3.46875","-4.5"
"1574876070876","336","0.39453125","-0.9238281","-0.06542969","-10.3125","-4.75","-4.75"
"1574876070877","337","0.39257812","-0.91796875","-0.080078125","-9.84375","-2.3125","-5.78125"
"1574876070877","338","0.38476562","-0.90625","-0.072265625","-9.53125","-3.28125","-5.40625"
"1574876070877","339","0.41210938","-0.91308594","-0.09863281","-4.71875","-0.96875","-5.28125"
"1574876071468","340","0.40039062","-0.8964844","-0.076171875","-7.5","-5.78125","-3.9375"
"1574876071469","341","0.421875","-0.9013672","-0.111328125","-5.6875","-6.8125","-5.40625"
"1574876071469","342","0.4267578","-0.90625","-0.09082031","-4.46875","-5.78125","-4.5625"
"1574876071469","343","0.40625","-0.90527344","-0.10058594","-3.375","-8.78125","-5.53125"
"1574876071469","344","0.41601562","-0.91308594","-0.099609375","8.46875","-10.0","-3.5"
"1574876071470","345","0.40820312","-0.9111328","-0.095703125","-1.09375","-8.40625","-3.75"
"1574876071470","346","0.38378906","-0.90527344","-0.08886719","-7.5625","-7.125","-4.6875"
"1574876071470","347","0.40429688","-0.9111328","-0.11816406","-10.09375","-4.25","-3.5"
"1574876071470","348","0.4248047","-0.8925781","-0.14160156","-4.28125","-0.90625","-1.8125"
"1574876071472","349","0.41796875","-0.8925781","-0.125","-4.59375","-1.5625","-0.71875"
"1574876071666","350","0.4248047","-0.8955078","-0.14257812","-4.84375","-1.25","-1.25"
"1574876071667","351","0.44628906","-0.90234375","-0.1484375","-3.71875","-0.15625","-0.46875"
"1574876071667","352","0.421875","-0.90625","-0.13378906","-3.25","0.03125","-0.84375"
"1574876071667","353","0.42773438","-0.8886719","-0.1484375","-0.6875","-0.40625","-0.84375"
"1574876071667","354","0.44726562","-0.89160156","-0.15039062","-2.09375","-0.03125","-1.9375"
"1574876071668","355","0.45703125","-0.8769531","-0.14648438","-1.65625","-1.0625","-1.75"
"1574876071669","356","0.43066406","-0.88378906","-0.15039062","1.75","-7.71875","-1.75"
"1574876071669","357","0.4267578","-0.88183594","-0.14550781","-0.0625","-7.1875","-0.28125"
"1574876071669","358","0.3984375","-0.88964844","-0.14355469","-3.84375","-3.46875","-2.0625"
"1574876071669","359","0.4716797","-0.8857422","-0.18457031","3.40625","0.3125","0.28125"
"1574876071863","360","0.46484375","-0.8876953","-0.13867188","5.25","-4.75","0.21875"
"1574876071865","361","0.40722656","-0.9003906","-0.15429688","3.65625","-7.5","0.9375"
"1574876071865","362","0.41992188","-0.91015625","-0.123046875","6.8125","-3.28125","-0.90625"
"1574876071865","363","0.4189453","-0.9042969","-0.13183594","10.6875","2.28125","-1.5625"
"1574876071865","364","0.3955078","-0.9160156","-0.08300781","1.28125","4.78125","-2.125"
"1574876071866","365","0.41308594","-0.90234375","-0.15527344","2.375","10.75","-6.09375"
"1574876071866","366","0.49316406","-0.8652344","-0.17285156","11.21875","11.9375","-2.96875"
"1574876071866","367","0.4482422","-0.8886719","-0.10253906","5.71875","3.375","-2.71875"
"1574876071866","368","0.45898438","-0.88378906","-0.09277344","2.90625","1.5","-2.59375"
"1574876071867","369","0.48828125","-0.9033203","-0.14648438","7.75","-1.75","-1.625"
"1574876072462","370","0.4375","-0.9091797","-0.076171875","0.0625","-7.71875","-3.28125"
"1574876072463","371","0.48242188","-0.8779297","-0.10449219","-4.34375","-9.6875","-2.0625"
"1574876072463","372","0.38183594","-0.8691406","-0.048828125","6.09375","-15.90625","1.125"
"1574876072464","373","0.36816406","-0.87402344","-0.10644531","-1.65625","-11.625","-1.8125"
"1574876072465","374","0.4140625","-0.90234375","-0.12890625","1.53125","-1.5","-4.375"
"1574876072465","375","0.4345703","-0.8857422","-0.1328125","2.875","6.375","-3.75"
"1574876072465","376","0.45507812","-0.890625","-0.13671875","9.625","12.71875","-2.34375"
"1574876072466","377","0.47460938","-0.890625","-0.08691406","-5.0625","10.34375","0.5625"
"1574876072466","378","0.46484375","-0.8847656","-0.0859375","0.84375","10.28125","0.875"
"1574876072466","379","0.46875","-0.88964844","-0.08105469","-5.375","1.65625","0.8125"
"1574876072661","380","0.453125","-0.8876953","-0.09863281","-4.28125","-0.96875","1.0"
"1574876072661","381","0.43359375","-0.88378906","-0.103515625","-5.3125","-0.65625","0.21875"
"1574876072661","382","0.44140625","-0.875","-0.11816406","-0.625","-4.25","-0.28125"
"1574876072662","383","0.44433594","-0.87890625","-0.11328125","-1.78125","-1.5","-0.90625"
"1574876072662","384","0.44628906","-0.8847656","-0.1171875","1.9375","-3.65625","-2.0625"
"1574876072662","385","0.46191406","-0.8769531","-0.11230469","0.25","-1.3125","-1.3125"
"1574876072663","386","0.45996094","-0.8828125","-0.1015625","2.625","-4.96875","-2.34375"
"1574876072663","387","0.43847656","-0.88378906","-0.099609375","1.34375","-5.53125","-2.1875"
"1574876072664","388","0.44433594","-0.8935547","-0.10546875","-2.4375","-3.46875","-2.125"
"1574876072664","389","0.44335938","-0.8925781","-0.11621094","0.53125","-2.125","-1.625"
"1574876072861","390","0.44628906","-0.88671875","-0.11425781","-1.53125","-0.15625","-0.46875"
"1574876072862","391","0.46191406","-0.88378906","-0.11230469","-4.15625","3.125","0.28125"
"1574876072862","392","0.4404297","-0.87402344","-0.11328125","-1.71875","-1.125","1.6875"
"1574876072862","393","0.47265625","-0.8808594","-0.1328125","-3.65625","3.1875","2.46875"
"1574876072862","394","0.45507812","-0.8798828","-0.12109375","-2.03125","-2.375","3.0"
"1574876072863","395","0.46289062","-0.85546875","-0.14746094","-0.5","1.71875","3.5625"
"1574876072863","396","0.45214844","-0.88964844","-0.12109375","0.25","-4.25","3.25"
"1574876072864","397","0.4375","-0.87109375","-0.14746094","3.28125","0.625","1.5"
"1574876072864","398","0.4453125","-0.88671875","-0.09863281","0.125","-6.15625","1.84375"
"1574876072865","399","0.41796875","-0.8769531","-0.12890625","-1.96875","-4.6875","0.03125"
"1574876073456","400","0.4580078","-0.8857422","-0.1328125","-3.59375","-2.53125","-0.90625"
"1574876073457","401","0.3935547","-0.8769531","-0.11816406","-10.75","-7.375","1.4375"
"1574876073457","402","0.45703125","-0.8808594","-0.15820312","-13.1875","3.5625","-0.03125"
"1574876073457","403","0.46972656","-0.8720703","-0.17871094","0.71875","0.6875","4.90625"
"1574876073458","404","0.4189453","-0.8720703","-0.15722656","-1.03125","0.6875","5.6875"
"1574876073458","405","0.4892578","-0.86328125","-0.17773438","12.75","-1.03125","8.5"
"1574876073458","406","0.4013672","-0.9140625","-0.09765625","4.21875","-8.28125","8.21875"
"1574876073459","407","0.4111328","-0.8984375","-0.140625","7.4375","-2.53125","8.09375"
"1574876073459","408","0.4033203","-0.93652344","-0.11035156","4.375","-5.40625","6.625"
"1574876073459","409","0.3486328","-0.87597656","-0.171875","4.5","-2.46875","5.40625"
"1574876073856","410","0.45507812","-0.93652344","-0.12597656","6.34375","4.59375","6.5"
"1574876073856","411","0.39746094","-0.9033203","-0.1484375","5.78125","1.65625","8.25"
"1574876073857","412","0.38476562","-0.9082031","-0.12597656","3.46875","0.5","5.34375"
"1574876073857","413","0.42382812","-0.94433594","-0.091796875","11.21875","2.71875","4.1875"
"1574876073857","414","0.37109375","-0.9082031","-0.095703125","10.6875","-2.90625","5.59375"
"1574876073857","415","0.4111328","-0.92089844","-0.109375","11.09375","-0.53125","3.8125"
"1574876073858","416","0.38378906","-0.9316406","-0.09277344","10.96875","1.125","3.375"
"1574876073858","417","0.36914062","-0.9033203","-0.09765625","3.03125","0.625","3.9375"
"1574876073858","418","0.3935547","-0.921875","-0.09765625","9.40625","1.1875","5.46875"
"1574876073858","419","0.3544922","-0.9453125","-0.07519531","6.21875","2.03125","4.125"
"1574876074450","420","0.37109375","-0.93066406","-0.0546875","3.65625","5.9375","3.5625"
"1574876074451","421","0.36621094","-0.94628906","-0.052734375","0.1875","4.28125","0.75"
"1574876074451","422","0.3671875","-0.9189453","-0.022460938","0.25","2.53125","1.0"
"1574876074452","423","0.3701172","-0.9267578","-0.0625","-3.3125","0.09375","0.5625"
"1574876074452","424","0.38964844","-0.9248047","-0.059570312","-1.78125","-1.125","-0.46875"
"1574876074452","425","0.3701172","-0.9111328","-0.078125","0.78125","-2.3125","0.34375"
"1574876074453","426","0.4140625","-0.92285156","-0.07910156","3.84375","-3.21875","0.875"
"1574876074453","427","0.36132812","-0.9580078","-0.0087890625","-6.40625","-8.15625","2.28125"
"1574876074453","428","0.30859375","-0.92089844","-0.1015625","-2.3125","0.15625","-0.03125"
"1574876074453","429","0.4140625","-0.91796875","-0.078125","-2.375","4.0625","0.6875"
"1574876074648","430","0.36523438","-0.9326172","-0.078125","-4.53125","-0.09375","0.5625"
"1574876074648","431","0.40722656","-0.90625","-0.07714844","-2.21875","2.15625","2.53125"
"1574876074649","432","0.484375","-0.9111328","-0.08496094","-3.3125","-7.25","4.53125"
"1574876074649","433","0.34179688","-0.9453125","-0.08496094","3.96875","-19.375","7.40625"
"1574876074649","434","0.33007812","-0.91796875","-0.09375","1.34375","-8.09375","4.65625"
"1574876074649","435","0.3564453","-0.90722656","-0.13769531","5.53125","0.375","4.40625"
"1574876074650","436","0.37402344","-0.92089844","-0.10644531","6.03125","-4.9375","3.5"
"1574876074651","437","0.3125","-0.9453125","-0.103515625","4.4375","-1.75","0.625"
"1574876074651","438","0.37304688","-0.92871094","-0.11425781","3.15625","1.71875","-2.40625"
"1574876074651","439","0.3671875","-0.9326172","-0.08203125","1.53125","3.1875","-4.8125"
"1574876074848","440","0.34179688","-0.9482422","-0.07128906","-2.09375","4.15625","-6.875"
"1574876074848","441","0.37402344","-0.94433594","-0.08984375","-10.625","9.78125","-10.21875"
"1574876074849","442","0.34570312","-0.92578125","-0.0703125","4.25","4.21875","-11.375"
"1574876074849","443","0.4169922","-0.92578125","-0.06933594","3.15625","2.15625","-10.53125"
"1574876074849","444","0.40527344","-0.9296875","-0.091796875","2.90625","2.34375","-11.03125"
"1574876074850","445","0.41210938","-0.92089844","-0.08203125","3.15625","-3.28125","-9.0"
"1574876074851","446","0.38476562","-0.90527344","-0.0390625","-6.78125","-1.75","-7.0"
"1574876074851","447","0.3876953","-0.9199219","-0.091796875","-0.8125","-1.03125","-5.15625"
"1574876074851","448","0.40625","-0.9013672","-0.09277344","4.5625","0.375","-2.84375"
"1574876074852","449","0.42089844","-0.91503906","-0.083984375","1.8125","2.71875","-4.3125"
"1574876075246","450","0.43164062","-0.92578125","-0.08984375","-4.53125","1.3125","-3.875"
"1574876075247","451","0.40527344","-0.8925781","-0.053710938","1.59375","-8.34375","-4.90625"
"1574876075247","452","0.4111328","-0.9082031","-0.05078125","5.3125","-8.34375","-4.125"
"1574876075247","453","0.4248047","-0.9169922","-0.087890625","4.4375","-11.9375","-7.84375"
"1574876075248","454","0.4169922","-0.89941406","-0.07910156","2.4375","-12.625","-6.5625"
"1574876075248","455","0.43066406","-0.8925781","-0.08105469","0.71875","-9.0625","-5.09375"
"1574876075248","456","0.421875","-0.8886719","-0.107421875","5.1875","-5.59375","-3.15625"
"1574876075250","457","0.43066406","-0.9013672","-0.09765625","10.71875","-4.1875","-2.46875"
"1574876075250","458","0.421875","-0.8984375","-0.061523438","13.90625","0.375","0.8125"
"1574876075250","459","0.41601562","-0.9013672","-0.0078125","9.9375","0.15625","-1.25"
"1574876075645","460","0.41503906","-0.8886719","-0.06347656","0.1875","1.53125","-3.625"
"1574876075645","461","0.45507812","-0.89746094","-0.076171875","-0.5","1.71875","-3.5"
"1574876075645","462","0.43847656","-0.8701172","-0.06640625","-6.21875","-3.15625","-4.125"
"1574876075646","463","0.44726562","-0.890625","-0.083984375","-5.5","-1.5","-4.4375"
"1574876075646","464","0.45117188","-0.88964844","-0.07714844","-10.75","-2.0625","-4.90625"
"1574876075646","465","0.4501953","-0.89160156","-0.099609375","-1.78125","0.03125","-3.9375"
"1574876075646","466","0.4580078","-0.8623047","-0.07910156","-7.40625","-1.875","-5.03125"
"1574876075647","467","0.45996094","-0.89746094","-0.095703125","-3.125","-1.0625","-3.9375"
"1574876075647","468","0.46484375","-0.8984375","-0.078125","-7.15625","-1.625","-3.21875"
"1574876075648","469","0.45117188","-0.87109375","-0.09667969","-10.5625","-2.40625","-3.875"
"1574876076239","470","0.4716797","-0.8857422","-0.111328125","-13.9375","-2.0625","-4.125"
"1574876076239","471","0.43066406","-0.87597656","-0.10839844","-6.1875","-2.0","-1.5"
"1574876076240","472","0.45703125","-0.86621094","-0.11230469","-4.15625","-0.96875","-1.9375"
"1574876076240","473","0.4638672","-0.8808594","-0.119140625","2.96875","-4.8125","0.09375"
"1574876076240","474","0.4609375","-0.8808594","-0.109375","0.125","-1.4375","1.25"
"1574876076240","475","0.46289062","-0.8857422","-0.12011719","3.34375","-1.125","1.625"
"1574876076241","476","0.46777344","-0.87890625","-0.13867188","10.125","-2.53125","1.78125"
"1574876076241","477","0.46875","-0.8701172","-0.123046875","8.15625","-0.03125","0.34375"
"1574876076241","478","0.4921875","-0.8964844","-0.08886719","12.375","3.0625","-6.1875"
"1574876076241","479","0.45996094","-0.87890625","-0.13183594","-2.75","-12.0625","-2.28125"
"1574876076439","480","0.41992188","-0.9082031","-0.08984375","-6.65625","-13.65625","-6.875"
"1574876076440","481","0.40820312","-0.85546875","-0.061523438","-15.75","-9.25","-4.4375"
"1574876076441","482","0.46191406","-0.8935547","-0.12109375","-9.96875","-1.0625","-6.5"
"1574876076441","483","0.4638672","-0.8671875","-0.11621094","-13.0625","-3.34375","-4.8125"
"1574876076441","484","0.4501953","-0.8574219","-0.08105469","-14.0","-1.75","-0.21875"
"1574876076442","485","0.50390625","-0.86035156","-0.19335938","-8.6875","0.75","2.84375"
"1574876076442","486","0.47851562","-0.8798828","-0.16308594","-5.4375","-2.125","3.25"
"1574876076442","487","0.45703125","-0.86621094","-0.14257812","-3.5625","-3.75","3.125"
"1574876076443","488","0.4736328","-0.8847656","-0.14257812","0.96875","0.75","1.25"
"1574876076443","489","0.45410156","-0.8671875","-0.13183594","1.28125","-0.46875","-0.15625"
"1574876077036","490","0.44726562","-0.87402344","-0.12792969","3.96875","-2.84375","0.34375"
"1574876077036","491","0.4716797","-0.8769531","-0.15625","2.625","0.03125","-0.78125"
"1574876077037","492","0.49414062","-0.8671875","-0.16308594","1.875","1.53125","0.40625"
"1574876077038","493","0.48242188","-0.85839844","-0.15429688","1.28125","-1.875","1.5"
"1574876077038","494","0.46972656","-0.8730469","-0.15917969","2.5","-3.46875","1.5625"
"1574876077039","495","0.45410156","-0.88183594","-0.14648438","0.46875","-3.875","-0.21875"
"1574876077039","496","0.4482422","-0.8623047","-0.15332031","-0.3125","-3.875","-0.65625"
"1574876077039","497","0.453125","-0.8876953","-0.14648438","-2.3125","-0.53125","-1.0625"
"1574876077040","498","0.42871094","-0.88378906","-0.12011719","-11.40625","3.5","-2.53125"
"1574876077040","499","0.45507812","-0.8808594","-0.19042969","-11.25","5.8125","-2.0625"
"1574876077233","500","0.48242188","-0.8779297","-0.17089844","-14.46875","3.125","0.4375"
"1574876077233","501","0.46191406","-0.8486328","-0.20019531","-2.8125","3.25","3.5"
"1574876077234","502","0.484375","-0.87109375","-0.171875","-8.375","3.1875","1.25"
"1574876077234","503","0.47265625","-0.8359375","-0.21777344","-9.96875","4.53125","1.5"
"1574876077234","504","0.48242188","-0.8457031","-0.20507812","-4.53125","-3.46875","0.625"
"1574876077235","505","0.43359375","-0.87597656","-0.23144531","-3.0","-1.03125","1.625"
"1574876077236","506","0.4716797","-0.86328125","-0.17675781","1.28125","0.09375","2.65625"
"1574876077236","507","0.4501953","-0.8730469","-0.19726562","-4.46875","-0.90625","0.40625"
"1574876077236","508","0.46679688","-0.8857422","-0.20019531","3.65625","2.21875","3.1875"
"1574876077236","509","0.46191406","-0.85546875","-0.21972656","-0.125","2.09375","3.5"
"1574876077633","510","0.49121094","-0.89453125","-0.18945312","9.40625","2.46875","6.96875"
"1574876077633","511","0.44628906","-0.8671875","-0.17773438","2.0625","0.25","6.5"
"1574876077633","512","0.4658203","-0.89746094","-0.19140625","9.4375","0.5","6.5625"
"1574876077634","513","0.44140625","-0.85839844","-0.18945312","5.1875","-2.375","5.53125"
"1574876077634","514","0.4716797","-0.9121094","-0.15527344","11.84375","-2.46875","7.65625"
"1574876077634","515","0.34277344","-0.8808594","-0.14160156","-7.9375","-3.53125","1.96875"
"1574876077634","516","0.44335938","-0.9033203","-0.20703125","-0.0625","12.46875","4.3125"
"1574876077636","517","0.4453125","-0.8623047","-0.21289062","2.96875","6.1875","4.59375"
"1574876077636","518","0.45410156","-0.8720703","-0.17675781","10.5625","6.78125","6.25"
"1574876077636","519","0.4765625","-0.87597656","-0.20117188","14.46875","5.6875","7.59375"
"1574876078029","520","0.48828125","-0.8925781","-0.15722656","28.0625","-4.25","8.5"
"1574876078029","521","0.40234375","-0.9472656","-0.02734375","11.21875","-15.78125","4.3125"
"1574876078029","522","0.3515625","-0.92089844","-0.11621094","-3.96875","-9.75","1.1875"
"1574876078030","523","0.41992188","-0.92578125","-0.171875","14.875","-4.5625","4.59375"
"1574876078030","524","0.34277344","-0.9238281","-0.08984375","15.3125","-5.03125","4.0"
"1574876078030","525","0.36035156","-0.91015625","-0.11816406","15.0","6.78125","2.65625"
"1574876078031","526","0.40722656","-0.9267578","-0.08984375","19.28125","15.03125","3.875"
"1574876078031","527","0.40039062","-0.91796875","-0.06542969","15.8125","18.15625","5.21875"
"1574876078031","528","0.40820312","-0.9248047","-0.037109375","6.40625","20.71875","4.59375"
"1574876078033","529","0.41796875","-0.89453125","-0.045898438","5.125","17.15625","4.78125"
"1574876078623","530","0.4169922","-0.91796875","-0.044921875","0.65625","8.4375","3.8125"
"1574876078624","531","0.39746094","-0.90527344","-0.043945312","0.1875","2.53125","4.3125"
"1574876078624","532","0.4033203","-0.8935547","-0.045898438","6.21875","4.21875","2.65625"
"1574876078624","533","0.40527344","-0.90234375","-0.05859375","6.34375","-0.28125","1.78125"
"1574876078624","534","0.4111328","-0.9140625","-0.07324219","8.65625","-3.75","2.28125"
"1574876078625","535","0.3798828","-0.93652344","-0.045898438","3.15625","-1.4375","1.78125"
"1574876078625","536","0.37695312","-0.91308594","-0.038085938","0.0625","4.125","0.875"
"1574876078625","537","0.38085938","-0.9189453","-0.022460938","0.65625","3.625","1.90625"
"1574876078625","538","0.37695312","-0.91796875","-0.0126953125","-4.03125","-0.40625","1.78125"
"1574876078626","539","0.37402344","-0.953125","0.0126953125","-7.40625","-2.125","1.25"
"1574876078824","540","0.34277344","-0.9355469","0.017578125","-2.6875","-5.46875","1.5"
"1574876078825","541","0.34472656","-0.91503906","-0.032226562","4.03125","-2.53125","2.40625"
"1574876078825","542","0.37402344","-0.9316406","-0.026367188","3.09375","4.125","2.65625"
"1574876078826","543","0.3642578","-0.9404297","-0.037109375","-3.375","2.09375","-0.65625"
"1574876078826","544","0.37695312","-0.93066406","-0.0703125","1.15625","3.375","0.34375"
"1574876078826","545","0.36523438","-0.9394531","-0.041992188","-2.9375","4.21875","-0.34375"
"1574876078826","546","0.35839844","-0.93066406","-0.037109375","-2.4375","3.625","-1.125"
"1574876078827","547","0.39160156","-0.9277344","-0.061523438","-4.71875","2.65625","-2.71875"
"1574876078827","548","0.40039062","-0.9238281","-0.05078125","-7.5625","-0.21875","-4.125"
"1574876078827","549","0.38378906","-0.92089844","-0.061523438","-11.84375","-4.0","-5.65625"
"1574876079222","550","0.41503906","-0.9140625","-0.060546875","-10.25","-4.0625","-5.15625"
"1574876079223","551","0.3779297","-0.9140625","-0.048828125","-10.75","-3.65625","-5.09375"
"1574876079223","552","0.40039062","-0.92089844","-0.08105469","-8.8125","-3.53125","-5.03125"
"1574876079225","553","0.40429688","-0.9199219","-0.08984375","-8.84375","-3.8125","-4.90625"
"1574876079225","554","0.39746094","-0.90722656","-0.07519531","-7.40625","-6.3125","-5.28125"
"1574876079225","555","0.41015625","-0.91503906","-0.10253906","-5.4375","-6.21875","-4.96875"
"1574876079226","556","0.4033203","-0.9042969","-0.11230469","-4.34375","-7.71875","-5.90625"
"1574876079226","557","0.40820312","-0.90234375","-0.095703125","-4.90625","-8.15625","-5.28125"
"1574876079226","558","0.37597656","-0.89746094","-0.13671875","-3.5","-5.53125","-5.03125"
"1574876079227","559","0.44335938","-0.9013672","-0.12890625","-0.4375","-1.1875","-3.75"
"1574876079817","560","0.42578125","-0.89941406","-0.12207031","-1.28125","-2.25","-4.0625"
"1574876079818","561","0.40722656","-0.8955078","-0.10058594","-2.03125","-5.03125","-4.0625"
"1574876079818","562","0.41796875","-0.8964844","-0.1015625","-6.96875","-7.1875","-5.15625"
"1574876079818","563","0.40722656","-0.9013672","-0.11328125","-5.875","-5.46875","-4.625"
"1574876079818","564","0.421875","-0.9013672","-0.123046875","-5.625","-6.21875","-4.5625"
"1574876079819","565","0.42773438","-0.9091797","-0.14257812","-4.59375","-3.53125","-5.34375"
"1574876079819","566","0.41992188","-0.9042969","-0.13769531","-3.5","-2.59375","-5.03125"
"1574876079820","567","0.4248047","-0.8769531","-0.14746094","-5.4375","-3.65625","-4.84375"
"1574876079820","568","0.44335938","-0.89160156","-0.15234375","-5.8125","-1.375","-4.25"
"1574876079820","569","0.47070312","-0.88378906","-0.17089844","-1.59375","-3.15625","-2.125"
"1574876080612","570","0.4404297","-0.88378906","-0.171875","3.53125","-4.3125","-1.125"
"1574876080612","571","0.46679688","-0.87890625","-0.18847656","16.78125","-3.28125","3.125"
"1574876080613","572","0.4453125","-0.9121094","-0.13574219","14.28125","-4.0","4.96875"
"1574876080613","573","0.36816406","-0.93066406","-0.11328125","4.03125","-7.59375","0.5"
"1574876080613","574","0.4423828","-0.8808594","-0.099609375","-8.75","-1.1875","0.40625"
"1574876080613","575","0.41210938","-0.90722656","-0.12402344","-8.6875","-0.21875","-0.46875"
"1574876080614","576","0.43652344","-0.8779297","-0.15136719","-4.40625","1.0625","0.09375"
"1574876080615","577","0.44335938","-0.8857422","-0.13574219","-1.21875","1.1875","-0.71875"
"1574876080615","578","0.42089844","-0.890625","-0.14355469","0.3125","-2.0","-1.4375"
"1574876080616","579","0.43359375","-0.9013672","-0.12890625","0.40625","-3.6875","-1.0"
"1574876080808","580","0.4501953","-0.9003906","-0.13769531","2.96875","0.21875","-0.59375"
"1574876080809","581","0.43164062","-0.8935547","-0.13183594","0.0","-2.84375","1.78125"
"1574876080811","582","0.41308594","-0.8876953","-0.14550781","-1.15625","-6.375","-2.125"
"1574876080811","583","0.42089844","-0.8984375","-0.16113281","-2.03125","-1.4375","-2.65625"
"1574876080811","584","0.45898438","-0.8857422","-0.1640625","-0.625","2.09375","-0.15625"
"1574876080812","585","0.43359375","-0.87402344","-0.15136719","-0.5","-1.1875","1.1875"
"1574876080812","586","0.45214844","-0.9121094","-0.14550781","5.90625","-0.71875","0.8125"
"1574876080812","587","0.4267578","-0.8847656","-0.16308594","3.53125","1.0","0.15625"
"1574876080813","588","0.45898438","-0.8886719","-0.14257812","5.3125","-2.53125","-1.0625"
"1574876080813","589","0.42773438","-0.89160156","-0.14648438","3.96875","-3.9375","-1.3125"
"1574876081604","590","0.40820312","-0.88378906","-0.12988281","-1.59375","5.09375","-5.65625"
"1574876081604","591","0.42578125","-0.89746094","-0.115234375","-0.4375","12.21875","-5.09375"
"1574876081605","592","0.4140625","-0.8876953","-0.12695312","-1.59375","8.625","-6.25"
"1574876081605","593","0.49023438","-0.89941406","-0.14550781","-2.03125","7.46875","-3.625"
"1574876081605","594","0.47851562","-0.86328125","-0.119140625","-2.875","3.75","-2.53125"
"1574876081606","595","0.45117188","-0.8779297","-0.119140625","-4.9375","-3.21875","-2.53125"
"1574876081606","596","0.45898438","-0.89941406","-0.13574219","-0.1875","-3.21875","-1.4375"
"1574876081606","597","0.41503906","-0.89453125","-0.12792969","-3.78125","-3.9375","-1.25"
"1574876081606","598","0.44628906","-0.9033203","-0.14160156","-2.875","-1.5625","0.5"
"1574876081607","599","0.42578125","-0.8691406","-0.15429688","-8.375","-0.71875","1.625"
"1574876082002","600","0.47558594","-0.90625","-0.17480469","2.0","1.90625","2.28125"
"1574876082004","601","0.41601562","-0.8652344","-0.15917969","-0.5","1.0625","2.59375"
"1574876082005","602","0.46484375","-0.88378906","-0.15332031","-2.8125","-1.375","2.71875"
"1574876082005","603","0.41308594","-0.88671875","-0.13867188","-1.65625","2.65625","3.375"
"1574876082005","604","0.5126953","-0.8496094","-0.21972656","4.25","4.0","4.59375"
"1574876082006","605","0.45117188","-0.875","-0.13476562","12.875","1.5","5.75"
"1574876082006","606","0.47851562","-0.8798828","-0.13476562","12.125","-2.125","6.90625"
"1574876082006","607","0.41601562","-0.88964844","-0.10449219","7.8125","-5.40625","5.40625"
"1574876082006","608","0.44335938","-0.88183594","-0.14453125","9.21875","-3.15625","7.09375"
"1574876082007","609","0.3876953","-0.90722656","-0.111328125","9.03125","-4.0","7.71875"
"1574876082199","610","0.3828125","-0.92871094","-0.087890625","13.46875","2.46875","6.5"
"1574876082200","611","0.38671875","-0.89941406","-0.080078125","1.40625","7.21875","5.40625"
"1574876082200","612","0.42871094","-0.9189453","-0.10449219","4.15625","11.0625","5.875"
"1574876082200","613","0.4423828","-0.9091797","-0.095703125","5.4375","12.03125","7.28125"
"1574876082201","614","0.3955078","-0.8955078","-0.1015625","4.25","8.5","6.5"
"1574876082201","615","0.4169922","-0.9277344","-0.08691406","1.59375","5.34375","5.03125"
"1574876082201","616","0.41503906","-0.91503906","-0.08984375","4.5","4.59375","3.875"
"1574876082202","617","0.36816406","-0.9355469","-0.04296875","-3.5625","4.40625","2.03125"
"1574876082202","618","0.39648438","-0.8955078","-0.09863281","2.1875","9.1875","2.34375"
"1574876082202","619","0.37695312","-0.9248047","-0.045898438","-1.09375","4.21875","2.40625"
"1574876082598","620","0.39648438","-0.8964844","-0.08886719","3.71875","10.65625","2.28125"
"1574876082598","621","0.43652344","-0.9238281","-0.06738281","6.53125","5.75","3.5625"
"1574876082599","622","0.37597656","-0.9169922","-0.047851562","1.09375","-1.125","1.78125"
"1574876082599","623","0.3935547","-0.9316406","-0.049804688","3.46875","-2.125","2.84375"
"1574876082601","624","0.36914062","-0.9091797","-0.059570312","1.21875","-0.21875","3.125"
"1574876082602","625","0.3779297","-0.9160156","-0.06347656","6.65625","1.375","5.46875"
"1574876082603","626","0.37109375","-0.9277344","-0.06347656","6.21875","3.5625","7.09375"
"1574876082603","627","0.38671875","-0.9121094","-0.0546875","4.9375","6.0","6.875"
"1574876082604","628","0.36914062","-0.9394531","-0.043945312","7.1875","6.0625","8.15625"
"1574876082605","629","0.3515625","-0.9189453","-0.022460938","8.90625","6.1875","7.15625"
"1574876082605","630","0.35253906","-0.9375","-0.0048828125","6.8125","5.28125","7.40625"
"1574876082606","631","0.34472656","-0.9423828","-0.009765625","8.59375","4.71875","6.90625"
"1574876082606","632","0.35058594","-0.93359375","-0.0126953125","7.0","6.5","6.25"
"1574876082606","633","0.34277344","-0.94433594","-9.765625E-4","2.625","3.875","4.59375"
"1574876082606","634","0.3388672","-0.9501953","0.001953125","3.71875","1.84375","3.75"
"1574876082607","635","0.3564453","-0.9589844","-0.01953125","1.6875","1.125","2.71875"
"1574876082607","636","0.359375","-0.9433594","-0.018554688","-1.09375","-1.03125","1.0"
"1574876082607","637","0.34179688","-0.9501953","-0.03125","-0.375","-3.65625","-0.59375"
"1574876082607","638","0.3515625","-0.9501953","-0.02734375","0.0","-3.21875","-1.3125"
"1574876082608","639","0.35058594","-0.9345703","-0.017578125","-2.09375","-4.0","-3.09375"
"1574876082798","640","0.359375","-0.9394531","-0.024414062","-7.28125","-4.125","-3.09375"
"1574876082798","641","0.34765625","-0.9550781","-0.02734375","-3.90625","-5.84375","-4.5625"
"1574876082799","642","0.3408203","-0.94433594","-0.021484375","-11.84375","-6.9375","-6.1875"
"1574876082799","643","0.3486328","-0.953125","-0.024414062","-8.5625","-7.5","-9.9375"
"1574876082799","644","0.3486328","-0.921875","-0.025390625","-7.5","-7.375","-8.28125"
"1574876082800","645","0.3720703","-0.9199219","-0.021484375","-5.0","-5.71875","-8.65625"
"1574876082800","646","0.375","-0.9277344","-0.07128906","0.90625","-5.34375","-8.09375"
"1574876082800","647","0.38085938","-0.92089844","-0.048828125","3.03125","-8.59375","-6.9375"
"1574876082801","648","0.3564453","-0.9140625","-0.059570312","-6.59375","-7.59375","-8.28125"
"1574876082801","649","0.39160156","-0.92285156","-0.072265625","-6.84375","-3.875","-7.46875"
"1574876083791","650","0.39160156","-0.91308594","-0.048828125","-4.84375","-5.40625","-7.1875"
"1574876083792","651","0.39453125","-0.9189453","-0.064453125","-4.59375","-4.0","-10.0"
"1574876083792","652","0.40527344","-0.9121094","-0.07421875","-6.84375","-3.75","-9.8125"
"1574876083792","653","0.40234375","-0.8955078","-0.08496094","-8.6875","-6.09375","-9.5"
"1574876083792","654","0.43164062","-0.91308594","-0.060546875","-5.3125","-6.8125","-7.53125"
"1574876083793","655","0.3515625","-0.8935547","-0.041992188","-8.96875","-11.46875","-7.375"
"1574876083793","656","0.39453125","-0.89941406","-0.11035156","-11.3125","-0.90625","-6.1875"
"1574876083793","657","0.41210938","-0.91015625","-0.11328125","-7.8125","0.03125","-5.71875"
"1574876083793","658","0.42578125","-0.8955078","-0.13867188","-6.53125","0.3125","-4.6875"
"1574876083794","659","0.42382812","-0.8769531","-0.12988281","-6.0625","2.84375","-4.0"
"1574876083795","660","0.453125","-0.8779297","-0.13085938","-8.3125","1.0625","-2.40625"
"1574876083797","661","0.44335938","-0.89746094","-0.13671875","-6.0625","-0.84375","-3.5"
"1574876083797","662","0.4296875","-0.87402344","-0.13476562","-9.40625","-0.59375","-3.5625"
"1574876083797","663","0.4951172","-0.8828125","-0.16503906","-3.90625","-3.59375","-2.46875"
"1574876083798","664","0.46289062","-0.8828125","-0.16699219","-2.625","-10.34375","-3.5625"
"1574876083798","665","0.4404297","-0.8652344","-0.19335938","-1.71875","-7.96875","-2.46875"
"1574876083798","666","0.47070312","-0.8730469","-0.16015625","2.90625","-9.3125","-3.03125"
"1574876083799","667","0.44433594","-0.8876953","-0.140625","6.46875","-7.78125","-2.46875"
"1574876083799","668","0.4453125","-0.88964844","-0.14453125","4.9375","-3.65625","-3.6875"
"1574876083799","669","0.41796875","-0.89160156","-0.13964844","0.0625","-4.5","-2.84375"
"1574876083990","670","0.44921875","-0.88183594","-0.140625","3.53125","-0.40625","-1.8125"
"1574876083991","671","0.44726562","-0.8925781","-0.14355469","0.65625","0.75","-2.0625"
"1574876083991","672","0.45996094","-0.87109375","-0.15917969","3.71875","-0.65625","-1.1875"
"1574876083992","673","0.4453125","-0.89453125","-0.13183594","4.5","-2.125","-1.8125"
"1574876083992","674","0.4423828","-0.86621094","-0.13769531","2.1875","0.21875","-2.1875"
"1574876083992","675","0.4638672","-0.8964844","-0.13183594","8.125","0.4375","-1.75"
"1574876083993","676","0.45703125","-0.88378906","-0.12988281","9.21875","-0.34375","-0.34375"
"1574876083993","677","0.4453125","-0.8779297","-0.115234375","2.6875","0.375","-0.59375"
"1574876083993","678","0.4638672","-0.8847656","-0.12402344","3.53125","-0.71875","-0.09375"
"1574876083993","679","0.4609375","-0.88378906","-0.12597656","0.90625","-0.15625","-0.15625"
"1574876084389","680","0.45214844","-0.8701172","-0.14160156","5.125","1.125","-0.21875"
"1574876084390","681","0.46289062","-0.8886719","-0.11230469","8.96875","-3.53125","-0.53125"
"1574876084390","682","0.4423828","-0.85839844","-0.0859375","-4.09375","-5.84375","-3.15625"
"1574876084390","683","0.4814453","-0.9033203","-0.09667969","-2.9375","-9.5","-3.46875"
"1574876084390","684","0.43359375","-0.8984375","-0.115234375","-1.40625","-10.0625","-2.0625"
"1574876084392","685","0.43164062","-0.88183594","-0.115234375","-3.5625","-4.96875","-1.25"
"1574876084392","686","0.45703125","-0.8857422","-0.12890625","-1.84375","-1.8125","-0.65625"
"1574876084392","687","0.43652344","-0.8642578","-0.12792969","-3.96875","-0.34375","-1.375"
"1574876084392","688","0.4658203","-0.88964844","-0.13574219","-2.9375","0.9375","-0.9375"
"1574876084393","689","0.4658203","-0.8876953","-0.1328125","-3.90625","-0.53125","0.5625"
"1574876084985","690","0.4423828","-0.8828125","-0.11328125","-5.625","0.5","0.6875"
"1574876084986","691","0.48046875","-0.8925781","-0.14941406","1.34375","3.25","-0.65625"
"1574876084986","692","0.44921875","-0.88671875","-0.1171875","-1.46875","0.375","0.40625"
"1574876084986","693","0.46972656","-0.8798828","-0.15234375","0.3125","2.46875","1.1875"
"1574876084986","694","0.45214844","-0.8847656","-0.13183594","-4.09375","-2.125","2.96875"
"1574876084987","695","0.4609375","-0.87597656","-0.16015625","-8.0","-1.75","0.5625"
"1574876084987","696","0.48535156","-0.8769531","-0.16601562","-1.53125","0.5625","0.6875"
"1574876084988","697","0.47070312","-0.87890625","-0.17480469","0.3125","0.09375","-0.71875"
"1574876084989","698","0.4501953","-0.88183594","-0.14648438","-2.9375","0.21875","0.40625"
"1574876084989","699","0.4814453","-0.87890625","-0.171875","4.15625","-0.46875","0.8125"
"1574876085184","700","0.4482422","-0.8964844","-0.16503906","0.59375","-0.78125","1.4375"
"1574876085184","701","0.4638672","-0.9199219","-0.12695312","4.5625","1.4375","1.90625"
"1574876085184","702","0.42285156","-0.8876953","-0.14941406","-5.4375","-4.375","-0.15625"
"1574876085185","703","0.46191406","-0.88183594","-0.15332031","4.15625","3.875","1.0625"
"1574876085185","704","0.4765625","-0.88378906","-0.16210938","4.03125","2.84375","2.65625"
"1574876085185","705","0.4560547","-0.8691406","-0.14648438","10.78125","0.03125","2.78125"
"1574876085185","706","0.4296875","-0.8720703","-0.14355469","1.21875","-0.84375","0.625"
"1574876085186","707","0.5019531","-0.86035156","-0.16210938","10.5625","0.6875","3.5"
"1574876085186","708","0.42382812","-0.8779297","-0.13964844","9.40625","-2.125","4.1875"
"1574876085187","709","0.4296875","-0.8857422","-0.123046875","10.1875","-1.03125","4.65625"
"1574876085976","710","0.45507812","-0.88183594","-0.13378906","10.1875","5.5","4.78125"
"1574876085977","711","0.4169922","-0.8964844","-0.07910156","8.78125","-4.6875","6.1875"
"1574876085977","712","0.41503906","-0.8847656","-0.11328125","5.4375","4.0","3.0"
"1574876085977","713","0.49609375","-0.9091797","-0.11035156","7.375","3.625","6.3125"
"1574876085978","714","0.3955078","-0.8847656","-0.1015625","11.21875","-4.0625","3.5625"
"1574876085978","715","0.41503906","-0.9345703","-0.08105469","6.59375","0.09375","0.21875"
"1574876085978","716","0.4033203","-0.90234375","-0.0859375","-0.875","1.375","3.5"
"1574876085979","717","0.40234375","-0.91308594","-0.05859375","0.34375","5.34375","4.0"
"1574876085979","718","0.38964844","-0.92578125","-0.07714844","-2.21875","5.625","4.46875"
"1574876085979","719","0.40527344","-0.90722656","-0.10839844","2.4375","12.34375","5.21875"
"1574876086176","720","0.42089844","-0.92089844","-0.06640625","-3.78125","10.875","5.40625"
"1574876086178","721","0.40039062","-0.92285156","-0.08105469","-1.28125","7.84375","2.84375"
"1574876086178","722","0.42285156","-0.8876953","-0.07714844","-1.65625","9.46875","3.0625"
"1574876086179","723","0.4482422","-0.9091797","-0.052734375","1.6875","4.0","3.875"
"1574876086179","724","0.39453125","-0.89941406","-0.056640625","-5.375","0.625","2.03125"
"1574876086179","725","0.41308594","-0.9169922","-0.07128906","-2.5625","2.65625","2.65625"
"1574876086179","726","0.3955078","-0.8935547","-0.0625","7.125","2.71875","4.25"
"1574876086180","727","0.38867188","-0.8964844","0.005859375","30.9375","6.78125","6.5625"
"1574876086180","728","0.37890625","-0.93652344","-0.03125","41.5","0.875","9.96875"
"1574876086180","729","0.4140625","-0.93359375","-0.08203125","25.25","-1.9375","11.6875"
"1574876086377","730","0.3828125","-0.91503906","-0.005859375","14.53125","-2.46875","9.25"
"1574876086377","731","0.37109375","-0.9453125","-0.018554688","9.28125","1.53125","7.53125"
"1574876086377","732","0.37890625","-0.92285156","-0.030273438","-1.15625","8.875","3.0"
"1574876086379","733","0.37304688","-0.91503906","0.040039062","4.15625","2.21875","5.40625"
"1574876086379","734","0.3828125","-0.9580078","0.01953125","2.90625","0.8125","2.53125"
"1574876086379","735","0.35546875","-0.9394531","0.028320312","3.40625","-3.03125","1.125"
"1574876086379","736","0.3564453","-0.9199219","0.017578125","-1.34375","-2.96875","1.125"
"1574876086380","737","0.36621094","-0.9472656","0.0107421875","-5.3125","-2.0","0.09375"
"1574876086380","738","0.359375","-0.9433594","0.005859375","-6.21875","-1.625","-0.9375"
"1574876086380","739","0.36035156","-0.9326172","-0.0048828125","-9.15625","-1.8125","-2.40625"
"1574876086773","740","0.37402344","-0.94140625","-0.0087890625","-12.75","-2.78125","-4.1875"
"1574876086774","741","0.35839844","-0.92871094","-0.024414062","-16.3125","-4.5","-6.5"
"1574876086774","742","0.3955078","-0.9199219","-0.024414062","-16.0625","-2.96875","-6.625"
"1574876086774","743","0.38671875","-0.9423828","-0.056640625","-10.625","-6.375","-8.53125"
"1574876086775","744","0.38867188","-0.9169922","-0.049804688","-18.4375","-8.21875","-8.21875"
"1574876086779","745","0.39648438","-0.91796875","-0.06640625","-21.125","-7.59375","-11.375"
"1574876086779","746","0.41015625","-0.89746094","-0.095703125","-22.03125","-6.8125","-11.4375"
"1574876086779","747","0.40527344","-0.91503906","-0.11035156","-19.0","-6.28125","-10.65625"
"1574876086780","748","0.4091797","-0.90234375","-0.14453125","-16.0625","-3.40625","-10.28125"
"1574876086780","749","0.4267578","-0.9033203","-0.12890625","-11.125","-1.5625","-10.09375"
"1574876087173","750","0.42382812","-0.8769531","-0.13476562","-9.96875","-2.0","-10.03125"
"1574876087174","751","0.45117188","-0.8828125","-0.15039062","-9.21875","-1.3125","-7.375"
"1574876087174","752","0.4375","-0.8769531","-0.16113281","-5.625","-3.34375","-7.25"
"1574876087174","753","0.4501953","-0.8730469","-0.15722656","-0.8125","-3.53125","-7.78125"
"1574876087174","754","0.44433594","-0.9033203","-0.14746094","-3.125","-7.59375","-7.40625"
"1574876087175","755","0.45214844","-0.88378906","-0.12890625","0.0625","-4.9375","-5.15625"
"1574876087175","756","0.41992188","-0.8730469","-0.14453125","-4.15625","-4.0","-8.8125"
"1574876087176","757","0.44726562","-0.875","-0.14648438","3.46875","-2.96875","-4.0625"
"1574876087177","758","0.47753906","-0.87109375","-0.15332031","-1.09375","-2.53125","-5.96875"
"1574876087177","759","0.45703125","-0.89453125","-0.14746094","4.3125","-7.25","-4.3125"
"1574876087962","760","0.4580078","-0.87109375","-0.13671875","-0.5","-4.125","-4.8125"
"1574876087962","761","0.43847656","-0.8798828","-0.1328125","0.59375","-4.3125","-5.03125"
"1574876087963","762","0.47070312","-0.87890625","-0.15820312","0.3125","1.78125","-3.5625"
"1574876087963","763","0.4609375","-0.8701172","-0.14453125","1.34375","-0.40625","-3.75"
"1574876087963","764","0.47558594","-0.88183594","-0.15234375","-1.65625","-0.40625","-2.46875"
"1574876087963","765","0.46679688","-0.86328125","-0.13867188","-1.21875","-3.8125","-2.0"
"1574876087964","766","0.46484375","-0.85839844","-0.16699219","-5.375","-1.75","-2.46875"
"1574876087964","767","0.47558594","-0.88183594","-0.15722656","-3.125","-3.59375","-0.9375"
"1574876087964","768","0.45703125","-0.8691406","-0.17285156","-5.75","-2.3125","-2.125"
"1574876087966","769","0.47070312","-0.8574219","-0.15625","-4.34375","-1.625","-1.125"
"1574876088165","770","0.47558594","-0.87890625","-0.16308594","-3.65625","-1.5625","-1.875"
"1574876088165","771","0.46777344","-0.8691406","-0.1796875","-4.9375","-0.71875","-2.34375"
"1574876088165","772","0.48828125","-0.85253906","-0.171875","-0.1875","-0.40625","-0.03125"
"1574876088166","773","0.4580078","-0.8339844","-0.16601562","3.09375","-0.46875","0.40625"
"1574876088166","774","0.4765625","-0.8720703","-0.16796875","-3.0","0.875","-0.9375"
"1574876088166","775","0.49023438","-0.8701172","-0.18359375","-1.46875","1.1875","-0.9375"
"1574876088166","776","0.46777344","-0.8671875","-0.1640625","-4.09375","-1.5","-1.625"
"1574876088167","777","0.48535156","-0.8544922","-0.17773438","-1.78125","-0.71875","-1.25"
"1574876088167","778","0.49414062","-0.8564453","-0.19433594","-0.6875","-3.875","-1.375"
"1574876088167","779","0.4765625","-0.8564453","-0.16699219","-2.28125","-4.625","-0.84375"
"1574876088363","780","0.48339844","-0.85839844","-0.18457031","0.34375","-3.09375","-0.28125"
"1574876088364","781","0.46875","-0.8701172","-0.171875","-1.65625","-5.46875","-0.65625"
"1574876088365","782","0.4794922","-0.85546875","-0.18652344","3.90625","-4.96875","0.5625"
"1574876088365","783","0.4716797","-0.86816406","-0.16210938","-7.5625","-5.34375","-0.59375"
"1574876088365","784","0.47265625","-0.8701172","-0.18457031","2.75","-3.15625","-0.53125"
"1574876088366","785","0.47753906","-0.86816406","-0.20898438","-2.15625","-4.0625","-0.78125"
"1574876088366","786","0.4658203","-0.85058594","-0.19140625","-2.375","-2.1875","0.21875"
"1574876088366","787","0.4814453","-0.86816406","-0.18847656","-10.5625","1.0625","-1.5"
"1574876088366","788","0.4794922","-0.8623047","-0.20898438","3.40625","-0.03125","-1.75"
"1574876088367","789","0.44140625","-0.8701172","-0.18457031","-11.46875","1.53125","1.5625"
"1574876088762","790","0.5078125","-0.85058594","-0.20898438","4.8125","1.84375","2.28125"
"1574876088762","791","0.46777344","-0.8613281","-0.18066406","1.53125","-1.6875","3.3125"
"1574876088763","792","0.4921875","-0.8544922","-0.21972656","6.59375","4.71875","6.0"
"1574876088764","793","0.47558594","-0.83496094","-0.20117188","12.3125","1.25","5.46875"
"1574876088764","794","0.4580078","-0.8798828","-0.2109375","9.03125","1.4375","6.5625"
"1574876088765","795","0.49414062","-0.8720703","-0.17675781","8.46875","1.4375","6.5625"
"1574876088765","796","0.4375","-0.8623047","-0.1953125","13.65625","0.5625","5.34375"
"1574876088765","797","0.48242188","-0.9033203","-0.1796875","13.71875","0.5","7.78125"
"1574876088765","798","0.4453125","-0.85839844","-0.1171875","12.6875","-3.46875","8.375"
"1574876088766","799","0.40820312","-0.90625","-0.15722656","12.875","0.03125","4.0625"
"1574876089554","800","0.44140625","-0.85839844","-0.14648438","9.15625","2.65625","2.96875"
"1574876089555","801","0.4921875","-0.8652344","-0.13867188","17.9375","1.53125","9.375"
"1574876089555","802","0.40429688","-0.8876953","-0.14550781","17.5625","0.09375","5.09375"
"1574876089555","803","0.43945312","-0.90625","-0.1171875","8.96875","5.34375","6.3125"
"1574876089555","804","0.44140625","-0.9140625","-0.10839844","7.9375","5.03125","6.25"
"1574876089557","805","0.3828125","-0.92089844","-0.083984375","1.875","4.84375","3.0"
"1574876089557","806","0.421875","-0.89941406","-0.08300781","0.0625","6.90625","3.4375"
"1574876089558","807","0.4111328","-0.90625","-0.1015625","-1.28125","5.15625","2.03125"
"1574876089558","808","0.42089844","-0.91503906","-0.09863281","2.0625","4.125","1.78125"
"1574876089558","809","0.39746094","-0.93359375","-0.08203125","2.4375","8.875","1.84375"
"1574876089950","810","0.4296875","-0.8623047","-0.08496094","2.6875","10.15625","4.1875"
"1574876089951","811","0.43359375","-0.8876953","-0.07421875","4.21875","7.15625","6.3125"
"1574876089951","812","0.421875","-0.890625","-0.109375","5.84375","8.1875","6.375"
"1574876089951","813","0.4091797","-0.9511719","-0.08203125","-2.09375","11.6875","4.125"
"1574876089952","814","0.41308594","-0.90625","-0.064453125","-0.9375","14.65625","3.875"
"1574876089952","815","0.390625","-0.89453125","-0.064453125","1.15625","13.3125","4.1875"
"1574876089953","816","0.41308594","-0.8984375","-0.046875","1.53125","13.3125","2.84375"
"1574876089954","817","0.41308594","-0.9345703","-0.045898438","1.40625","11.875","0.625"
"1574876089955","818","0.39941406","-0.921875","-0.06542969","5.84375","12.15625","0.8125"
"1574876089955","819","0.4013672","-0.90234375","-0.03515625","5.53125","4.71875","0.09375"
"1574876089955","820","0.40527344","-0.890625","-0.026367188","7.875","-1.5625","0.8125"
"1574876089956","821","0.41308594","-0.9277344","-0.049804688","6.59375","-2.1875","0.21875"
"1574876089956","822","0.40820312","-0.921875","-0.029296875","2.25","-0.28125","0.28125"
"1574876089956","823","0.40722656","-0.92089844","-0.044921875","-1.59375","-1.5","-0.34375"
"1574876089956","824","0.39257812","-0.9121094","-0.06542969","-6.78125","-0.40625","-0.53125"
"1574876089957","825","0.42382812","-0.9316406","-0.072265625","-7.625","2.65625","-2.21875"
"1574876089957","826","0.40722656","-0.92089844","-0.020507812","-6.40625","-7.125","-3.15625"
"1574876089957","827","0.3876953","-0.9013672","-0.043945312","-6.78125","-4.9375","-4.0625"
"1574876089957","828","0.40820312","-0.9199219","-0.06347656","-6.78125","-2.65625","-5.15625"
"1574876089958","829","0.3984375","-0.91796875","-0.049804688","-6.78125","-5.78125","-4.8125"
"1574876090351","830","0.41210938","-0.90625","-0.044921875","-12.21875","-8.53125","-3.5625"
"1574876090351","831","0.40820312","-0.90625","-0.09667969","-10.4375","-3.9375","-6.09375"
"1574876090352","832","0.43359375","-0.90625","-0.08886719","-7.8125","-4.9375","-4.375"
"1574876090352","833","0.421875","-0.89941406","-0.09375","-14.03125","-6.75","-5.21875"
"1574876090352","834","0.44335938","-0.890625","-0.14648438","-7.40625","-5.09375","-4.6875"
"1574876090352","835","0.4375","-0.8779297","-0.125","-3.96875","-11.28125","-4.1875"
"1574876090353","836","0.41308594","-0.8886719","-0.13574219","-3.5","-8.71875","-4.1875"
"1574876090353","837","0.42285156","-0.8984375","-0.12695312","-2.28125","-7.25","-3.09375"
"1574876090353","838","0.41015625","-0.8886719","-0.12011719","-7.875","-5.15625","-4.4375"
"1574876090353","839","0.4375","-0.89746094","-0.1328125","-11.1875","-2.78125","-4.84375"
"1574876090750","840","0.42871094","-0.8857422","-0.14257812","-15.15625","-3.40625","-5.03125"
"1574876090752","841","0.4482422","-0.8935547","-0.15039062","-11.0","-0.34375","-5.09375"
"1574876090752","842","0.4375","-0.8701172","-0.16210938","-6.65625","-3.34375","-5.40625"
"1574876090753","843","0.44335938","-0.88183594","-0.16015625","-7.9375","-3.875","-3.875"
"1574876090753","844","0.44726562","-0.87597656","-0.171875","-7.5","-4.625","-4.75"
"1574876090753","845","0.46191406","-0.8808594","-0.18164062","-4.15625","-5.46875","-3.5"
"1574876090754","846","0.43652344","-0.859375","-0.18261719","-7.15625","-4.4375","-4.5"
"1574876090754","847","0.46484375","-0.8720703","-0.18945312","-5.625","-2.46875","-3.46875"
"1574876090754","848","0.4404297","-0.8701172","-0.18652344","-8.75","-3.40625","-5.40625"
"1574876090754","849","0.46289062","-0.8535156","-0.21777344","-10.09375","-1.1875","-5.90625"
"1574876091146","850","0.4716797","-0.86621094","-0.2109375","-5.1875","-1.8125","-5.40625"
"1574876091146","851","0.46679688","-0.8652344","-0.20605469","-2.09375","-3.59375","-4.6875"
"1574876091147","852","0.47851562","-0.8515625","-0.20996094","-5.9375","-2.65625","-7.0"
"1574876091148","853","0.46777344","-0.8642578","-0.19042969","-6.84375","-9.5625","-5.46875"
"1574876091149","854","0.46289062","-0.84375","-0.22167969","-10.8125","-5.46875","-6.03125"
"1574876091149","855","0.51171875","-0.8496094","-0.25390625","3.59375","-1.6875","-5.03125"
"1574876091149","856","0.4580078","-0.8720703","-0.23144531","3.71875","-4.5625","-2.40625"
"1574876091149","857","0.4970703","-0.84277344","-0.22363281","4.75","-2.3125","-0.78125"
"1574876091150","858","0.4892578","-0.83984375","-0.23144531","3.71875","-4.3125","-0.40625"
"1574876091151","859","0.49023438","-0.8642578","-0.23730469","4.21875","-4.0625","1.84375"
"1574876091544","860","0.46191406","-0.8515625","-0.23535156","5.125","-4.25","0.8125"
"1574876091545","861","0.5019531","-0.8623047","-0.23730469","9.34375","-2.90625","0.4375"
"1574876091545","862","0.46484375","-0.85253906","-0.20117188","3.53125","-5.09375","0.5625"
"1574876091545","863","0.49316406","-0.859375","-0.21679688","3.21875","-2.40625","0.5625"
"1574876091545","864","0.46972656","-0.86621094","-0.22851562","2.1875","-3.28125","0.15625"
"1574876091549","865","0.46679688","-0.87402344","-0.21875","1.40625","-1.25","0.5"
"1574876091549","866","0.4736328","-0.86035156","-0.22265625","-2.15625","-1.1875","-1.125"
"1574876091550","867","0.48046875","-0.8691406","-0.21972656","-4.21875","0.09375","-0.90625"
"1574876091550","868","0.46777344","-0.8564453","-0.20117188","-2.21875","-2.125","-0.78125"
"1574876091550","869","0.44628906","-0.82714844","-0.20214844","-3.0","0.5625","-2.21875"
"1574876091945","870","0.49316406","-0.86035156","-0.22363281","8.34375","2.53125","-2.71875"
"1574876091945","871","0.50683594","-0.87402344","-0.21875","6.15625","3.125","0.40625"
"1574876091945","872","0.50097656","-0.8330078","-0.20800781","8.71875","4.34375","3.3125"
"1574876091946","873","0.50683594","-0.85253906","-0.20703125","5.90625","1.125","3.9375"
"1574876091946","874","0.45898438","-0.8613281","-0.19726562","7.8125","-3.9375","2.53125"
"1574876091946","875","0.45898438","-0.8779297","-0.19042969","7.5","1.1875","0.03125"
"1574876091946","876","0.47558594","-0.859375","-0.18554688","6.875","1.0","-0.65625"
"1574876091948","877","0.47265625","-0.8652344","-0.18261719","4.875","2.59375","-0.46875"
"1574876091948","878","0.48632812","-0.85546875","-0.19433594","5.53125","2.34375","-1.6875"
"1574876091948","879","0.4814453","-0.86816406","-0.16308594","7.0625","4.40625","-1.3125"
"1574876092339","880","0.4658203","-0.8779297","-0.17089844","0.125","2.53125","-3.75"
"1574876092340","881","0.47753906","-0.86621094","-0.15234375","-4.40625","3.75","-3.5"
"1574876092340","882","0.5029297","-0.8564453","-0.18164062","3.53125","1.71875","-0.84375"
"1574876092340","883","0.5019531","-0.8339844","-0.20800781","3.65625","-1.25","0.6875"
"1574876092340","884","0.5332031","-0.85546875","-0.14941406","15.0625","-12.1875","7.84375"
"1574876092341","885","0.46191406","-0.8544922","-0.16210938","3.40625","-10.125","4.125"
"1574876092341","886","0.484375","-0.88964844","-0.13964844","11.65625","-6.5625","0.4375"
"1574876092341","887","0.45117188","-0.8701172","-0.15429688","4.8125","-3.15625","1.96875"
"1574876092342","888","0.42578125","-0.9013672","-0.13964844","5.71875","-1.125","0.4375"
"1574876092343","889","0.4501953","-0.84375","-0.14160156","-5.6875","6.3125","0.8125"
"1574876092736","890","0.4658203","-0.8808594","-0.14550781","2.96875","2.78125","3.25"
"1574876092737","891","0.453125","-0.84277344","-0.16308594","-6.84375","3.75","4.0625"
"1574876092737","892","0.4970703","-0.88671875","-0.14355469","4.75","2.34375","7.96875"
"1574876092737","893","0.4169922","-0.8515625","-0.13867188","-3.90625","-0.90625","7.65625"
"1574876092738","894","0.49414062","-0.88964844","-0.15625","-0.5","0.6875","8.375"
"1574876092738","895","0.42089844","-0.87109375","-0.16113281","-0.3125","-2.84375","8.75"
"1574876092738","896","0.4501953","-0.8828125","-0.18652344","14.03125","1.84375","9.0"
"1574876092738","897","0.4580078","-0.90234375","-0.15234375","14.875","-1.1875","11.75"
"1574876092739","898","0.4267578","-0.8964844","-0.11621094","20.0","-4.3125","10.9375"
"1574876092739","899","0.390625","-0.9345703","-0.07128906","8.46875","-2.40625","4.40625"
"1574876093333","900","0.38867188","-0.91308594","-0.12011719","0.0","5.09375","3.6875"
"1574876093334","901","0.40625","-0.9033203","-0.12207031","5.71875","4.78125","3.5"
"1574876093334","902","0.4248047","-0.8671875","-0.13769531","9.625","5.21875","6.5"
"1574876093334","903","0.42382812","-0.91503906","-0.10644531","10.625","6.5","6.5625"
"1574876093334","904","0.37304688","-0.9248047","-0.068359375","3.53125","8.0625","4.53125"
"1574876093335","905","0.4267578","-0.9091797","-0.099609375","4.5625","14.1875","6.0"
"1574876093335","906","0.4248047","-0.92089844","-0.056640625","5.1875","7.53125","5.03125"
"1574876093335","907","0.375","-0.95214844","-0.053710938","0.84375","6.6875","3.3125"
"1574876093335","908","0.40429688","-0.9013672","-0.064453125","-1.34375","8.5625","2.90625"
"1574876093336","909","0.4169922","-0.91503906","-0.057617188","2.4375","3.4375","4.25"
"1574876093927","910","0.4111328","-0.9140625","-0.06542969","4.625","-2.375","3.0625"
"1574876093927","911","0.39648438","-0.90625","-0.061523438","6.34375","-5.15625","2.34375"
"1574876093928","912","0.40527344","-0.90527344","-0.078125","7.25","-7.375","2.78125"
"1574876093929","913","0.4404297","-0.91796875","-0.047851562","2.90625","-9.0625","3.1875"
"1574876093929","914","0.36816406","-0.9248047","-0.07714844","-1.59375","-15.125","0.625"
"1574876093929","915","0.47265625","-0.85058594","-0.12109375","-1.15625","-8.59375","1.5625"
"1574876093930","916","0.38476562","-0.96875","-0.06347656","3.78125","-18.0","-1.5"
"1574876093930","917","0.29296875","-0.90234375","-0.09277344","0.90625","-8.65625","-4.25"
"1574876093930","918","0.390625","-0.9169922","-0.07421875","-2.09375","-1.0625","-1.1875"
"1574876093930","919","0.3779297","-0.90527344","-0.05078125","-1.34375","-0.90625","-1.125"
"1574876094125","920","0.3466797","-0.9394531","-0.060546875","-3.0","3.0","-0.65625"
"1574876094125","921","0.36523438","-0.9345703","-0.08496094","-3.78125","7.96875","-0.21875"
"1574876094126","922","0.39453125","-0.90625","-0.08984375","-3.25","10.65625","1.0"
"1574876094126","923","0.41308594","-0.9169922","-0.08984375","-3.0625","9.46875","1.4375"
"1574876094126","924","0.4189453","-0.92089844","-0.09375","-4.21875","7.59375","0.9375"
"1574876094127","925","0.4326172","-0.91308594","-0.107421875","-5.75","3.75","0.03125"
"1574876094128","926","0.42382812","-0.9042969","-0.115234375","-4.90625","-0.90625","-1.625"
"1574876094128","927","0.40820312","-0.8984375","-0.11425781","-2.375","-2.59375","-1.6875"
"1574876094128","928","0.39648438","-0.9189453","-0.09082031","-1.96875","-5.84375","-1.125"
"1574876094129","929","0.38867188","-0.90527344","-0.1015625","-4.40625","-3.8125","-1.9375"
"1574876094521","930","0.38378906","-0.92578125","-0.10058594","-6.84375","-1.6875","-1.125"
"1574876094521","931","0.390625","-0.9160156","-0.11230469","-5.5625","-0.71875","-0.34375"
"1574876094522","932","0.38378906","-0.91015625","-0.11035156","-6.78125","-1.5625","-1.0625"
"1574876094522","933","0.39160156","-0.9375","-0.12109375","-4.03125","3.1875","-1.0625"
"1574876094522","934","0.36914062","-0.9111328","-0.10253906","-8.3125","3.5625","-2.84375"
"1574876094522","935","0.39160156","-0.9248047","-0.087890625","-9.21875","0.5625","-3.8125"
"1574876094523","936","0.36816406","-0.9404297","-0.11328125","-5.125","2.875","-3.15625"
"1574876094524","937","0.3857422","-0.8935547","-0.12695312","-2.625","9.1875","-3.5"
"1574876094524","938","0.40820312","-0.9003906","-0.15039062","-2.21875","8.4375","-2.84375"
"1574876094524","939","0.43554688","-0.90722656","-0.125","1.21875","5.21875","-3.46875"
"1574876094723","940","0.4267578","-0.8964844","-0.14746094","0.0","2.59375","-3.875"
"1574876094724","941","0.4345703","-0.9003906","-0.12988281","-0.4375","-0.03125","-3.5625"
"1574876094724","942","0.4189453","-0.90234375","-0.13476562","0.65625","-1.4375","-4.84375"
"1574876094725","943","0.41210938","-0.90234375","-0.119140625","-1.71875","0.25","-4.1875"
"1574876094725","944","0.421875","-0.89453125","-0.13378906","-1.0","-0.34375","-4.75"
"1574876094725","945","0.4453125","-0.8886719","-0.14257812","0.0625","1.90625","-4.125"
"1574876094725","946","0.4404297","-0.8808594","-0.13183594","-0.3125","-0.15625","-3.5625"
"1574876094726","947","0.45507812","-0.8876953","-0.125","-0.125","-1.375","-3.6875"
"1574876094726","948","0.46875","-0.8828125","-0.16601562","-2.15625","-0.71875","-3.875"
"1574876094727","949","0.45996094","-0.8925781","-0.11816406","-6.34375","-2.59375","-1.1875"
"1574876095320","950","0.42285156","-0.88183594","-0.15917969","-5.5","-9.5","-5.71875"
"1574876095320","951","0.44433594","-0.8935547","-0.16015625","-7.5625","-5.65625","-4.375"
"1574876095321","952","0.42285156","-0.8701172","-0.15332031","-10.125","-4.96875","-5.40625"
"1574876095321","953","0.46972656","-0.8964844","-0.15429688","-6.96875","-3.75","-5.40625"
"1574876095321","954","0.42773438","-0.8769531","-0.16308594","-16.25","-6.9375","-6.375"
"1574876095321","955","0.44921875","-0.88964844","-0.171875","-12.21875","-8.34375","-4.625"
"1574876095322","956","0.4345703","-0.87890625","-0.18945312","-17.21875","-4.625","-6.6875"
"1574876095322","957","0.4609375","-0.8691406","-0.203125","-12.65625","-2.96875","-4.8125"
"1574876095322","958","0.45703125","-0.86621094","-0.20507812","-7.9375","-1.9375","-3.34375"
"1574876095322","959","0.46777344","-0.8642578","-0.21191406","-8.8125","-2.0625","-2.40625"
"1574876095519","960","0.45703125","-0.875","-0.21777344","-6.125","-3.65625","-3.28125"
"1574876095520","961","0.45898438","-0.8623047","-0.22851562","-6.71875","-4.75","-3.6875"
"1574876095520","962","0.46875","-0.8623047","-0.23339844","-4.09375","-3.53125","-4.375"
"1574876095520","963","0.47851562","-0.8642578","-0.23535156","-1.46875","-4.25","-4.5625"
"1574876095521","964","0.47070312","-0.8535156","-0.23828125","-0.5","-4.375","-4.8125"
"1574876095521","965","0.45410156","-0.84375","-0.23535156","-4.59375","-6.28125","-3.625"
"1574876095521","966","0.46972656","-0.86328125","-0.23632812","-4.53125","-6.9375","-3.03125"
"1574876095521","967","0.48535156","-0.8564453","-0.24804688","-4.84375","-4.96875","-4.125"
"1574876095522","968","0.453125","-0.8496094","-0.23535156","-3.3125","-6.03125","-4.1875"
"1574876095522","969","0.46679688","-0.83203125","-0.26757812","-3.25","-2.96875","-4.75"
"1574876095917","970","0.48242188","-0.8339844","-0.24414062","0.3125","-4.9375","-3.40625"
"1574876095917","971","0.46972656","-0.859375","-0.24707031","1.9375","-6.875","-1.9375"
"1574876095917","972","0.4921875","-0.8486328","-0.23339844","5.78125","-6.5","1.90625"
"1574876095918","973","0.47558594","-0.8408203","-0.2578125","3.96875","-8.9375","2.78125"
"1574876095919","974","0.4609375","-0.8730469","-0.24023438","8.84375","-6.15625","2.09375"
"1574876095919","975","0.4560547","-0.84375","-0.2529297","4.625","-2.59375","3.0625"
"1574876095919","976","0.46679688","-0.84765625","-0.24609375","9.15625","-0.03125","3.75"
"1574876095919","977","0.4482422","-0.84765625","-0.2626953","6.28125","0.21875","3.25"
"1574876095920","978","0.44433594","-0.84472656","-0.24316406","8.0","0.625","4.46875"
"1574876095920","979","0.44140625","-0.85058594","-0.24023438","5.96875","4.84375","1.71875"
"1574876097107","980","0.4873047","-0.8642578","-0.22949219","12.0625","-0.03125","4.125"
"1574876097107","981","0.4638672","-0.8798828","-0.19726562","18.59375","2.9375","6.8125"
"1574876097107","982","0.46972656","-0.84277344","-0.25","16.28125","5.21875","6.8125"
"1574876097108","983","0.4970703","-0.8310547","-0.22558594","31.1875","1.65625","10.53125"
"1574876097108","984","0.4921875","-0.8330078","-0.21777344","30.25","-3.15625","10.21875"
"1574876097110","985","0.46289062","-0.9082031","-0.17675781","42.46875","-2.90625","11.5"
"1574876097111","986","0.4248047","-0.94433594","-0.057617188","23.5625","-7.84375","7.90625"
"1574876097111","987","0.37402344","-0.99609375","-0.0625","16.46875","-0.09375","2.34375"
"1574876097111","988","0.375","-0.94628906","-0.0546875","14.21875","5.28125","-0.21875"
"1574876097112","989","0.3935547","-0.89941406","-0.029296875","14.28125","6.0","1.0"
