"# PR data"
"# Start time: 20191120T144556"
"# Subject: aggie"
"# Activity type: Walking"
"# Correctness: Correct"
"# Notes: "
""
"timestamp","seq","accel_x","accel_y","accel_z","gyro_x","gyro_y","gyro_z"
"1574261157026","0","-0.0048828125","-0.99609375","-0.19921875","-10.625","22.3125","-4.71875"
"1574261157027","1","-0.064453125","-1.0625","-0.19726562","-7.09375","31.46875","3.21875"
"1574261157027","2","0.041015625","-0.9511719","-0.15234375","4.5625","31.1875","-4.53125"
"1574261157027","3","-0.032226562","-0.9433594","-0.16308594","-1.3125","18.46875","-4.09375"
"1574261157027","4","-0.0703125","-0.96972656","-0.2265625","-4.65625","11.09375","-3.6875"
"1574261157028","5","-0.0859375","-0.93359375","-0.25878906","-0.5625","9.09375","2.5625"
"1574261157028","6","-0.15136719","-0.9091797","-0.25976562","-1.59375","12.3125","12.5"
"1574261157028","7","-0.115234375","-0.9501953","-0.28027344","-1.90625","22.9375","16.9375"
"1574261157028","8","-0.013671875","-1.0673828","-0.3173828","-0.6875","22.6875","3.90625"
"1574261157029","9","-0.048828125","-1.0439453","-0.30566406","-10.4375","16.21875","-0.1875"
"1574261157619","10","-0.025390625","-0.9736328","-0.3359375","-10.34375","13.90625","-2.09375"
"1574261157620","11","-0.0048828125","-1.0146484","-0.3623047","-9.65625","13.65625","-3.96875"
"1574261157620","12","-0.041992188","-0.96484375","-0.33398438","-9.28125","10.3125","-4.59375"
"1574261157622","13","-0.047851562","-0.9794922","-0.32617188","-7.09375","7.1875","-4.71875"
"1574261157622","14","-0.06640625","-0.9794922","-0.3466797","-9.65625","3.40625","-0.3125"
"1574261157622","15","-0.0390625","-0.9501953","-0.36328125","-12.46875","6.03125","4.4375"
"1574261157622","16","-0.048828125","-0.97265625","-0.34570312","-9.84375","6.9375","3.65625"
"1574261157623","17","-0.041015625","-1.0029297","-0.2939453","-1.34375","11.34375","4.0"
"1574261157626","18","-0.0546875","-0.96972656","-0.27441406","-3.25","12.6875","1.3125"
"1574261157626","19","-0.07421875","-0.9511719","-0.26464844","0.96875","7.8125","4.75"
"1574261157820","20","-0.068359375","-0.9345703","-0.30371094","-2.53125","3.15625","6.5625"
"1574261157820","21","-0.076171875","-0.9453125","-0.29882812","-3.3125","11.34375","5.90625"
"1574261157820","22","-0.07519531","-0.9716797","-0.29296875","-2.09375","21.53125","6.03125"
"1574261157821","23","-0.078125","-0.9941406","-0.27734375","2.375","21.40625","7.375"
"1574261157821","24","-0.095703125","-0.98339844","-0.27441406","2.5625","25.3125","9.375"
"1574261157822","25","-0.11425781","-0.99121094","-0.27441406","-1.59375","29.9375","14.8125"
"1574261157822","26","-0.12011719","-0.9892578","-0.26757812","-2.15625","36.90625","19.15625"
"1574261157823","27","-0.09277344","-0.97265625","-0.28515625","-3.5","39.90625","23.1875"
"1574261157823","28","-0.10253906","-0.9316406","-0.3076172","1.4375","39.78125","24.75"
"1574261157823","29","-0.14257812","-0.88671875","-0.3642578","-1.125","39.0","28.125"
"1574261158218","30","-0.20214844","-1.0449219","-0.38671875","-7.09375","42.71875","23.4375"
"1574261158219","31","-0.18359375","-0.9091797","-0.30859375","-1.1875","42.21875","14.21875"
"1574261158219","32","-0.18945312","-0.91796875","-0.3125","15.1875","36.4375","18.78125"
"1574261158219","33","-0.20019531","-0.9316406","-0.3359375","10.71875","55.03125","16.21875"
"1574261158219","34","-0.13769531","-0.9550781","-0.31054688","18.125","61.5","15.84375"
"1574261158220","35","-0.1796875","-0.96875","-0.28515625","19.625","59.0625","17.875"
"1574261158220","36","-0.23046875","-0.9902344","-0.31445312","23.125","62.65625","18.28125"
"1574261158221","37","-0.17480469","-0.97558594","-0.2998047","22.5625","79.5625","16.78125"
"1574261158221","38","-0.22460938","-0.9892578","-0.28125","23.90625","80.625","18.0625"
"1574261158222","39","-0.22363281","-0.99609375","-0.24609375","20.8125","80.78125","16.09375"
"1574261158616","40","-0.18261719","-1.0507812","-0.22265625","18.84375","73.53125","11.8125"
"1574261158617","41","-0.11621094","-1.0400391","-0.18652344","15.96875","62.0","11.28125"
"1574261158617","42","-0.08886719","-0.93847656","-0.16992188","16.21875","45.53125","16.65625"
"1574261158617","43","-0.10644531","-0.8955078","-0.17578125","10.84375","36.59375","23.4375"
"1574261158618","44","0.025390625","-0.85839844","-0.09863281","14.5","22.625","23.125"
"1574261158618","45","0.19335938","-0.86328125","-0.109375","12.5625","-5.9375","19.15625"
"1574261158618","46","0.15136719","-1.265625","-0.07714844","13.71875","7.5","8.34375"
"1574261158618","47","0.03515625","-1.2822266","-0.36035156","25.875","12.25","-1.125"
"1574261158619","48","-9.765625E-4","-1.0146484","-0.47460938","0.0","17.3125","-7.59375"
"1574261158621","49","0.18261719","-0.9003906","-0.203125","-0.3125","2.0625","-14.1875"
"1574261159015","50","-0.14550781","-0.84472656","-0.021484375","20.0625","-13.625","1.3125"
"1574261159016","51","-0.15429688","-0.88671875","-0.08886719","14.15625","7.0","5.78125"
"1574261159016","52","0.056640625","-1.0292969","-0.18847656","12.1875","12.0625","-0.875"
"1574261159016","53","0.02734375","-1.0556641","-0.22460938","3.34375","9.125","-2.59375"
"1574261159016","54","0.0390625","-1.0205078","-0.22167969","-5.09375","8.21875","0.28125"
"1574261159017","55","0.013671875","-1.0302734","-0.20898438","-7.78125","12.5625","2.0"
"1574261159017","56","0.033203125","-0.98339844","-0.22753906","-2.53125","8.09375","3.90625"
"1574261159017","57","0.0546875","-1.0087891","-0.22363281","3.53125","4.0625","3.71875"
"1574261159017","58","0.07910156","-1.0595703","-0.20800781","4.6875","9.6875","-1.59375"
"1574261159018","59","0.107421875","-1.1767578","-0.19335938","9.5","2.375","-15.875"
"1574261159410","60","-0.026367188","-1.2490234","-0.15136719","-6.3125","-3.125","-22.84375"
"1574261159412","61","-0.2578125","-1.2207031","-0.033203125","-17.09375","-20.40625","-24.6875"
"1574261159412","62","-0.15625","-0.86035156","0.0087890625","-3.375","-28.34375","-14.0625"
"1574261159412","63","-0.35351562","-0.8144531","-0.06347656","-12.09375","-19.4375","-7.28125"
"1574261159413","64","-0.1484375","-1.1162109","-0.18066406","-15.09375","-5.8125","-10.75"
"1574261159413","65","-0.09765625","-1.0341797","-0.13183594","-21.1875","-21.875","-7.40625"
"1574261159413","66","-0.15917969","-0.9550781","-0.14746094","-15.40625","-23.625","-6.5"
"1574261159413","67","-0.12890625","-0.84765625","-0.1875","-12.03125","-16.8125","-4.84375"
"1574261159414","68","0.033203125","-0.8339844","-0.23144531","-9.90625","-19.96875","-11.78125"
"1574261159414","69","-0.01171875","-0.8964844","-0.2607422","-10.34375","-24.5","-18.9375"
"1574261159809","70","-0.09277344","-0.859375","-0.265625","-4.40625","-16.75","-13.4375"
"1574261159809","71","-0.0029296875","-0.8417969","-0.2548828","-2.03125","-16.9375","-5.75"
"1574261159810","72","0.026367188","-0.9482422","-0.33496094","-1.90625","-19.1875","-7.09375"
"1574261159812","73","-0.057617188","-1.0576172","-0.37597656","-7.71875","-15.34375","3.59375"
"1574261159813","74","0.032226562","-1.0654297","-0.36816406","4.125","-6.3125","4.125"
"1574261159813","75","0.24902344","-1.0449219","-0.3310547","13.34375","-16.4375","-17.03125"
"1574261159813","76","-0.15917969","-1.3496094","-0.28710938","0.96875","-2.46875","-13.1875"
"1574261159813","77","-0.2529297","-1.2597656","-0.08984375","-14.125","-2.21875","0.90625"
"1574261159814","78","-0.15722656","-0.93066406","0.036132812","-8.5625","-12.46875","7.25"
"1574261159814","79","-0.020507812","-0.8544922","0.016601562","-12.96875","-26.6875","2.125"
"1574261160204","80","-0.34179688","-1.0917969","-0.09082031","-17.21875","-29.5","18.0"
"1574261160205","81","-0.3984375","-1.0302734","-0.13378906","-12.59375","-2.59375","21.53125"
"1574261160205","82","-0.091796875","-0.91015625","-0.17089844","-9.21875","2.59375","16.34375"
"1574261160205","83","0.021484375","-0.9277344","-0.203125","4.25","-3.0625","3.03125"
"1574261160205","84","-0.041015625","-0.8261719","-0.16503906","11.34375","-5.03125","-1.0625"
"1574261160206","85","-0.09472656","-0.78125","-0.20507812","17.75","2.65625","8.34375"
"1574261160206","86","0.0146484375","-0.8613281","-0.23046875","17.5625","10.71875","10.90625"
"1574261160207","87","-0.03125","-0.9082031","-0.23144531","15.1875","12.9375","4.0"
"1574261160208","88","-0.08300781","-0.92871094","-0.23925781","12.9375","20.375","2.25"
"1574261160208","89","0.10058594","-1.0498047","-0.22265625","26.03125","14.3125","-4.84375"
"1574261160602","90","0.15917969","-1.2070312","-0.33203125","0.03125","2.71875","-16.96875"
"1574261160603","91","-0.005859375","-1.2792969","-0.3095703","-7.875","19.875","-29.8125"
"1574261160603","92","-0.04296875","-1.3095703","-0.1953125","-26.4375","16.34375","-46.9375"
"1574261160603","93","-0.23242188","-1.1376953","0.07519531","-9.78125","12.4375","-42.5"
"1574261160603","94","-0.6171875","-0.8144531","-0.00390625","4.6875","4.8125","0.65625"
"1574261160604","95","-0.16699219","-1.109375","-0.21875","8.46875","38.5625","17.875"
"1574261160604","96","0.18945312","-1.1816406","-0.111328125","-4.46875","16.03125","-6.0625"
"1574261160605","97","-0.08203125","-0.8486328","-0.052734375","-10.15625","-25.28125","-14.59375"
"1574261160605","98","-0.14941406","-0.7246094","-0.18652344","-10.40625","-20.15625","7.90625"
"1574261160606","99","-0.09082031","-0.77734375","-0.28710938","-6.59375","-1.25","12.9375"
"1574261161000","100","0.13476562","-0.84472656","-0.30664062","-14.96875","-12.71875","2.5625"
"1574261161001","101","0.043945312","-0.82421875","-0.23730469","-6.65625","-17.28125","-6.4375"
"1574261161001","102","-0.072265625","-0.9003906","-0.2578125","-4.65625","-12.96875","-12.09375"
"1574261161001","103","-0.033203125","-0.9267578","-0.296875","0.34375","-16.5625","-7.59375"
"1574261161002","104","-0.12207031","-1.2001953","-0.3623047","-6.1875","4.375","-1.125"
"1574261161002","105","0.0048828125","-1.1269531","-0.4482422","-9.90625","10.125","6.6875"
"1574261161002","106","0.17578125","-1.3916016","-0.3486328","-10.21875","23.125","-15.15625"
"1574261161002","107","-0.15429688","-1.2080078","-0.20898438","-17.59375","23.3125","-12.09375"
"1574261161003","108","-0.25390625","-0.8652344","-0.038085938","-14.0625","-1.53125","4.875"
"1574261161004","109","0.043945312","-0.9921875","0.03125","-9.40625","-17.78125","12.0625"
"1574261161596","110","-0.31054688","-1.1201172","-0.0859375","-10.75","-16.5625","11.8125"
"1574261161596","111","-0.28710938","-0.93847656","-0.1796875","5.53125","0.90625","19.9375"
"1574261161597","112","-0.018554688","-0.93359375","-0.20507812","3.40625","-2.6875","12.0625"
"1574261161597","113","0.045898438","-0.78222656","-0.20703125","6.9375","-19.1875","7.5"
"1574261161597","114","-0.061523438","-0.74902344","-0.17285156","8.65625","-20.9375","10.375"
"1574261161597","115","0.026367188","-0.7919922","-0.21582031","5.1875","-9.84375","3.03125"
"1574261161598","116","0.083984375","-0.88964844","-0.26367188","10.0","-10.625","0.65625"
"1574261161598","117","-0.009765625","-0.9560547","-0.23925781","9.875","-7.8125","-0.375"
"1574261161598","118","-0.078125","-0.9550781","-0.25390625","19.21875","2.1875","9.5"
"1574261161598","119","0.09765625","-1.0576172","-0.26367188","19.5625","-1.0625","4.25"
"1574261161796","120","0.21972656","-1.1835938","-0.41796875","-3.0625","-18.15625","-20.65625"
"1574261161796","121","-0.07910156","-1.3642578","-0.3076172","-15.53125","3.84375","-22.40625"
"1574261161797","122","-0.23730469","-1.3818359","-0.03515625","-18.5","32.625","-36.46875"
"1574261161797","123","-0.37402344","-0.8935547","0.053710938","14.8125","-8.375","-26.9375"
"1574261161797","124","-0.66015625","-0.91796875","-0.13476562","1.15625","13.84375","12.0625"
"1574261161797","125","0.0146484375","-1.1611328","-0.18359375","-8.9375","58.03125","17.3125"
"1574261161798","126","0.047851562","-1.0908203","-0.12109375","-6.0625","24.875","-0.9375"
"1574261161798","127","-0.0068359375","-0.86621094","-0.107421875","-24.5","-9.65625","-1.0"
"1574261161798","128","-0.15527344","-0.7792969","-0.23535156","-15.21875","-11.71875","10.71875"
"1574261161798","129","-0.06640625","-0.77246094","-0.35546875","-8.1875","-12.96875","11.40625"
"1574261162195","130","0.034179688","-0.7832031","-0.3095703","-7.03125","-26.25","3.34375"
"1574261162195","131","-0.11230469","-0.83496094","-0.3017578","2.78125","-20.34375","-7.40625"
"1574261162196","132","-0.17578125","-0.9169922","-0.34375","-0.875","-13.03125","-13.8125"
"1574261162196","133","-0.051757812","-1.0478516","-0.32226562","6.9375","2.375","-9.28125"
"1574261162196","134","-0.17871094","-1.1474609","-0.3330078","-0.9375","15.65625","4.0"
"1574261162197","135","0.24707031","-1.0283203","-0.4453125","-0.6875","10.96875","-15.34375"
"1574261162197","136","0.018554688","-1.3017578","-0.3564453","-16.1875","8.53125","-37.4375"
"1574261162197","137","-0.4736328","-1.2988281","-0.140625","-37.25","9.09375","-6.4375"
"1574261162198","138","-0.20019531","-0.8701172","0.099609375","-1.40625","2.65625","20.4375"
"1574261162198","139","0.072265625","-1.0507812","-0.061523438","-13.625","-7.46875","0.71875"
"1574261162787","140","-0.33007812","-1.0966797","-0.22265625","-4.46875","5.96875","7.375"
"1574261162787","141","-0.3232422","-0.9169922","-0.22753906","-9.53125","32.8125","15.1875"
"1574261162788","142","0.05078125","-0.81640625","-0.19921875","11.40625","36.46875","16.90625"
"1574261162788","143","0.06933594","-0.79589844","-0.19042969","17.875","5.34375","7.375"
"1574261162788","144","-0.059570312","-0.8066406","-0.19335938","10.46875","10.84375","-0.1875"
"1574261162789","145","0.09472656","-0.8515625","-0.21191406","19.625","19.6875","-4.65625"
"1574261162789","146","0.099609375","-0.9667969","-0.28125","13.03125","13.15625","-3.625"
"1574261162789","147","-0.044921875","-0.94140625","-0.2919922","4.0","16.15625","-0.875"
"1574261162789","148","0.0146484375","-0.9580078","-0.28808594","4.0625","26.40625","6.09375"
"1574261162790","149","0.18847656","-1.0146484","-0.3125","-8.4375","14.03125","-11.25"
"1574261163186","150","0.17382812","-1.0595703","-0.3779297","3.03125","5.65625","-25.40625"
"1574261163187","151","-0.09765625","-1.3037109","-0.33007812","-13.9375","38.5625","-27.25"
"1574261163187","152","-0.14453125","-1.296875","0.026367188","-5.8125","28.78125","-26.9375"
"1574261163188","153","-0.328125","-0.9765625","-0.12207031","15.25","-3.4375","-13.5"
"1574261163188","154","-0.4765625","-0.97265625","-0.19726562","12.1875","23.71875","23.90625"
"1574261163188","155","0.072265625","-1.2314453","-0.25097656","9.5","45.625","14.875"
"1574261163188","156","0.030273438","-1.0292969","-0.13574219","-9.0","21.34375","-2.28125"
"1574261163190","157","-0.040039062","-0.84375","-0.12988281","-4.59375","-7.34375","6.03125"
"1574261163190","158","-0.021484375","-0.73535156","-0.21777344","10.84375","-11.3125","9.6875"
"1574261163193","159","9.765625E-4","-0.78808594","-0.30078125","1.9375","-9.125","7.8125"
"1574261163384","160","-0.078125","-0.86621094","-0.2734375","-6.25","-4.71875","5.53125"
"1574261163385","161","-0.16113281","-0.9296875","-0.2841797","-7.46875","2.71875","2.0"
"1574261163385","162","-0.12597656","-0.96972656","-0.2734375","-6.375","18.0625","-2.03125"
"1574261163385","163","0.0546875","-1.0478516","-0.33398438","-3.625","12.0","-10.8125"
"1574261163385","164","0.001953125","-0.99902344","-0.328125","0.96875","6.03125","-8.6875"
"1574261163386","165","0.080078125","-1.0664062","-0.36328125","-12.09375","3.03125","-10.40625"
"1574261163386","166","-0.11816406","-1.3320312","-0.37695312","-40.3125","36.71875","-12.28125"
"1574261163386","167","-0.21777344","-1.3164062","-0.2607422","-47.1875","47.90625","-5.75"
"1574261163386","168","-0.16113281","-0.9316406","-0.10058594","-24.90625","33.0625","-0.5"
"1574261163387","169","0.018554688","-0.5917969","-0.07910156","-6.1875","-3.25","-5.5"
"1574261163783","170","-0.25","-0.9453125","-0.18359375","-15.875","6.03125","10.375"
"1574261163784","171","-0.33691406","-0.97265625","-0.171875","-10.6875","44.25","20.4375"
"1574261163784","172","-0.09375","-1.1552734","-0.27246094","-2.15625","58.875","27.625"
"1574261163784","173","0.09082031","-1.2041016","-0.30859375","6.28125","49.59375","6.5625"
"1574261163784","174","-0.053710938","-0.8564453","-0.16113281","25.25","33.5","9.6875"
"1574261163785","175","-0.059570312","-0.8408203","-0.21289062","17.4375","46.625","22.5"
"1574261163785","176","-0.005859375","-0.8808594","-0.2626953","17.75","73.34375","21.53125"
"1574261163786","177","0.064453125","-0.859375","-0.1875","13.03125","93.5","21.59375"
"1574261163786","178","0.047851562","-0.87109375","-0.1953125","0.65625","88.65625","25.75"
"1574261163786","179","0.0","-0.9707031","-0.30664062","10.59375","95.1875","37.28125"
"1574261164181","180","0.115234375","-1.1113281","-0.3330078","1.03125","107.46875","26.15625"
"1574261164182","181","0.17089844","-1.1210938","-0.23242188","-5.375","95.75","-7.71875"
"1574261164183","182","-0.032226562","-1.0361328","-0.27148438","12.75","85.625","-14.53125"
"1574261164183","183","-0.14160156","-1.0","-0.20703125","6.09375","92.28125","-7.46875"
"1574261164183","184","-0.28320312","-0.81152344","-0.123046875","2.78125","90.625","10.375"
"1574261164184","185","-0.30078125","-1.2089844","-0.24609375","-24.25","119.3125","30.375"
"1574261164184","186","-0.059570312","-1.0625","-0.2685547","-10.5","132.125","37.03125"
"1574261164184","187","-0.05859375","-0.97558594","-0.1875","9.5","97.40625","32.53125"
"1574261164184","188","-0.13964844","-0.984375","-0.2998047","22.625","110.09375","36.59375"
"1574261164185","189","-0.028320312","-1.0976562","-0.29003906","13.28125","115.71875","25.25"
"1574261164579","190","-0.18261719","-0.9746094","-0.22070312","4.1875","94.03125","19.03125"
"1574261164579","191","-0.2685547","-0.89746094","-0.28125","-2.28125","99.40625","29.90625"
"1574261164579","192","-0.24609375","-0.9892578","-0.31445312","-0.0625","102.28125","42.34375"
"1574261164581","193","-0.328125","-1.0195312","-0.3310547","2.5625","121.1875","47.46875"
"1574261164581","194","-0.2548828","-0.96484375","-0.28515625","9.6875","134.75","49.46875"
"1574261164581","195","-0.22558594","-0.984375","-0.3251953","11.15625","129.625","50.46875"
"1574261164582","196","-0.1015625","-0.92089844","-0.3720703","14.375","113.8125","39.96875"
"1574261164582","197","-0.0625","-0.8828125","-0.39648438","9.8125","95.625","26.0"
"1574261164582","198","-0.12011719","-0.9111328","-0.3955078","3.90625","86.34375","12.0625"
"1574261164582","199","-0.2109375","-0.8671875","-0.40527344","6.6875","67.96875","-0.125"
"1574261164975","200","-0.115234375","-0.8701172","-0.44726562","-3.4375","64.4375","-6.65625"
"1574261164975","201","-0.018554688","-1.171875","-0.3330078","2.84375","85.75","-25.65625"
"1574261164975","202","-0.16699219","-1.2470703","-0.22851562","10.90625","76.8125","-33.09375"
"1574261164976","203","-0.23828125","-0.7167969","-0.28125","-14.1875","40.15625","-6.5"
"1574261164976","204","-0.01953125","-0.6894531","-0.31445312","-22.34375","50.15625","4.75"
"1574261164977","205","-0.19335938","-1.0683594","-0.24902344","-21.875","80.25","2.5625"
"1574261164978","206","-0.18164062","-1.0810547","-0.059570312","1.6875","97.53125","-2.46875"
"1574261164978","207","-0.15527344","-1.0722656","-0.09472656","8.71875","82.5","3.90625"
"1574261164978","208","0.022460938","-1.1289062","-0.20117188","2.0","85.125","8.46875"
"1574261164978","209","0.10644531","-1.0537109","-0.21777344","11.53125","80.0","2.4375"
"1574261165373","210","0.040039062","-0.9111328","-0.18652344","22.3125","58.8125","8.28125"
"1574261165374","211","-0.10449219","-0.8300781","-0.17382812","18.34375","63.71875","19.15625"
"1574261165374","212","-0.0625","-0.89453125","-0.15917969","16.78125","81.28125","26.15625"
"1574261165374","213","0.06640625","-0.9970703","-0.16210938","19.53125","86.03125","20.5625"
"1574261165374","214","0.06640625","-0.9785156","-0.19335938","19.40625","78.53125","16.90625"
"1574261165375","215","0.11328125","-0.98046875","-0.25195312","13.71875","72.3125","20.25"
"1574261165375","216","0.19726562","-0.9814453","-0.3330078","1.75","61.5","16.15625"
"1574261165375","217","0.08203125","-0.97265625","-0.2890625","-2.03125","57.90625","14.5"
"1574261165376","218","0.045898438","-0.9326172","-0.22167969","1.15625","55.78125","13.84375"
"1574261165376","219","0.107421875","-0.9472656","-0.24316406","4.1875","42.78125","10.46875"
"1574261165771","220","0.140625","-0.9902344","-0.35351562","-4.59375","39.59375","1.75"
"1574261165772","221","0.0234375","-1.2724609","-0.3466797","-13.4375","68.40625","-8.625"
"1574261165772","222","-0.08984375","-1.3222656","-0.2783203","-9.125","66.625","-15.15625"
"1574261165772","223","-0.028320312","-1.0488281","-0.1328125","-3.8125","21.40625","-17.21875"
"1574261165773","224","-0.25","-0.8642578","-0.001953125","0.40625","14.5","-7.03125"
"1574261165773","225","-0.31933594","-0.65234375","-0.08886719","-0.4375","45.46875","15.96875"
"1574261165773","226","-0.021484375","-1.140625","-0.27441406","15.71875","59.0625","11.9375"
"1574261165773","227","0.032226562","-1.1230469","-0.18652344","11.8125","35.4375","-3.375"
"1574261165774","228","-0.16113281","-1.09375","-0.091796875","-4.65625","15.375","4.0"
"1574261165775","229","-0.09375","-0.9902344","-0.17089844","-13.6875","36.0625","11.15625"
"1574261166169","230","0.06933594","-0.82421875","-0.22753906","-11.6875","23.59375","16.09375"
"1574261166169","231","0.1328125","-0.92285156","-0.28515625","-8.4375","4.25","12.1875"
"1574261166170","232","-0.07421875","-0.9111328","-0.31835938","-5.4375","-3.4375","11.59375"
"1574261166170","233","0.013671875","-0.82421875","-0.30664062","-13.8125","-2.46875","12.75"
"1574261166170","234","0.09765625","-0.9355469","-0.31640625","-14.84375","-13.0625","2.375"
"1574261166171","235","0.024414062","-0.9355469","-0.3408203","-3.625","-20.21875","-5.5"
"1574261166171","236","0.0234375","-1.0009766","-0.4169922","-9.0","-27.25","-4.15625"
"1574261166171","237","0.0087890625","-1.0498047","-0.41503906","-4.78125","-12.46875","-11.3125"
"1574261166171","238","-0.017578125","-1.3916016","-0.32910156","10.71875","11.53125","-8.375"
"1574261166172","239","-0.21777344","-1.34375","-0.26171875","2.65625","-3.625","-1.65625"
"1574261166565","240","-0.1953125","-0.89453125","-0.12011719","-3.3125","4.375","2.96875"
"1574261166566","241","0.18359375","-0.75390625","-0.055664062","-1.59375","-30.84375","-20.78125"
"1574261166567","242","-0.20117188","-1.0634766","-0.0068359375","4.3125","-55.125","3.46875"
"1574261166567","243","-0.33691406","-0.9501953","-0.049804688","-2.75","-27.125","13.15625"
"1574261166567","244","-0.02734375","-0.87402344","-0.21289062","1.375","-6.0","16.09375"
"1574261166568","245","0.095703125","-0.9550781","-0.28320312","0.65625","-23.28125","-11.84375"
"1574261166568","246","-0.048828125","-0.76171875","-0.17382812","13.34375","-33.71875","-11.4375"
"1574261166568","247","-0.24707031","-0.94433594","-0.123046875","6.21875","-9.78125","19.5625"
"1574261166568","248","-0.125","-1.0654297","-0.15625","10.1875","19.5625","26.03125"
"1574261166569","249","0.15917969","-0.8769531","-0.26171875","5.125","0.40625","9.375"
"1574261166963","250","0.1015625","-0.91308594","-0.27539062","-4.96875","-12.15625","-1.78125"
"1574261166963","251","-0.07421875","-0.9394531","-0.23046875","-3.5","3.71875","8.15625"
"1574261166963","252","0.09863281","-0.99609375","-0.21972656","-6.4375","16.03125","4.8125"
"1574261166965","253","0.115234375","-1.1191406","-0.27734375","1.03125","0.71875","-20.34375"
"1574261166965","254","-0.17578125","-1.3388672","-0.26660156","-6.65625","31.25","-25.03125"
"1574261166965","255","-0.111328125","-1.3417969","-0.083984375","-1.40625","37.59375","-24.78125"
"1574261166966","256","-0.3486328","-1.0644531","-0.0390625","11.71875","12.625","-27.40625"
"1574261166966","257","-0.57128906","-0.78027344","-0.07324219","15.3125","27.9375","10.1875"
"1574261166966","258","-0.053710938","-1.2109375","-0.27734375","19.03125","37.75","21.53125"
"1574261166966","259","0.021484375","-1.0654297","-0.10253906","1.15625","20.84375","-5.21875"
"1574261167954","260","-0.26171875","-0.79785156","-0.06347656","-6.1875","8.78125","5.78125"
"1574261167954","261","-0.111328125","-0.77246094","-0.22167969","-0.75","13.90625","16.90625"
"1574261167955","262","0.01953125","-0.8017578","-0.28320312","-2.03125","17.4375","6.6875"
"1574261167955","263","-0.01171875","-0.8652344","-0.24609375","-14.3125","16.78125","-2.625"
"1574261167955","264","-0.07324219","-0.89160156","-0.2705078","-11.5625","14.09375","3.21875"
"1574261167957","265","-0.036132812","-0.9863281","-0.31933594","-9.53125","7.0625","0.09375"
"1574261167957","266","0.013671875","-0.97265625","-0.2939453","-14.0","1.5625","-3.96875"
"1574261167958","267","-0.17480469","-1.0947266","-0.38867188","-13.75","-4.46875","9.125"
"1574261167958","268","0.036132812","-0.99609375","-0.5761719","-18.6875","-12.40625","-4.21875"
"1574261167958","269","0.045898438","-1.4082031","-0.37695312","-22.28125","21.65625","-35.90625"
"1574261168153","270","-0.47265625","-1.34375","-0.09082031","-17.90625","36.65625","-16.0"
"1574261168153","271","-0.19921875","-0.75097656","0.033203125","-4.34375","-9.28125","6.28125"
"1574261168154","272","0.22949219","-0.8955078","-0.08984375","-6.90625","-26.3125","-0.5625"
"1574261168154","273","-0.35058594","-1.1064453","-0.16894531","-19.1875","-10.34375","10.1875"
"1574261168154","274","-0.3828125","-0.9628906","-0.18457031","-5.09375","9.75","23.65625"
"1574261168154","275","-0.05859375","-0.8798828","-0.2421875","1.8125","-1.3125","17.875"
"1574261168155","276","-0.087890625","-0.8564453","-0.23535156","13.09375","-1.59375","10.0625"
"1574261168155","277","-0.11425781","-0.7949219","-0.22753906","14.8125","11.8125","8.46875"
"1574261168155","278","-0.041992188","-0.79785156","-0.17089844","17.6875","18.34375","10.46875"
"1574261168156","279","-0.09472656","-0.99121094","-0.1875","22.75","27.8125","10.1875"
"1574261168353","280","-0.047851562","-0.92578125","-0.22265625","12.25","44.125","7.375"
"1574261168353","281","-0.020507812","-0.9238281","-0.26464844","2.65625","44.65625","8.84375"
"1574261168354","282","0.036132812","-1.0175781","-0.28222656","-3.5625","33.1875","0.96875"
"1574261168354","283","0.1328125","-1.0722656","-0.34960938","-4.34375","21.46875","-8.5625"
"1574261168354","284","0.013671875","-1.0966797","-0.39648438","8.59375","23.59375","-9.46875"
"1574261168354","285","-0.17578125","-1.2353516","-0.21875","-11.0","46.1875","-23.5625"
"1574261168355","286","-0.25390625","-1.0244141","0.055664062","30.5","40.03125","-31.6875"
"1574261168356","287","-0.63378906","-0.96972656","-0.13085938","15.625","4.25","2.78125"
"1574261168356","288","-0.0625","-1.2724609","-0.23925781","1.4375","38.5625","7.0"
"1574261168356","289","0.055664062","-1.1679688","-0.13964844","3.34375","14.21875","-6.78125"
"1574261168752","290","-0.0068359375","-0.8828125","-0.11425781","-10.34375","-20.78125","-18.15625"
"1574261168753","291","-0.022460938","-0.74121094","-0.17675781","-8.4375","-22.78125","-10.09375"
"1574261168753","292","-0.0546875","-0.80078125","-0.25683594","-10.40625","-20.59375","-3.375"
"1574261168753","293","0.059570312","-0.8574219","-0.25097656","-27.65625","-33.46875","-4.03125"
"1574261168753","294","-0.025390625","-0.8251953","-0.24707031","-17.59375","-25.03125","-5.875"
"1574261168754","295","-0.06933594","-0.9169922","-0.33203125","-18.6875","-20.03125","-7.59375"
"1574261168754","296","-0.033203125","-1.0302734","-0.3671875","-14.1875","-7.875","-0.5625"
"1574261168754","297","-0.095703125","-1.109375","-0.3857422","-11.90625","-8.625","5.90625"
"1574261168754","298","0.0625","-0.9199219","-0.47851562","-12.34375","-6.96875","4.0"
"1574261168755","299","0.03125","-1.3164062","-0.4560547","2.78125","21.46875","-10.28125"
"1574261169149","300","-0.18066406","-1.2353516","-0.3017578","-3.875","3.15625","-4.78125"
"1574261169151","301","-0.13476562","-0.984375","-0.064453125","-3.375","-4.71875","-5.9375"
"1574261169151","302","0.20703125","-0.7792969","-0.06738281","4.5","-58.5","-11.84375"
"1574261169151","303","-0.32226562","-1.0273438","-0.0126953125","-2.625","-50.0625","9.25"
"1574261169152","304","-0.3466797","-1.0371094","-0.14746094","-1.0625","-7.53125","26.96875"
"1574261169152","305","-0.10449219","-0.9785156","-0.234375","-1.25","-8.5625","20.5625"
"1574261169152","306","0.07714844","-0.94433594","-0.25878906","11.53125","-22.21875","4.6875"
"1574261169153","307","0.017578125","-0.8496094","-0.22460938","23.1875","-19.25","-3.25"
"1574261169153","308","-0.038085938","-0.7783203","-0.15136719","19.34375","-11.5625","3.09375"
"1574261169153","309","-0.0234375","-0.92089844","-0.1796875","16.46875","-1.1875","1.875"
"1574261169545","310","9.765625E-4","-0.9589844","-0.1875","17.3125","-3.0625","0.65625"
"1574261169546","311","-0.059570312","-0.9111328","-0.20117188","13.78125","-6.53125","7.375"
"1574261169546","312","-0.07714844","-0.9658203","-0.22851562","7.375","6.5625","4.5625"
"1574261169547","313","0.08496094","-1.0380859","-0.22167969","-8.8125","2.375","-11.5"
"1574261169547","314","0.08496094","-1.1513672","-0.3173828","-2.15625","3.28125","-28.59375"
"1574261169548","315","-0.10253906","-1.3564453","-0.2783203","-4.28125","37.03125","-33.21875"
"1574261169548","316","-0.07421875","-1.2939453","-0.01171875","9.8125","31.40625","-28.75"
"1574261169548","317","-0.24023438","-0.89746094","0.0107421875","31.71875","-1.25","-19.71875"
"1574261169549","318","-0.609375","-0.8642578","-0.034179688","2.84375","6.875","34.84375"
"1574261169549","319","0.10839844","-1.3300781","-0.22753906","0.34375","36.90625","13.15625"
"1574261169943","320","0.08300781","-1.0517578","-0.051757812","-5.15625","10.53125","-19.0"
"1574261169944","321","-0.13769531","-0.765625","-0.083984375","-11.125","-22.28125","-14.40625"
"1574261169944","322","0.0048828125","-0.71484375","-0.2265625","-0.25","-18.5625","0.34375"
"1574261169944","323","-0.045898438","-0.8359375","-0.18945312","-8.8125","3.71875","2.65625"
"1574261169945","324","-0.16308594","-1.0292969","-0.24804688","-9.96875","2.125","-1.0625"
"1574261169946","325","-0.025390625","-0.9794922","-0.2783203","-16.75","-11.25","3.53125"
"1574261169947","326","-0.0107421875","-0.85253906","-0.31445312","-9.65625","-7.9375","-6.0"
"1574261169947","327","0.07910156","-1.0292969","-0.31445312","-10.15625","-11.5","-18.3125"
"1574261169947","328","-0.10449219","-1.0654297","-0.3232422","-28.03125","-8.125","-11.125"
"1574261169948","329","0.17480469","-0.94921875","-0.40527344","-20.40625","-21.3125","-21.5625"
"1574261170341","330","0.15917969","-1.4082031","-0.32617188","-16.4375","-3.125","-47.25"
"1574261170342","331","-0.26464844","-1.3222656","-0.18847656","-32.84375","7.0625","-27.53125"
"1574261170342","332","-0.27734375","-0.7998047","-0.046875","-23.15625","-3.96875","13.40625"
"1574261170342","333","0.15136719","-0.5917969","-0.11425781","3.28125","-44.09375","5.53125"
"1574261170343","334","-0.10253906","-1.2548828","-0.24707031","-8.375","-24.75","0.65625"
"1574261170343","335","-0.36914062","-1.03125","-0.1640625","1.3125","26.53125","19.8125"
"1574261170343","336","-0.07910156","-0.84765625","-0.18066406","25.3125","14.875","25.9375"
"1574261170344","337","0.08203125","-0.90625","-0.2529297","14.28125","-3.625","22.125"
"1574261170344","338","-0.12890625","-0.93847656","-0.11816406","17.5625","17.0625","16.53125"
"1574261170344","339","-0.11035156","-0.9189453","-0.047851562","30.0625","28.65625","17.875"
"1574261170739","340","0.0859375","-0.93066406","-0.19140625","25.3125","17.5625","13.0"
"1574261170740","341","0.13085938","-0.9111328","-0.27929688","8.34375","9.375","3.90625"
"1574261170740","342","-0.056640625","-0.93066406","-0.28027344","-4.28125","18.34375","2.25"
"1574261170740","343","-0.0107421875","-0.93847656","-0.22460938","-1.0","23.59375","7.25"
"1574261170741","344","0.1875","-1.0126953","-0.24414062","-6.96875","12.9375","-13.5"
"1574261170741","345","0.021484375","-1.1005859","-0.33496094","-1.0","5.59375","-17.59375"
"1574261170741","346","-0.10644531","-1.3300781","-0.32226562","-13.75","46.96875","-27.78125"
"1574261170741","347","-0.07421875","-1.203125","-0.0390625","2.1875","37.40625","-26.3125"
"1574261170742","348","-0.32128906","-0.81933594","0.047851562","-1.25","8.65625","-16.6875"
"1574261170743","349","-0.47851562","-0.8496094","-0.171875","1.15625","39.65625","22.25"
"1574261171136","350","0.14257812","-1.3408203","-0.27734375","-4.46875","63.15625","21.40625"
"1574261171137","351","0.07519531","-1.1425781","-0.16601562","-8.625","23.0","-2.75"
"1574261171137","352","-0.05078125","-0.89941406","-0.16503906","-12.59375","2.3125","-4.28125"
"1574261171138","353","-0.02734375","-0.8623047","-0.29785156","-3.375","10.78125","10.0625"
"1574261171138","354","0.0078125","-0.8261719","-0.3330078","-9.90625","5.46875","6.5625"
"1574261171138","355","0.16113281","-0.78515625","-0.28125","-8.375","-13.4375","-4.59375"
"1574261171138","356","-0.09375","-0.83203125","-0.23925781","-1.65625","-13.8125","-6.96875"
"1574261171139","357","-0.034179688","-0.88964844","-0.3466797","-6.71875","-14.1875","-10.5"
"1574261171139","358","0.09375","-1.0322266","-0.33007812","-2.28125","-19.96875","-12.21875"
"1574261171139","359","-0.13476562","-1.1416016","-0.38671875","-7.875","-12.84375","4.0625"
"1574261171533","360","0.12695312","-1.0292969","-0.39746094","-5.9375","0.28125","7.125"
"1574261171534","361","-0.028320312","-1.2861328","-0.33398438","-2.6875","1.9375","-3.6875"
"1574261171535","362","-0.15234375","-1.1337891","-0.30078125","-6.5","-11.5","0.21875"
"1574261171535","363","0.14355469","-1.0019531","-0.18652344","0.21875","-35.0","-9.96875"
"1574261171535","364","0.109375","-0.9140625","0.060546875","10.40625","-69.65625","-13.9375"
"1574261171536","365","-0.3046875","-0.9169922","0.037109375","2.5","-68.125","10.46875"
"1574261171536","366","-0.3330078","-1.09375","-0.15039062","-1.53125","-38.96875","25.125"
"1574261171536","367","-0.013671875","-1.1777344","-0.14648438","-4.46875","-30.65625","23.4375"
"1574261171536","368","-0.0087890625","-0.96777344","-0.18359375","7.1875","-47.6875","10.375"
"1574261171537","369","-0.07519531","-0.7607422","-0.18164062","8.53125","-49.28125","19.8125"
"1574261171931","370","-0.08203125","-0.8339844","-0.13476562","5.0","-42.96875","12.625"
"1574261171931","371","-0.09277344","-0.8515625","-0.16113281","19.03125","-27.25","7.5625"
"1574261171931","372","0.025390625","-0.88671875","-0.1640625","27.34375","-22.34375","-2.75"
"1574261171932","373","-0.017578125","-0.9609375","-0.18164062","15.375","-16.0625","-5.75"
"1574261171933","374","-0.10058594","-1.0253906","-0.18457031","2.5","-2.40625","-8.4375"
"1574261171933","375","0.07910156","-1.0380859","-0.18457031","4.8125","2.65625","-8.125"
"1574261171933","376","0.017578125","-1.1220703","-0.26367188","-25.03125","-9.53125","-13.4375"
"1574261171934","377","-0.109375","-1.2412109","-0.21484375","-26.8125","13.21875","-30.21875"
"1574261171934","378","-0.083984375","-1.2490234","-0.013671875","-12.90625","26.65625","-40.65625"
"1574261171934","379","-0.06933594","-0.88378906","0.034179688","18.0625","-20.28125","-45.25"
"1574261172329","380","-0.1953125","-0.8623047","-0.03515625","6.75","-58.4375","-21.0"
"1574261172330","381","-0.040039062","-1.3212891","-0.11816406","-3.8125","-57.8125","-23.6875"
"1574261172330","382","0.0546875","-1.15625","-0.026367188","-11.5","-81.0","-36.6875"
"1574261172330","383","-0.051757812","-0.92578125","-0.052734375","-29.96875","-119.34375","-40.0"
"1574261172331","384","-0.013671875","-0.8466797","-0.15820312","-30.71875","-114.8125","-15.625"
"1574261172332","385","0.119140625","-0.9199219","-0.111328125","-26.6875","-106.09375","-9.40625"
"1574261172332","386","0.08300781","-0.9277344","-0.12695312","-23.34375","-109.28125","-24.84375"
"1574261172333","387","-0.0390625","-0.9589844","-0.18261719","-5.75","-104.1875","-24.78125"
"1574261172333","388","0.01953125","-0.9121094","-0.203125","-1.1875","-111.21875","-26.03125"
"1574261172333","389","0.0546875","-0.9433594","-0.23144531","-2.75","-113.46875","-25.71875"
"1574261172727","390","-0.0234375","-1.0771484","-0.27929688","-5.8125","-93.28125","-19.25"
"1574261172727","391","-0.052734375","-0.9814453","-0.36816406","-19.96875","-86.125","-13.375"
"1574261172728","392","0.059570312","-0.8964844","-0.40039062","-15.15625","-90.15625","-14.1875"
"1574261172728","393","0.06933594","-1.1591797","-0.20996094","-6.84375","-71.71875","-16.4375"
"1574261172728","394","-0.12792969","-1.2675781","-0.038085938","-1.0","-52.875","-15.875"
"1574261172728","395","-0.06347656","-0.9033203","-0.06933594","9.625","-83.9375","-9.71875"
"1574261172729","396","0.2109375","-0.8300781","-0.13964844","18.0","-111.46875","-22.84375"
"1574261172730","397","0.13476562","-0.9609375","-0.07910156","24.8125","-130.5625","-9.65625"
"1574261172730","398","-0.01953125","-1.1044922","-0.06738281","18.78125","-117.625","-5.3125"
"1574261172731","399","0.0078125","-1.0332031","-0.08300781","24.21875","-111.46875","-5.5625"
"1574261173123","400","0.11230469","-0.9902344","-0.1484375","18.0","-126.65625","-9.59375"
"1574261173124","401","0.0703125","-0.9003906","-0.01953125","10.40625","-143.5","1.03125"
"1574261173124","402","-0.10058594","-0.9423828","0.051757812","12.4375","-126.90625","4.0"
"1574261173125","403","-0.06542969","-0.99121094","-0.07714844","9.75","-102.875","6.46875"
"1574261173125","404","0.038085938","-1.0214844","-0.18261719","-3.75","-100.40625","-0.6875"
"1574261173125","405","-0.05859375","-1.0058594","-0.20605469","6.9375","-87.25","-5.625"
"1574261173125","406","0.0234375","-1.0214844","-0.16503906","8.84375","-71.5","-0.75"
"1574261173126","407","0.07421875","-1.0185547","-0.14453125","0.90625","-68.6875","5.125"
"1574261173126","408","0.06640625","-0.9873047","-0.111328125","3.9375","-63.625","0.09375"
"1574261173127","409","0.109375","-1.0175781","-0.07421875","1.03125","-60.1875","-6.84375"
"1574261173522","410","0.009765625","-1.2607422","0.005859375","-21.125","-54.75","-22.46875"
"1574261173522","411","-0.056640625","-1.1845703","0.0146484375","-20.59375","-63.4375","-28.34375"
"1574261173522","412","-0.087890625","-1.0097656","0.0087890625","-23.875","-54.9375","-27.90625"
"1574261173522","413","-0.15039062","-0.8955078","-0.025390625","-5.25","-62.15625","-9.34375"
"1574261173523","414","-0.19140625","-1.1533203","-0.0390625","-27.1875","-81.6875","-17.71875"
"1574261173523","415","-0.026367188","-1.0712891","-0.024414062","-22.28125","-88.9375","-14.1875"
"1574261173523","416","-0.19726562","-1.0302734","-0.10644531","-22.90625","-90.71875","-13.3125"
"1574261173523","417","-0.171875","-0.859375","-0.125","-17.59375","-84.5625","-2.625"
"1574261173524","418","-0.021484375","-0.82910156","-0.15136719","-13.4375","-80.09375","-3.90625"
"1574261173524","419","-0.013671875","-0.90234375","-0.1953125","-12.53125","-77.46875","-7.03125"
"1574261173918","420","-0.07421875","-0.9160156","-0.23046875","-14.1875","-61.0625","-8.0625"
"1574261173919","421","-0.020507812","-0.9355469","-0.26953125","-14.78125","-53.375","-13.25"
"1574261173920","422","-0.059570312","-0.9941406","-0.30566406","-11.375","-49.75","-14.96875"
"1574261173920","423","-0.18554688","-0.9550781","-0.33203125","-17.53125","-37.0","2.84375"
"1574261173920","424","-0.08300781","-1.0","-0.37304688","-18.5","-17.65625","10.0625"
"1574261173920","425","0.076171875","-0.9814453","-0.38964844","-11.4375","-20.03125","-1.96875"
"1574261173921","426","-0.12792969","-1.2392578","-0.3232422","-5.03125","1.03125","-8.125"
"1574261173921","427","-0.123046875","-1.09375","-0.2685547","-4.34375","-5.375","-6.125"
"1574261173921","428","0.12011719","-1.2275391","-0.2548828","-8.4375","-22.65625","-22.59375"
"1574261173921","429","0.055664062","-1.0546875","0.083984375","-8.4375","-50.375","-31.6875"
"1574261174511","430","-0.1171875","-0.77734375","0.080078125","-1.3125","-81.625","-7.40625"
"1574261174511","431","-0.30664062","-1.0205078","-0.048828125","-11.6875","-48.65625","-0.75"
"1574261174512","432","-0.15039062","-1.0634766","-0.14355469","0.34375","-28.53125","3.53125"
"1574261174513","433","0.15429688","-0.94921875","-0.2109375","9.3125","-49.15625","-5.375"
"1574261174513","434","0.057617188","-0.8642578","-0.22949219","5.46875","-54.21875","-10.28125"
"1574261174513","435","-0.109375","-0.8066406","-0.17382812","-0.25","-46.21875","2.90625"
"1574261174514","436","-0.08105469","-0.8652344","-0.15820312","7.3125","-20.03125","7.5"
"1574261174514","437","0.08300781","-0.921875","-0.17480469","22.09375","-18.21875","2.4375"
"1574261174514","438","0.07519531","-0.92285156","-0.20800781","21.09375","-21.0","-1.53125"
"1574261174514","439","-0.056640625","-0.9814453","-0.1796875","2.0","-6.65625","0.90625"
"1574261174910","440","-0.059570312","-1.0410156","-0.15429688","13.15625","14.3125","11.8125"
"1574261174911","441","0.140625","-1.1113281","-0.2265625","11.59375","5.21875","9.8125"
"1574261174911","442","0.13476562","-1.2949219","-0.25390625","-7.34375","9.875","-16.25"
"1574261174911","443","-0.021484375","-1.2587891","-0.22167969","-24.0","7.84375","-30.03125"
"1574261174912","444","-0.17871094","-1.1083984","0.017578125","-12.71875","-2.875","-30.53125"
"1574261174912","445","-0.37109375","-0.7783203","0.0029296875","-3.5625","-16.0625","-17.21875"
"1574261174912","446","-0.19921875","-1.0371094","-0.16113281","4.1875","5.78125","-2.21875"
"1574261174912","447","0.068359375","-1.1660156","-0.13671875","3.28125","-7.875","-5.4375"
"1574261174913","448","-0.1328125","-0.9921875","-0.10449219","-11.5625","-34.9375","-3.8125"
"1574261174913","449","-0.15820312","-0.85546875","-0.17382812","-12.15625","-28.34375","4.0625"
"1574261175505","450","-0.034179688","-0.76171875","-0.22949219","-4.15625","-23.40625","6.09375"
"1574261175506","451","-0.001953125","-0.828125","-0.24121094","-10.09375","-26.8125","-1.78125"
"1574261175506","452","-0.041992188","-0.85839844","-0.22851562","-11.125","-18.375","-6.78125"
"1574261175506","453","-0.056640625","-0.9511719","-0.23339844","-11.84375","-9.15625","-5.5625"
"1574261175507","454","-0.107421875","-0.9013672","-0.32910156","-19.3125","-15.6875","-3.75"
"1574261175507","455","-0.05859375","-1.0986328","-0.39648438","-25.59375","-13.5625","6.28125"
"1574261175507","456","0.013671875","-1.0820312","-0.42578125","-8.6875","1.9375","-2.46875"
"1574261175507","457","0.19042969","-1.0527344","-0.41210938","2.84375","-12.59375","-25.96875"
"1574261175508","458","-0.15234375","-1.3359375","-0.2919922","19.8125","16.21875","-29.375"
"1574261175508","459","-0.2783203","-1.1259766","-0.091796875","-10.15625","2.25","-10.75"
"1574261175509","460","-0.123046875","-0.8095703","-0.01953125","-0.625","-16.375","-0.4375"
"1574261175509","461","-0.07714844","-1.0390625","-0.06640625","-8.875","-16.4375","-7.65625"
"1574261175510","462","-0.34570312","-1.1816406","-0.23144531","-6.0","5.53125","9.125"
"1574261175510","463","-0.18261719","-0.86328125","-0.16894531","-8.3125","18.34375","8.34375"
"1574261175510","464","-0.0087890625","-0.83203125","-0.1796875","4.3125","1.09375","11.59375"
"1574261175510","465","0.0078125","-0.79296875","-0.20410156","16.90625","-0.9375","5.53125"
"1574261175511","466","-0.037109375","-0.7392578","-0.14941406","28.65625","7.375","11.9375"
"1574261175511","467","-0.038085938","-0.91015625","-0.15234375","33.8125","18.78125","16.09375"
"1574261175511","468","-0.0146484375","-1.0400391","-0.20019531","25.125","28.96875","17.75"
"1574261175511","469","0.07519531","-0.95410156","-0.25195312","22.875","23.65625","14.875"
"1574261175906","470","0.0546875","-0.9628906","-0.29003906","10.0625","13.59375","5.78125"
"1574261175906","471","0.17480469","-1.0908203","-0.24609375","6.09375","-3.0","-6.4375"
"1574261175907","472","0.12011719","-1.1523438","-0.2919922","0.96875","-4.65625","-25.84375"
"1574261175907","473","-0.109375","-1.2568359","-0.20800781","-23.21875","39.90625","-28.03125"
"1574261175907","474","-0.16796875","-1.1220703","0.041992188","-27.84375","16.21875","-18.25"
"1574261175908","475","-0.4140625","-0.88964844","0.0048828125","-5.21875","5.0625","-14.1875"
"1574261175908","476","-0.5761719","-1.1416016","-0.21777344","18.21875","40.8125","15.0625"
"1574261175908","477","0.15625","-1.3818359","-0.18945312","6.6875","36.4375","15.71875"
"1574261175908","478","-0.08691406","-1.0751953","-0.061523438","11.34375","-4.15625","-8.125"
"1574261175909","479","-0.111328125","-0.84277344","-0.14355469","7.8125","1.5625","6.46875"
"1574261176304","480","-0.15332031","-0.7441406","-0.18457031","-1.0","16.46875","14.875"
"1574261176306","481","-0.0390625","-0.7402344","-0.21386719","-5.09375","15.25","9.6875"
"1574261176307","482","0.034179688","-0.75878906","-0.20996094","-9.0","7.5625","-6.78125"
"1574261176307","483","-0.09667969","-0.8623047","-0.23242188","-18.03125","3.40625","-13.5625"
"1574261176307","484","-0.095703125","-0.9375","-0.2705078","-16.125","4.125","-4.21875"
"1574261176307","485","0.04296875","-1.1982422","-0.34375","-14.46875","3.84375","5.125"
"1574261176308","486","-0.0703125","-1.0410156","-0.37402344","-0.25","11.53125","6.6875"
"1574261176308","487","0.15332031","-1.2880859","-0.36523438","-4.03125","12.875","-9.53125"
"1574261176308","488","-0.2578125","-1.3212891","-0.28808594","13.71875","28.3125","-1.125"
"1574261176308","489","-0.359375","-0.95214844","-0.0078125","-17.71875","26.09375","5.40625"
"1574261176702","490","0.17675781","-0.8066406","-0.10253906","-5.03125","-24.3125","-8.5"
"1574261176702","491","-0.119140625","-1.1044922","0.034179688","3.65625","-11.78125","-0.4375"
"1574261176703","492","-0.5","-1.0195312","-0.080078125","-8.0","-9.90625","20.3125"
"1574261176704","493","-0.107421875","-1.0400391","-0.14746094","-5.03125","3.84375","24.21875"
"1574261176704","494","0.07324219","-0.95703125","-0.16015625","10.1875","-12.40625","-1.40625"
"1574261176705","495","-0.07324219","-0.8095703","-0.15722656","11.09375","-19.4375","-7.15625"
"1574261176705","496","-0.07519531","-0.73339844","-0.1484375","7.4375","-15.6875","1.3125"
"1574261176705","497","-0.016601562","-0.7578125","-0.16210938","13.78125","-2.875","6.46875"
"1574261176706","498","0.036132812","-0.86816406","-0.17773438","17.5625","1.5625","9.03125"
"1574261176706","499","-0.09472656","-0.9814453","-0.15234375","15.0625","17.6875","8.84375"
"1574261177098","500","-0.01953125","-1.0644531","-0.21484375","19.5625","15.1875","11.40625"
"1574261177098","501","0.20703125","-1.1542969","-0.24902344","-5.6875","3.65625","-10.8125"
"1574261177099","502","0.07128906","-1.2177734","-0.2919922","-11.1875","-2.34375","-24.6875"
"1574261177099","503","-0.21875","-1.2568359","-0.14648438","-28.53125","34.96875","-28.8125"
"1574261177099","504","-0.16894531","-1.0634766","0.072265625","7.5625","39.28125","-29.5625"
"1574261177100","505","-0.5449219","-0.95996094","0.018554688","5.34375","9.8125","-6.96875"
"1574261177101","506","-0.21875","-1.203125","-0.19238281","-1.125","25.5625","12.0625"
"1574261177101","507","0.19140625","-1.1650391","-0.12402344","-1.84375","6.15625","3.59375"
"1574261177101","508","-0.1171875","-0.9453125","-0.06542969","-4.90625","-20.46875","-6.96875"
"1574261177101","509","-0.123046875","-0.7597656","-0.13476562","-14.25","-22.65625","3.09375"
"1574261177496","510","-0.056640625","-0.6904297","-0.24023438","-12.28125","-9.46875","2.90625"
"1574261177496","511","0.036132812","-0.7998047","-0.3076172","-21.3125","-11.625","-1.59375"
"1574261177496","512","0.013671875","-0.8623047","-0.21777344","-22.0","-22.125","-13.125"
"1574261177497","513","-0.11035156","-0.87109375","-0.25976562","-13.25","-23.09375","-22.90625"
"1574261177497","514","-0.109375","-1.0380859","-0.3544922","-6.65625","-14.96875","-3.6875"
"1574261177497","515","-0.14550781","-1.2275391","-0.3642578","-12.09375","7.0625","8.71875"
"1574261177497","516","0.09375","-1.0742188","-0.41992188","-13.03125","0.65625","-3.1875"
"1574261177499","517","0.0546875","-1.3007812","-0.30566406","-0.1875","16.59375","-24.6875"
"1574261177499","518","-0.2265625","-1.3027344","-0.18457031","-26.125","3.46875","-4.90625"
"1574261177500","519","-0.14160156","-0.7558594","0.0625","5.0625","-19.96875","10.90625"
"1574261177894","520","0.0126953125","-0.9765625","0.005859375","-12.15625","-28.09375","-3.3125"
"1574261177895","521","-0.4189453","-1.1640625","-0.20117188","3.84375","-0.4375","21.65625"
"1574261177895","522","-0.19628906","-0.96484375","-0.18359375","-1.90625","18.21875","18.71875"
"1574261177895","523","0.07324219","-0.875","-0.171875","2.3125","-6.1875","12.0625"
"1574261177896","524","-0.0048828125","-0.80859375","-0.21386719","13.59375","-16.375","4.5625"
"1574261177896","525","-0.04296875","-0.7480469","-0.21386719","20.5625","-14.1875","6.5625"
"1574261177896","526","0.076171875","-0.8144531","-0.203125","24.03125","-12.90625","11.28125"
"1574261177896","527","0.01171875","-0.9501953","-0.0859375","16.84375","-9.46875","19.9375"
"1574261177897","528","-0.19335938","-0.88964844","-0.27148438","-2.21875","12.1875","7.125"
"1574261177898","529","0.07324219","-1.0322266","-0.3173828","-9.34375","2.1875","9.25"
"1574261178486","530","0.20800781","-1.2724609","-0.25390625","-4.96875","-23.9375","-16.75"
"1574261178486","531","-0.076171875","-1.3007812","-0.42382812","-17.34375","-10.09375","-27.53125"
"1574261178487","532","-0.22070312","-1.2197266","-0.17773438","-15.46875","16.15625","-18.15625"
"1574261178487","533","-0.20507812","-1.0820312","0.048828125","16.53125","12.375","-25.34375"
"1574261178487","534","-0.6611328","-0.8046875","-0.13769531","9.5","18.71875","10.46875"
"1574261178487","535","-0.052734375","-1.0810547","-0.1953125","3.59375","51.8125","20.75"
"1574261178488","536","0.109375","-1.2216797","-0.07421875","5.59375","10.1875","-0.4375"
"1574261178488","537","-0.24414062","-0.953125","-0.17480469","-2.40625","-3.96875","-7.03125"
"1574261178488","538","-0.11230469","-0.7861328","-0.23925781","-2.9375","6.40625","-2.625"
"1574261178488","539","-0.020507812","-0.7753906","-0.2548828","1.4375","-0.4375","-7.8125"
"1574261178689","540","-0.0625","-0.7949219","-0.26953125","-5.25","-1.46875","-13.375"
"1574261178691","541","-0.0078125","-0.8076172","-0.23632812","-5.21875","3.03125","-14.96875"
"1574261178691","542","-0.068359375","-0.91308594","-0.25878906","-12.90625","1.375","-18.375"
"1574261178692","543","-0.12109375","-1.0341797","-0.32226562","-17.21875","4.125","-1.0625"
"1574261178692","544","-0.08105469","-1.1298828","-0.34472656","-12.84375","26.46875","13.84375"
"1574261178692","545","0.24023438","-1.0888672","-0.4111328","8.90625","4.9375","-10.4375"
"1574261178693","546","0.001953125","-1.34375","-0.28515625","18.40625","12.25","-32.5"
"1574261178693","547","-0.29492188","-1.3261719","-0.05859375","0.28125","11.28125","-11.0625"
"1574261178693","548","-0.19433594","-0.6376953","0.048828125","19.40625","-32.125","4.6875"
"1574261178693","549","0.18554688","-1.0214844","-0.045898438","-5.5625","-38.84375","-7.9375"
"1574261179481","550","-0.390625","-1.1669922","-0.11230469","-18.15625","-25.78125","12.875"
"1574261179482","551","-0.41210938","-0.9902344","-0.119140625","-15.75","7.3125","29.40625"
"1574261179482","552","-0.021484375","-0.90722656","-0.18457031","5.59375","16.34375","17.1875"
"1574261179484","553","0.022460938","-0.82421875","-0.16894531","31.53125","14.09375","0.15625"
"1574261179484","554","-0.0703125","-0.75878906","-0.08300781","21.09375","24.53125","-1.125"
"1574261179484","555","-0.09667969","-0.85253906","-0.10839844","19.03125","30.6875","12.5"
"1574261179485","556","0.041015625","-0.9199219","-0.20019531","13.84375","35.5625","16.65625"
"1574261179485","557","0.076171875","-0.9013672","-0.23339844","16.84375","38.125","5.90625"
"1574261179485","558","0.025390625","-0.9472656","-0.21972656","-9.90625","44.25","-1.96875"
"1574261179486","559","0.18945312","-1.1484375","-0.30664062","-37.4375","42.28125","-42.96875"
"1574261179879","560","0.07421875","-1.1386719","-0.20703125","11.9375","20.0","-32.125"
"1574261179880","561","-0.20019531","-1.2871094","-0.20214844","-20.34375","35.75","-35.59375"
"1574261179880","562","-0.23046875","-1.1621094","-0.048828125","10.1875","30.8125","-16.875"
"1574261179880","563","-0.40234375","-0.8232422","-0.0029296875","22.8125","19.625","7.25"
"1574261179880","564","-0.34179688","-1.1064453","-0.1796875","30.375","77.75","27.34375"
"1574261179882","565","-0.0126953125","-1.2949219","-0.1328125","0.71875","77.5625","15.5625"
"1574261179882","566","-0.06933594","-0.9501953","-0.001953125","-6.4375","35.875","4.75"
"1574261179882","567","-0.02734375","-0.8574219","-0.1015625","-8.25","26.40625","12.0625"
"1574261179883","568","-0.06933594","-0.80371094","-0.25390625","-1.3125","35.75","10.59375"
"1574261179883","569","-0.029296875","-0.8496094","-0.2705078","-18.75","33.625","7.90625"
"1574261179885","570","-0.08105469","-0.97265625","-0.2763672","-22.125","28.0","0.40625"
"1574261179885","571","-0.19140625","-0.88183594","-0.29296875","-22.90625","34.71875","-4.59375"
"1574261179886","572","-0.080078125","-0.9033203","-0.33789062","-19.4375","37.21875","-6.125"
"1574261179886","573","0.068359375","-1.0009766","-0.375","-10.5625","29.84375","-11.0"
"1574261179886","574","0.1796875","-0.9716797","-0.31933594","5.40625","32.53125","-23.8125"
"1574261179887","575","-0.028320312","-1.0332031","-0.26464844","15.625","35.5625","-16.1875"
"1574261179887","576","-0.27734375","-1.4394531","-0.3310547","-12.15625","55.09375","3.03125"
"1574261179888","577","-0.3076172","-1.1757812","-0.17773438","-25.46875","60.40625","17.0"
"1574261179888","578","-0.09863281","-0.71875","-0.10839844","-29.5625","50.46875","2.5"
"1574261179888","579","-0.10644531","-0.8466797","-0.14746094","-8.4375","49.375","17.875"
"1574261180280","580","-0.4404297","-1.1923828","-0.09277344","-6.0","73.03125","30.875"
"1574261180281","581","-0.25195312","-0.9765625","-0.064453125","-2.8125","110.03125","28.3125"
"1574261180281","582","-0.06347656","-0.96972656","-0.17871094","-9.0","103.75","34.90625"
"1574261180281","583","-0.015625","-1.0253906","-0.14550781","10.46875","98.75","24.8125"
"1574261180282","584","-0.24902344","-0.80566406","-0.11425781","23.3125","102.71875","29.28125"
"1574261180282","585","-0.20214844","-0.9707031","-0.16113281","22.1875","128.15625","41.4375"
"1574261180282","586","0.022460938","-0.9423828","-0.11328125","26.84375","152.4375","40.5"
"1574261180282","587","0.12695312","-0.95996094","-0.12695312","19.34375","139.6875","31.65625"
"1574261180283","588","0.020507812","-1.0224609","-0.19726562","7.125","124.5","27.625"
"1574261180284","589","0.0126953125","-1.0341797","-0.25878906","-2.59375","125.21875","21.15625"
"1574261180676","590","0.10058594","-1.1367188","-0.17480469","-16.5625","121.25","-12.28125"
"1574261180677","591","0.06347656","-0.9501953","-0.16015625","13.96875","78.46875","-18.8125"
"1574261180677","592","0.15527344","-0.7783203","-0.24707031","17.1875","81.59375","-13.75"
"1574261180677","593","-0.005859375","-0.9980469","-0.25","9.5","94.90625","-13.1875"
"1574261180678","594","-0.33984375","-1.0654297","-0.3310547","1.3125","95.5625","-6.96875"
"1574261180678","595","-0.3623047","-1.0458984","-0.18261719","-11.0","136.46875","9.8125"
"1574261180678","596","-0.25878906","-0.8828125","-0.052734375","17.625","133.40625","30.9375"
"1574261180678","597","-0.3408203","-1.0605469","-0.15136719","10.46875","141.15625","41.90625"
"1574261180679","598","-0.11425781","-1.1943359","-0.15820312","3.59375","147.09375","39.0625"
"1574261180679","599","-0.06542969","-1.0136719","-0.16503906","5.40625","133.03125","30.0"
"1574261181074","600","-0.23828125","-1.0351562","-0.25097656","9.03125","136.15625","38.125"
"1574261181076","601","-0.034179688","-0.96777344","-0.23242188","13.84375","149.9375","28.3125"
"1574261181076","602","-0.08886719","-0.94140625","-0.19628906","14.8125","147.125","18.65625"
"1574261181076","603","-0.25","-0.96191406","-0.25","10.25","158.3125","22.6875"
"1574261181077","604","-0.057617188","-0.99316406","-0.18554688","8.90625","164.40625","22.1875"
"1574261181077","605","0.056640625","-1.0078125","-0.18652344","18.71875","136.75","14.625"
"1574261181077","606","-0.024414062","-0.984375","-0.23632812","13.59375","108.9375","11.03125"
"1574261181077","607","0.068359375","-0.9638672","-0.29101562","6.28125","96.1875","9.125"
"1574261181078","608","0.109375","-0.98828125","-0.31054688","0.34375","73.65625","7.25"
"1574261181078","609","0.026367188","-0.984375","-0.31640625","-5.09375","58.21875","0.0"
"1574261181471","610","0.0625","-0.9892578","-0.3203125","-16.0","39.0625","-6.65625"
"1574261181472","611","0.07324219","-0.9091797","-0.38671875","-13.8125","16.84375","-15.15625"
"1574261181472","612","0.041015625","-0.9013672","-0.39453125","-12.84375","6.21875","-17.15625"
"1574261181473","613","-0.1953125","-1.2246094","-0.29785156","-18.375","35.625","-12.09375"
"1574261181473","614","-0.14550781","-1.1464844","-0.23242188","-22.34375","11.46875","-12.84375"
"1574261181474","615","-0.044921875","-1.1630859","-0.24804688","-18.03125","2.84375","-14.46875"
"1574261181474","616","-0.099609375","-0.9394531","-0.16601562","-10.40625","0.15625","-6.78125"
"1574261181474","617","-0.13671875","-0.94921875","-0.13867188","-9.59375","1.15625","9.25"
"1574261181475","618","-0.109375","-0.9970703","-0.10449219","-4.15625","17.8125","13.15625"
"1574261181475","619","-0.10058594","-0.9189453","-0.14453125","2.3125","32.75","14.875"
"1574261182066","620","-0.0029296875","-0.8691406","-0.17675781","8.71875","23.78125","18.0"
"1574261182067","621","0.07324219","-0.9013672","-0.17871094","6.28125","17.75","12.25"
"1574261182067","622","0.016601562","-0.9169922","-0.18066406","14.15625","20.5","14.375"
"1574261182067","623","0.01953125","-0.9423828","-0.19628906","15.1875","23.71875","14.625"
"1574261182067","624","0.08300781","-0.9628906","-0.24121094","11.71875","21.28125","9.03125"
"1574261182069","625","0.041992188","-0.94921875","-0.26464844","1.09375","20.375","5.53125"
"1574261182069","626","0.049804688","-0.94921875","-0.2685547","-2.875","21.59375","1.5"
"1574261182069","627","0.14648438","-0.98535156","-0.21386719","-2.28125","13.90625","-6.3125"
"1574261182070","628","0.08984375","-1.0136719","-0.2841797","-10.15625","7.0625","-7.8125"
"1574261182070","629","-0.0029296875","-1.2001953","-0.2861328","-15.6875","29.15625","-9.84375"
"1574261182266","630","-0.11035156","-1.3017578","-0.23046875","-21.8125","15.625","-22.21875"
"1574261182267","631","-0.15722656","-1.0751953","-0.08886719","-9.71875","3.28125","-27.65625"
"1574261182267","632","-0.33789062","-0.71972656","-0.11230469","-5.21875","-11.3125","-6.65625"
"1574261182267","633","-0.19238281","-1.0253906","-0.3388672","-4.03125","20.1875","10.71875"
"1574261182268","634","0.11816406","-1.2236328","-0.28320312","-6.71875","12.5625","-5.21875"
"1574261182268","635","-0.041015625","-0.9794922","-0.1640625","-6.90625","-27.25","-19.375"
"1574261182268","636","-0.14941406","-0.82910156","-0.24707031","-7.34375","-22.21875","-4.40625"
"1574261182269","637","0.06542969","-0.8251953","-0.265625","-5.5625","-25.03125","-0.6875"
"1574261182270","638","0.19140625","-0.9199219","-0.2861328","-5.15625","-48.53125","-11.96875"
"1574261182270","639","-0.08496094","-0.9160156","-0.24316406","-1.34375","-56.40625","-15.03125"
"1574261182664","640","-0.10253906","-0.8466797","-0.26660156","-7.09375","-52.125","0.65625"
"1574261182665","641","-0.043945312","-0.93066406","-0.30273438","-11.25","-34.875","11.53125"
"1574261182665","642","0.0146484375","-1.0175781","-0.37402344","-21.4375","-24.96875","11.15625"
"1574261182665","643","-0.0078125","-0.9902344","-0.42089844","-16.1875","-16.3125","-0.375"
"1574261182666","644","0.030273438","-1.0410156","-0.37597656","14.28125","-2.875","-5.4375"
"1574261182666","645","-0.09277344","-1.2607422","-0.3642578","15.5625","-2.28125","-3.0625"
"1574261182666","646","-0.12890625","-0.94628906","-0.33496094","-2.21875","-16.6875","-5.5"
"1574261182666","647","-0.04296875","-0.92285156","-0.20019531","-1.53125","-29.4375","-11.71875"
"1574261182667","648","-0.17578125","-0.9785156","-0.025390625","12.1875","-54.53125","3.78125"
"1574261182668","649","-0.328125","-1.09375","-0.14257812","6.875","-30.03125","8.59375"
"1574261183060","650","-0.15527344","-0.9921875","-0.28808594","4.625","-6.1875","11.40625"
"1574261183061","651","-0.0390625","-1.0878906","-0.29882812","-2.40625","-9.46875","6.6875"
"1574261183061","652","0.024414062","-0.9160156","-0.21386719","5.28125","-11.6875","-9.46875"
"1574261183061","653","0.06738281","-0.8046875","-0.265625","19.34375","-19.25","-14.0"
"1574261183061","654","-0.12011719","-0.74902344","-0.27148438","22.25","-8.625","0.34375"
"1574261183062","655","-0.07421875","-0.7763672","-0.203125","13.71875","14.625","2.0625"
"1574261183062","656","0.07519531","-0.85058594","-0.13769531","28.84375","38.5","-4.90625"
"1574261183062","657","0.036132812","-1.078125","-0.10644531","18.96875","36.71875","-8.75"
"1574261183062","658","0.18554688","-1.0371094","-0.15234375","10.25","29.28125","-36.625"
"1574261183063","659","-0.27539062","-1.2333984","-0.16601562","-22.28125","30.1875","-37.25"
"1574261183855","660","-0.40234375","-1.4970703","-0.2529297","10.0625","71.53125","-24.0"
"1574261183856","661","-0.17871094","-0.9746094","-0.060546875","9.5","33.0","-1.53125"
"1574261183856","662","-0.27539062","-1.0283203","-0.22851562","15.84375","46.5625","16.65625"
"1574261183856","663","-0.043945312","-1.2939453","-0.296875","1.6875","83.125","7.5625"
"1574261183857","664","-0.15136719","-0.8564453","-0.103515625","-15.75","73.40625","-2.9375"
"1574261183857","665","0.064453125","-0.6298828","-0.18261719","7.25","54.25","-6.375"
"1574261183857","666","0.20507812","-0.85058594","-0.2939453","15.71875","55.71875","-18.21875"
"1574261183858","667","0.07519531","-0.9658203","-0.23730469","14.28125","14.625","-13.625"
"1574261183858","668","-0.107421875","-0.8808594","-0.29003906","-1.46875","12.6875","3.53125"
"1574261183858","669","-0.045898438","-1.0371094","-0.41503906","-6.0625","36.4375","18.34375"
"1574261184051","670","0.0546875","-0.9550781","-0.33789062","-12.40625","22.25","21.28125"
"1574261184052","671","0.13964844","-1.0546875","-0.33398438","-18.625","13.0","14.9375"
"1574261184052","672","0.057617188","-1.0693359","-0.41992188","-19.4375","18.21875","8.59375"
"1574261184053","673","-0.024414062","-1.2548828","-0.3564453","-23.15625","25.75","-1.125"
"1574261184054","674","-0.10449219","-1.203125","-0.20605469","-20.875","18.46875","4.6875"
"1574261184054","675","-0.15820312","-1.0332031","-0.08691406","-23.9375","4.25","1.21875"
"1574261184054","676","-0.10546875","-0.8535156","0.041992188","-2.75","-22.15625","8.34375"
"1574261184055","677","-0.24902344","-1.0214844","-0.0087890625","-7.34375","-12.15625","20.5625"
"1574261184055","678","-0.23144531","-1.0927734","-0.1484375","5.0625","13.84375","20.5"
"1574261184055","679","-0.017578125","-0.99316406","-0.18554688","8.03125","10.59375","10.71875"
"1574261184253","680","0.024414062","-0.92578125","-0.17578125","4.0","3.21875","6.8125"
"1574261184254","681","-0.017578125","-0.8457031","-0.16796875","4.6875","4.8125","8.28125"
"1574261184254","682","-0.013671875","-0.7519531","-0.19921875","13.0","-3.75","14.875"
"1574261184254","683","0.017578125","-0.828125","-0.21289062","13.0","-4.28125","16.9375"
"1574261184255","684","0.076171875","-0.8720703","-0.17578125","5.78125","2.71875","9.8125"
"1574261184256","685","-0.041015625","-0.8886719","-0.19335938","10.3125","-1.0","9.9375"
"1574261184257","686","0.0126953125","-1.0429688","-0.17871094","12.3125","-5.3125","8.15625"
"1574261184257","687","0.095703125","-1.1386719","-0.265625","-8.0","-1.65625","-9.15625"
"1574261184258","688","-0.07128906","-1.3398438","-0.2607422","-11.125","12.5625","-26.25"
"1574261184258","689","-0.111328125","-1.2753906","-0.14257812","-26.9375","3.40625","-37.84375"
"1574261184652","690","-0.15136719","-1.0380859","0.08105469","18.34375","-13.4375","-43.59375"
"1574261184653","691","-0.5263672","-0.8203125","0.041992188","10.125","-15.15625","-7.28125"
"1574261184653","692","-0.1796875","-1.2626953","-0.23339844","14.21875","12.75","15.5"
"1574261184653","693","0.16699219","-1.1367188","-0.18164062","6.03125","-29.1875","10.59375"
"1574261184654","694","-0.059570312","-0.86816406","-0.0859375","12.8125","-51.71875","-4.28125"
"1574261184654","695","-0.095703125","-0.8828125","-0.20507812","2.84375","-22.78125","6.34375"
"1574261184654","696","-0.08984375","-0.80371094","-0.22265625","4.25","-8.75","2.25"
"1574261184656","697","-0.0029296875","-0.8144531","-0.25","-13.25","-25.53125","-5.15625"
"1574261184657","698","-0.038085938","-0.86328125","-0.17285156","-11.71875","-11.0625","-13.5"
"1574261184657","699","-0.19628906","-0.87109375","-0.16601562","-8.0625","5.84375","-14.34375"
"1574261185049","700","-0.095703125","-1.0039062","-0.22949219","-9.0","12.4375","-1.90625"
"1574261185049","701","-0.030273438","-1.2373047","-0.296875","3.78125","16.65625","4.8125"
"1574261185050","702","-0.037109375","-0.9902344","-0.22167969","-7.03125","22.1875","5.46875"
"1574261185050","703","-0.06933594","-1.3818359","-0.22753906","-7.46875","34.84375","-0.125"
"1574261185050","704","-0.17675781","-1.1503906","-0.19335938","-4.21875","15.90625","0.71875"
"1574261185050","705","0.051757812","-0.8457031","-0.12011719","-18.21875","-19.0625","-8.8125"
"1574261185051","706","-0.015625","-1.0175781","0.12890625","-6.84375","-33.59375","8.46875"
"1574261185051","707","-0.4111328","-1.0839844","0.032226562","0.21875","-25.59375","13.96875"
"1574261185051","708","-0.22851562","-1.0761719","-0.20605469","-13.5","1.09375","20.0625"
"1574261185052","709","0.10058594","-0.9980469","-0.13964844","-15.53125","-5.75","11.9375"
"1574261185446","710","0.049804688","-0.86035156","-0.13769531","-1.59375","-23.625","-0.6875"
"1574261185447","711","-0.076171875","-0.73535156","-0.18164062","17.0","-17.65625","-5.5625"
"1574261185447","712","-0.08105469","-0.72265625","-0.17089844","18.78125","-5.75","5.21875"
"1574261185447","713","0.022460938","-0.8623047","-0.18652344","8.46875","9.03125","9.5"
"1574261185448","714","-0.087890625","-0.9580078","-0.12207031","14.5","12.75","5.0625"
"1574261185448","715","-0.068359375","-1.0732422","-0.16992188","19.53125","7.25","19.53125"
"1574261185448","716","0.15136719","-1.0830078","-0.29589844","17.3125","4.8125","-0.875"
"1574261185448","717","0.14648438","-1.1855469","-0.3017578","-1.40625","3.28125","-26.4375"
"1574261185449","718","-0.1015625","-1.25","-0.107421875","-26.625","12.5625","-45.4375"
"1574261185449","719","-0.15136719","-1.2441406","0.0146484375","-7.40625","14.09375","-39.375"
"1574261185844","720","-0.36523438","-0.8935547","0.048828125","3.15625","-0.75","-23.625"
"1574261185846","721","-0.47070312","-0.9316406","-0.059570312","4.5625","27.15625","16.40625"
"1574261185847","722","0.12597656","-1.2529297","-0.15722656","2.65625","26.40625","7.0"
"1574261185847","723","-0.028320312","-1.0917969","-0.029296875","-11.6875","-4.53125","-8.8125"
"1574261185847","724","-0.1953125","-0.93847656","-0.13964844","-8.9375","-4.28125","-5.375"
"1574261185848","725","-0.024414062","-0.8798828","-0.25976562","-1.0","-1.90625","0.0"
"1574261185848","726","0.10253906","-0.8330078","-0.22265625","-6.59375","-12.84375","-2.28125"
"1574261185848","727","0.04296875","-0.7871094","-0.17480469","-0.625","-17.46875","-6.1875"
"1574261185849","728","-0.12011719","-0.78027344","-0.16308594","-6.84375","-14.71875","-2.15625"
"1574261185849","729","-0.115234375","-0.8730469","-0.26464844","-17.28125","-12.34375","1.5625"
"1574261186241","730","-0.025390625","-1.0625","-0.28710938","-11.84375","2.25","4.8125"
"1574261186242","731","-0.1171875","-1.1386719","-0.36914062","-8.5625","11.21875","7.90625"
"1574261186242","732","0.2626953","-1.2753906","-0.25390625","4.6875","10.1875","-12.84375"
"1574261186244","733","-0.0703125","-1.3164062","-0.27929688","-2.28125","11.53125","-32.84375"
"1574261186244","734","-0.23242188","-1.1699219","-0.099609375","-33.53125","6.15625","-15.75"
"1574261186244","735","0.025390625","-0.7763672","0.041992188","-6.25","-17.78125","4.0625"
"1574261186245","736","-0.076171875","-0.9785156","-0.01953125","-12.34375","-31.75","1.6875"
"1574261186245","737","-0.41992188","-1.0898438","-0.10253906","-13.25","-6.53125","19.09375"
"1574261186245","738","-0.24609375","-0.9169922","-0.11425781","-3.8125","10.40625","30.3125"
"1574261186245","739","0.034179688","-0.99316406","-0.19140625","5.90625","5.53125","20.1875"
"1574261186639","740","0.01171875","-0.88671875","-0.20019531","9.3125","-2.6875","8.46875"
"1574261186640","741","-0.024414062","-0.76660156","-0.1328125","12.875","1.21875","6.15625"
"1574261186640","742","0.0146484375","-0.85839844","-0.17675781","15.71875","5.34375","7.625"
"1574261186640","743","0.059570312","-0.9121094","-0.20703125","11.15625","9.6875","3.78125"
"1574261186640","744","-0.020507812","-0.8955078","-0.19628906","10.1875","7.6875","7.375"
"1574261186642","745","-0.056640625","-1.0253906","-0.21386719","2.0","8.84375","10.71875"
"1574261186643","746","0.15722656","-1.0341797","-0.23828125","-11.5625","2.90625","-4.46875"
"1574261186643","747","0.053710938","-1.0791016","-0.29492188","-2.8125","-6.1875","-16.25"
"1574261186643","748","-0.18359375","-1.2949219","-0.21679688","-18.875","24.34375","-20.34375"
"1574261186644","749","-0.18945312","-1.2949219","-0.032226562","-6.0625","29.15625","-25.09375"
"1574261187036","750","-0.2763672","-0.84472656","-0.025390625","10.96875","-7.71875","-18.9375"
"1574261187036","751","-0.3154297","-0.96191406","-0.13867188","9.125","6.875","9.8125"
"1574261187036","752","0.0546875","-1.2490234","-0.22851562","7.5","26.71875","6.5625"
"1574261187036","753","-0.0234375","-1.0253906","-0.09277344","-3.8125","-13.25","-10.28125"
"1574261187037","754","-0.11425781","-0.85058594","-0.125","-3.1875","-27.125","-5.15625"
"1574261187037","755","-0.07324219","-0.8076172","-0.22070312","2.96875","-9.65625","3.90625"
"1574261187037","756","-0.020507812","-0.84765625","-0.24121094","-1.46875","-13.5625","3.65625"
"1574261187038","757","-0.044921875","-0.9296875","-0.21582031","-8.875","-20.84375","-5.21875"
"1574261187039","758","-0.08496094","-0.94628906","-0.22167969","-12.84375","-14.90625","-6.4375"
"1574261187039","759","-0.12402344","-0.921875","-0.23242188","-13.625","-12.53125","-2.09375"
"1574261187434","760","-0.022460938","-1.0429688","-0.2607422","-3.90625","-9.46875","-1.90625"
"1574261187434","761","-0.01953125","-1.0859375","-0.3515625","-8.25","-14.125","0.34375"
"1574261187434","762","0.022460938","-0.95703125","-0.3408203","-0.9375","-6.78125","-1.84375"
"1574261187435","763","-0.013671875","-1.2480469","-0.2998047","1.75","3.90625","1.15625"
"1574261187435","764","-0.14746094","-1.1201172","-0.25","-14.125","-0.6875","-2.875"
"1574261187435","765","-0.23828125","-0.98535156","-0.11230469","-21.75","7.1875","0.40625"
"1574261187436","766","0.068359375","-0.8339844","-0.0390625","-12.96875","-20.15625","-4.09375"
"1574261187436","767","-0.19628906","-1.0693359","-0.03125","-8.3125","-32.25","3.46875"
"1574261187436","768","-0.43652344","-1.1015625","-0.17089844","-16.875","-4.21875","15.0"
"1574261187438","769","-0.18164062","-1.0048828","-0.22460938","-22.34375","16.28125","19.75"
