"# PR data"
"# Start time: 20191120T143624"
"# Subject: aggie"
"# Activity type: Heel raises"
"# Correctness: Correct"
"# Notes: "
""
"timestamp","seq","accel_x","accel_y","accel_z","gyro_x","gyro_y","gyro_z"
"1574260585221","0","-0.16113281","-0.7529297","-0.001953125","13.59375","41.0","14.75"
"1574260585222","1","-0.15722656","-0.9042969","-0.045898438","11.03125","48.8125","15.96875"
"1574260585222","2","-0.115234375","-1.5224609","-0.17285156","-14.1875","44.53125","-12.71875"
"1574260585222","3","-0.31347656","-1.3730469","-0.16308594","0.78125","15.5625","-22.53125"
"1574260585223","4","0.109375","-0.8203125","-0.14648438","21.84375","-33.34375","-17.28125"
"1574260585223","5","-0.09765625","-0.75097656","-0.029296875","-4.09375","-30.28125","-6.125"
"1574260585223","6","-0.3251953","-0.78125","-0.03125","-13.5","5.84375","15.84375"
"1574260585226","7","-0.27539062","-1.1044922","-0.12890625","-14.78125","10.125","15.65625"
"1574260585227","8","-0.31347656","-1.2402344","-0.107421875","-6.59375","16.59375","3.34375"
"1574260585227","9","-0.07421875","-1.0126953","-0.095703125","15.5625","4.0625","-9.90625"
"1574260585618","10","0.020507812","-0.8671875","-0.1015625","-2.8125","-20.03125","-16.6875"
"1574260585619","11","-0.16210938","-0.95410156","-0.10839844","-16.6875","-5.4375","-9.0"
"1574260585619","12","-0.19042969","-1.0478516","-0.12597656","-15.28125","-3.8125","-1.125"
"1574260585620","13","-0.19335938","-1.0517578","-0.17578125","-10.40625","-8.5","3.40625"
"1574260585620","14","-0.17089844","-1.0517578","-0.13671875","-6.1875","-2.28125","-1.1875"
"1574260585620","15","-0.16113281","-1.1865234","-0.083984375","-1.53125","3.15625","-2.46875"
"1574260585621","16","-0.19921875","-1.3339844","-0.078125","-8.375","2.59375","-2.34375"
"1574260585621","17","-0.23535156","-1.2441406","-0.11328125","-9.53125","-2.9375","-5.625"
"1574260585621","18","-0.140625","-1.1015625","-0.16503906","-4.53125","-7.59375","-11.3125"
"1574260585621","19","-0.125","-0.89746094","-0.109375","-10.4375","-9.40625","-14.0"
"1574260586215","20","-0.12207031","-0.6748047","-0.060546875","-3.6875","-16.0625","-11.5625"
"1574260586215","21","-0.13671875","-0.67285156","-0.048828125","-5.9375","-8.3125","-1.40625"
"1574260586215","22","-0.15527344","-0.8642578","-0.09667969","-12.28125","12.9375","-2.03125"
"1574260586216","23","-0.14746094","-0.88964844","-0.091796875","-6.5","18.0","-2.34375"
"1574260586216","24","-0.19824219","-0.9199219","-0.053710938","-6.0625","7.0625","0.90625"
"1574260586218","25","-0.14550781","-1.0380859","-0.10546875","-7.875","10.1875","-1.96875"
"1574260586218","26","-0.1015625","-0.9941406","-0.14160156","-4.15625","6.5","-3.0625"
"1574260586218","27","-0.055664062","-0.99316406","-0.15917969","-2.46875","-3.8125","-3.6875"
"1574260586218","28","-0.10253906","-0.97753906","-0.18164062","-3.375","-3.5625","-2.875"
"1574260586219","29","-0.12988281","-0.9746094","-0.17675781","-4.03125","-4.84375","-4.40625"
"1574260586611","30","-0.13183594","-1.0029297","-0.1484375","1.375","-4.59375","-4.28125"
"1574260586611","31","-0.12402344","-1.015625","-0.11328125","-5.09375","0.15625","-4.09375"
"1574260586612","32","-0.15722656","-1.0019531","-0.125","2.1875","-0.4375","-4.15625"
"1574260586612","33","-0.13378906","-0.9785156","-0.13671875","0.53125","3.09375","-0.5625"
"1574260586612","34","-0.10644531","-1.0126953","-0.16601562","-2.15625","16.09375","-0.5625"
"1574260586612","35","-0.19628906","-0.8798828","-0.14160156","-10.5625","8.21875","-2.21875"
"1574260586613","36","-0.25585938","-0.48632812","-0.05859375","1.09375","4.875","2.65625"
"1574260586613","37","0.140625","-0.16210938","-0.16113281","25.5","-13.1875","6.9375"
"1574260586614","38","-0.06933594","-0.39160156","0.09667969","19.625","2.71875","21.15625"
"1574260586614","39","-0.3984375","-1.7412109","-0.17871094","-11.375","14.3125","2.4375"
"1574260586811","40","-0.5263672","-2.0","-0.064453125","39.34375","35.4375","52.59375"
"1574260586811","41","-0.07324219","-2.0","-0.22070312","19.09375","43.1875","-5.3125"
"1574260586812","42","0.044921875","-0.8808594","-0.18359375","36.3125","-15.03125","1.09375"
"1574260586812","43","0.11621094","-0.57421875","-0.14550781","30.125","-24.5","-5.5"
"1574260586812","44","-0.2861328","-0.98339844","-0.0068359375","-6.71875","0.71875","2.3125"
"1574260586813","45","-0.2685547","-1.3476562","-0.038085938","-10.09375","9.3125","6.5625"
"1574260586813","46","-0.23828125","-1.4726562","0.0","3.34375","-4.40625","-7.65625"
"1574260586813","47","-0.2421875","-1.2373047","-0.072265625","-0.125","-14.125","-7.875"
"1574260586813","48","-0.13867188","-0.8144531","-0.06542969","0.90625","-11.5625","-5.9375"
"1574260586815","49","-0.103515625","-0.53027344","-0.064453125","-8.8125","-14.65625","-8.4375"
"1574260587409","50","-0.10839844","-0.31933594","-0.029296875","-18.625","-2.625","-6.84375"
"1574260587409","51","-0.17089844","-0.5205078","-0.009765625","-1.0","21.71875","-6.5"
"1574260587409","52","-0.17480469","-1.1865234","-0.12207031","-17.09375","48.9375","-12.84375"
"1574260587410","53","-0.24707031","-1.4814453","-0.056640625","-10.34375","46.5625","-6.0"
"1574260587410","54","-0.11621094","-0.9794922","-0.044921875","-6.375","5.28125","-4.46875"
"1574260587410","55","0.021484375","-0.64453125","-0.10839844","-14.78125","-19.5","-2.75"
"1574260587410","56","-0.076171875","-0.80371094","-0.041015625","-21.625","19.34375","-8.6875"
"1574260587411","57","-0.22070312","-0.8173828","-0.103515625","-9.96875","22.375","-0.9375"
"1574260587411","58","-0.1328125","-0.8935547","-0.14550781","-5.25","5.0","4.8125"
"1574260587411","59","-0.076171875","-0.94628906","-0.10644531","-10.875","7.1875","-10.03125"
"1574260588005","60","-0.17382812","-0.8876953","-0.09277344","-2.21875","8.53125","-8.625"
"1574260588007","61","-0.06542969","-1.3027344","-0.16796875","-4.71875","16.28125","-2.625"
"1574260588007","62","-0.072265625","-1.046875","-0.05859375","3.40625","2.90625","3.09375"
"1574260588007","63","-0.1796875","-1.0654297","-0.13378906","-6.375","-2.40625","-2.53125"
"1574260588008","64","0.018554688","-1.3896484","-0.25683594","-12.90625","16.46875","-2.75"
"1574260588008","65","-0.27929688","-1.3027344","-0.123046875","-10.34375","20.75","4.0625"
"1574260588008","66","-0.10546875","-1.1328125","-0.16503906","-3.625","9.625","6.34375"
"1574260588008","67","0.028320312","-1.2792969","-0.21582031","-3.4375","1.09375","-9.34375"
"1574260588009","68","-0.20898438","-1.1943359","-0.09765625","-3.4375","10.0","-5.09375"
"1574260588009","69","-0.16601562","-1.0683594","-0.1328125","4.375","-8.6875","6.03125"
"1574260588200","70","-0.13085938","-0.94140625","-0.14160156","4.625","-7.65625","7.625"
"1574260588200","71","-0.099609375","-0.71191406","-0.12207031","7.1875","-8.9375","4.8125"
"1574260588201","72","-0.08300781","-0.6376953","-0.09863281","5.84375","-15.8125","3.90625"
"1574260588201","73","-0.14160156","-0.6064453","-0.068359375","2.5","-6.84375","0.96875"
"1574260588202","74","-0.16113281","-0.8564453","-0.099609375","3.65625","4.875","1.03125"
"1574260588202","75","-0.17285156","-1.1738281","-0.12597656","-7.46875","10.3125","1.15625"
"1574260588202","76","-0.24121094","-1.1289062","-0.09277344","-3.25","3.40625","8.34375"
"1574260588203","77","-0.12597656","-0.9296875","-0.119140625","3.84375","-11.625","3.90625"
"1574260588203","78","-0.09863281","-0.90234375","-0.09472656","5.84375","-11.3125","0.90625"
"1574260588203","79","-0.16113281","-0.7392578","-0.08886719","5.1875","-3.5625","4.25"
"1574260588601","80","-0.06640625","-0.859375","-0.14550781","-4.53125","0.21875","-1.65625"
"1574260588601","81","-0.109375","-0.9472656","-0.15234375","-10.4375","-1.25","-6.90625"
"1574260588602","82","-0.17675781","-0.75683594","-0.09667969","2.5","-10.5","-8.5625"
"1574260588602","83","-0.13964844","-1.1015625","-0.16015625","-3.0625","-3.4375","-10.15625"
"1574260588602","84","-0.11328125","-1.0859375","-0.037109375","-0.8125","-1.25","-3.0625"
"1574260588603","85","-0.22265625","-1.1210938","-0.068359375","-1.84375","-6.4375","-2.09375"
"1574260588604","86","-0.059570312","-1.0908203","-0.11230469","2.0","-5.5","7.0"
"1574260588604","87","-0.24023438","-0.9355469","-0.06738281","12.1875","-2.53125","8.46875"
"1574260588605","88","-0.2109375","-1.0878906","-0.22753906","6.34375","11.8125","8.90625"
"1574260588605","89","-0.026367188","-1.3310547","-0.14746094","5.65625","7.625","0.71875"
"1574260588799","90","-0.24707031","-1.1796875","-0.0546875","13.0","6.6875","-0.3125"
"1574260588799","91","0.016601562","-1.1035156","-0.1484375","11.75","-2.53125","2.0625"
"1574260588800","92","-0.12597656","-1.2382812","-0.091796875","-5.9375","-5.6875","-5.09375"
"1574260588800","93","-0.28027344","-1.2158203","-0.03515625","-6.90625","5.34375","-0.125"
"1574260588800","94","-0.18945312","-1.2041016","-0.09375","-2.53125","3.53125","2.78125"
"1574260588801","95","-0.19726562","-1.0693359","-0.087890625","4.875","0.21875","2.375"
"1574260588801","96","-0.16894531","-0.86328125","-0.09277344","9.375","6.9375","-3.875"
"1574260588801","97","-0.103515625","-0.6142578","-0.08300781","-2.625","8.96875","-4.59375"
"1574260588802","98","-0.08691406","-0.5517578","-0.03515625","13.78125","-1.0625","-7.34375"
"1574260588802","99","-0.107421875","-0.6513672","-0.045898438","5.53125","4.3125","-1.3125"
"1574260589197","100","-0.12792969","-1.109375","-0.07128906","-14.34375","22.4375","-4.09375"
"1574260589198","101","-0.24902344","-1.2167969","-0.033203125","-6.0","18.96875","-0.8125"
"1574260589198","102","-0.15234375","-0.9326172","-0.064453125","-0.5625","-2.9375","2.96875"
"1574260589198","103","-0.103515625","-0.7050781","-0.08300781","0.03125","-14.65625","0.28125"
"1574260589199","104","-0.0625","-0.6767578","-0.059570312","4.75","0.28125","-1.53125"
"1574260589199","105","-0.17871094","-0.8779297","-0.052734375","-8.875","12.3125","-3.1875"
"1574260589199","106","-0.2265625","-0.92871094","-0.09472656","9.125","2.0","2.125"
"1574260589199","107","-0.08203125","-0.94628906","-0.12011719","6.40625","-6.59375","6.21875"
"1574260589199","108","-0.23242188","-1.1591797","0.01171875","-3.875","20.5","-3.125"
"1574260589201","109","-0.21191406","-1.0712891","-0.091796875","11.875","-0.5","2.4375"
"1574260589593","110","-0.038085938","-1.4052734","-0.10058594","-5.21875","-1.0625","-1.90625"
"1574260589594","111","-0.33691406","-1.4511719","-0.001953125","-10.875","18.46875","-7.15625"
"1574260589594","112","-0.13769531","-0.98828125","-0.12207031","18.84375","-11.4375","6.9375"
"1574260589594","113","0.005859375","-0.96972656","-0.15722656","-11.84375","-9.65625","-2.15625"
"1574260589595","114","-0.2548828","-1.2041016","-0.03125","-16.3125","26.53125","-6.5"
"1574260589595","115","-0.26367188","-1.2763672","-0.01953125","6.09375","19.21875","0.0"
"1574260589596","116","-0.15625","-1.2626953","-0.068359375","-1.59375","1.9375","-3.875"
"1574260589596","117","-0.13769531","-1.0761719","-0.055664062","-0.1875","1.15625","-3.3125"
"1574260589596","118","-0.16894531","-0.8359375","-0.041015625","3.9375","-1.40625","0.90625"
"1574260589596","119","-0.06542969","-0.6328125","-0.064453125","6.75","-11.5625","0.28125"
"1574260589991","120","-0.0703125","-0.3779297","-0.032226562","1.28125","-9.125","-3.4375"
"1574260589993","121","-0.15527344","-0.5625","-0.0078125","-6.125","11.65625","1.75"
"1574260589993","122","-0.1796875","-1.21875","-0.125","-20.28125","29.28125","-7.28125"
"1574260589994","123","-0.23242188","-1.2802734","-0.049804688","-10.03125","14.03125","0.09375"
"1574260589994","124","0.0107421875","-0.8486328","-0.123046875","3.53125","-31.625","-7.8125"
"1574260589994","125","-0.028320312","-0.7636719","-0.030273438","-11.375","-28.03125","-8.875"
"1574260589995","126","-0.19921875","-0.6220703","0.009765625","-3.125","0.03125","-0.8125"
"1574260589995","127","-0.20214844","-0.9501953","-0.11621094","-4.96875","-1.46875","5.34375"
"1574260589995","128","-0.21582031","-0.9472656","-0.08984375","-5.5625","5.0625","5.59375"
"1574260589995","129","-0.20507812","-1.1582031","-0.08984375","-3.96875","-6.90625","3.21875"
"1574260590388","130","-0.15332031","-1.3320312","-0.030273438","-2.59375","15.0","-1.78125"
"1574260590389","131","-0.30859375","-0.9423828","-0.02734375","10.0","-6.90625","8.71875"
"1574260590389","132","-0.029296875","-1.3886719","-0.26171875","-13.0625","-0.75","0.09375"
"1574260590390","133","-0.13867188","-1.1582031","-0.0546875","-4.15625","0.59375","1.09375"
"1574260590390","134","-0.20117188","-1.0302734","-0.041992188","5.28125","-7.09375","1.375"
"1574260590391","135","-0.12890625","-1.2099609","-0.13574219","-3.375","-3.0","4.6875"
"1574260590391","136","-0.25585938","-1.3740234","-0.087890625","-8.125","-1.53125","2.375"
"1574260590391","137","-0.24707031","-1.2695312","-0.06933594","-4.21875","-5.8125","5.125"
"1574260590391","138","-0.13574219","-1.1005859","-0.087890625","-1.71875","-11.3125","0.65625"
"1574260590392","139","-0.1796875","-0.84765625","-0.09277344","3.53125","-11.375","-0.125"
"1574260590786","140","-0.083984375","-0.5703125","-0.09082031","13.0","-13.9375","0.0"
"1574260590786","141","-0.0625","-0.36132812","-0.07519531","14.6875","-17.40625","-3.4375"
"1574260590786","142","-0.18945312","-0.5126953","-0.072265625","8.46875","0.15625","2.1875"
"1574260590786","143","-0.19726562","-1.1865234","-0.08886719","-19.96875","35.25","0.40625"
"1574260590787","144","-0.17089844","-1.4130859","-0.08300781","-8.8125","30.8125","-8.875"
"1574260590788","145","-0.08300781","-0.82128906","-0.06542969","24.28125","-16.1875","-8.125"
"1574260590790","146","-0.03515625","-0.62402344","-0.11230469","-0.9375","-20.84375","-16.9375"
"1574260590791","147","-0.06542969","-0.88378906","0.059570312","-1.71875","7.625","-15.21875"
"1574260590791","148","-0.36132812","-0.6621094","0.0234375","2.65625","6.8125","-4.78125"
"1574260590791","149","-0.045898438","-1.0976562","-0.12207031","-6.1875","4.0","0.21875"
"1574260591183","150","-0.18359375","-1.1142578","-0.016601562","-5.9375","2.0625","-10.4375"
"1574260591184","151","-0.20800781","-1.1728516","-0.00390625","2.3125","10.1875","7.5"
"1574260591184","152","-0.2109375","-1.2705078","-0.095703125","1.5625","18.71875","0.28125"
"1574260591184","153","-0.10839844","-1.3447266","-0.13671875","10.375","5.21875","1.625"
"1574260591185","154","-0.16015625","-1.3857422","-0.041992188","3.09375","11.8125","-5.375"
"1574260591185","155","-0.21191406","-1.2998047","0.0048828125","11.9375","14.5","5.40625"
"1574260591185","156","-0.17089844","-1.2910156","-0.034179688","1.8125","18.0","4.0"
"1574260591186","157","-0.18652344","-1.1386719","-0.026367188","0.96875","6.6875","3.53125"
"1574260591186","158","-0.111328125","-0.8798828","-0.037109375","2.90625","-5.4375","0.09375"
"1574260591186","159","-0.076171875","-0.54003906","-0.064453125","-5.75","-11.71875","-2.6875"
"1574260591583","160","-0.06738281","-0.36035156","-0.057617188","-12.65625","-8.75","-4.21875"
"1574260591584","161","-0.18457031","-0.4716797","-0.0146484375","-4.78125","14.6875","-3.0625"
"1574260591584","162","-0.13378906","-1.1640625","-0.07714844","-14.53125","43.875","-10.875"
"1574260591584","163","-0.21972656","-1.4697266","-0.055664062","-4.15625","21.90625","-2.21875"
"1574260591585","164","-0.05859375","-0.9082031","-0.030273438","1.9375","-17.03125","0.0"
"1574260591585","165","-0.021484375","-0.6230469","-0.072265625","-6.78125","-24.5","-9.71875"
"1574260591585","166","0.016601562","-0.67089844","-0.049804688","0.84375","-1.65625","-3.1875"
"1574260591585","167","-0.27539062","-0.7841797","0.009765625","-17.84375","12.0","-2.8125"
"1574260591586","168","-0.20214844","-0.92089844","-0.07128906","-5.75","5.34375","2.0"
"1574260591587","169","-0.0146484375","-1.0625","-0.076171875","-5.25","7.1875","-6.125"
"1574260592174","170","-0.2998047","-1.2480469","-0.038085938","-6.96875","9.3125","-5.09375"
"1574260592174","171","-0.19042969","-1.2119141","-0.111328125","1.4375","2.84375","11.71875"
"1574260592175","172","-0.026367188","-1.5371094","-0.16210938","-10.15625","17.125","-3.3125"
"1574260592175","173","-0.3076172","-1.2841797","-0.060546875","-0.875","15.25","5.78125"
"1574260592175","174","0.07324219","-0.9814453","-0.17578125","3.53125","-9.96875","5.21875"
"1574260592176","175","-0.07128906","-1.4121094","-0.11425781","-14.0625","-1.59375","-10.09375"
"1574260592176","176","-0.3779297","-1.3613281","0.00390625","-2.53125","8.21875","6.5625"
"1574260592177","177","-0.1796875","-1.1132812","-0.0703125","5.1875","-13.375","9.9375"
"1574260592177","178","-0.061523438","-0.8691406","-0.09863281","0.71875","-19.125","2.65625"
"1574260592177","179","-0.10644531","-0.46777344","-0.08300781","14.21875","-30.78125","2.65625"
"1574260592376","180","-0.017578125","-0.34277344","-0.06542969","14.8125","-32.3125","6.6875"
"1574260592376","181","-0.10058594","-0.47558594","-0.06640625","6.15625","-11.4375","2.78125"
"1574260592377","182","-0.17480469","-1.1074219","-0.087890625","-16.3125","17.4375","-0.5625"
"1574260592377","183","-0.31347656","-1.4365234","-0.11621094","-28.6875","14.3125","-5.6875"
"1574260592377","184","-0.111328125","-0.7314453","-0.045898438","4.875","-19.53125","-6.3125"
"1574260592378","185","0.09667969","-0.6035156","-0.0029296875","-3.3125","-21.5","-18.875"
"1574260592378","186","-0.23925781","-0.8173828","0.036132812","-4.15625","-11.90625","1.15625"
"1574260592378","187","-0.3564453","-0.9160156","-0.0703125","-12.71875","12.5625","5.0"
"1574260592378","188","-0.107421875","-0.9580078","-0.09472656","-4.28125","10.40625","5.53125"
"1574260592379","189","-0.22851562","-1.3876953","-0.12207031","-9.59375","10.125","-1.40625"
"1574260592773","190","-0.2705078","-1.1777344","-0.018554688","6.03125","8.71875","3.59375"
"1574260592774","191","-0.21582031","-1.7285156","-0.18554688","-3.4375","34.15625","-13.1875"
"1574260592774","192","-0.109375","-1.0566406","-0.17675781","5.0625","7.5","7.5625"
"1574260592775","193","0.25976562","-0.85839844","-0.14257812","21.28125","-17.03125","-11.96875"
"1574260592775","194","-0.18164062","-1.3115234","-0.068359375","-14.65625","12.1875","-9.59375"
"1574260592775","195","-0.48535156","-1.4941406","-9.765625E-4","2.4375","33.6875","5.21875"
"1574260592775","196","-0.13574219","-1.2958984","-0.080078125","16.59375","-0.625","6.34375"
"1574260592776","197","-0.052734375","-1.0175781","-0.08105469","25.8125","-25.84375","-7.9375"
"1574260592776","198","-0.14257812","-0.5136719","-0.047851562","20.90625","-45.71875","-10.09375"
"1574260592778","199","-0.047851562","-0.24707031","-0.046875","1.9375","-30.34375","-0.375"
"1574260593172","200","-0.06542969","-0.2890625","-0.001953125","-0.9375","3.40625","-2.28125"
"1574260593172","201","-0.115234375","-0.86035156","-0.045898438","-13.625","47.71875","-2.15625"
"1574260593173","202","-0.26171875","-1.7333984","-0.109375","-17.84375","57.1875","-27.25"
"1574260593173","203","-0.1328125","-0.9375","-0.040039062","18.125","-16.0625","2.5"
"1574260593173","204","0.23925781","-0.5214844","-0.037109375","7.0625","-25.96875","-14.125"
"1574260593175","205","-0.12402344","-0.66503906","0.021484375","-13.4375","1.03125","-12.15625"
"1574260593175","206","-0.23242188","-0.9628906","-0.09667969","0.09375","27.4375","-0.875"
"1574260593175","207","-0.18652344","-1.1289062","-0.034179688","-9.53125","8.09375","12.625"
"1574260593176","208","-0.12402344","-1.1552734","-0.0048828125","4.9375","8.46875","-3.4375"
"1574260593176","209","-0.036132812","-0.9824219","-0.087890625","3.15625","-10.8125","3.40625"
"1574260593768","210","-0.109375","-1.0488281","-0.022460938","-3.25","12.5625","5.90625"
"1574260593768","211","-0.3310547","-1.7802734","-0.040039062","-18.9375","50.28125","-7.8125"
"1574260593769","212","-0.123046875","-1.1826172","-0.041992188","18.90625","14.625","10.84375"
"1574260593769","213","0.1875","-0.9472656","-0.1171875","12.875","-35.40625","4.5625"
"1574260593769","214","-0.111328125","-1.2558594","-0.0126953125","-18.625","17.6875","-11.6875"
"1574260593769","215","-0.38183594","-1.3417969","-0.0068359375","-7.34375","26.71875","8.90625"
"1574260593770","216","-0.17773438","-1.203125","-0.045898438","5.1875","-7.15625","17.5"
"1574260593770","217","-0.018554688","-0.9667969","-0.06640625","4.25","-18.6875","0.40625"
"1574260593770","218","-0.080078125","-0.5283203","-0.08300781","14.9375","-19.5","2.65625"
"1574260593771","219","-0.03125","-0.34472656","-0.0625","7.5","-22.84375","11.15625"
"1574260593966","220","-0.15332031","-0.4345703","-0.030273438","-1.0625","1.75","1.625"
"1574260593966","221","-0.16308594","-1.1445312","-0.103515625","-10.9375","34.46875","-4.84375"
"1574260593966","222","-0.30859375","-1.5947266","-0.047851562","-24.3125","36.1875","-8.5"
"1574260593967","223","-0.14648438","-0.9501953","-0.024414062","2.4375","-9.53125","6.21875"
"1574260593967","224","0.021484375","-0.6767578","-0.061523438","-10.5625","-28.59375","-4.53125"
"1574260593967","225","-0.091796875","-0.6533203","-0.032226562","-3.8125","-11.6875","0.0"
"1574260593967","226","-0.15625","-0.6591797","0.0068359375","0.15625","-1.46875","-0.3125"
"1574260593967","227","-0.203125","-0.9199219","-0.009765625","-12.46875","5.96875","0.46875"
"1574260593968","228","-0.17089844","-1.0966797","-0.03515625","-8.375","2.90625","-1.0"
"1574260593969","229","-0.12792969","-1.2011719","0.029296875","-1.125","-9.59375","1.15625"
"1574260594363","230","-0.27929688","-1.1533203","-0.0546875","-6.78125","-12.96875","5.21875"
"1574260594363","231","-0.19628906","-1.0644531","-0.12890625","-3.4375","-10.5625","8.28125"
"1574260594364","232","0.0068359375","-1.1875","-0.07324219","0.21875","-19.84375","-5.15625"
"1574260594364","233","-0.33984375","-1.3271484","-0.03515625","0.78125","0.53125","-11.375"
"1574260594364","234","-0.24902344","-1.0175781","-0.1015625","-3.0","8.53125","10.0625"
"1574260594364","235","-0.078125","-0.79296875","-0.07519531","11.21875","-3.8125","8.03125"
"1574260594365","236","-0.083984375","-0.9873047","-0.08496094","15.78125","-9.0","-3.0"
"1574260594365","237","-0.15917969","-1.0722656","-0.015625","10.90625","12.0625","-10.15625"
"1574260594365","238","-0.15429688","-1.0341797","-9.765625E-4","11.71875","10.1875","-10.40625"
"1574260594365","239","-0.12011719","-1.0136719","-0.041015625","5.0","-4.78125","-7.28125"
