"# PR data"
"# Start time: 20191128T212513"
"# Subject: rim"
"# Activity type: Squats"
"# Correctness: Incorrect"
"# Notes: "
""
"timestamp","seq","accel_x","accel_y","accel_z","gyro_x","gyro_y","gyro_z"
"1574972713351","0","0.18847656","-0.97265625","-0.1875","-8.09375","4.5","-1.625"
"1574972713352","1","0.13964844","-0.9951172","-0.17675781","-5.71875","6.84375","-1.125"
"1574972713353","2","0.11328125","-0.9794922","-0.18652344","-3.6875","-2.5625","-2.0625"
"1574972713353","3","0.15332031","-0.9658203","-0.20605469","-3.625","-3.125","-2.25"
"1574972713353","4","0.13867188","-0.97753906","-0.21386719","-2.46875","-1.65625","-2.84375"
"1574972713353","5","0.15136719","-0.9892578","-0.20410156","-6.4375","0.0625","-3.03125"
"1574972713354","6","0.15332031","-0.99902344","-0.203125","-2.28125","-4.59375","-2.0625"
"1574972713354","7","0.14257812","-0.96875","-0.19628906","1.125","-6.65625","0.5"
"1574972713354","8","0.13378906","-0.95996094","-0.21191406","-0.78125","-4.65625","-0.34375"
"1574972713354","9","0.13671875","-0.99316406","-0.22070312","0.15625","-4.53125","1.25"
"1574972714144","10","0.14160156","-0.98046875","-0.22949219","0.625","-4.34375","2.59375"
"1574972714144","11","0.14746094","-0.9863281","-0.23046875","-3.59375","-2.375","0.21875"
"1574972714144","12","0.14355469","-0.9902344","-0.23925781","-2.40625","-3.25","1.5625"
"1574972714146","13","0.15527344","-0.96972656","-0.23730469","-4.0","-0.5625","-0.28125"
"1574972714146","14","0.18066406","-1.0097656","-0.26171875","3.75","-4.40625","3.8125"
"1574972714147","15","0.12792969","-0.93652344","-0.20117188","-4.90625","0.25","3.625"
"1574972714147","16","0.15136719","-0.94628906","-0.17871094","9.1875","3.40625","2.53125"
"1574972714147","17","0.16601562","-0.9941406","-0.20996094","10.15625","-2.5625","3.5"
"1574972714147","18","0.16308594","-0.9980469","-0.20605469","8.9375","-5.8125","3.5"
"1574972714148","19","0.13867188","-0.9814453","-0.2109375","6.375","-7.34375","1.84375"
"1574972714341","20","0.12988281","-0.9658203","-0.19335938","8.5625","-4.9375","3.125"
"1574972714341","21","0.14453125","-0.9716797","-0.18359375","6.375","-1.84375","1.78125"
"1574972714342","22","0.14648438","-0.9970703","-0.20019531","7.40625","-5.8125","1.625"
"1574972714342","23","0.13476562","-1.0097656","-0.18164062","3.4375","-6.65625","1.84375"
"1574972714342","24","0.10546875","-0.98828125","-0.19335938","6.1875","-4.875","1.3125"
"1574972714343","25","0.12792969","-0.9980469","-0.18847656","4.28125","-6.53125","1.125"
"1574972714344","26","0.14453125","-0.9707031","-0.19042969","0.4375","-2.375","0.21875"
"1574972714344","27","0.14355469","-0.9892578","-0.18359375","5.5625","-4.15625","1.84375"
"1574972714344","28","0.12207031","-0.984375","-0.171875","4.96875","-7.15625","0.28125"
"1574972714344","29","0.14355469","-1.0019531","-0.17578125","5.625","-4.8125","0.3125"
"1574972714543","30","0.12792969","-0.984375","-0.16796875","5.34375","-3.1875","1.375"
"1574972714543","31","0.13574219","-0.97753906","-0.15527344","3.375","-3.5","0.4375"
"1574972714543","32","0.13476562","-0.98339844","-0.15917969","2.46875","-1.21875","0.5625"
"1574972714544","33","0.12890625","-0.9902344","-0.16992188","0.5","-1.59375","-0.09375"
"1574972714544","34","0.12988281","-0.98339844","-0.17089844","-0.15625","-2.375","-0.28125"
"1574972714544","35","0.13769531","-0.984375","-0.171875","-1.5","-1.96875","-0.15625"
"1574972714544","36","0.14550781","-0.99316406","-0.171875","-0.78125","-2.21875","0.09375"
"1574972714545","37","0.119140625","-1.0009766","-0.17285156","1.3125","-0.75","-0.03125"
"1574972714546","38","0.12597656","-0.9941406","-0.18164062","-4.6875","-2.375","0.15625"
"1574972714546","39","0.15039062","-0.9951172","-0.1796875","-7.84375","4.09375","-0.71875"
"1574972714940","40","0.12890625","-1.0019531","-0.17773438","-4.625","5.3125","1.625"
"1574972714941","41","0.10058594","-0.9345703","-0.19433594","-4.90625","1.53125","1.25"
"1574972714941","42","0.14746094","-0.9433594","-0.18652344","-10.71875","8.125","-0.09375"
"1574972714941","43","0.13476562","-0.96972656","-0.20898438","-10.65625","8.65625","1.25"
"1574972714941","44","0.11328125","-0.9394531","-0.15722656","-17.3125","10.625","-1.8125"
"1574972714941","45","0.17773438","-0.9033203","-0.23925781","-8.875","8.28125","-8.03125"
"1574972714942","46","0.2109375","-0.9169922","-0.21484375","-2.28125","-3.53125","-6.03125"
"1574972714942","47","0.13378906","-1.015625","-0.20410156","-4.96875","9.75","-6.4375"
"1574972714942","48","0.12402344","-1.0185547","-0.28125","-1.0625","-4.09375","0.3125"
"1574972714943","49","0.19824219","-1.0302734","-0.23046875","-5.09375","5.5","-0.59375"
"1574972715338","50","0.1953125","-0.92578125","-0.20410156","-4.3125","4.4375","-0.65625"
"1574972715338","51","0.11230469","-0.9082031","-0.22167969","-3.6875","-5.125","-3.8125"
"1574972715338","52","0.18359375","-0.9511719","-0.23828125","0.4375","3.21875","-1.1875"
"1574972715339","53","0.17773438","-0.96191406","-0.27539062","0.9375","-2.75","1.0625"
"1574972715339","54","0.16699219","-0.96875","-0.24023438","-0.71875","-2.03125","-1.1875"
"1574972715339","55","0.1640625","-0.9326172","-0.20214844","-2.59375","1.28125","0.4375"
"1574972715339","56","0.15820312","-0.9423828","-0.25390625","0.75","-0.6875","0.75"
"1574972715340","57","0.14648438","-0.97558594","-0.25097656","-1.625","4.09375","-3.75"
"1574972715340","58","0.19042969","-0.98046875","-0.2626953","0.8125","5.5","-2.1875"
"1574972715340","59","0.19824219","-0.95703125","-0.24609375","-0.21875","-1.21875","-0.90625"
"1574972715736","60","0.21484375","-1.0019531","-0.234375","-2.96875","0.0625","1.3125"
"1574972715738","61","0.18945312","-1.0253906","-0.2841797","3.5625","0.1875","-4.75"
"1574972715739","62","0.18164062","-0.99316406","-0.2548828","-2.34375","-1.28125","3.0625"
"1574972715739","63","0.18164062","-0.9345703","-0.21972656","6.375","-5.9375","-0.90625"
"1574972715739","64","0.24023438","-0.95703125","-0.22265625","-0.34375","-9.34375","-2.34375"
"1574972715739","65","0.21875","-0.9902344","-0.24609375","6.84375","-2.6875","-2.28125"
"1574972715740","66","0.1484375","-0.9394531","-0.24902344","5.09375","-11.96875","-0.59375"
"1574972715740","67","0.21484375","-0.9560547","-0.25878906","6.96875","-5.0625","-1.1875"
"1574972715740","68","0.17089844","-0.92578125","-0.22558594","-2.1875","-12.34375","0.28125"
"1574972715740","69","0.21386719","-1.0166016","-0.2890625","14.90625","-11.65625","-0.59375"
"1574972716134","70","0.21386719","-0.9980469","-0.27148438","-1.3125","-15.15625","12.03125"
"1574972716135","71","0.16503906","-1.0439453","-0.22460938","1.65625","3.96875","-3.28125"
"1574972716135","72","0.2265625","-1.0166016","-0.22070312","-1.875","-5.0625","9.46875"
"1574972716136","73","0.08886719","-0.88378906","-0.20214844","2.65625","-1.40625","-1.4375"
"1574972716137","74","0.23632812","-0.94921875","-0.25390625","9.375","-10.1875","6.25"
"1574972716137","75","0.17773438","-0.91503906","-0.24316406","-4.5","2.625","1.625"
"1574972716137","76","0.09277344","-0.9501953","-0.22949219","-8.78125","1.6875","-0.15625"
"1574972716137","77","0.203125","-0.9589844","-0.20507812","4.21875","2.125","-0.28125"
"1574972716138","78","0.25585938","-1.0087891","-0.25390625","2.71875","-8.5625","6.8125"
"1574972716138","79","0.12597656","-1.0","-0.25195312","1.0","-2.5","-1.25"
"1574972716531","80","0.22167969","-0.95214844","-0.22460938","9.3125","-13.0","0.75"
"1574972716532","81","0.15429688","-0.9892578","-0.22070312","-3.9375","-9.96875","1.125"
"1574972716532","82","0.13671875","-1.0273438","-0.29296875","13.4375","-11.25","-2.96875"
"1574972716532","83","0.20117188","-0.96484375","-0.21679688","2.59375","-10.5625","11.5"
"1574972716533","84","0.14648438","-0.9003906","-0.20507812","3.125","-2.5","-2.46875"
"1574972716534","85","0.20214844","-1.0048828","-0.2265625","6.4375","-5.0","0.625"
"1574972716534","86","0.09863281","-0.93652344","-0.22851562","-2.59375","-0.5625","7.90625"
"1574972716535","87","0.14453125","-0.9550781","-0.17675781","1.84375","-1.21875","-5.09375"
"1574972716535","88","0.15136719","-0.9873047","-0.24316406","-1.875","-4.65625","4.0625"
"1574972716535","89","0.16601562","-1.0253906","-0.23730469","-5.65625","4.15625","-2.40625"
"1574972716928","90","0.20214844","-1.0009766","-0.26660156","-0.21875","-0.4375","5.5625"
"1574972716928","91","0.119140625","-1.0214844","-0.21484375","2.21875","-3.71875","-7.71875"
"1574972716929","92","0.18066406","-1.0","-0.24609375","7.15625","-10.03125","-1.9375"
"1574972716929","93","0.17578125","-0.9345703","-0.21386719","0.375","0.0","1.0625"
"1574972716929","94","0.16015625","-0.96875","-0.24804688","0.21875","3.09375","-5.03125"
"1574972716930","95","0.23339844","-0.9941406","-0.22949219","-1.5625","0.96875","-0.28125"
"1574972716930","96","0.17871094","-0.9404297","-0.21679688","-0.21875","1.8125","0.875"
"1574972716931","97","0.14941406","-0.95214844","-0.22753906","2.78125","-1.84375","-1.875"
"1574972716931","98","0.19921875","-0.93066406","-0.20507812","-3.15625","3.28125","2.9375"
"1574972716932","99","0.16992188","-0.98828125","-0.22851562","-1.75","2.4375","2.21875"
"1574972717326","100","0.171875","-0.99121094","-0.26464844","4.71875","-6.59375","-0.03125"
"1574972717326","101","0.19335938","-1.0175781","-0.234375","-3.53125","-7.40625","-2.59375"
"1574972717326","102","0.18164062","-0.9980469","-0.24902344","1.1875","4.5","-2.0"
"1574972717326","103","0.21386719","-1.0019531","-0.25390625","4.125","-2.15625","1.0625"
"1574972717327","104","0.14941406","-0.9638672","-0.23925781","0.75","-5.5625","-0.21875"
"1574972717327","105","0.09667969","-0.91503906","-0.21582031","7.71875","-2.09375","-3.15625"
"1574972717327","106","0.29296875","-0.92285156","-0.20117188","7.15625","-0.4375","7.71875"
"1574972717328","107","0.17675781","-1.0019531","-0.22558594","0.625","-5.6875","2.59375"
"1574972717328","108","0.10058594","-0.953125","-0.23046875","2.21875","3.65625","-10.53125"
"1574972717329","109","0.18652344","-0.96875","-0.20410156","11.0","-6.40625","6.90625"
"1574972717723","110","0.19335938","-1.0","-0.26367188","9.71875","-7.9375","6.4375"
"1574972717723","111","0.18847656","-0.96777344","-0.21386719","1.84375","2.8125","-10.40625"
"1574972717724","112","0.19433594","-0.9794922","-0.19042969","-0.46875","-3.1875","0.09375"
"1574972717724","113","0.15917969","-0.95214844","-0.21972656","8.6875","-6.53125","5.28125"
"1574972717724","114","0.21484375","-0.9765625","-0.17382812","-4.6875","-0.96875","-7.65625"
"1574972717724","115","0.22363281","-1.0029297","-0.234375","8.875","-9.59375","0.03125"
"1574972717725","116","0.16699219","-0.95703125","-0.16601562","1.78125","-7.15625","0.15625"
"1574972717725","117","0.16601562","-0.95410156","-0.22753906","17.71875","-9.40625","-0.40625"
"1574972717725","118","0.18457031","-0.9785156","-0.19238281","7.84375","-3.71875","3.125"
"1574972717725","119","0.15625","-0.9277344","-0.171875","3.0625","-9.09375","3.875"
"1574972718122","120","0.10644531","-0.9160156","-0.15429688","3.5","-4.28125","5.625"
"1574972718123","121","0.18457031","-1.0146484","-0.21582031","20.59375","-3.0625","5.40625"
"1574972718124","122","0.24804688","-1.0966797","-0.2265625","4.46875","-12.03125","10.34375"
"1574972718124","123","0.2109375","-1.0244141","-0.19921875","4.0","0.375","-0.15625"
"1574972718124","124","0.14257812","-0.9736328","-0.12109375","7.46875","-10.125","2.15625"
"1574972718125","125","0.15917969","-0.9609375","-0.1484375","11.8125","-13.5","6.125"
"1574972718125","126","0.16699219","-1.0019531","-0.17675781","7.03125","-8.78125","8.1875"
"1574972718125","127","0.11035156","-1.0205078","-0.19433594","2.9375","3.28125","-6.4375"
"1574972718126","128","0.13085938","-0.95410156","-0.13574219","1.0625","1.34375","-0.09375"
"1574972718126","129","0.18457031","-0.96191406","-0.17480469","7.28125","-6.96875","7.65625"
"1574972718519","130","0.19824219","-1.0039062","-0.1640625","-7.3125","4.6875","-1.875"
"1574972718519","131","0.17773438","-0.96777344","-0.16113281","-4.4375","3.65625","-2.125"
"1574972718519","132","0.171875","-0.9814453","-0.16210938","-13.09375","0.1875","-1.625"
"1574972718521","133","0.16992188","-0.9638672","-0.18554688","-6.03125","1.6875","-0.78125"
"1574972718521","134","0.16113281","-1.0136719","-0.28808594","-22.5625","5.125","-0.21875"
"1574972718522","135","0.19921875","-0.9980469","-0.21484375","-42.09375","35.40625","-4.125"
"1574972718522","136","0.17675781","-0.953125","-0.13574219","-27.8125","22.5625","-4.125"
"1574972718522","137","0.171875","-1.0878906","-0.2861328","0.625","-12.34375","-5.34375"
"1574972718522","138","0.19921875","-0.99121094","-0.30371094","0.625","-0.5625","-7.4375"
"1574972718523","139","0.18945312","-0.9189453","-0.11816406","-7.375","14.46875","-1.125"
"1574972718915","140","0.19433594","-0.9667969","-0.21679688","-11.40625","-9.53125","1.84375"
"1574972718915","141","0.20019531","-1.0136719","-0.30078125","1.4375","-12.9375","5.625"
"1574972718916","142","0.15429688","-1.0029297","-0.2529297","7.21875","0.0","-3.21875"
"1574972718916","143","0.16210938","-0.9404297","-0.23925781","-1.375","-8.6875","2.46875"
"1574972718916","144","0.14453125","-0.96875","-0.24707031","-4.5625","8.0625","3.375"
"1574972718917","145","0.21875","-0.984375","-0.30273438","12.15625","-8.78125","-1.6875"
"1574972718918","146","0.20703125","-1.0097656","-0.26367188","4.1875","-7.875","4.53125"
"1574972718918","147","0.21289062","-0.96191406","-0.21484375","-7.0","-6.0","-3.03125"
"1574972718918","148","0.1875","-0.96191406","-0.23730469","3.375","-2.5","0.09375"
"1574972718918","149","0.16894531","-0.99121094","-0.24902344","2.59375","-8.125","1.84375"
"1574972719313","150","0.16992188","-0.9589844","-0.24511719","2.21875","-6.0625","2.03125"
"1574972719313","151","0.18847656","-0.9707031","-0.23144531","-0.65625","1.59375","1.25"
"1574972719314","152","0.18066406","-0.95410156","-0.265625","4.34375","-5.5","2.53125"
"1574972719314","153","0.18359375","-0.98046875","-0.2109375","-5.65625","0.25","-0.28125"
"1574972719314","154","0.18066406","-0.97265625","-0.26367188","7.03125","-4.09375","1.5625"
"1574972719314","155","0.19628906","-0.99121094","-0.23535156","-2.1875","-4.09375","-0.28125"
"1574972719315","156","0.18554688","-0.9580078","-0.26757812","9.0625","-5.75","-2.28125"
"1574972719315","157","0.19238281","-0.95703125","-0.19335938","3.3125","1.59375","-1.375"
"1574972719315","158","0.16699219","-0.95410156","-0.20507812","1.0625","-2.625","0.03125"
"1574972719315","159","0.19726562","-0.96875","-0.20507812","-3.03125","-2.09375","0.3125"
"1574972719713","160","0.20605469","-0.9501953","-0.2783203","6.90625","-6.65625","2.71875"
"1574972719713","161","0.17675781","-0.9658203","-0.17285156","-3.09375","2.0625","4.78125"
"1574972719714","162","0.13964844","-0.9746094","-0.28320312","4.96875","-8.125","2.09375"
"1574972719714","163","0.1953125","-0.95996094","-0.20214844","2.71875","-2.09375","6.6875"
"1574972719714","164","0.20898438","-0.97753906","-0.28222656","12.34375","-6.65625","2.40625"
"1574972719714","165","0.18066406","-0.9638672","-0.21875","-1.75","0.71875","2.53125"
"1574972719715","166","0.11328125","-0.94921875","-0.23242188","13.875","-9.96875","1.25"
"1574972719715","167","0.24121094","-1.0048828","-0.2109375","21.4375","-8.1875","6.625"
"1574972719715","168","0.23339844","-0.9863281","-0.16015625","10.875","-10.1875","-6.15625"
"1574972719717","169","0.09277344","-0.9355469","-0.18359375","7.40625","-12.46875","-1.125"
"1574972720109","170","0.17382812","-0.9765625","-0.14941406","15.40625","-2.8125","5.6875"
"1574972720110","171","0.20214844","-1.0166016","-0.22070312","10.8125","-15.21875","4.53125"
"1574972720110","172","0.15722656","-0.96777344","-0.19433594","13.75","-10.125","-1.3125"
"1574972720110","173","0.1875","-0.98046875","-0.19726562","15.15625","-12.875","2.03125"
"1574972720110","174","0.14550781","-0.9863281","-0.16113281","9.78125","-11.90625","1.25"
"1574972720111","175","0.12695312","-0.97753906","-0.17773438","8.3125","-7.4375","-0.65625"
"1574972720111","176","0.16308594","-0.9951172","-0.12890625","5.09375","-11.78125","2.78125"
"1574972720111","177","0.15722656","-0.99316406","-0.1796875","11.75","-11.34375","4.78125"
"1574972720111","178","0.15332031","-1.0078125","-0.15820312","-0.84375","0.125","-1.9375"
"1574972720112","179","0.15234375","-1.0302734","-0.14550781","3.125","-6.21875","-0.53125"
"1574972720505","180","0.14941406","-1.0263672","-0.12890625","1.625","-3.59375","3.5625"
"1574972720506","181","0.16796875","-1.2089844","-0.15332031","-6.03125","11.96875","-0.78125"
"1574972720507","182","0.20605469","-1.2734375","-0.2890625","0.9375","-13.125","-3.59375"
"1574972720507","183","0.23632812","-1.1083984","-0.20507812","-3.9375","-1.03125","3.1875"
"1574972720507","184","0.2548828","-1.0527344","-0.19238281","-1.3125","-4.28125","-0.40625"
"1574972720508","185","0.17773438","-1.0136719","-0.21191406","-19.625","9.15625","-15.0625"
"1574972720508","186","0.10058594","-0.9316406","-0.15917969","1.625","-13.5","12.53125"
"1574972720508","187","0.13769531","-0.8408203","-0.16015625","11.8125","-20.625","25.84375"
"1574972720508","188","0.18652344","-0.65722656","-0.115234375","-4.75","20.375","4.28125"
"1574972720509","189","0.0625","-0.82128906","-0.15917969","-22.625","23.0","0.28125"
"1574972720904","190","0.07421875","-1.0957031","-0.2265625","-6.5625","9.40625","5.9375"
"1574972720904","191","0.17773438","-1.0644531","-0.22949219","1.84375","-21.0","10.34375"
"1574972720904","192","0.19726562","-0.96777344","-0.1484375","19.125","-0.6875","2.59375"
"1574972720905","193","0.13183594","-1.0019531","-0.1953125","13.5","1.875","0.3125"
"1574972720906","194","0.061523438","-1.0234375","-0.16503906","5.8125","-1.21875","1.0"
"1574972720906","195","0.18164062","-0.9941406","-0.19238281","13.6875","-6.34375","-0.90625"
"1574972720906","196","0.21386719","-0.9345703","-0.115234375","10.65625","-1.65625","1.71875"
"1574972720907","197","0.08691406","-0.98535156","-0.15136719","4.59375","0.0625","1.78125"
"1574972720907","198","0.095703125","-0.9765625","-0.16210938","9.1875","-5.4375","1.96875"
"1574972720907","199","0.17089844","-0.97558594","-0.12792969","5.75","-1.59375","-0.28125"
"1574972721302","200","0.16796875","-0.99902344","-0.16015625","9.78125","-8.0625","-1.125"
"1574972721303","201","0.09765625","-0.99316406","-0.12988281","5.6875","-7.34375","-0.71875"
"1574972721303","202","0.11621094","-1.0048828","-0.12207031","2.53125","-0.125","-0.84375"
"1574972721303","203","0.16894531","-0.9970703","-0.15136719","3.0","-4.03125","0.4375"
"1574972721304","204","0.17089844","-0.97558594","-0.10839844","3.8125","-2.5","0.4375"
"1574972721305","205","0.119140625","-0.9326172","-0.107421875","4.78125","-3.78125","1.0625"
"1574972721305","206","0.13378906","-1.0029297","-0.12792969","-1.1875","2.625","-0.40625"
"1574972721306","207","0.123046875","-1.0009766","-0.13476562","-0.15625","-2.8125","-1.1875"
"1574972721306","208","0.13964844","-0.98046875","-0.12109375","-4.5625","-2.09375","-0.15625"
"1574972721306","209","0.16113281","-1.0029297","-0.14355469","-3.9375","1.28125","-1.6875"
"1574972721893","210","0.14453125","-0.9902344","-0.1328125","-8.09375","1.03125","-2.28125"
"1574972721894","211","0.13867188","-0.94921875","-0.13964844","-3.40625","0.0","0.15625"
"1574972721894","212","0.13964844","-0.9609375","-0.14160156","-4.0","1.6875","-0.59375"
"1574972721894","213","0.17871094","-0.96191406","-0.12402344","-9.0625","4.15625","-0.53125"
"1574972721895","214","0.10449219","-0.9980469","-0.119140625","-14.4375","1.875","-4.375"
"1574972721895","215","0.13085938","-0.9765625","-0.19628906","-7.5","4.625","-3.40625"
"1574972721895","216","0.15332031","-1.0097656","-0.20019531","-16.9375","7.9375","-1.6875"
"1574972721896","217","0.18945312","-1.0009766","-0.18066406","-2.59375","-0.375","-6.75"
"1574972721897","218","0.19140625","-0.9746094","-0.18554688","1.25","-6.125","0.4375"
"1574972721897","219","0.109375","-0.93652344","-0.18945312","-4.6875","3.84375","-5.15625"
"1574972722292","220","0.20117188","-1.0380859","-0.22363281","-9.8125","3.65625","1.0625"
"1574972722293","221","0.20214844","-1.015625","-0.20019531","2.84375","-5.8125","-3.8125"
"1574972722293","222","0.17480469","-0.92871094","-0.17578125","7.40625","-6.71875","-3.625"
"1574972722293","223","0.16601562","-0.97265625","-0.17578125","-4.1875","-2.15625","1.3125"
"1574972722294","224","0.19628906","-1.0322266","-0.22558594","5.34375","-6.46875","1.65625"
"1574972722294","225","0.17871094","-0.9970703","-0.19628906","1.0625","-5.625","0.09375"
"1574972722294","226","0.2109375","-0.9785156","-0.18554688","5.03125","-8.5","0.15625"
"1574972722294","227","0.1640625","-0.96777344","-0.18359375","0.6875","-6.78125","-0.84375"
"1574972722295","228","0.14941406","-0.96777344","-0.22070312","5.625","-8.78125","-0.53125"
"1574972722296","229","0.18359375","-0.96484375","-0.1953125","1.96875","-6.34375","4.96875"
"1574972722495","230","0.16601562","-0.96777344","-0.20019531","-1.125","-1.21875","-0.40625"
"1574972722495","231","0.17578125","-0.99609375","-0.19238281","-1.6875","1.15625","3.4375"
"1574972722496","232","0.16210938","-0.98339844","-0.203125","0.03125","-0.375","2.28125"
"1574972722496","233","0.17285156","-0.97265625","-0.20800781","2.53125","1.59375","2.28125"
"1574972722496","234","0.17089844","-0.9667969","-0.20214844","1.3125","0.0625","4.0625"
"1574972722496","235","0.16015625","-0.94921875","-0.15820312","-2.0","0.90625","7.46875"
"1574972722497","236","0.18164062","-0.9423828","-0.22753906","8.3125","-3.1875","8.8125"
"1574972722497","237","0.17089844","-0.9316406","-0.1484375","6.8125","-0.6875","6.84375"
"1574972722497","238","0.123046875","-0.9453125","-0.15234375","6.1875","-6.65625","6.75"
"1574972722497","239","0.15136719","-0.9892578","-0.18847656","11.625","-7.09375","6.25"
"1574972723686","240","0.1328125","-0.9765625","-0.16503906","5.875","-5.9375","5.34375"
"1574972723688","241","0.15136719","-0.9765625","-0.17675781","4.40625","-1.28125","4.78125"
"1574972723689","242","0.11621094","-0.9951172","-0.16992188","7.03125","-4.09375","5.9375"
"1574972723689","243","0.123046875","-0.9794922","-0.15332031","4.125","-4.53125","4.0"
"1574972723689","244","0.13378906","-0.99316406","-0.16308594","9.3125","-3.375","3.0"
"1574972723690","245","0.13574219","-0.9892578","-0.16113281","8.5625","-7.6875","1.5"
"1574972723690","246","0.12792969","-0.9609375","-0.13378906","9.65625","-6.84375","2.9375"
"1574972723690","247","0.12695312","-0.9746094","-0.12402344","15.78125","-4.09375","1.65625"
"1574972723691","248","0.13769531","-0.9902344","-0.13867188","9.84375","-11.0","0.09375"
"1574972723691","249","0.15234375","-0.96777344","-0.11425781","5.09375","-4.15625","1.1875"
"1574972723881","250","0.10253906","-0.98535156","-0.103515625","8.8125","-4.875","2.28125"
"1574972723882","251","0.09277344","-0.96777344","-0.12402344","9.96875","-3.4375","2.34375"
"1574972723882","252","0.107421875","-1.0351562","-0.18945312","10.9375","0.90625","2.71875"
"1574972723883","253","0.16308594","-1.0947266","-0.09667969","-0.34375","1.03125","-0.84375"
"1574972723884","254","0.17578125","-1.0273438","-0.08984375","1.5","-4.9375","-2.84375"
"1574972723884","255","0.095703125","-0.9423828","-0.11425781","3.8125","-14.28125","-2.28125"
"1574972723884","256","0.107421875","-0.9433594","-0.111328125","-2.65625","-11.78125","-0.90625"
"1574972723885","257","0.123046875","-1.0009766","-0.12597656","2.90625","-4.59375","2.15625"
"1574972723885","258","0.11425781","-1.0087891","-0.12109375","5.6875","-2.15625","2.40625"
"1574972723885","259","0.11230469","-1.015625","-0.099609375","2.53125","-3.90625","-0.03125"
"1574972724081","260","0.14550781","-1.0302734","-0.109375","1.125","-5.4375","0.09375"
"1574972724081","261","0.13476562","-1.0097656","-0.11425781","-0.96875","-5.5625","0.09375"
"1574972724082","262","0.13574219","-0.9970703","-0.123046875","-3.15625","-8.0625","-0.09375"
"1574972724082","263","0.11425781","-0.9794922","-0.11230469","-4.25","-8.375","-0.09375"
"1574972724082","264","0.123046875","-0.96777344","-0.12207031","0.375","-7.34375","1.0"
"1574972724083","265","0.123046875","-0.9951172","-0.1171875","0.4375","-2.09375","0.15625"
"1574972724084","266","0.12207031","-1.0058594","-0.11816406","1.25","-0.6875","0.5625"
"1574972724084","267","0.11328125","-0.9951172","-0.12890625","2.46875","1.40625","0.875"
"1574972724084","268","0.13671875","-1.0078125","-0.10058594","0.03125","-2.625","1.3125"
"1574972724085","269","0.12792969","-1.0009766","-0.12792969","3.6875","-0.5","0.21875"
"1574972724282","270","0.11621094","-0.98828125","-0.13671875","3.25","-1.78125","0.15625"
"1574972724283","271","0.14550781","-0.98535156","-0.11621094","1.4375","-2.75","0.6875"
"1574972724283","272","0.14355469","-1.0048828","-0.13183594","1.65625","-5.25","0.28125"
"1574972724283","273","0.12792969","-0.9951172","-0.12011719","2.53125","-6.28125","0.5"
"1574972724284","274","0.12988281","-0.9980469","-0.1328125","0.625","-4.8125","0.8125"
"1574972724284","275","0.13769531","-1.0048828","-0.107421875","1.3125","-2.375","0.5625"
"1574972724284","276","0.12109375","-0.9863281","-0.115234375","1.0","-2.75","1.625"
"1574972724285","277","0.115234375","-0.9980469","-0.14160156","0.6875","1.6875","1.5625"
"1574972724286","278","0.12402344","-1.0029297","-0.111328125","-1.75","-1.15625","1.1875"
"1574972724286","279","0.13085938","-1.0068359","-0.13671875","1.5","-0.4375","1.71875"
"1574972724876","280","0.12011719","-1.0009766","-0.115234375","-0.21875","-2.25","1.625"
"1574972724877","281","0.11816406","-1.0068359","-0.1328125","1.625","-1.40625","0.15625"
"1574972724877","282","0.13085938","-0.9970703","-0.10449219","-0.09375","-2.15625","-0.84375"
"1574972724877","283","0.16894531","-0.9873047","-0.10449219","-3.09375","-6.125","-1.3125"
"1574972724878","284","0.140625","-1.0068359","-0.13867188","2.53125","-1.59375","-0.71875"
"1574972724878","285","0.12890625","-0.9628906","-0.10546875","-2.78125","-3.59375","-1.125"
"1574972724878","286","0.14550781","-0.9814453","-0.13378906","-0.15625","0.3125","1.71875"
"1574972724878","287","0.119140625","-0.98535156","-0.14160156","-0.46875","-0.90625","1.65625"
"1574972724879","288","0.115234375","-0.95996094","-0.12792969","-0.59375","-3.71875","-0.59375"
"1574972724879","289","0.15429688","-0.9345703","-0.15039062","-3.34375","-11.71875","-3.09375"
"1574972725079","290","0.16796875","-0.9941406","-0.123046875","-3.34375","-8.71875","-3.15625"
"1574972725079","291","0.10253906","-1.0302734","-0.12792969","-0.21875","-0.0625","-0.96875"
"1574972725080","292","0.06347656","-1.0126953","-0.10546875","5.75","9.6875","1.1875"
"1574972725080","293","0.14453125","-0.9873047","-0.17675781","-2.0625","-0.875","-0.96875"
"1574972725080","294","0.16894531","-1.0078125","-0.16699219","-8.9375","1.6875","0.6875"
"1574972725080","295","0.1640625","-0.9892578","-0.16113281","-6.875","-0.8125","0.75"
"1574972725081","296","0.12597656","-0.9667969","-0.13378906","-5.46875","-0.625","1.4375"
"1574972725081","297","0.12792969","-1.0390625","-0.14746094","-8.8125","-3.96875","0.21875"
"1574972725081","298","0.16503906","-1.0058594","-0.17089844","-2.90625","-2.875","0.21875"
"1574972725081","299","0.15332031","-0.96191406","-0.15625","-3.40625","-3.125","-0.84375"
"1574972725475","300","0.14648438","-0.9941406","-0.1640625","-8.9375","-5.8125","-0.78125"
"1574972725477","301","0.13574219","-0.93652344","-0.15039062","-2.1875","-6.84375","-0.90625"
"1574972725477","302","0.1640625","-0.9238281","-0.18457031","-2.84375","-2.75","-0.03125"
"1574972725477","303","0.15039062","-0.9609375","-0.20117188","-4.125","-3.78125","0.4375"
"1574972725478","304","0.14746094","-0.9921875","-0.20117188","-8.34375","-7.75","-1.875"
"1574972725478","305","0.140625","-1.0146484","-0.16992188","-6.625","-4.21875","-3.40625"
"1574972725478","306","0.115234375","-0.9951172","-0.21582031","-1.375","-5.3125","-2.1875"
"1574972725478","307","0.15820312","-1.0097656","-0.24023438","-1.625","-0.90625","-0.09375"
"1574972725479","308","0.140625","-0.9892578","-0.19921875","-5.09375","3.0","-0.34375"
"1574972725479","309","0.15527344","-0.98535156","-0.23242188","1.4375","-5.125","-2.28125"
"1574972725871","310","0.16699219","-0.9609375","-0.2109375","-3.875","2.875","2.03125"
"1574972725872","311","0.11425781","-0.9111328","-0.20605469","-6.6875","2.125","-4.0"
"1574972725872","312","0.14648438","-0.9003906","-0.1875","-7.53125","-2.21875","-0.59375"
"1574972725873","313","0.18359375","-0.9941406","-0.22558594","-7.375","-2.4375","2.71875"
"1574972725873","314","0.15234375","-0.9794922","-0.21777344","-1.125","2.25","1.3125"
"1574972725874","315","0.140625","-0.96484375","-0.19726562","1.125","3.96875","-0.09375"
"1574972725874","316","0.19628906","-0.9765625","-0.23242188","6.375","-3.71875","6.84375"
"1574972725874","317","0.21289062","-0.99902344","-0.21289062","5.9375","-1.21875","4.0"
"1574972725874","318","0.14550781","-0.96191406","-0.22167969","2.90625","-2.9375","1.5625"
"1574972725875","319","0.123046875","-0.87597656","-0.19042969","6.625","-5.6875","1.125"
"1574972726271","320","0.13476562","-0.921875","-0.17480469","3.125","-2.09375","4.0625"
"1574972726272","321","0.12109375","-0.96972656","-0.21777344","5.34375","-2.625","1.1875"
"1574972726272","322","0.18359375","-1.0039062","-0.1875","5.03125","0.25","2.03125"
"1574972726272","323","0.15136719","-1.0742188","-0.24023438","11.875","-1.34375","1.625"
"1574972726273","324","0.15722656","-1.0029297","-0.22167969","6.8125","-2.25","1.0625"
"1574972726274","325","0.13085938","-1.0068359","-0.1875","2.53125","0.53125","2.21875"
"1574972726274","326","0.16699219","-1.0029297","-0.23925781","8.6875","-8.125","1.65625"
"1574972726275","327","0.13085938","-0.98828125","-0.18945312","-0.71875","-2.9375","0.4375"
"1574972726275","328","0.13867188","-0.9501953","-0.19042969","6.625","-2.09375","0.6875"
"1574972726275","329","0.171875","-0.9355469","-0.16992188","3.6875","-2.5625","2.84375"
"1574972726668","330","0.11230469","-0.9560547","-0.19140625","3.1875","-6.0","2.21875"
"1574972726669","331","0.16992188","-0.9589844","-0.15722656","2.53125","4.375","1.375"
"1574972726669","332","0.13378906","-0.9277344","-0.1484375","7.15625","-5.0","1.84375"
"1574972726669","333","0.13574219","-0.96777344","-0.18359375","6.75","-4.46875","-0.03125"
"1574972726670","334","0.16894531","-1.0498047","-0.19726562","2.34375","-1.65625","-2.0"
"1574972726670","335","0.1640625","-1.0244141","-0.1875","1.90625","2.0625","0.15625"
"1574972726670","336","0.12109375","-0.984375","-0.15039062","3.5","-7.5","-0.84375"
"1574972726672","337","0.15625","-1.0009766","-0.20019531","8.8125","-6.28125","3.75"
"1574972726672","338","0.14746094","-0.9970703","-0.18359375","3.25","0.84375","1.71875"
"1574972726672","339","0.109375","-0.91796875","-0.14453125","1.78125","1.9375","-2.46875"
"1574972727066","340","0.18066406","-0.96191406","-0.123046875","-1.625","-4.34375","1.78125"
"1574972727067","341","0.14257812","-1.0097656","-0.18652344","11.5625","-8.5","2.65625"
"1574972727067","342","0.12890625","-0.9736328","-0.19042969","4.28125","-6.53125","-0.09375"
"1574972727067","343","0.14257812","-0.99121094","-0.10449219","1.90625","3.34375","1.25"
"1574972727067","344","0.14453125","-0.9970703","-0.16113281","12.15625","-14.34375","5.875"
"1574972727068","345","0.10546875","-0.9589844","-0.18945312","6.375","-5.375","3.0"
"1574972727068","346","0.18554688","-1.0224609","-0.11425781","-0.90625","5.3125","3.5625"
"1574972727068","347","0.16503906","-1.015625","-0.1171875","4.59375","-2.6875","6.125"
"1574972727068","348","0.076171875","-1.0195312","-0.21777344","1.4375","-12.40625","3.1875"
"1574972727070","349","0.125","-1.03125","-0.17285156","-2.90625","10.8125","-3.21875"
"1574972727463","350","0.23632812","-1.0390625","-0.13085938","0.4375","-8.78125","3.5625"
"1574972727463","351","0.11816406","-0.984375","-0.12207031","3.3125","-8.84375","-0.53125"
"1574972727463","352","0.06738281","-0.9345703","-0.16992188","5.75","-7.03125","-0.09375"
"1574972727463","353","0.15820312","-1.0292969","-0.15429688","-4.5625","3.40625","3.75"
"1574972727464","354","0.13769531","-1.0039062","-0.14648438","-0.15625","-5.6875","-0.28125"
"1574972727464","355","0.06933594","-0.91503906","-0.14160156","0.5","-5.0","-0.15625"
"1574972727464","356","0.1328125","-0.9785156","-0.18066406","0.03125","0.125","2.40625"
"1574972727464","357","0.2109375","-1.0332031","-0.095703125","-8.21875","-7.40625","1.625"
"1574972727465","358","0.12890625","-1.0136719","-0.19824219","4.53125","-13.125","-3.53125"
"1574972727465","359","0.16503906","-0.99902344","-0.17773438","-5.21875","-9.09375","-4.3125"
"1574972727859","360","0.21972656","-1.0244141","-0.115234375","-6.1875","-12.8125","-1.25"
"1574972727862","361","0.056640625","-1.0117188","-0.22460938","-7.71875","-13.875","-4.3125"
"1574972727862","362","0.12792969","-1.0224609","-0.20703125","-1.75","-2.09375","-3.28125"
"1574972727862","363","0.14257812","-0.9951172","-0.16601562","-7.1875","-5.0625","-0.59375"
"1574972727863","364","0.09082031","-0.9873047","-0.20214844","-1.125","-4.09375","-0.53125"
"1574972727863","365","0.15722656","-0.94140625","-0.1875","0.75","-2.15625","-5.59375"
"1574972727863","366","0.16699219","-1.0087891","-0.15527344","-4.96875","1.15625","-2.59375"
"1574972727863","367","0.10839844","-0.94921875","-0.23925781","-0.40625","-8.25","-3.28125"
"1574972727864","368","0.21289062","-0.93359375","-0.20410156","-3.625","5.96875","-5.78125"
"1574972727864","369","0.20703125","-0.9736328","-0.22558594","-10.0625","-4.34375","-9.4375"
"1574972728257","370","0.10839844","-0.9482422","-0.19238281","-15.96875","5.84375","-13.65625"
"1574972728257","371","0.11621094","-0.9394531","-0.20800781","-5.78125","-0.8125","-7.5"
"1574972728258","372","0.28222656","-1.0498047","-0.22070312","-5.34375","-6.46875","-6.3125"
"1574972728259","373","0.18554688","-0.99609375","-0.17675781","-10.46875","0.65625","-12.5625"
"1574972728260","374","0.09375","-0.9511719","-0.24121094","-2.84375","-1.21875","-6.25"
"1574972728260","375","0.19824219","-1.0361328","-0.26171875","1.0625","-6.96875","3.0"
"1574972728260","376","0.24707031","-1.0136719","-0.20117188","0.875","0.375","-7.71875"
"1574972728260","377","0.13574219","-0.9482422","-0.29296875","-3.8125","-1.40625","-2.125"
"1574972728261","378","0.27539062","-0.99902344","-0.28125","0.5625","0.84375","-2.25"
"1574972728261","379","0.25195312","-1.0029297","-0.14648438","-12.125","4.21875","-6.3125"
"1574972728850","380","0.14941406","-0.96484375","-0.3173828","5.21875","-12.21875","-5.28125"
"1574972728851","381","0.2734375","-0.97265625","-0.19921875","-4.96875","1.8125","-2.46875"
"1574972728851","382","0.26757812","-0.984375","-0.171875","1.1875","-7.5625","-4.5"
"1574972728851","383","0.16503906","-0.9794922","-0.30664062","-3.75","-0.6875","0.28125"
"1574972728851","384","0.21191406","-0.9785156","-0.2265625","0.5","3.09375","-3.875"
"1574972728852","385","0.23535156","-0.9589844","-0.2265625","3.125","-6.78125","5.03125"
"1574972728852","386","0.21386719","-0.9716797","-0.2763672","1.1875","-2.875","3.1875"
"1574972728852","387","0.24804688","-0.9921875","-0.2763672","-1.1875","2.875","2.46875"
"1574972728853","388","0.20996094","-0.9511719","-0.15625","0.5625","-1.15625","-0.34375"
"1574972728853","389","0.203125","-0.95214844","-0.28515625","4.71875","-7.09375","5.5625"
"1574972729052","390","0.28808594","-0.9814453","-0.28710938","1.25","-5.0","5.09375"
"1574972729053","391","0.20507812","-0.9824219","-0.23925781","2.71875","-2.4375","-0.78125"
"1574972729053","392","0.19921875","-0.96972656","-0.26367188","5.5625","-9.40625","3.4375"
"1574972729053","393","0.15722656","-0.95214844","-0.23046875","-3.15625","-0.8125","7.21875"
"1574972729053","394","0.2578125","-0.98828125","-0.25976562","7.28125","-7.34375","2.90625"
"1574972729054","395","0.21386719","-0.95996094","-0.23046875","0.09375","-2.875","0.375"
"1574972729054","396","0.22851562","-1.015625","-0.2607422","0.09375","-9.65625","3.5"
"1574972729055","397","0.16894531","-1.0478516","-0.19433594","2.40625","-6.28125","3.125"
"1574972729056","398","0.1953125","-0.99609375","-0.24511719","11.0","-10.25","4.78125"
"1574972729056","399","0.18652344","-1.0166016","-0.25390625","5.21875","-4.28125","12.0"
"1574972729649","400","0.14355469","-0.9423828","-0.22558594","-5.53125","-3.375","4.34375"
"1574972729650","401","0.18457031","-1.0058594","-0.22949219","7.28125","-4.59375","6.4375"
"1574972729650","402","0.13574219","-0.95703125","-0.20214844","-0.34375","2.25","6.84375"
"1574972729650","403","0.24121094","-0.96875","-0.3251953","15.09375","-13.375","17.28125"
"1574972729651","404","0.3388672","-1.0136719","-0.21484375","-7.84375","8.96875","0.09375"
"1574972729651","405","0.17675781","-1.0097656","-0.29492188","2.28125","-12.59375","-23.96875"
"1574972729651","406","-0.0087890625","-0.9082031","-0.32226562","17.0625","-14.90625","4.84375"
"1574972729651","407","0.24316406","-0.9609375","-0.25390625","14.96875","1.28125","11.4375"
"1574972729652","408","0.24707031","-0.9355469","-0.12695312","-2.53125","1.9375","-4.25"
"1574972729653","409","0.18554688","-0.9189453","-0.22363281","7.34375","-13.0","-1.5625"
"1574972730046","410","0.15234375","-0.9511719","-0.13183594","-2.25","-9.21875","2.78125"
"1574972730046","411","0.041015625","-0.9199219","-0.18359375","-0.84375","8.65625","10.40625"
"1574972730047","412","0.23144531","-1.0039062","-0.3232422","56.59375","-16.0625","17.40625"
"1574972730047","413","0.3076172","-1.0175781","-0.25683594","1.0","-11.1875","6.3125"
"1574972730047","414","0.12597656","-0.9609375","-0.1796875","-1.4375","3.09375","-8.8125"
"1574972730047","415","0.051757812","-0.9589844","-0.18261719","0.28125","-6.65625","0.875"
"1574972730048","416","0.18847656","-1.0322266","-0.24609375","11.875","-1.90625","1.1875"
"1574972730048","417","0.13085938","-0.99609375","-0.171875","2.46875","-6.0","-5.40625"
"1574972730048","418","0.12988281","-1.0","-0.08300781","3.0625","5.4375","-2.28125"
"1574972730048","419","0.123046875","-1.0761719","-0.28515625","28.96875","-14.21875","4.59375"
"1574972730441","420","0.15039062","-0.9941406","-0.20117188","17.0625","0.71875","1.71875"
"1574972730442","421","0.2548828","-0.9746094","-0.1796875","4.34375","-7.28125","5.34375"
"1574972730443","422","0.21386719","-1.0537109","-0.12890625","3.5625","6.21875","-12.4375"
"1574972730443","423","0.15429688","-1.0976562","-0.22167969","5.8125","0.0625","-8.28125"
"1574972730443","424","0.119140625","-0.98339844","-0.11328125","4.28125","-4.65625","-0.09375"
"1574972730443","425","0.22753906","-0.9921875","-0.140625","7.71875","3.84375","-0.40625"
"1574972730444","426","0.19824219","-1.0292969","-0.15429688","5.03125","-2.5625","-5.96875"
"1574972730444","427","0.13476562","-0.9404297","-0.1171875","3.5625","-4.28125","5.8125"
"1574972730444","428","0.1171875","-0.9248047","-0.13671875","5.6875","-6.71875","1.375"
"1574972730444","429","0.24023438","-1.0019531","-0.16601562","4.59375","-1.71875","2.65625"
"1574972730642","430","0.15136719","-0.9667969","-0.05859375","1.0625","1.34375","-0.09375"
"1574972730642","431","0.1171875","-0.9482422","-0.09277344","4.53125","-6.90625","3.25"
"1574972730643","432","0.20214844","-0.9863281","-0.17578125","4.46875","-7.75","5.9375"
"1574972730644","433","0.18847656","-1.0527344","-0.15136719","-3.75","-2.6875","-2.90625"
"1574972730645","434","0.11816406","-0.9375","-0.095703125","1.78125","1.09375","2.84375"
"1574972730645","435","0.16015625","-1.0019531","-0.16796875","-1.3125","4.3125","7.28125"
"1574972730646","436","0.17578125","-0.9970703","-0.16113281","-1.9375","-5.125","8.03125"
"1574972730646","437","0.14257812","-0.9580078","-0.13867188","1.125","-6.125","6.6875"
"1574972730646","438","0.16796875","-1.0429688","-0.15136719","-0.46875","3.90625","6.25"
"1574972730646","439","0.11621094","-0.9921875","-0.111328125","-4.6875","4.3125","3.875"
"1574972731040","440","0.13769531","-0.9667969","-0.13183594","9.78125","-6.84375","15.09375"
"1574972731041","441","0.14453125","-0.9824219","-0.12207031","0.5625","3.15625","1.0"
"1574972731041","442","0.123046875","-0.9453125","-0.13574219","-0.65625","4.8125","3.3125"
"1574972731041","443","0.109375","-0.97753906","-0.13378906","3.25","9.34375","5.625"
"1574972731042","444","0.16601562","-1.0224609","-0.111328125","-0.78125","7.25","0.8125"
"1574972731043","445","0.103515625","-0.9482422","-0.13574219","2.59375","6.59375","1.71875"
"1574972731044","446","0.12011719","-0.99316406","-0.14355469","2.78125","-2.625","4.59375"
"1574972731044","447","0.16894531","-1.0332031","-0.1015625","-4.5625","4.5625","-1.3125"
"1574972731044","448","0.13378906","-1.0351562","-0.15820312","1.0","6.21875","2.21875"
"1574972731045","449","0.07714844","-0.9980469","-0.11328125","1.375","-6.90625","6.6875"
"1574972731438","450","0.15820312","-1.0029297","-0.13574219","6.5625","-9.78125","4.28125"
"1574972731438","451","0.18554688","-1.0048828","-0.14355469","-1.4375","0.0625","-1.25"
"1574972731438","452","0.08886719","-1.0","-0.12011719","-1.6875","4.625","4.53125"
"1574972731439","453","0.09667969","-1.0244141","-0.13769531","2.21875","1.40625","1.5625"
"1574972731439","454","0.14550781","-1.0048828","-0.12011719","-1.5","1.46875","-0.21875"
"1574972731439","455","0.12011719","-1.0029297","-0.14746094","4.53125","0.96875","2.15625"
"1574972731439","456","0.15625","-1.0166016","-0.125","1.84375","-1.15625","-3.21875"
"1574972731440","457","0.15625","-0.9980469","-0.12011719","-0.03125","2.9375","-1.6875"
"1574972731441","458","0.08691406","-0.9941406","-0.091796875","1.0","11.09375","1.4375"
"1574972731441","459","0.10839844","-0.9941406","-0.16210938","1.25","-0.375","1.0625"
"1574972731835","460","0.14746094","-0.96484375","-0.13769531","-5.59375","-2.09375","-2.34375"
"1574972731836","461","0.15429688","-0.9921875","-0.119140625","-1.375","3.34375","1.0625"
"1574972731836","462","0.08886719","-0.98535156","-0.14257812","1.4375","0.375","2.78125"
"1574972731836","463","0.125","-0.9609375","-0.12402344","-1.625","-1.15625","-0.46875"
"1574972731837","464","0.15234375","-0.96972656","-0.12792969","2.71875","0.96875","3.625"
"1574972731837","465","0.12792969","-0.9814453","-0.11230469","2.21875","-1.46875","0.4375"
"1574972731837","466","0.14648438","-0.98535156","-0.13183594","2.71875","-5.25","0.75"
"1574972731837","467","0.15625","-0.9453125","-0.13085938","3.4375","-3.53125","0.4375"
"1574972731838","468","0.15039062","-0.96191406","-0.10839844","1.4375","-1.34375","1.3125"
"1574972731839","469","0.115234375","-0.96484375","-0.10644531","-0.96875","-1.28125","-1.6875"
"1574972732232","470","0.123046875","-0.96875","-0.12597656","4.90625","-4.78125","-0.46875"
"1574972732233","471","0.1328125","-0.95996094","-0.13867188","4.65625","-3.125","1.0625"
"1574972732233","472","0.13671875","-0.97558594","-0.119140625","1.3125","-3.71875","1.90625"
"1574972732233","473","0.12597656","-0.9609375","-0.125","1.375","-6.90625","1.375"
"1574972732234","474","0.12207031","-0.9472656","-0.12207031","5.53125","-10.25","0.625"
"1574972732234","475","0.13964844","-0.9863281","-0.14257812","5.75","-9.15625","2.09375"
"1574972732234","476","0.13769531","-1.015625","-0.12109375","-1.25","-9.15625","1.65625"
"1574972732234","477","0.12988281","-1.0234375","-0.13476562","5.03125","-10.9375","0.03125"
"1574972732235","478","0.10449219","-0.9707031","-0.109375","7.46875","-10.125","1.78125"
"1574972732235","479","0.12695312","-0.9814453","-0.11328125","3.1875","-6.40625","2.46875"
"1574972732631","480","0.11816406","-1.0087891","-0.13183594","1.4375","-8.25","3.75"
"1574972732632","481","0.099609375","-0.9580078","-0.09472656","7.71875","-3.59375","0.875"
"1574972732632","482","0.025390625","-0.8828125","-0.09765625","18.09375","-1.09375","1.375"
"1574972732633","483","0.0107421875","-0.99609375","-0.16992188","-1.625","9.03125","6.125"
"1574972732633","484","0.2919922","-1.2978516","-0.1484375","-6.03125","6.28125","7.71875"
"1574972732633","485","0.33984375","-1.0585938","-0.053710938","40.5","-10.9375","-5.53125"
"1574972732633","486","0.08203125","-0.82910156","-0.0048828125","11.75","-27.40625","-5.34375"
"1574972732634","487","-0.043945312","-0.87890625","-0.083984375","-5.53125","-11.53125","5.21875"
"1574972732634","488","0.064453125","-1.0244141","-0.08984375","-16.8125","-8.90625","0.375"
"1574972732634","489","0.24316406","-1.0800781","-0.119140625","-7.59375","-4.8125","-2.65625"
"1574972733028","490","0.19921875","-1.0673828","-0.083984375","3.25","-12.625","3.6875"
"1574972733028","491","0.047851562","-0.94921875","-0.047851562","9.25","-5.0","-2.40625"
"1574972733028","492","0.06347656","-0.9785156","-0.115234375","8.375","-10.8125","0.5625"
"1574972733030","493","0.125","-1.0224609","-0.1171875","-3.625","-4.78125","4.84375"
"1574972733030","494","0.1484375","-1.0117188","-0.107421875","1.0","-1.34375","4.34375"
"1574972733030","495","0.119140625","-0.99316406","-0.09765625","4.28125","-3.90625","2.71875"
"1574972733031","496","0.08886719","-1.0019531","-0.087890625","-1.0625","1.15625","3.4375"
"1574972733031","497","0.08691406","-0.99316406","-0.080078125","-4.3125","-2.8125","5.53125"
"1574972733031","498","0.12011719","-1.0126953","-0.10644531","-1.625","-3.0","3.0"
"1574972733031","499","0.1171875","-1.0087891","-0.11425781","1.84375","-3.125","4.1875"
"1574972733424","500","0.09765625","-0.9970703","-0.07519531","1.0","-0.0625","3.125"
"1574972733424","501","0.09472656","-1.0048828","-0.11621094","3.8125","-1.90625","0.6875"
"1574972733425","502","0.11425781","-1.0048828","-0.11230469","7.90625","-4.9375","1.125"
"1574972733425","503","0.091796875","-0.98535156","-0.057617188","0.5","-2.4375","1.5"
"1574972733425","504","0.087890625","-0.9951172","-0.09472656","-6.375","-4.59375","-1.75"
"1574972733426","505","0.103515625","-1.0322266","-0.123046875","-1.4375","-4.71875","-0.15625"
"1574972733427","506","0.109375","-0.9873047","-0.07910156","-4.3125","-7.15625","-1.25"
"1574972733427","507","0.10449219","-1.0058594","-0.08886719","-0.15625","-5.1875","1.90625"
"1574972733427","508","0.11328125","-1.0009766","-0.11816406","0.5","-2.8125","0.28125"
"1574972733427","509","0.119140625","-1.0087891","-0.12597656","-2.0625","-4.28125","0.5625"
"1574972733823","510","0.099609375","-0.99316406","-0.09082031","2.46875","-2.8125","-0.03125"
"1574972733823","511","0.099609375","-0.9951172","-0.08984375","2.40625","-4.59375","0.03125"
"1574972733824","512","0.11425781","-0.9980469","-0.11230469","0.03125","-6.0","0.5625"
"1574972733824","513","0.10449219","-1.0019531","-0.10449219","4.96875","-4.71875","1.0"
"1574972733824","514","0.09765625","-1.0009766","-0.099609375","2.9375","-4.53125","1.25"
"1574972733824","515","0.109375","-1.0048828","-0.10449219","0.375","-5.1875","0.15625"
"1574972733825","516","0.10058594","-1.0","-0.09863281","3.3125","-6.78125","0.75"
"1574972733826","517","0.07910156","-1.0029297","-0.08203125","1.65625","-6.34375","0.28125"
"1574972733826","518","0.09765625","-1.0136719","-0.11230469","-3.53125","-12.6875","-1.1875"
"1574972733827","519","0.119140625","-1.0117188","-0.13183594","7.53125","-8.84375","1.90625"
"1574972734418","520","0.09472656","-0.9746094","-0.09472656","1.84375","-4.15625","1.625"
"1574972734418","521","0.11230469","-0.9970703","-0.10058594","5.03125","-4.46875","1.3125"
"1574972734418","522","0.10253906","-1.0185547","-0.1015625","1.71875","-3.53125","1.0"
"1574972734418","523","0.09277344","-1.0126953","-0.10839844","2.84375","-3.375","0.6875"
"1574972734419","524","0.10839844","-0.99121094","-0.09082031","4.90625","-5.1875","1.84375"
"1574972734419","525","0.09472656","-1.0068359","-0.083984375","1.25","-1.03125","0.09375"
"1574972734419","526","0.09375","-1.0068359","-0.099609375","2.34375","-5.3125","0.875"
"1574972734419","527","0.10546875","-0.9980469","-0.087890625","2.53125","-3.96875","0.875"
"1574972734420","528","0.11425781","-0.9873047","-0.09765625","3.375","-4.71875","-0.40625"
"1574972734421","529","0.099609375","-1.0048828","-0.08300781","1.375","-2.5","0.28125"
"1574972734618","530","0.111328125","-1.0009766","-0.09863281","1.84375","-5.6875","1.5625"
"1574972734619","531","0.09765625","-0.9863281","-0.08496094","3.0","-3.1875","1.0625"
"1574972734619","532","0.08984375","-0.96875","-0.08105469","-2.65625","-2.875","-0.15625"
"1574972734619","533","0.095703125","-1.0146484","-0.09765625","-4.25","2.9375","1.25"
"1574972734619","534","0.06347656","-1.0068359","-0.078125","-3.625","-1.71875","0.4375"
"1574972734620","535","0.10253906","-0.95410156","-0.1171875","0.4375","-6.21875","0.8125"
"1574972734620","536","0.10058594","-0.8779297","-0.13867188","1.1875","-8.90625","-3.40625"
"1574972734620","537","0.123046875","-0.8984375","-0.11230469","-13.09375","-9.71875","-4.1875"
"1574972734620","538","0.068359375","-1.0820312","-0.087890625","-21.875","-1.53125","-7.5"
"1574972734621","539","0.059570312","-1.0693359","-0.13378906","8.5625","-10.875","1.4375"
"1574972735015","540","0.115234375","-1.0058594","-0.10644531","9.90625","5.1875","7.78125"
"1574972735016","541","0.12792969","-1.0117188","-0.13964844","-11.75","14.09375","-0.21875"
"1574972735017","542","0.14550781","-0.99121094","-0.16601562","-4.1875","4.8125","2.28125"
"1574972735017","543","0.087890625","-0.9892578","-0.14257812","-4.5625","-0.375","0.5"
"1574972735017","544","0.12792969","-1.0","-0.12988281","1.1875","-0.5625","-3.46875"
"1574972735018","545","0.11621094","-0.9296875","-0.11230469","4.0625","2.125","2.53125"
"1574972735018","546","0.09375","-0.96484375","-0.08886719","-3.15625","0.53125","5.40625"
"1574972735018","547","0.1328125","-1.0048828","-0.16210938","1.78125","-0.75","2.9375"
"1574972735018","548","0.10839844","-1.0292969","-0.11425781","-1.3125","3.59375","1.78125"
"1574972735019","549","0.099609375","-1.0410156","-0.16210938","-0.03125","-2.5625","1.25"
"1574972735609","550","0.125","-1.0292969","-0.1328125","4.59375","3.59375","0.625"
"1574972735609","551","0.10253906","-0.9667969","-0.14160156","1.625","-0.5","2.40625"
"1574972735609","552","0.10449219","-0.94628906","-0.10644531","1.5625","2.0625","0.28125"
"1574972735611","553","0.08984375","-0.953125","-0.12207031","1.5625","4.15625","2.53125"
"1574972735611","554","0.10058594","-0.9707031","-0.13476562","0.6875","-1.59375","2.28125"
"1574972735611","555","0.11425781","-1.0058594","-0.14648438","1.71875","3.59375","-1.25"
"1574972735612","556","0.115234375","-1.0234375","-0.12402344","5.28125","2.25","0.375"
"1574972735612","557","0.103515625","-0.99609375","-0.12792969","3.4375","-0.6875","-0.28125"
"1574972735612","558","0.11035156","-0.95996094","-0.13476562","3.625","2.5625","-0.84375"
"1574972735613","559","0.06542969","-0.94140625","-0.08886719","1.5625","5.59375","1.78125"
"1574972735810","560","0.11035156","-0.9550781","-0.13085938","-3.59375","-2.375","-0.90625"
"1574972735810","561","0.125","-1.0195312","-0.1484375","5.6875","6.71875","0.75"
"1574972735811","562","0.08691406","-0.9863281","-0.09375","5.28125","5.59375","-0.53125"
"1574972735811","563","0.14550781","-1.0400391","-0.15039062","1.4375","-0.4375","0.875"
"1574972735811","564","0.14648438","-1.03125","-0.111328125","-0.09375","0.78125","1.3125"
"1574972735812","565","0.095703125","-0.9951172","-0.12402344","1.625","-4.40625","3.5625"
"1574972735813","566","0.16113281","-1.0273438","-0.13085938","0.21875","-0.75","-1.5"
"1574972735813","567","0.10449219","-0.9609375","-0.06933594","-4.1875","-0.5625","-2.53125"
"1574972735813","568","0.064453125","-0.9628906","-0.123046875","7.90625","-11.78125","5.21875"
"1574972735814","569","0.17578125","-1.0429688","-0.15820312","1.125","1.21875","0.15625"
"1574972736208","570","0.14550781","-0.99609375","-0.087890625","-0.90625","4.5","0.3125"
"1574972736208","571","0.047851562","-0.9394531","-0.09863281","9.53125","-11.0625","7.65625"
"1574972736209","572","0.10449219","-0.99316406","-0.15820312","12.78125","-4.15625","-2.65625"
"1574972736209","573","0.11621094","-0.9658203","-0.06542969","-2.78125","6.9375","-2.71875"
"1574972736209","574","0.057617188","-0.9716797","-0.13476562","6.3125","-6.0625","6.375"
"1574972736210","575","0.19042969","-1.0683594","-0.13476562","1.0625","-1.78125","2.46875"
"1574972736210","576","0.12597656","-0.9609375","-0.0859375","5.5625","0.71875","-1.5625"
"1574972736211","577","0.048828125","-0.9951172","-0.09472656","1.1875","-5.5625","3.8125"
"1574972736212","578","0.07324219","-1.0361328","-0.1796875","8.03125","-2.625","4.90625"
"1574972736212","579","0.2109375","-1.0283203","-0.041992188","-6.03125","-0.8125","5.28125"
"1574972736607","580","0.040039062","-0.9296875","-0.07519531","6.1875","-5.875","0.75"
"1574972736607","581","0.076171875","-0.98046875","-0.18457031","3.875","-4.8125","2.15625"
"1574972736607","582","0.17480469","-1.1171875","-0.0625","-6.8125","0.0625","-0.34375"
"1574972736608","583","0.046875","-0.9707031","-0.103515625","5.34375","-4.03125","-0.96875"
"1574972736608","584","0.09667969","-1.0019531","-0.13769531","2.21875","-6.65625","0.21875"
"1574972736608","585","0.15820312","-1.0898438","-0.11621094","-3.28125","4.09375","-4.125"
"1574972736608","586","0.107421875","-1.0195312","-0.11035156","6.25","-10.6875","3.75"
"1574972736609","587","0.13769531","-1.0117188","-0.14453125","-3.8125","-12.46875","-6.375"
"1574972736609","588","0.1171875","-0.9707031","-0.15527344","-10.46875","8.84375","-12.25"
"1574972736618","589","0.22070312","-1.0048828","0.06542969","-4.25","-6.15625","-2.125"
"1574972737001","590","0.0078125","-0.94433594","-0.18652344","5.875","-6.34375","-7.78125"
"1574972737002","591","0.08984375","-0.9941406","-0.109375","0.5","2.375","-5.21875"
"1574972737002","592","0.19140625","-1.0556641","-0.119140625","-5.59375","11.09375","-0.53125"
"1574972737002","593","0.13574219","-1.0019531","-0.15429688","5.15625","-9.53125","2.46875"
"1574972737003","594","0.16992188","-1.0175781","-0.13964844","2.34375","2.1875","-1.1875"
"1574972737003","595","0.080078125","-0.9785156","-0.06738281","-11.03125","8.1875","-13.84375"
"1574972737003","596","0.0546875","-0.99316406","-0.16992188","7.59375","-6.21875","5.40625"
"1574972737003","597","0.19726562","-0.98828125","-0.15039062","4.0625","-0.375","5.6875"
"1574972737003","598","0.22558594","-1.0136719","-0.11035156","-4.96875","-1.09375","-2.40625"
"1574972737004","599","0.09472656","-0.99316406","-0.16503906","6.0625","-12.875","-6.625"
"1574972737400","600","0.13574219","-0.98339844","-0.13574219","-1.25","-0.125","-2.96875"
"1574972737401","601","0.17578125","-1.0175781","-0.13769531","-10.0625","-0.6875","0.5625"
"1574972737401","602","0.18847656","-1.0380859","-0.15527344","-4.8125","-12.625","-5.46875"
"1574972737402","603","0.16992188","-0.9921875","-0.09277344","-8.65625","3.90625","-8.40625"
"1574972737404","604","0.103515625","-0.9970703","-0.15722656","-7.25","-3.65625","-3.28125"
"1574972737404","605","0.13769531","-0.96972656","-0.1328125","-3.875","3.84375","1.3125"
"1574972737405","606","0.16503906","-0.9707031","-0.1328125","-3.09375","1.21875","-5.65625"
"1574972737407","607","0.13769531","-0.9404297","-0.12890625","-5.28125","7.375","-3.15625"
"1574972737408","608","0.09277344","-0.9589844","-0.19726562","2.28125","-1.78125","0.5"
"1574972737408","609","0.2109375","-0.98535156","-0.11035156","-4.5","10.96875","0.875"
"1574972737798","610","0.18261719","-1.015625","-0.20800781","0.15625","-0.25","-2.71875"
"1574972737799","611","0.22070312","-0.9921875","-0.171875","-5.65625","2.25","-1.1875"
"1574972737799","612","0.23730469","-1.0166016","-0.1875","-0.71875","-9.15625","-7.90625"
"1574972737800","613","0.18261719","-1.0214844","-0.15429688","-9.875","-1.34375","-4.3125"
"1574972737801","614","0.1484375","-0.96972656","-0.17871094","-2.90625","-10.625","-5.59375"
"1574972737801","615","0.20117188","-0.99609375","-0.20507812","-4.0","0.25","-1.9375"
"1574972737801","616","0.17871094","-0.9863281","-0.17871094","-2.46875","-6.21875","-6.75"
"1574972737801","617","0.18066406","-0.9423828","-0.17285156","-2.28125","-0.6875","-2.1875"
"1574972737802","618","0.15917969","-1.0009766","-0.15722656","-2.34375","2.5625","0.09375"
"1574972737802","619","0.18652344","-0.99902344","-0.23730469","14.5625","-6.71875","0.3125"
"1574972738196","620","0.23144531","-0.9873047","-0.16113281","3.4375","-1.71875","1.5625"
"1574972738198","621","0.21972656","-1.0048828","-0.16308594","-4.875","-0.875","2.03125"
"1574972738198","622","0.171875","-0.9785156","-0.1953125","-1.875","-4.34375","-0.96875"
"1574972738199","623","0.16015625","-1.0664062","-0.24902344","5.9375","-3.4375","1.125"
"1574972738199","624","0.18066406","-0.99316406","-0.13476562","3.3125","-3.1875","3.0625"
"1574972738199","625","0.2783203","-0.98339844","-0.15820312","-1.3125","-5.6875","10.46875"
"1574972738200","626","0.31054688","-1.1025391","-0.14453125","-1.125","-13.0","-1.375"
"1574972738200","627","0.05859375","-0.9589844","-0.23535156","14.5625","-19.90625","-13.03125"
"1574972738200","628","0.1328125","-0.8564453","-0.16308594","8.8125","-6.78125","4.0"
"1574972738201","629","0.19042969","-0.9501953","-0.17578125","-1.5625","0.46875","5.75"
"1574972738594","630","0.23828125","-0.9941406","-0.14746094","0.6875","1.59375","2.28125"
"1574972738595","631","0.19042969","-0.98535156","-0.18359375","4.0","1.9375","-2.96875"
"1574972738595","632","0.21875","-1.0146484","-0.14941406","-2.34375","-5.0","0.5625"
"1574972738595","633","0.17675781","-1.0419922","-0.18652344","0.9375","-1.71875","7.15625"
"1574972738596","634","0.19824219","-1.0615234","-0.21191406","6.6875","-10.1875","0.4375"
"1574972738596","635","0.17773438","-1.0126953","-0.18261719","3.875","-2.6875","-0.96875"
"1574972738596","636","0.18847656","-1.0195312","-0.109375","0.6875","-2.625","5.46875"
"1574972738597","637","0.16992188","-1.0371094","-0.16992188","10.46875","-4.78125","4.125"
"1574972738598","638","0.12792969","-1.0830078","-0.125","4.0625","-0.96875","2.03125"
"1574972738598","639","0.171875","-1.1132812","-0.16308594","22.0","-9.03125","12.03125"
"1574972738990","640","0.20214844","-1.1884766","-0.20507812","10.21875","-6.78125","18.09375"
"1574972738991","641","0.23535156","-1.2021484","-0.18847656","18.625","-5.3125","2.84375"
"1574972738991","642","0.17675781","-1.1416016","-0.25585938","28.59375","-26.4375","28.28125"
"1574972738991","643","0.3203125","-0.87109375","-0.18164062","16.1875","-35.09375","2.15625"
"1574972738992","644","0.099609375","-0.6699219","-0.07128906","21.4375","-8.6875","-17.8125"
"1574972738992","645","0.25","-0.9404297","-0.061523438","-11.8125","2.375","-19.09375"
"1574972738992","646","-0.0126953125","-0.9814453","-0.06542969","-21.03125","4.5625","-8.34375"
"1574972738992","647","0.053710938","-1.1025391","-0.19335938","1.65625","3.84375","7.46875"
"1574972738993","648","0.22949219","-1.0634766","-0.14746094","29.0","2.0625","5.46875"
"1574972738994","649","0.22949219","-0.9111328","-0.10058594","-6.5","7.0","2.78125"
"1574972739387","650","0.13378906","-0.9609375","-0.115234375","-10.65625","17.8125","7.71875"
"1574972739388","651","0.11328125","-1.0800781","-0.09863281","-8.46875","29.84375","0.9375"
"1574972739388","652","0.123046875","-1.0556641","-0.14550781","-2.71875","-3.1875","6.5"
"1574972739388","653","0.13378906","-0.96777344","-0.076171875","18.40625","-2.875","6.0"
"1574972739388","654","0.16210938","-1.0380859","-0.11035156","14.0","1.21875","2.09375"
"1574972739389","655","0.16015625","-1.0390625","-0.10253906","-0.53125","1.65625","1.78125"
"1574972739389","656","0.18066406","-1.0439453","-0.09667969","0.5625","5.96875","-1.125"
"1574972739389","657","0.13769531","-1.0390625","-0.09277344","7.90625","6.21875","-2.65625"
"1574972739389","658","0.15429688","-1.0175781","-0.064453125","5.28125","5.84375","-1.3125"
"1574972739390","659","0.1875","-0.9628906","-0.06640625","7.59375","1.9375","-3.21875"
"1574972739786","660","0.17480469","-0.9277344","-0.06738281","4.59375","-2.21875","-2.46875"
"1574972739788","661","0.16894531","-0.9238281","-0.059570312","0.21875","0.71875","-2.25"
"1574972739789","662","0.16992188","-0.9238281","-0.048828125","-0.46875","3.96875","1.25"
"1574972739789","663","0.15625","-0.921875","-0.0703125","-0.34375","7.6875","0.875"
"1574972739789","664","0.13476562","-0.89453125","-0.078125","3.4375","0.3125","-1.375"
"1574972739790","665","0.15917969","-0.8544922","-0.045898438","2.53125","6.78125","-1.4375"
"1574972739790","666","0.15429688","-0.85546875","-0.0625","1.90625","-2.21875","1.4375"
"1574972739790","667","0.17675781","-0.89746094","-0.08105469","4.0625","-2.4375","0.3125"
"1574972739790","668","0.17089844","-0.93066406","-0.06640625","-0.28125","0.1875","-1.5625"
"1574972739791","669","0.14355469","-0.9316406","-0.07421875","1.0625","0.375","-0.15625"
"1574972740184","670","0.16503906","-0.9707031","-0.09765625","-0.09375","-7.5","1.1875"
"1574972740184","671","0.17089844","-1.0087891","-0.11230469","0.625","-6.46875","-0.21875"
"1574972740185","672","0.1640625","-1.0302734","-0.0703125","-2.125","-4.09375","0.03125"
"1574972740186","673","0.13085938","-1.0068359","-0.10253906","1.96875","-14.15625","1.65625"
"1574972740187","674","0.16308594","-0.99121094","-0.099609375","3.125","-11.3125","5.5625"
"1574972740187","675","0.17480469","-0.9736328","-0.083984375","5.40625","-0.6875","1.96875"
"1574972740187","676","0.17871094","-0.9511719","-0.03515625","7.53125","-5.125","-1.5625"
"1574972740188","677","0.10253906","-0.91015625","-0.061523438","11.4375","-13.4375","-1.75"
"1574972740188","678","0.09277344","-0.98828125","-0.10839844","0.5625","6.03125","6.96875"
"1574972740188","679","0.2783203","-1.2158203","-0.119140625","2.84375","2.4375","5.875"
"1574972740580","680","0.34472656","-1.0634766","-0.06933594","23.28125","-9.90625","-8.53125"
"1574972740581","681","0.1875","-0.890625","0.017578125","-3.46875","-25.40625","-1.1875"
"1574972740581","682","-0.0126953125","-0.9160156","-0.08691406","-3.875","-16.0","19.5625"
"1574972740581","683","0.13476562","-0.9746094","-0.053710938","-7.125","-10.5625","4.0"
"1574972740581","684","0.24804688","-1.0283203","-0.046875","-0.15625","2.5625","-2.0"
"1574972740583","685","0.140625","-1.046875","-0.057617188","9.0625","7.0","-1.3125"
"1574972740584","686","0.12890625","-0.99609375","-0.07421875","5.53125","-7.75","-2.90625"
"1574972740584","687","0.18359375","-0.9736328","-0.06933594","2.03125","-9.90625","-1.0"
"1574972740584","688","0.16503906","-0.9863281","-0.06738281","1.84375","-6.28125","-0.21875"
"1574972740584","689","0.12402344","-0.9980469","-0.0703125","2.90625","-5.6875","0.03125"
"1574972740978","690","0.14355469","-1.0175781","-0.060546875","1.78125","-3.5","1.5"
"1574972740978","691","0.15527344","-1.0097656","-0.05859375","2.90625","-2.75","1.625"
"1574972740978","692","0.14257812","-1.0","-0.060546875","2.84375","-0.5","1.125"
"1574972740979","693","0.16894531","-0.9892578","-0.07324219","-1.875","-2.375","2.90625"
"1574972740979","694","0.17675781","-1.0048828","-0.06640625","4.78125","-7.75","3.3125"
"1574972740979","695","0.15722656","-1.0058594","-0.041992188","2.90625","-2.25","1.3125"
"1574972740979","696","0.14648438","-0.98046875","-0.047851562","0.21875","0.25","-1.125"
"1574972740980","697","0.14550781","-0.99902344","-0.061523438","-6.5625","-5.5625","-3.8125"
"1574972740980","698","0.1640625","-1.0214844","-0.08496094","-3.34375","-8.375","-0.78125"
"1574972740981","699","0.15527344","-0.9980469","-0.103515625","3.3125","-5.9375","0.4375"
"1574972741376","700","0.17382812","-0.98046875","-0.034179688","-0.71875","-0.4375","0.875"
"1574972741376","701","0.14550781","-0.9892578","-0.049804688","0.4375","1.34375","-4.0"
"1574972741376","702","0.1328125","-1.0078125","-0.06542969","-0.40625","-11.59375","-4.6875"
"1574972741377","703","0.1875","-1.0068359","-0.07324219","6.5","-13.0","3.125"
"1574972741377","704","0.18652344","-0.98828125","-0.08203125","5.625","-6.84375","2.59375"
"1574972741377","705","0.15722656","-0.98535156","-0.0146484375","0.6875","6.9375","-0.15625"
"1574972741377","706","0.15429688","-0.99609375","-0.059570312","5.09375","8.96875","-2.53125"
"1574972741378","707","0.13867188","-1.0107422","-0.06542969","2.84375","2.6875","-1.0625"
"1574972741378","708","0.1875","-1.0175781","-0.078125","4.40625","-2.625","1.25"
"1574972741379","709","0.20410156","-0.9873047","-0.09667969","3.125","-11.3125","4.21875"
"1574972741773","710","0.18847656","-0.99121094","-0.049804688","-0.09375","-5.875","0.9375"
"1574972741773","711","0.15527344","-1.0029297","-0.048828125","-5.84375","-1.90625","-0.15625"
"1574972741774","712","0.13476562","-0.9794922","-0.07128906","-1.125","-1.84375","-0.59375"
"1574972741774","713","0.12109375","-1.0097656","-0.07519531","-3.9375","1.75","0.5625"
"1574972741774","714","0.18554688","-0.98828125","-0.0625","1.71875","-7.4375","2.9375"
"1574972741774","715","0.21777344","-0.9824219","-0.0546875","3.6875","-8.625","-0.03125"
"1574972741775","716","0.1875","-0.9941406","-0.064453125","3.1875","3.28125","-1.0"
"1574972741775","717","0.14746094","-0.9814453","-0.057617188","2.15625","3.28125","-0.59375"
"1574972741775","718","0.1640625","-1.0048828","-0.076171875","-1.125","-0.125","1.25"
"1574972741775","719","0.18847656","-1.0166016","-0.07519531","-1.5","-4.03125","2.28125"
"1574972742172","720","0.15625","-1.0","-0.09375","0.03125","-10.0625","1.84375"
"1574972742174","721","0.15039062","-0.953125","-0.08105469","-15.65625","-10.25","5.03125"
"1574972742174","722","0.13183594","-0.9716797","-0.078125","-3.40625","-10.3125","7.78125"
"1574972742174","723","0.15332031","-0.9267578","-0.0703125","1.625","-10.0625","5.875"
"1574972742175","724","0.12109375","-0.92871094","-0.07421875","-0.28125","-8.84375","5.40625"
"1574972742175","725","0.14746094","-1.0283203","-0.115234375","-12.78125","-12.8125","6.6875"
"1574972742175","726","0.15820312","-1.0839844","-0.08203125","-9.25","-2.25","5.09375"
"1574972742175","727","0.13378906","-1.0849609","-0.111328125","0.15625","8.28125","-0.03125"
"1574972742176","728","0.1171875","-1.0830078","-0.103515625","-8.875","9.875","-2.125"
"1574972742176","729","0.16210938","-1.1044922","-0.12890625","-0.28125","5.0625","1.5"
"1574972742567","730","0.19335938","-1.0146484","-0.12207031","12.03125","0.59375","2.40625"
"1574972742567","731","0.15234375","-0.9238281","-0.083984375","7.28125","2.75","2.28125"
"1574972742568","732","0.12988281","-0.9189453","-0.09082031","3.5","2.4375","2.65625"
"1574972742568","733","0.14355469","-0.9423828","-0.08886719","0.6875","-0.625","2.28125"
"1574972742569","734","0.14746094","-0.95410156","-0.07324219","2.9375","-3.65625","1.5625"
"1574972742569","735","0.15136719","-0.97753906","-0.08984375","2.65625","-8.0625","0.875"
"1574972742569","736","0.16699219","-0.9658203","-0.09375","1.65625","-11.59375","-1.3125"
"1574972742570","737","0.15429688","-0.9453125","-0.09472656","0.15625","-15.03125","-2.90625"
"1574972742570","738","0.12792969","-0.9033203","-0.08496094","2.46875","-12.46875","-1.5625"
"1574972742570","739","0.11230469","-0.9091797","-0.07421875","-1.9375","-3.59375","-1.875"
"1574972742965","740","0.123046875","-0.96972656","-0.087890625","-6.03125","3.46875","-2.25"
"1574972742965","741","0.13085938","-1.0244141","-0.12207031","-3.21875","5.5625","-2.28125"
"1574972742965","742","0.15039062","-1.0517578","-0.12792969","-0.96875","-3.90625","-1.4375"
"1574972742965","743","0.16796875","-0.9951172","-0.14941406","5.8125","-16.125","0.8125"
"1574972742966","744","0.123046875","-0.9707031","-0.11425781","2.15625","-4.71875","1.625"
"1574972742967","745","0.12109375","-0.9970703","-0.083984375","-0.15625","-3.78125","3.25"
"1574972742968","746","0.16601562","-0.9921875","-0.11425781","1.25","-3.90625","5.34375"
"1574972742968","747","0.13769531","-1.0029297","-0.111328125","2.28125","4.3125","3.0625"
"1574972742968","748","0.11425781","-0.96191406","-0.064453125","4.0625","0.71875","4.40625"
"1574972742968","749","0.16113281","-1.0126953","-0.119140625","3.5625","-0.125","1.0"
"1574972743363","750","0.13476562","-0.9658203","-0.10546875","6.6875","5.78125","0.8125"
"1574972743363","751","0.1171875","-0.9628906","-0.0703125","3.0625","2.625","2.53125"
"1574972743364","752","0.18261719","-0.9902344","-0.11816406","12.09375","0.125","3.3125"
"1574972743364","753","0.13671875","-0.9326172","-0.06347656","3.5625","4.625","1.625"
"1574972743364","754","0.10253906","-0.9296875","-0.060546875","-3.6875","8.78125","2.90625"
"1574972743364","755","0.1328125","-0.9765625","-0.095703125","6.6875","3.96875","4.34375"
"1574972743364","756","0.16503906","-0.96875","-0.06640625","0.875","3.40625","3.6875"
"1574972743366","757","0.16015625","-0.9746094","-0.07714844","-0.21875","5.71875","3.6875"
"1574972743366","758","0.11328125","-0.9560547","-0.08691406","-3.625","4.625","3.6875"
"1574972743366","759","0.099609375","-0.99121094","-0.07128906","-4.5625","3.53125","0.375"
"1574972743761","760","0.14160156","-1.0380859","-0.12109375","1.1875","-1.53125","0.28125"
"1574972743762","761","0.16015625","-0.9873047","-0.08203125","-3.8125","-3.59375","3.125"
"1574972743762","762","0.115234375","-0.96777344","-0.064453125","8.125","0.78125","4.65625"
"1574972743762","763","0.14746094","-1.0175781","-0.10644531","1.78125","-2.21875","4.0"
"1574972743763","764","0.16503906","-1.0498047","-0.0546875","-3.9375","-1.46875","-5.53125"
"1574972743763","765","0.053710938","-1.0400391","-0.12402344","13.4375","-10.6875","2.53125"
"1574972743763","766","0.15820312","-1.0517578","-0.13085938","0.21875","-9.09375","8.25"
"1574972743763","767","0.1796875","-1.0244141","-0.001953125","-0.53125","-2.25","-5.78125"
"1574972743764","768","0.06738281","-1.046875","-0.10449219","16.9375","-20.625","2.46875"
"1574972743765","769","0.07714844","-1.1005859","-0.16699219","4.59375","-10.125","7.21875"
"1574972744357","770","0.12695312","-1.0732422","-0.1171875","-4.96875","5.25","1.5"
"1574972744358","771","0.19921875","-1.0888672","-0.091796875","-1.6875","-9.84375","5.15625"
"1574972744358","772","0.12792969","-1.0","-0.09765625","2.71875","-8.4375","-6.625"
"1574972744358","773","0.13671875","-0.99316406","-0.056640625","-5.40625","-4.34375","-0.78125"
"1574972744358","774","0.09765625","-1.0292969","-0.1015625","-2.0","-8.5","-2.25"
"1574972744359","775","0.111328125","-0.98535156","-0.091796875","2.71875","-7.75","0.375"
"1574972744359","776","0.1953125","-0.99902344","-0.08496094","0.21875","-6.15625","2.59375"
"1574972744359","777","0.14648438","-0.9785156","-0.0546875","-2.78125","-1.53125","-6.5"
"1574972744359","778","0.119140625","-1.0078125","-0.1328125","-0.84375","-8.625","-2.90625"
"1574972744360","779","0.12792969","-1.0341797","-0.111328125","-2.78125","-5.8125","-0.15625"
"1574972744751","780","0.14453125","-1.0224609","-0.12402344","1.78125","-9.28125","-0.90625"
"1574972744753","781","0.14648438","-1.0136719","-0.13085938","-11.8125","-1.84375","2.21875"
"1574972744753","782","0.123046875","-0.9951172","-0.13574219","-3.625","9.28125","-3.8125"
"1574972744754","783","0.15332031","-1.0146484","-0.08984375","-33.3125","17.28125","3.8125"
"1574972744754","784","0.10546875","-0.9951172","-0.171875","-22.0","5.90625","4.28125"
"1574972744754","785","0.25585938","-1.1132812","-0.19433594","-9.75","-2.09375","-6.15625"
"1574972744755","786","0.10058594","-1.0371094","-0.17480469","0.9375","-8.125","-2.46875"
"1574972744755","787","0.046875","-0.91503906","-0.125","10.34375","-7.625","-0.65625"
"1574972744755","788","0.1640625","-0.93359375","-0.115234375","-1.375","2.375","0.75"
"1574972744755","789","0.17871094","-0.9716797","-0.13183594","1.1875","-11.40625","1.84375"
"1574972745148","790","0.09277344","-0.953125","-0.12402344","3.5625","-9.46875","-0.28125"
"1574972745149","791","0.10546875","-0.953125","-0.14160156","-1.625","0.125","4.40625"
"1574972745149","792","0.14257812","-1.0244141","-0.18945312","-1.5","-7.03125","9.84375"
"1574972745150","793","0.16308594","-1.0351562","-0.16113281","2.90625","-6.125","1.78125"
"1574972745151","794","0.12402344","-0.9902344","-0.12792969","-7.4375","-4.09375","-2.59375"
"1574972745151","795","0.1484375","-1.0458984","-0.21972656","7.53125","-6.125","0.5"
"1574972745151","796","0.12988281","-1.0097656","-0.099609375","-1.625","2.5","-2.28125"
"1574972745152","797","0.107421875","-0.99316406","-0.16015625","1.96875","-2.5625","-3.59375"
"1574972745152","798","0.13671875","-0.9980469","-0.15625","8.1875","-7.875","-0.96875"
"1574972745152","799","0.13476562","-0.9658203","-0.12207031","4.65625","-4.71875","-0.15625"
"1574972745350","800","0.11328125","-0.9638672","-0.14648438","8.3125","-6.53125","0.15625"
"1574972745350","801","0.1484375","-0.98339844","-0.12695312","6.90625","-4.03125","-0.71875"
"1574972745351","802","0.12890625","-0.9560547","-0.12207031","10.09375","-5.375","4.46875"
"1574972745351","803","0.16699219","-1.0458984","-0.15039062","-5.84375","-2.9375","5.9375"
"1574972745351","804","0.2705078","-1.1191406","-0.2109375","-7.71875","-9.15625","-2.78125"
"1574972745352","805","0.09765625","-1.0605469","-0.109375","-2.1875","-7.09375","-13.34375"
"1574972745353","806","0.046875","-0.9472656","-0.13574219","20.59375","-12.40625","-5.65625"
"1574972745353","807","0.16113281","-0.9013672","-0.09765625","-1.6875","-2.03125","-1.6875"
"1574972745353","808","0.09277344","-0.9609375","-0.11035156","-5.96875","-3.4375","-0.59375"
"1574972745354","809","0.17773438","-0.95703125","-0.09863281","10.59375","-11.71875","-2.78125"
"1574972745944","810","0.20996094","-1.0283203","-0.125","-2.65625","-6.59375","2.34375"
"1574972745945","811","0.16210938","-1.0693359","-0.20605469","2.15625","-8.375","0.5625"
"1574972745945","812","0.16308594","-1.0107422","-0.20117188","8.03125","-12.28125","2.9375"
"1574972745946","813","0.17675781","-0.9814453","-0.12207031","-2.125","-7.40625","2.59375"
"1574972745946","814","0.09277344","-0.9501953","-0.11816406","3.375","-5.25","2.59375"
"1574972745946","815","0.12792969","-0.9580078","-0.09375","7.96875","-8.625","3.5"
"1574972745946","816","0.10449219","-0.984375","-0.16503906","3.625","-8.5625","5.75"
"1574972745948","817","0.15527344","-1.015625","-0.13476562","3.125","-6.84375","3.25"
"1574972745948","818","0.15527344","-0.98535156","-0.15332031","6.5625","-3.96875","6.125"
"1574972745948","819","0.12792969","-1.0332031","-0.14453125","6.0625","-7.09375","0.8125"
"1574972746146","820","0.10253906","-0.9824219","-0.1328125","1.71875","-3.96875","1.25"
"1574972746146","821","0.119140625","-1.0214844","-0.17675781","5.03125","-11.1875","1.5"
"1574972746147","822","0.12109375","-0.984375","-0.140625","8.8125","4.09375","0.28125"
"1574972746147","823","0.13867188","-1.0107422","-0.1015625","9.59375","3.03125","3.9375"
"1574972746147","824","0.12792969","-0.9863281","-0.1171875","5.46875","-2.5625","1.125"
"1574972746147","825","0.109375","-0.99609375","-0.07519531","0.03125","1.8125","0.625"
"1574972746148","826","0.140625","-1.0097656","-0.12988281","3.625","-5.3125","4.125"
"1574972746148","827","0.119140625","-1.0068359","-0.09277344","0.6875","-1.09375","1.375"
"1574972746148","828","0.13085938","-0.9824219","-0.13378906","4.78125","-2.15625","0.5"
"1574972746150","829","0.11816406","-1.0058594","-0.10449219","1.25","-0.75","3.9375"
"1574972746938","830","0.12207031","-0.9814453","-0.103515625","2.59375","-2.25","2.15625"
"1574972746938","831","0.14746094","-1.0292969","-0.123046875","2.90625","-3.0625","1.5"
"1574972746938","832","0.13378906","-0.9970703","-0.080078125","-3.46875","-1.65625","0.03125"
"1574972746939","833","0.12890625","-1.0019531","-0.109375","2.46875","0.3125","0.28125"
"1574972746939","834","0.11328125","-0.95996094","-0.12011719","-0.84375","-6.84375","-0.96875"
"1574972746939","835","0.14453125","-1.0283203","-0.11035156","1.4375","-0.75","1.3125"
"1574972746940","836","0.13085938","-0.9941406","-0.140625","7.71875","-7.40625","-1.6875"
"1574972746940","837","0.14746094","-1.0087891","-0.09667969","2.90625","-5.75","-1.5"
"1574972746940","838","0.1328125","-1.0039062","-0.07910156","0.5","-3.0625","-2.90625"
"1574972746940","839","0.09082031","-1.0126953","-0.083984375","-3.15625","-2.15625","-2.0"
"1574972747137","840","0.11035156","-0.9970703","-0.12792969","4.125","-8.78125","0.75"
"1574972747138","841","0.15820312","-0.9970703","-0.08105469","-0.03125","-0.6875","2.65625"
"1574972747139","842","0.083984375","-0.98046875","-0.10253906","-0.28125","-3.84375","-1.875"
"1574972747139","843","0.12011719","-0.9814453","-0.078125","0.4375","-3.3125","3.375"
"1574972747139","844","0.095703125","-1.0410156","-0.115234375","2.90625","-2.03125","3.625"
"1574972747140","845","0.14941406","-1.0351562","-0.07714844","3.0625","0.65625","0.375"
"1574972747140","846","0.09863281","-1.0947266","-0.08203125","-6.09375","6.03125","1.71875"
"1574972747140","847","0.09667969","-1.1103516","-0.12597656","8.4375","-0.4375","0.3125"
"1574972747141","848","0.16601562","-1.1201172","-0.125","8.5625","3.40625","2.84375"
"1574972747141","849","0.14257812","-1.0097656","-0.15332031","10.53125","-7.8125","3.625"
"1574972747338","850","0.16894531","-1.0234375","-0.13183594","7.09375","-1.03125","-0.65625"
"1574972747338","851","0.16601562","-1.0224609","-0.059570312","-4.6875","13.84375","-2.1875"
"1574972747338","852","0.0625","-1.0664062","-0.11621094","-7.71875","-0.6875","-6.5625"
"1574972747340","853","0.12109375","-0.98535156","-0.12988281","15.34375","-9.71875","13.15625"
"1574972747341","854","0.22070312","-0.953125","-0.06347656","13.6875","-8.25","5.5625"
"1574972747341","855","0.16113281","-0.98535156","-0.034179688","-9.6875","-2.09375","-0.84375"
"1574972747341","856","0.0390625","-0.93066406","-0.0859375","1.25","-15.5","6.8125"
"1574972747342","857","0.12109375","-0.97753906","-0.05078125","8.375","-14.65625","3.625"
"1574972747342","858","0.19042969","-1.0371094","-0.109375","-0.46875","-6.53125","5.53125"
"1574972747342","859","0.11621094","-1.0205078","-0.07128906","-2.34375","-11.25","8.875"
"1574972747737","860","0.11230469","-1.0029297","-0.08984375","0.3125","-5.5625","-4.1875"
"1574972747737","861","0.09863281","-1.0439453","-0.10546875","1.1875","-6.90625","0.21875"
"1574972747737","862","0.10644531","-1.1191406","-0.11230469","-1.5625","-14.28125","4.34375"
"1574972747738","863","0.125","-0.984375","-0.06542969","7.84375","-7.6875","-2.0625"
"1574972747738","864","0.09863281","-1.0292969","-0.0859375","-5.65625","0.40625","0.4375"
"1574972747739","865","0.026367188","-1.0048828","-0.11328125","1.96875","-0.4375","-1.1875"
"1574972747740","866","0.09277344","-1.0654297","-0.078125","-0.59375","-3.96875","-1.5625"
"1574972747740","867","0.12988281","-1.0478516","-0.15625","3.3125","0.53125","0.5625"
"1574972747740","868","0.08105469","-1.0087891","-0.056640625","-1.25","3.71875","-0.09375"
"1574972747741","869","0.10058594","-1.0400391","-0.099609375","0.3125","2.5625","-7.375"
"1574972748133","870","0.12890625","-1.0498047","-0.11425781","4.59375","-2.03125","0.5625"
"1574972748134","871","0.14160156","-1.0048828","-0.09472656","-2.0625","4.375","-2.0"
"1574972748134","872","0.10546875","-1.0410156","-0.10058594","-1.4375","1.875","-0.90625"
"1574972748134","873","0.14257812","-1.0273438","-0.09277344","1.375","-0.6875","0.15625"
"1574972748134","874","0.107421875","-0.96191406","-0.08203125","2.90625","1.15625","-4.5"
"1574972748135","875","0.11816406","-0.984375","-0.11425781","3.8125","1.65625","-3.6875"
"1574972748135","876","0.13378906","-0.984375","-0.099609375","-2.53125","1.53125","1.84375"
"1574972748136","877","0.15429688","-0.9628906","-0.076171875","0.15625","5.84375","0.875"
"1574972748137","878","0.11328125","-0.9482422","-0.08105469","7.90625","3.03125","-3.53125"
"1574972748137","879","0.10839844","-0.8574219","-0.07421875","7.71875","3.46875","3.875"
"1574972748533","880","0.107421875","-0.84472656","-0.07128906","3.125","1.75","5.6875"
"1574972748533","881","0.14453125","-0.85546875","-0.0546875","1.71875","3.96875","4.0"
"1574972748534","882","0.13476562","-0.8876953","-0.08691406","1.0625","-2.375","3.1875"
"1574972748534","883","0.11230469","-0.9248047","-0.057617188","1.125","-0.6875","4.1875"
"1574972748534","884","0.115234375","-0.953125","-0.08105469","0.09375","-1.34375","4.53125"
"1574972748534","885","0.13085938","-0.9892578","-0.087890625","4.40625","-3.71875","5.03125"
"1574972748535","886","0.119140625","-0.95214844","-0.061523438","8.625","-10.75","6.3125"
"1574972748535","887","0.091796875","-0.90234375","-0.061523438","10.875","-5.0625","1.25"
"1574972748535","888","0.103515625","-0.92285156","-0.049804688","13.28125","-8.90625","2.09375"
"1574972748536","889","0.10058594","-0.9404297","-0.043945312","11.8125","-8.25","-0.96875"
"1574972748927","890","-0.001953125","-1.0585938","-0.12109375","-4.25","1.59375","0.375"
"1574972748927","891","0.107421875","-1.3496094","-0.13769531","-11.28125","3.0","4.1875"
"1574972748928","892","0.2578125","-1.0947266","-0.095703125","33.65625","-2.9375","2.28125"
"1574972748928","893","0.08105469","-0.77734375","0.07128906","11.5","-20.5","-3.53125"
"1574972748928","894","-0.043945312","-0.8359375","-0.09667969","-3.625","-0.0625","1.90625"
"1574972748929","895","0.076171875","-1.0117188","-0.032226562","-6.9375","4.875","3.875"
"1574972748929","896","0.23925781","-1.0712891","-0.087890625","-3.46875","-6.96875","3.4375"
"1574972748929","897","0.15429688","-1.0839844","-0.046875","-3.8125","0.40625","0.9375"
"1574972748930","898","0.068359375","-1.0332031","-0.0390625","-2.34375","-4.78125","2.46875"
"1574972748930","899","0.07128906","-0.96777344","-0.02734375","3.8125","-4.8125","1.4375"
"1574972749324","900","0.07714844","-0.9560547","-0.038085938","8.125","1.09375","2.71875"
"1574972749326","901","0.12792969","-1.0","-0.08496094","-1.875","-6.125","1.84375"
"1574972749327","902","0.16503906","-1.0205078","-0.07128906","-4.375","-0.375","1.125"
"1574972749327","903","0.09863281","-1.0","-0.03125","4.71875","2.9375","-0.34375"
"1574972749327","904","0.09765625","-1.0136719","-0.0546875","6.1875","-0.375","-0.65625"
"1574972749328","905","0.10058594","-1.0117188","-0.056640625","1.84375","-3.84375","1.25"
"1574972749328","906","0.07128906","-0.99121094","-0.05078125","2.46875","-1.96875","3.0625"
"1574972749328","907","0.08105469","-0.9951172","-0.040039062","-0.40625","-2.15625","3.0"
"1574972749328","908","0.087890625","-1.0078125","-0.05078125","2.71875","-3.0","1.84375"
"1574972749329","909","0.109375","-1.0146484","-0.052734375","3.8125","-4.53125","1.1875"
"1574972749723","910","0.109375","-1.0146484","-0.048828125","5.09375","-5.0","1.84375"
"1574972749723","911","0.10058594","-1.0058594","-0.038085938","2.34375","-2.875","2.03125"
"1574972749724","912","0.09375","-1.0019531","-0.044921875","0.4375","-3.0","1.1875"
"1574972749725","913","0.115234375","-1.0048828","-0.057617188","0.15625","-3.3125","0.625"
"1574972749725","914","0.09863281","-1.0068359","-0.041015625","-4.25","-0.375","0.6875"
"1574972749726","915","0.08105469","-1.0224609","-0.061523438","-1.0","-3.0","0.75"
"1574972749726","916","0.078125","-1.0087891","-0.057617188","2.71875","-4.28125","2.21875"
"1574972749726","917","0.08300781","-1.0019531","-0.032226562","-0.71875","-5.875","1.1875"
"1574972749726","918","0.10546875","-1.0097656","-0.055664062","-0.09375","-5.0","0.625"
"1574972749727","919","0.08886719","-1.0019531","-0.034179688","1.625","-3.375","0.5"
"1574972750120","920","0.09765625","-0.9863281","-0.037109375","3.5","-2.25","0.4375"
"1574972750120","921","0.107421875","-1.0107422","-0.06347656","2.71875","-1.03125","0.75"
"1574972750121","922","0.083984375","-1.0136719","-0.05078125","2.15625","1.34375","-0.46875"
"1574972750121","923","0.10253906","-1.0126953","-0.0390625","1.25","-1.65625","0.15625"
"1574972750121","924","0.103515625","-1.0048828","-0.041992188","-0.21875","-4.15625","1.0"
"1574972750123","925","0.09375","-1.0097656","-0.06347656","1.4375","-5.25","1.3125"
"1574972750123","926","0.09472656","-1.0048828","-0.05078125","0.15625","-6.0","2.09375"
"1574972750123","927","0.09765625","-1.0048828","-0.0546875","-0.28125","-5.1875","2.03125"
"1574972750123","928","0.09667969","-1.0009766","-0.043945312","0.03125","-5.6875","2.09375"
"1574972750124","929","0.091796875","-1.0068359","-0.043945312","0.21875","-6.21875","1.1875"
"1574972750516","930","0.08886719","-1.0097656","-0.0546875","2.28125","-6.71875","1.3125"
"1574972750517","931","0.08105469","-1.0019531","-0.059570312","5.09375","-4.21875","1.25"
"1574972750517","932","0.080078125","-0.9980469","-0.04296875","1.625","-5.4375","0.8125"
"1574972750517","933","0.09277344","-1.0185547","-0.068359375","-0.34375","-1.59375","1.0625"
"1574972750518","934","0.076171875","-1.0009766","-0.049804688","1.125","-1.90625","1.625"
"1574972750518","935","0.095703125","-1.0009766","-0.041992188","-2.0","-1.65625","1.1875"
"1574972750518","936","0.103515625","-1.0097656","-0.046875","-0.78125","0.125","0.75"
"1574972750519","937","0.07128906","-0.9970703","-0.049804688","-0.15625","0.25","0.28125"
"1574972750520","938","0.09863281","-1.0048828","-0.045898438","-1.0625","-2.5","-0.53125"
"1574972750520","939","0.11621094","-1.0146484","-0.046875","-0.40625","-2.03125","-1.875"
"1574972750915","940","0.08496094","-1.0136719","-0.053710938","0.21875","-0.0625","-3.21875"
"1574972750916","941","0.107421875","-0.9941406","-0.0625","0.28125","-6.46875","-2.0"
"1574972750916","942","0.12695312","-0.99902344","-0.06347656","-1.9375","-6.40625","-1.5625"
"1574972750916","943","0.099609375","-1.0048828","-0.0625","-2.78125","-4.875","-1.4375"
"1574972750917","944","0.08300781","-0.9970703","-0.060546875","-1.25","-5.4375","0.8125"
"1574972750917","945","0.09082031","-1.0019531","-0.07421875","-1.5625","-4.15625","1.125"
"1574972750917","946","0.08691406","-1.0039062","-0.07714844","-0.28125","-0.5","1.0"
"1574972750917","947","0.087890625","-0.99902344","-0.072265625","-2.53125","0.46875","1.5"
"1574972750918","948","0.10058594","-1.0195312","-0.060546875","-8.875","-0.96875","0.375"
"1574972750919","949","0.10058594","-1.0126953","-0.09765625","-0.40625","-4.03125","2.03125"
"1574972751313","950","0.08203125","-0.9814453","-0.083984375","-2.0625","-4.15625","1.96875"
"1574972751314","951","0.08203125","-0.97265625","-0.07324219","0.5625","-1.96875","3.25"
"1574972751314","952","0.08691406","-0.9511719","-0.09472656","1.5625","-4.65625","2.03125"
"1574972751314","953","0.109375","-0.9892578","-0.091796875","-1.5","-4.15625","0.21875"
"1574972751314","954","0.107421875","-1.03125","-0.06738281","-5.53125","-3.4375","-1.5"
"1574972751315","955","0.08886719","-1.0126953","-0.08691406","3.1875","-1.59375","2.21875"
"1574972751315","956","0.0703125","-0.9511719","-0.083984375","-0.59375","-0.8125","0.4375"
"1574972751315","957","0.087890625","-0.95703125","-0.08203125","-3.28125","-0.8125","-1.4375"
"1574972751315","958","0.10058594","-0.9667969","-0.10644531","-0.65625","-2.75","-0.21875"
"1574972751316","959","0.11328125","-0.9482422","-0.09082031","2.34375","1.65625","-1.875"
"1574972751710","960","0.09667969","-1.015625","-0.10449219","-1.9375","-2.4375","-2.65625"
"1574972751712","961","0.099609375","-1.0283203","-0.09375","-0.90625","6.71875","-2.40625"
"1574972751712","962","0.10253906","-1.0224609","-0.11230469","-2.46875","-1.40625","-3.875"
"1574972751712","963","0.10839844","-1.0146484","-0.08886719","3.625","1.46875","-3.28125"
"1574972751713","964","0.103515625","-1.0166016","-0.11425781","3.0625","1.75","1.3125"
"1574972751713","965","0.12988281","-1.0126953","-0.103515625","4.46875","1.46875","0.21875"
"1574972751713","966","0.12792969","-1.0136719","-0.07421875","4.90625","4.3125","0.09375"
"1574972751713","967","0.115234375","-1.0146484","-0.12011719","5.875","-0.6875","-0.28125"
"1574972751714","968","0.12402344","-1.0097656","-0.068359375","0.9375","4.75","2.09375"
"1574972751714","969","0.0859375","-0.99609375","-0.072265625","3.9375","1.09375","1.0"
"1574972752504","970","0.12890625","-0.97753906","-0.10058594","6.8125","-1.65625","2.78125"
"1574972752504","971","0.14160156","-0.99609375","-0.056640625","0.03125","5.1875","-0.09375"
"1574972752505","972","0.115234375","-1.0205078","-0.10058594","4.46875","-0.5","-1.0625"
"1574972752506","973","0.12011719","-1.046875","-0.091796875","-0.28125","-1.46875","0.03125"
"1574972752506","974","0.10839844","-1.0537109","-0.080078125","4.59375","1.75","-0.65625"
"1574972752506","975","0.1328125","-1.0205078","-0.10449219","6.375","-4.21875","0.8125"
"1574972752507","976","0.14257812","-1.0263672","-0.08105469","-2.65625","-4.65625","1.0"
"1574972752507","977","0.09667969","-1.0029297","-0.064453125","-0.53125","2.25","-2.71875"
"1574972752507","978","0.11328125","-0.95410156","-0.078125","2.53125","-2.21875","1.5625"
"1574972752507","979","0.09375","-0.96484375","-0.09082031","-2.1875","-4.40625","2.90625"
"1574972752901","980","0.1171875","-0.9824219","-0.07324219","-0.78125","2.5625","-0.34375"
"1574972752902","981","0.13476562","-0.98535156","-0.07910156","3.75","-0.1875","2.78125"
"1574972752902","982","0.083984375","-0.9658203","-0.053710938","1.1875","-0.375","1.625"
"1574972752902","983","0.13769531","-0.98828125","-0.08886719","2.9375","0.59375","2.90625"
"1574972752902","984","0.1328125","-1.0224609","-0.068359375","2.03125","-1.03125","2.34375"
"1574972752904","985","0.095703125","-1.0166016","-0.06347656","0.5","0.3125","1.65625"
"1574972752904","986","0.14160156","-1.0244141","-0.08984375","5.9375","-2.8125","3.125"
"1574972752905","987","0.11816406","-1.0205078","-0.068359375","0.625","2.6875","1.96875"
"1574972752905","988","0.10058594","-1.0087891","-0.068359375","4.90625","-2.03125","1.84375"
"1574972752905","989","0.11816406","-0.9628906","-0.0625","4.65625","-4.03125","3.3125"
"1574972753097","990","0.10839844","-0.9814453","-0.07421875","2.03125","-0.3125","1.0"
"1574972753097","991","0.07324219","-0.9980469","-0.046875","-7.53125","1.59375","1.25"
"1574972753098","992","0.12011719","-1.0253906","-0.08300781","0.5","-4.46875","3.8125"
"1574972753098","993","0.12890625","-1.0263672","-0.091796875","1.1875","-0.5","2.15625"
"1574972753098","994","0.08105469","-0.98828125","-0.07324219","-3.28125","0.1875","1.25"
"1574972753099","995","0.091796875","-0.99902344","-0.06347656","-0.34375","-3.375","2.84375"
"1574972753099","996","0.11621094","-1.0068359","-0.083984375","-1.1875","-1.09375","0.5625"
"1574972753100","997","0.09472656","-0.9892578","-0.08496094","0.6875","-2.4375","1.5"
"1574972753100","998","0.07714844","-0.9628906","-0.07324219","0.5","-3.125","2.34375"
"1574972753101","999","0.1171875","-0.9824219","-0.07714844","-4.5","-2.5625","-0.28125"
"1574972753300","1000","0.10546875","-1.0029297","-0.078125","-0.09375","-1.34375","0.8125"
"1574972753301","1001","0.0859375","-1.0087891","-0.08496094","-0.71875","-2.8125","1.65625"
"1574972753301","1002","0.09472656","-1.0322266","-0.0859375","-2.25","-2.03125","0.21875"
"1574972753301","1003","0.12695312","-1.0625","-0.09765625","-2.46875","-4.8125","0.21875"
"1574972753301","1004","0.099609375","-1.0458984","-0.09082031","0.625","-2.4375","-0.46875"
"1574972753302","1005","0.08300781","-1.0009766","-0.07128906","-5.78125","-5.4375","1.25"
"1574972753302","1006","0.10058594","-1.0283203","-0.11328125","-6.375","-0.8125","-2.59375"
"1574972753302","1007","0.12890625","-1.0185547","-0.12402344","-1.5625","-4.09375","1.0"
"1574972753302","1008","0.08886719","-0.96875","-0.09082031","-0.96875","-2.875","1.96875"
"1574972753304","1009","0.080078125","-0.94433594","-0.095703125","-0.34375","-4.09375","1.5"
"1574972753696","1010","0.10253906","-0.9658203","-0.10839844","-3.09375","-0.125","0.9375"
"1574972753697","1011","0.103515625","-0.96972656","-0.09082031","1.0","-1.40625","0.4375"
"1574972753697","1012","0.10253906","-0.9863281","-0.111328125","-0.65625","-0.90625","0.09375"
"1574972753697","1013","0.1015625","-1.0029297","-0.12597656","2.28125","-1.90625","0.3125"
"1574972753698","1014","0.0859375","-0.9980469","-0.11621094","1.375","-1.09375","0.75"
"1574972753698","1015","0.12207031","-1.0","-0.111328125","0.03125","-0.8125","1.96875"
"1574972753698","1016","0.115234375","-1.0107422","-0.09277344","-2.1875","-1.21875","-0.96875"
"1574972753698","1017","0.11035156","-1.0273438","-0.12011719","2.03125","-3.96875","0.875"
"1574972753699","1018","0.10644531","-1.0302734","-0.12109375","3.875","-5.0625","2.65625"
"1574972753699","1019","0.11230469","-0.9794922","-0.08496094","-4.375","-4.28125","-1.9375"
"1574972754095","1020","0.099609375","-1.0205078","-0.12109375","4.46875","-6.0625","1.125"
"1574972754096","1021","0.10644531","-1.0498047","-0.12207031","1.84375","-3.65625","0.75"
"1574972754097","1022","0.09082031","-1.0009766","-0.1015625","5.40625","-4.9375","1.0"
"1574972754097","1023","0.10546875","-0.97753906","-0.10839844","6.1875","-6.71875","1.71875"
"1574972754097","1024","0.095703125","-1.0205078","-0.12792969","1.1875","-2.5625","0.4375"
"1574972754097","1025","0.09765625","-1.0332031","-0.11230469","2.46875","-0.875","-2.59375"
"1574972754098","1026","0.095703125","-0.9736328","-0.099609375","3.75","-6.46875","4.53125"
"1574972754098","1027","0.103515625","-0.97265625","-0.08203125","3.9375","-2.625","-0.71875"
"1574972754098","1028","0.087890625","-0.9873047","-0.09863281","5.46875","-5.75","0.5"
"1574972754098","1029","0.10449219","-0.9892578","-0.103515625","3.5","-3.71875","-0.21875"
"1574972754689","1030","0.10644531","-1.0078125","-0.1015625","2.9375","-1.84375","-1.0625"
"1574972754689","1031","0.12695312","-1.0146484","-0.09277344","2.09375","-5.625","1.0"
"1574972754690","1032","0.13183594","-1.0009766","-0.07421875","2.84375","-6.34375","1.3125"
"1574972754691","1033","0.123046875","-0.9941406","-0.026367188","-1.125","-10.375","-2.0"
"1574972754692","1034","0.044921875","-0.9970703","-0.11035156","10.75","-9.78125","-0.34375"
"1574972754692","1035","0.08496094","-1.0527344","-0.13183594","8.5625","-6.59375","3.375"
"1574972754692","1036","0.115234375","-1.0302734","-0.10449219","3.6875","-1.03125","1.96875"
"1574972754692","1037","0.10058594","-0.9667969","-0.08203125","4.0","-2.75","-0.28125"
"1574972754693","1038","0.09765625","-0.9453125","-0.064453125","1.84375","-4.40625","1.3125"
"1574972754693","1039","0.08496094","-0.9892578","-0.087890625","3.25","-3.96875","1.125"
"1574972754890","1040","0.12792969","-1.015625","-0.06933594","3.1875","-2.75","-0.09375"
"1574972754890","1041","0.1015625","-0.9628906","-0.10546875","3.75","-1.71875","-0.53125"
"1574972754891","1042","0.12109375","-0.9824219","-0.08300781","-5.78125","0.65625","0.5625"
"1574972754891","1043","0.15039062","-1.0048828","-0.07519531","-3.21875","1.34375","-4.1875"
"1574972754891","1044","0.123046875","-1.0351562","-0.10546875","0.03125","-3.5","-5.28125"
"1574972754892","1045","0.13671875","-1.03125","-0.12011719","-8.15625","-5.75","-4.3125"
"1574972754893","1046","0.11425781","-1.0009766","-0.040039062","-3.875","-1.21875","-8.09375"
"1574972754893","1047","0.09082031","-0.95996094","-0.119140625","3.1875","-10.5625","-5.34375"
"1574972754893","1048","0.1484375","-0.9394531","-0.09863281","-2.0","-4.71875","-4.6875"
"1574972754894","1049","0.14648438","-0.89453125","-0.041992188","-5.53125","-9.28125","-8.40625"
"1574972755289","1050","0.078125","-0.8671875","-0.13085938","9.71875","-16.65625","-3.21875"
"1574972755290","1051","0.09375","-0.99902344","-0.17480469","-17.125","3.53125","-9.3125"
"1574972755290","1052","0.16601562","-1.0507812","-0.0859375","-13.28125","11.90625","-11.40625"
"1574972755290","1053","0.2607422","-1.09375","-0.14648438","3.8125","-17.46875","2.34375"
"1574972755290","1054","0.18945312","-1.0332031","-0.16894531","-12.625","-8.5","-12.84375"
"1574972755291","1055","0.080078125","-0.9785156","-0.064453125","-24.625","10.25","-15.90625"
"1574972755291","1056","0.14550781","-1.0576172","-0.20410156","0.625","-10.6875","0.875"
"1574972755292","1057","0.22949219","-0.9765625","-0.123046875","-12.3125","3.96875","-5.53125"
"1574972755293","1058","0.17675781","-0.9746094","-0.09375","-12.5","-3.90625","-13.96875"
"1574972755293","1059","0.10546875","-1.0371094","-0.2578125","2.84375","-2.25","0.9375"
"1574972755686","1060","0.22753906","-1.0595703","-0.1171875","-12.625","6.09375","-5.84375"
"1574972755687","1061","0.16699219","-1.0009766","-0.22167969","-5.09375","3.84375","-8.59375"
"1574972755687","1062","0.29882812","-1.0175781","-0.17480469","-6.6875","-3.90625","1.71875"
"1574972755687","1063","0.28808594","-1.0625","-0.19140625","-2.40625","5.84375","-8.21875"
"1574972755688","1064","0.119140625","-0.9580078","-0.09765625","-8.65625","-1.34375","-10.59375"
"1574972755688","1065","0.14648438","-0.9746094","-0.2685547","1.25","-5.1875","4.28125"
"1574972755688","1066","0.30078125","-0.98828125","-0.08300781","-6.3125","2.5625","5.40625"
"1574972755688","1067","0.20019531","-0.9511719","-0.20214844","-3.21875","6.15625","-2.46875"
"1574972755689","1068","0.22363281","-0.96191406","-0.19824219","-3.75","-0.25","2.03125"
"1574972755690","1069","0.18945312","-0.9892578","-0.2578125","1.84375","0.53125","1.3125"
"1574972756282","1070","0.28515625","-0.9501953","-0.13769531","-6.8125","3.46875","3.0"
"1574972756282","1071","0.21386719","-0.97558594","-0.2783203","0.09375","-3.375","-0.28125"
"1574972756282","1072","0.24707031","-0.98535156","-0.16699219","-13.15625","5.1875","-2.78125"
"1574972756283","1073","0.19628906","-0.9736328","-0.26660156","3.25","-6.0","-1.25"
"1574972756283","1074","0.2265625","-0.98046875","-0.17382812","-6.09375","-2.25","2.71875"
"1574972756283","1075","0.2109375","-0.98535156","-0.21972656","4.0","-9.71875","-0.96875"
"1574972756283","1076","0.20703125","-0.9716797","-0.1953125","-1.4375","-2.5","2.53125"
"1574972756284","1077","0.18652344","-0.9785156","-0.25","-3.21875","-9.78125","-0.59375"
"1574972756284","1078","0.22949219","-1.0185547","-0.24121094","6.75","-7.40625","3.4375"
"1574972756284","1079","0.25195312","-1.0839844","-0.20898438","9.25","-5.25","1.1875"
"1574972756481","1080","0.2109375","-1.0791016","-0.23535156","-2.0","-6.125","0.625"
"1574972756482","1081","0.16601562","-1.0205078","-0.2109375","0.5625","-0.5","3.875"
"1574972756482","1082","0.18066406","-0.9863281","-0.15625","10.09375","-2.9375","7.53125"
"1574972756483","1083","0.12597656","-0.9453125","-0.15429688","4.84375","-3.0625","9.65625"
"1574972756483","1084","0.22070312","-0.97558594","-0.2548828","15.21875","-6.15625","10.71875"
"1574972756483","1085","0.23828125","-0.9941406","-0.15332031","8.8125","8.96875","11.625"
"1574972756483","1086","0.12109375","-0.95410156","-0.14941406","15.15625","8.53125","13.03125"
"1574972756484","1087","0.20410156","-0.92285156","-0.26367188","46.40625","-21.125","16.125"
"1574972756484","1088","0.28320312","-0.8701172","-0.06933594","19.96875","12.03125","8.5625"
"1574972756484","1089","0.06347656","-0.71972656","-0.125","19.0625","-2.5","-0.90625"
"1574972757073","1090","0.171875","-0.7636719","-0.14550781","27.375","-18.0","9.96875"
"1574972757074","1091","0.31054688","-1.0136719","-0.08105469","4.1875","-1.71875","0.9375"
"1574972757074","1092","0.21972656","-1.0654297","-0.099609375","-14.1875","-3.3125","-13.46875"
"1574972757075","1093","0.09667969","-1.0214844","-0.24511719","15.28125","-28.9375","-7.125"
"1574972757075","1094","0.15234375","-1.0546875","-0.04296875","-13.96875","0.84375","3.5625"
"1574972757076","1095","0.18359375","-1.0722656","-0.19238281","-7.78125","-4.46875","2.03125"
"1574972757076","1096","0.13769531","-1.0273438","-0.13476562","-2.53125","-12.34375","-2.28125"
"1574972757076","1097","0.12011719","-0.9941406","-0.15429688","6.0","-8.4375","-1.75"
"1574972757076","1098","0.13769531","-0.99316406","-0.13574219","1.3125","-2.03125","2.84375"
"1574972757077","1099","0.12695312","-0.96875","-0.14160156","6.0","-2.5","3.625"
"1574972757276","1100","0.16210938","-0.97753906","-0.12207031","9.71875","-8.3125","2.9375"
"1574972757276","1101","0.16796875","-1.0097656","-0.14550781","5.5625","-4.03125","4.71875"
"1574972757277","1102","0.18945312","-0.98828125","-0.14746094","0.625","-0.3125","7.03125"
"1574972757277","1103","0.25097656","-0.9980469","-0.123046875","-6.9375","-3.3125","0.6875"
"1574972757277","1104","0.12988281","-0.9746094","-0.123046875","-18.46875","-5.6875","-6.5625"
"1574972757278","1105","0.12988281","-0.9394531","-0.12402344","2.59375","-16.96875","-4.0"
"1574972757278","1106","0.18847656","-0.9970703","-0.14941406","-4.25","-4.8125","3.6875"
"1574972757279","1107","0.14453125","-1.0214844","-0.15234375","-13.34375","-8.25","-4.1875"
"1574972757279","1108","0.23925781","-1.046875","-0.17675781","-6.1875","-11.34375","-4.4375"
"1574972757279","1109","0.20019531","-1.0722656","-0.14746094","-16.03125","-0.25","-6.3125"
"1574972757672","1110","0.23730469","-1.1201172","-0.19433594","-24.03125","13.46875","-18.65625"
"1574972757672","1111","0.3017578","-1.3242188","-0.24707031","15.34375","18.5625","-24.75"
"1574972757672","1112","0.33398438","-1.4267578","-0.37304688","21.4375","11.46875","-3.46875"
"1574972757673","1113","0.15625","-1.234375","-0.0029296875","-4.25","21.125","17.71875"
"1574972757673","1114","-0.09765625","-0.57128906","0.020507812","17.78125","-6.46875","16.1875"
"1574972757673","1115","0.024414062","-0.5888672","-0.21679688","44.03125","-38.59375","10.40625"
"1574972757673","1116","0.4091797","-0.5917969","-0.25585938","24.4375","-11.65625","13.15625"
"1574972757674","1117","0.06542969","-0.5800781","-0.045898438","-37.40625","26.375","3.25"
"1574972757674","1118","-0.18945312","-0.6328125","0.044921875","-34.03125","25.8125","11.1875"
"1574972757674","1119","0.021484375","-1.1005859","-0.21582031","3.0625","-20.21875","28.65625"
"1574972758465","1120","0.52246094","-1.4912109","-0.38378906","14.71875","6.34375","-7.125"
"1574972758466","1121","0.35253906","-1.1679688","-0.15722656","-1.6875","1.9375","-0.03125"
"1574972758466","1122","0.07324219","-1.0595703","-0.14550781","-13.96875","3.46875","-3.34375"
"1574972758466","1123","0.087890625","-1.0517578","-0.12988281","1.5","-8.0","-6.5625"
"1574972758466","1124","0.21289062","-1.0605469","-0.14746094","10.875","-7.5","-1.3125"
"1574972758467","1125","0.16796875","-1.0039062","-0.16503906","-5.03125","6.53125","3.6875"
"1574972758467","1126","0.22363281","-0.9111328","0.02734375","-38.125","26.59375","-23.0"
"1574972758467","1127","0.15625","-0.8847656","-0.06347656","10.34375","-5.875","-29.28125"
"1574972758467","1128","0.14550781","-1.0449219","-0.5058594","76.75","-40.71875","10.8125"
"1574972758468","1129","0.32128906","-0.81933594","-0.07324219","-2.84375","7.375","-4.5625"
"1574972758663","1130","0.22851562","-0.9482422","-0.072265625","-39.90625","16.71875","-24.40625"
"1574972758664","1131","0.1875","-1.3007812","-0.27929688","-3.53125","-7.21875","-2.46875"
"1574972758664","1132","0.4501953","-1.2382812","-0.15429688","8.8125","-2.9375","3.5"
"1574972758664","1133","0.2685547","-1.0820312","-0.21582031","-3.75","-11.59375","-10.09375"
"1574972758664","1134","0.4013672","-1.4316406","-0.28808594","-3.46875","-21.96875","3.0"
"1574972758664","1135","0.31054688","-1.4199219","-0.19238281","-36.34375","16.15625","0.28125"
"1574972758665","1136","0.21386719","-1.2607422","-0.17773438","-29.59375","10.125","10.34375"
"1574972758665","1137","0.17089844","-1.1669922","-0.21777344","-7.125","-0.1875","18.46875"
"1574972758665","1138","0.015625","-0.90722656","-0.24121094","31.75","-0.625","27.71875"
"1574972758665","1139","0.14355469","-0.6611328","-0.13183594","43.71875","2.8125","18.21875"
"1574972759260","1140","0.2841797","-0.3828125","-0.057617188","-3.21875","19.28125","-11.6875"
"1574972759263","1141","-0.12402344","-0.16015625","-0.057617188","-5.15625","15.6875","2.09375"
"1574972759264","1142","-0.013671875","-0.41503906","-0.072265625","6.0625","-16.1875","24.5625"
"1574972759264","1143","0.20703125","-0.83496094","-0.1953125","16.1875","24.09375","13.8125"
"1574972759264","1144","0.31933594","-1.0546875","-0.20800781","4.78125","-0.125","4.59375"
"1574972759264","1145","0.20898438","-1.3847656","-0.10839844","1.90625","15.0","8.5"
"1574972759265","1146","0.21972656","-1.4130859","-0.19140625","9.96875","-10.625","1.5625"
"1574972759265","1147","0.2890625","-1.2958984","-0.16796875","4.84375","-23.3125","1.0"
"1574972759265","1148","0.22265625","-1.1230469","-0.10449219","0.3125","-17.15625","-3.75"
"1574972759266","1149","0.0625","-0.8496094","-0.12207031","-3.8125","7.125","-3.9375"
"1574972759266","1150","0.017578125","-0.65527344","-0.1171875","-3.40625","-12.09375","-0.65625"
"1574972759266","1151","0.19433594","-0.8457031","-0.13867188","7.09375","-16.375","10.15625"
"1574972759266","1152","0.20410156","-0.86035156","-0.14941406","7.90625","4.09375","4.71875"
"1574972759267","1153","0.13476562","-0.96484375","-0.1484375","-3.28125","4.8125","0.5625"
"1574972759267","1154","0.13867188","-1.0761719","-0.12402344","-8.71875","8.34375","3.375"
"1574972759267","1155","0.11816406","-1.0429688","-0.1328125","-3.6875","8.34375","5.46875"
"1574972759268","1156","0.13671875","-1.03125","-0.15722656","-5.21875","-5.5625","-1.4375"
"1574972759268","1157","0.20898438","-1.0361328","-0.12695312","0.875","-7.28125","1.90625"
"1574972759268","1158","0.17285156","-0.9824219","-0.18164062","2.03125","6.59375","0.5"
"1574972759268","1159","0.12109375","-0.9296875","-0.13671875","-0.40625","10.375","1.5"
"1574972759659","1160","0.12207031","-0.9423828","-0.1484375","-1.625","-0.6875","1.0625"
"1574972759659","1161","0.16894531","-0.9814453","-0.13867188","2.28125","-7.6875","2.9375"
"1574972759660","1162","0.17773438","-0.99316406","-0.171875","2.34375","-6.59375","1.125"
"1574972759660","1163","0.14648438","-0.9501953","-0.13769531","-0.53125","2.25","4.0"
"1574972759660","1164","0.140625","-0.92285156","-0.13183594","2.71875","-5.25","6.84375"
"1574972759661","1165","0.13476562","-0.8623047","-0.13964844","11.1875","-13.8125","3.625"
"1574972759661","1166","0.1796875","-0.9326172","-0.15527344","0.09375","-11.1875","-7.3125"
"1574972759662","1167","0.19042969","-1.1777344","-0.14746094","5.46875","-16.0","-2.25"
"1574972759662","1168","0.125","-1.1054688","-0.15722656","12.0","-12.6875","1.71875"
"1574972759662","1169","0.10058594","-0.9609375","-0.10253906","19.8125","-27.59375","-0.71875"
"1574972760257","1170","0.16894531","-0.99121094","-0.17089844","22.53125","-20.09375","-0.96875"
"1574972760257","1171","0.17578125","-1.0439453","-0.10449219","5.03125","-13.625","0.21875"
"1574972760258","1172","0.19140625","-1.09375","-0.15136719","18.40625","-12.28125","4.96875"
"1574972760258","1173","0.12890625","-0.9560547","-0.08691406","7.34375","-8.125","0.8125"
"1574972760258","1174","0.16210938","-0.92089844","-0.10058594","11.875","-12.09375","3.4375"
"1574972760258","1175","0.123046875","-0.9111328","-0.12109375","4.28125","-12.59375","4.78125"
"1574972760259","1176","0.12792969","-0.9091797","-0.087890625","3.4375","-2.625","0.6875"
"1574972760260","1177","0.15917969","-1.046875","-0.11035156","1.25","-6.46875","2.15625"
"1574972760261","1178","0.09375","-1.0185547","-0.078125","5.53125","-4.875","0.625"
"1574972760261","1179","0.026367188","-0.91015625","-0.087890625","18.40625","-8.1875","0.75"
"1574972760853","1180","0.01171875","-0.9501953","-0.18164062","16.625","9.03125","11.5625"
"1574972760854","1181","0.27539062","-1.2978516","-0.08496094","-17.8125","23.4375","16.0625"
"1574972760854","1182","0.31640625","-1.0595703","-0.033203125","10.71875","2.0","-12.0625"
"1574972760854","1183","0.041015625","-0.8251953","0.0048828125","-2.46875","0.0","-14.5"
"1574972760854","1184","-0.038085938","-0.8720703","-0.029296875","5.53125","-6.84375","11.625"
"1574972760855","1185","0.12207031","-1.0107422","-0.12597656","9.1875","2.0625","16.6875"
"1574972760855","1186","0.3173828","-1.0908203","-0.017578125","-1.1875","0.125","-4.0"
"1574972760855","1187","0.125","-1.0908203","-0.025390625","2.59375","-7.4375","-8.03125"
"1574972760855","1188","-0.0068359375","-1.0595703","-0.111328125","19.3125","-20.4375","-10.21875"
"1574972760857","1189","0.123046875","-0.89941406","-0.049804688","7.46875","-11.40625","-0.09375"
"1574972761247","1190","0.234375","-0.9296875","-0.048828125","7.46875","-10.75","8.8125"
"1574972761248","1191","0.16992188","-1.0537109","-0.057617188","2.46875","-11.46875","2.71875"
"1574972761248","1192","0.0625","-0.9794922","0.030273438","8.5625","-5.8125","-8.78125"
"1574972761248","1193","0.07128906","-1.0839844","-0.12109375","16.5625","-33.75","-1.1875"
"1574972761249","1194","0.24609375","-0.96191406","-0.045898438","18.75","-2.375","4.71875"
"1574972761251","1195","0.20117188","-0.9638672","-0.119140625","-31.09375","3.96875","8.5625"
"1574972761251","1196","0.14550781","-1.0048828","0.07910156","-19.3125","14.28125","1.1875"
"1574972761252","1197","-0.005859375","-0.91308594","0.09863281","1.125","2.0","14.1875"
"1574972761252","1198","0.08886719","-1.2216797","-0.18945312","15.03125","-17.53125","-7.84375"
"1574972761252","1199","0.07421875","-0.9736328","-0.12207031","12.71875","9.75","-17.6875"
"1574972761645","1200","0.27246094","-0.8642578","-0.0107421875","-12.0","-5.1875","21.25"
"1574972761646","1201","0.19726562","-0.9941406","-0.049804688","-11.40625","-12.59375","19.375"
"1574972761647","1202","-0.005859375","-1.0302734","-0.0087890625","-6.9375","5.59375","-2.46875"
"1574972761647","1203","0.032226562","-1.0595703","0.0126953125","4.40625","-14.09375","-8.53125"
"1574972761647","1204","0.10449219","-1.0458984","0.037109375","-0.53125","-59.09375","-6.3125"
"1574972761647","1205","0.08496094","-0.9667969","-0.029296875","-10.40625","-114.3125","-0.09375"
"1574972761648","1206","0.115234375","-0.921875","-0.12011719","15.46875","-111.15625","4.28125"
"1574972761648","1207","0.1484375","-1.0029297","-0.13476562","15.9375","-21.78125","5.34375"
"1574972761648","1208","0.021484375","-1.0263672","-0.083984375","-16.9375","24.53125","-1.75"
"1574972761648","1209","0.08496094","-1.0615234","-0.076171875","18.875","17.8125","6.6875"
"1574972762242","1210","0.123046875","-0.9873047","-0.036132812","14.0","-6.84375","12.96875"
"1574972762242","1211","0.14941406","-0.98339844","-0.060546875","7.84375","-16.0","8.6875"
"1574972762243","1212","0.1484375","-1.0107422","-0.0859375","3.5625","3.59375","5.625"
"1574972762244","1213","0.12890625","-0.99316406","-0.10449219","6.84375","36.5","6.84375"
"1574972762245","1214","0.21289062","-1.0664062","-0.030273438","7.71875","64.4375","-12.25"
"1574972762245","1215","0.18261719","-1.0292969","-0.0390625","1.0625","26.96875","-12.5625"
"1574972762246","1216","0.072265625","-0.96875","-0.022460938","-12.25","29.78125","1.90625"
"1574972762246","1217","-0.025390625","-0.984375","-0.013671875","-23.125","25.75","-8.53125"
"1574972762246","1218","-0.0068359375","-0.96191406","-0.048828125","5.8125","12.4375","-1.875"
"1574972762246","1219","0.12207031","-1.0458984","-0.04296875","-2.90625","6.84375","-1.6875"
"1574972762440","1220","0.1796875","-1.0244141","-0.0625","4.125","-5.5625","0.28125"
"1574972762441","1221","0.15722656","-0.9785156","-0.052734375","-2.46875","-3.65625","-0.03125"
"1574972762441","1222","0.12695312","-0.99902344","-0.038085938","0.6875","-6.34375","0.8125"
"1574972762441","1223","0.061523438","-0.98828125","-0.07519531","6.4375","-9.53125","1.5"
"1574972762441","1224","0.099609375","-1.0048828","-0.078125","6.25","5.5625","-2.84375"
"1574972762443","1225","0.16894531","-1.0419922","-0.044921875","-3.75","6.65625","3.8125"
"1574972762443","1226","0.12109375","-1.0087891","-0.0390625","1.5","-1.34375","2.28125"
"1574972762443","1227","0.1015625","-1.0","-0.072265625","4.90625","1.15625","1.1875"
"1574972762444","1228","0.09863281","-0.9951172","-0.048828125","-1.5","3.90625","3.4375"
"1574972762444","1229","0.10644531","-0.984375","-0.022460938","-4.0","3.0","3.0"
"1574972762641","1230","0.14746094","-0.99121094","-0.061523438","4.21875","0.59375","2.09375"
"1574972762641","1231","0.13769531","-1.0351562","-0.060546875","2.65625","-2.5625","2.53125"
"1574972762641","1232","0.022460938","-1.0429688","-0.06347656","-6.6875","-4.9375","-2.25"
"1574972762642","1233","0.09277344","-1.0117188","-0.083984375","9.1875","-9.40625","-1.3125"
"1574972762642","1234","0.15527344","-0.96191406","-0.07128906","2.90625","-0.1875","2.21875"
"1574972762642","1235","0.125","-0.96777344","-0.022460938","-5.78125","5.4375","-0.09375"
"1574972762642","1236","0.10839844","-1.0273438","-0.060546875","1.5","-2.5625","0.3125"
"1574972762643","1237","0.11621094","-1.0410156","-0.08105469","4.1875","-2.09375","2.9375"
"1574972762644","1238","0.12597656","-0.98535156","-0.053710938","-0.40625","-2.25","2.21875"
"1574972762644","1239","0.14941406","-0.98828125","-0.01953125","0.75","-1.34375","1.1875"
"1574972763038","1240","0.111328125","-1.015625","-0.07324219","4.0625","-7.09375","1.65625"
"1574972763038","1241","0.09863281","-1.0117188","-0.05859375","4.125","-4.9375","0.5"
"1574972763038","1242","0.119140625","-1.0009766","-0.04296875","4.21875","-5.0","1.0625"
"1574972763039","1243","0.11328125","-1.0019531","-0.05859375","6.25","-3.3125","1.25"
"1574972763039","1244","0.109375","-1.0195312","-0.0390625","2.28125","1.40625","-1.0"
"1574972763039","1245","0.09375","-1.0136719","-0.06933594","3.5625","-6.15625","0.9375"
"1574972763039","1246","0.08984375","-1.0039062","-0.060546875","-0.78125","-5.5","0.625"
"1574972763040","1247","0.13867188","-1.0117188","-0.0625","-0.65625","-6.21875","2.40625"
"1574972763040","1248","0.1328125","-1.0117188","-0.044921875","5.5625","-2.75","2.90625"
"1574972763041","1249","0.07714844","-0.9951172","0.026367188","-4.25","4.21875","-3.75"
"1574972763438","1250","0.15527344","-1.1162109","-0.12988281","6.8125","-20.5625","-7.0625"
"1574972763439","1251","0.08984375","-0.9160156","-0.047851562","12.71875","-3.1875","0.75"
"1574972763439","1252","0.16503906","-0.8925781","-0.107421875","-1.9375","-14.03125","9.3125"
"1574972763439","1253","0.16992188","-1.1123047","-0.109375","-4.1875","3.46875","10.9375"
"1574972763439","1254","0.09863281","-1.0341797","0.029296875","-8.40625","-3.5","11.4375"
"1574972763440","1255","-0.0107421875","-0.87402344","-0.0068359375","14.4375","-2.5","14.96875"
"1574972763440","1256","0.087890625","-0.99121094","-0.049804688","4.0625","4.875","2.78125"
"1574972763440","1257","0.12890625","-1.1308594","-0.09667969","-5.59375","8.65625","-3.875"
"1574972763440","1258","0.11035156","-1.0253906","-0.05078125","-5.96875","1.75","-2.53125"
"1574972763441","1259","0.045898438","-0.9472656","-0.0146484375","-2.0625","-1.71875","-2.25"
"1574972763835","1260","0.07519531","-1.0126953","-0.030273438","0.625","-1.53125","-1.8125"
"1574972763836","1261","0.10644531","-1.0185547","-0.095703125","-4.875","-0.90625","-0.78125"
"1574972763837","1262","0.08203125","-1.0224609","-0.103515625","-0.34375","-5.4375","3.25"
"1574972763837","1263","0.080078125","-0.9814453","-0.025390625","-11.09375","-0.96875","4.0625"
"1574972763837","1264","0.08496094","-1.0136719","-0.0546875","-7.4375","1.21875","1.0"
"1574972763838","1265","0.099609375","-1.0273438","-0.10644531","1.375","-5.125","2.90625"
"1574972763838","1266","0.10253906","-0.9951172","-0.032226562","-5.40625","-3.96875","2.34375"
"1574972763838","1267","0.09472656","-0.99121094","-0.064453125","-0.09375","-3.3125","-0.21875"
"1574972763838","1268","0.10253906","-1.0078125","-0.095703125","-0.71875","-6.46875","0.03125"
"1574972763839","1269","0.09863281","-1.0185547","-0.08496094","1.125","-4.8125","1.375"
"1574972764628","1270","0.099609375","-0.9980469","-0.061523438","-0.53125","-5.0625","2.09375"
"1574972764628","1271","0.06640625","-0.9794922","-0.08203125","1.375","-2.09375","2.90625"
"1574972764629","1272","0.0859375","-0.9824219","-0.09277344","0.875","-3.90625","1.375"
"1574972764630","1273","0.11816406","-0.9892578","-0.08203125","-2.1875","-3.4375","1.5"
"1574972764631","1274","0.08691406","-1.0068359","-0.080078125","-0.96875","-3.65625","0.3125"
"1574972764631","1275","0.08984375","-1.0566406","-0.10449219","0.28125","-2.3125","0.6875"
"1574972764631","1276","0.13183594","-1.0322266","-0.12109375","4.0","-5.75","-0.53125"
"1574972764632","1277","0.072265625","-0.9667969","-0.07324219","3.1875","-7.28125","0.09375"
"1574972764632","1278","0.02734375","-0.96875","-0.07421875","-1.75","-3.0","1.0"
"1574972764632","1279","0.08105469","-1.0175781","-0.09863281","5.15625","-3.90625","2.40625"
"1574972764828","1280","0.10253906","-0.9951172","-0.09472656","-0.90625","-3.1875","-0.21875"
"1574972764828","1281","0.09863281","-1.0185547","-0.091796875","-0.53125","-1.78125","1.5"
"1574972764828","1282","0.06933594","-1.0175781","-0.068359375","-1.6875","-3.1875","1.5625"
"1574972764829","1283","0.07519531","-0.99121094","-0.08886719","-0.96875","-2.75","0.28125"
"1574972764829","1284","0.08691406","-0.99316406","-0.10546875","0.09375","-2.4375","1.625"
"1574972764830","1285","0.0859375","-1.0068359","-0.09765625","-0.84375","-0.75","1.25"
"1574972764831","1286","0.07910156","-1.0039062","-0.08691406","0.9375","-2.75","2.09375"
"1574972764831","1287","0.07910156","-1.0107422","-0.091796875","0.5625","-2.3125","1.78125"
"1574972764831","1288","0.08496094","-1.0146484","-0.099609375","1.625","-2.3125","0.875"
"1574972764832","1289","0.10058594","-0.99609375","-0.08984375","2.28125","-3.3125","-0.15625"
"1574972765026","1290","0.07421875","-0.98828125","-0.087890625","2.84375","-4.46875","-0.21875"
"1574972765026","1291","0.07519531","-0.9560547","-0.080078125","-0.78125","-3.0625","-2.25"
"1574972765027","1292","0.11425781","-0.9511719","-0.10546875","3.5","-4.9375","-4.25"
"1574972765027","1293","0.09375","-0.9589844","-0.08496094","-3.875","-4.15625","-8.03125"
"1574972765027","1294","0.10839844","-1.0488281","-0.09765625","-5.40625","-4.03125","-11.09375"
"1574972765027","1295","0.13476562","-1.0917969","-0.109375","3.9375","-4.71875","-2.125"
"1574972765028","1296","0.09863281","-1.0175781","-0.09863281","6.4375","0.65625","2.15625"
"1574972765028","1297","0.08691406","-0.9716797","-0.07519531","0.15625","3.21875","1.125"
"1574972765028","1298","0.08203125","-0.984375","-0.095703125","-4.0625","-0.90625","-0.40625"
"1574972765028","1299","0.09375","-0.99902344","-0.10839844","-3.15625","-1.84375","-0.65625"
"1574972765424","1300","0.12597656","-0.9941406","-0.12695312","1.625","1.34375","0.625"
"1574972765425","1301","0.111328125","-0.99609375","-0.11230469","0.09375","0.3125","-0.90625"
"1574972765425","1302","0.08300781","-1.0078125","-0.08984375","-0.78125","-2.375","-2.53125"
"1574972765425","1303","0.09472656","-0.9814453","-0.1171875","4.28125","-3.4375","0.875"
"1574972765425","1304","0.12109375","-0.9746094","-0.10644531","2.78125","-0.875","2.28125"
"1574972765426","1305","0.09863281","-0.9501953","-0.061523438","-7.90625","0.84375","-3.21875"
"1574972765426","1306","0.11621094","-1.0048828","-0.11621094","1.25","1.15625","-0.71875"
"1574972765426","1307","0.111328125","-1.0048828","-0.115234375","1.5","-2.25","-1.4375"
"1574972765426","1308","0.12988281","-1.0361328","-0.12011719","0.6875","-0.5","-2.25"
"1574972765428","1309","0.13476562","-1.0498047","-0.11035156","1.375","3.96875","-2.84375"
"1574972765822","1310","0.119140625","-1.0371094","-0.09765625","5.03125","0.53125","-1.5625"
"1574972765822","1311","0.12597656","-1.0419922","-0.10449219","2.65625","-1.96875","-1.625"
"1574972765822","1312","0.1328125","-1.015625","-0.1171875","5.8125","-2.8125","0.75"
"1574972765823","1313","0.15625","-0.94921875","-0.09863281","2.15625","-3.4375","1.625"
"1574972765823","1314","0.12890625","-0.9394531","-0.06933594","3.6875","-2.09375","1.125"
