"# PR data"
"# Start time: 20191128T213129"
"# Subject: rim"
"# Activity type: Shoulder press"
"# Correctness: Incorrect"
"# Notes: "
""
"timestamp","seq","accel_x","accel_y","accel_z","gyro_x","gyro_y","gyro_z"
"1574973089783","0","0.16113281","-0.98046875","-0.17578125","-0.34375","-6.65625","-2.34375"
"1574973089786","1","0.15722656","-0.9785156","-0.17285156","-0.96875","-4.21875","-2.40625"
"1574973089786","2","0.15332031","-0.984375","-0.18457031","-0.40625","-4.71875","-1.9375"
"1574973089787","3","0.15917969","-0.984375","-0.17871094","-0.21875","-3.84375","-1.375"
"1574973089787","4","0.16113281","-0.9873047","-0.17871094","-0.28125","-3.0","-0.53125"
"1574973089787","5","0.15625","-0.98339844","-0.17871094","0.75","-2.25","-0.59375"
"1574973089788","6","0.15429688","-0.9794922","-0.17578125","-1.4375","-0.875","0.625"
"1574973089788","7","0.17382812","-0.9921875","-0.18359375","-1.0625","-0.875","-0.03125"
"1574973089788","8","0.18066406","-0.984375","-0.18457031","2.9375","-2.03125","1.4375"
"1574973089788","9","0.16601562","-0.9794922","-0.17382812","1.1875","-3.1875","0.625"
"1574973090180","10","0.17089844","-0.9785156","-0.17578125","2.34375","-2.875","1.125"
"1574973090181","11","0.171875","-0.98339844","-0.18457031","1.4375","-4.46875","0.9375"
"1574973090181","12","0.171875","-0.98535156","-0.18554688","1.5","-3.65625","0.15625"
"1574973090182","13","0.16992188","-0.98339844","-0.18847656","1.90625","-4.03125","0.4375"
"1574973090183","14","0.16308594","-0.98535156","-0.19140625","1.65625","-3.53125","0.5"
"1574973090183","15","0.16210938","-0.98339844","-0.18359375","1.1875","-2.375","0.375"
"1574973090183","16","0.16699219","-0.9785156","-0.18457031","1.1875","-2.875","0.9375"
"1574973090183","17","0.17285156","-0.9794922","-0.17871094","1.375","-0.96875","1.625"
"1574973090184","18","0.16894531","-0.97558594","-0.1875","1.65625","-0.96875","1.96875"
"1574973090186","19","0.171875","-0.97265625","-0.18457031","2.84375","-1.21875","2.71875"
"1574973090579","20","0.16699219","-0.98339844","-0.17675781","3.875","-0.625","3.375"
"1574973090579","21","0.16503906","-0.9765625","-0.17675781","1.90625","1.09375","3.9375"
"1574973090579","22","0.17480469","-0.99121094","-0.18457031","3.0625","-0.0625","3.375"
"1574973090579","23","0.16699219","-0.9824219","-0.1875","4.90625","-0.25","4.78125"
"1574973090580","24","0.15136719","-0.9736328","-0.1796875","2.90625","1.65625","3.625"
"1574973090581","25","0.16503906","-0.99609375","-0.1953125","1.90625","0.90625","3.5"
"1574973090581","26","0.1640625","-0.9863281","-0.19628906","-0.15625","-1.21875","3.6875"
"1574973090581","27","0.1640625","-0.97558594","-0.17285156","-4.0625","-3.125","3.1875"
"1574973090581","28","0.15136719","-0.9980469","-0.19042969","-4.5","-3.0625","0.75"
"1574973090582","29","0.16210938","-0.9970703","-0.18945312","-5.15625","-3.125","1.125"
"1574973090976","30","0.16308594","-0.9794922","-0.19726562","-4.5625","-1.65625","1.0"
"1574973090976","31","0.15917969","-0.9736328","-0.16601562","-8.21875","-2.9375","-1.4375"
"1574973090976","32","0.15527344","-1.0009766","-0.20703125","-4.3125","1.34375","-3.34375"
"1574973090976","33","0.16894531","-1.0068359","-0.21289062","-5.71875","-0.75","-2.125"
"1574973090977","34","0.17773438","-0.9667969","-0.20507812","-0.90625","-0.5625","-1.9375"
"1574973090977","35","0.14941406","-0.9501953","-0.18261719","0.375","-6.21875","-1.0"
"1574973090977","36","0.16113281","-0.9628906","-0.18066406","1.65625","-5.125","-0.46875"
"1574973090978","37","0.16894531","-1.0009766","-0.22070312","4.65625","-1.46875","-0.03125"
"1574973090979","38","0.171875","-1.0048828","-0.20605469","5.34375","-6.71875","-0.53125"
"1574973090979","39","0.16210938","-0.98046875","-0.22265625","9.65625","-10.5625","-2.0625"
"1574973091374","40","0.17773438","-0.95703125","-0.18164062","11.125","-6.21875","0.8125"
"1574973091375","41","0.15039062","-0.96875","-0.14941406","5.09375","-8.1875","-0.34375"
"1574973091375","42","0.15820312","-1.0136719","-0.20117188","11.5625","-13.25","-3.59375"
"1574973091375","43","0.19042969","-1.0322266","-0.19921875","7.28125","-13.125","-1.8125"
"1574973091375","44","0.1640625","-0.9794922","-0.18847656","1.4375","-11.25","-6.5625"
"1574973091376","45","0.15039062","-0.9580078","-0.16796875","-4.5","-9.03125","-5.71875"
"1574973091376","46","0.18652344","-0.9794922","-0.1796875","-0.46875","-7.28125","-1.4375"
"1574973091376","47","0.15917969","-0.9980469","-0.20019531","-2.0625","-3.3125","-2.1875"
"1574973091376","48","0.16210938","-0.9863281","-0.20898438","-2.40625","-1.34375","-1.8125"
"1574973091378","49","0.17480469","-0.9638672","-0.20898438","1.65625","-2.8125","0.8125"
"1574973091773","50","0.19140625","-0.96191406","-0.18945312","3.1875","-4.28125","2.15625"
"1574973091773","51","0.21484375","-0.9550781","-0.20507812","1.0625","-3.0625","1.71875"
"1574973091773","52","0.21582031","-0.96875","-0.21582031","3.8125","-4.28125","3.125"
"1574973091774","53","0.19335938","-0.9560547","-0.18847656","0.09375","-6.59375","1.5625"
"1574973091774","54","0.19824219","-0.9794922","-0.20507812","-0.03125","-5.1875","1.0625"
"1574973091775","55","0.18652344","-0.9589844","-0.21777344","-2.0625","-3.59375","0.8125"
"1574973091775","56","0.19433594","-0.94140625","-0.21777344","-4.25","-3.0","0.75"
"1574973091775","57","0.22265625","-0.9628906","-0.24609375","-0.34375","-0.90625","1.84375"
"1574973091775","58","0.21679688","-0.96972656","-0.23144531","-8.71875","1.59375","2.46875"
"1574973091776","59","0.12695312","-1.0410156","-0.15136719","-34.65625","20.9375","-7.65625"
"1574973092169","60","0.03515625","-1.0185547","-0.23730469","-42.40625","23.6875","-18.40625"
"1574973092170","61","0.15820312","-0.9824219","-0.31054688","-11.4375","0.65625","-23.59375"
"1574973092170","62","0.2734375","-0.9394531","-0.22265625","-17.25","-14.96875","-21.28125"
"1574973092171","63","0.34765625","-0.9033203","-0.24121094","-7.375","-7.75","-1.125"
"1574973092171","64","0.2578125","-0.9716797","-0.3564453","-5.40625","6.46875","4.125"
"1574973092171","65","0.10546875","-0.92089844","-0.26367188","-2.65625","-11.125","-3.9375"
"1574973092172","66","0.22949219","-0.8876953","-0.2890625","3.3125","-9.53125","-0.65625"
"1574973092172","67","0.3076172","-0.9941406","-0.30273438","2.21875","0.59375","0.4375"
"1574973092172","68","0.23242188","-0.9863281","-0.3017578","-0.34375","-5.875","-2.96875"
"1574973092173","69","0.18066406","-0.91796875","-0.24902344","-3.53125","-2.75","-5.34375"
"1574973092565","70","0.20507812","-0.9121094","-0.28515625","-2.90625","-4.15625","-6.15625"
"1574973092565","71","0.2919922","-0.9667969","-0.31835938","1.3125","0.84375","-4.625"
"1574973092566","72","0.30371094","-0.94921875","-0.3125","1.125","-1.15625","0.8125"
"1574973092567","73","0.24316406","-0.90625","-0.3017578","-3.59375","-7.09375","-0.53125"
"1574973092567","74","0.23632812","-0.9267578","-0.28808594","-8.78125","-5.1875","-3.8125"
"1574973092567","75","0.23730469","-0.9423828","-0.29296875","-4.96875","-3.59375","-3.53125"
"1574973092568","76","0.25585938","-0.9169922","-0.30371094","-1.625","-7.09375","-0.03125"
"1574973092568","77","0.25683594","-0.9404297","-0.30078125","-4.90625","-5.875","-1.9375"
"1574973092568","78","0.24511719","-0.94433594","-0.32226562","-5.09375","-8.0625","-2.0625"
"1574973092568","79","0.22167969","-0.92578125","-0.32128906","-4.125","-8.90625","-2.25"
"1574973093159","80","0.24902344","-0.9082031","-0.30664062","-5.28125","-5.0625","-2.40625"
"1574973093159","81","0.27148438","-0.92578125","-0.35058594","-0.90625","-3.96875","-1.25"
"1574973093159","82","0.2705078","-0.9238281","-0.33496094","-1.0625","-6.15625","-1.0"
"1574973093160","83","0.2685547","-0.9121094","-0.33789062","1.0","-6.125","-0.90625"
"1574973093160","84","0.23535156","-0.92089844","-0.34765625","-3.625","-4.03125","-3.6875"
"1574973093162","85","0.23242188","-0.9033203","-0.32617188","-0.34375","-2.15625","-0.65625"
"1574973093162","86","0.26953125","-0.9121094","-0.31933594","-0.03125","-2.4375","0.8125"
"1574973093162","87","0.29492188","-0.94433594","-0.36914062","-0.09375","-4.59375","-0.15625"
"1574973093162","88","0.24511719","-0.91503906","-0.3720703","-1.625","-4.46875","-1.4375"
"1574973093163","89","0.24414062","-0.88671875","-0.34179688","-6.75","1.75","-5.09375"
"1574973093362","90","0.27929688","-0.8955078","-0.3388672","-3.8125","3.03125","-5.03125"
"1574973093363","91","0.3154297","-0.92871094","-0.35839844","0.28125","-0.5","-1.625"
"1574973093363","92","0.29296875","-0.9091797","-0.36816406","-7.59375","-1.09375","-2.46875"
"1574973093363","93","0.27539062","-0.88378906","-0.36621094","0.4375","-2.8125","1.96875"
"1574973093363","94","0.28125","-0.8847656","-0.3623047","-5.78125","-2.25","-0.78125"
"1574973093364","95","0.27441406","-0.92871094","-0.38476562","-3.8125","-0.8125","-1.0"
"1574973093364","96","0.24511719","-0.87402344","-0.38183594","-5.84375","-2.5","-3.625"
"1574973093365","97","0.27929688","-0.90527344","-0.39453125","-2.71875","-4.59375","-1.0625"
"1574973093365","98","0.296875","-0.93066406","-0.3798828","-6.625","-6.65625","-2.53125"
"1574973093366","99","0.3125","-0.88378906","-0.3251953","-10.71875","0.0","1.1875"
"1574973093759","100","0.2607422","-0.8232422","-0.3173828","-8.59375","3.28125","6.3125"
"1574973093760","101","0.15820312","-0.8388672","-0.41796875","5.46875","1.59375","-1.25"
"1574973093760","102","0.33691406","-0.9589844","-0.45703125","-0.15625","-4.28125","-9.1875"
"1574973093760","103","0.36328125","-0.89941406","-0.3701172","-12.125","-7.40625","-2.78125"
"1574973093760","104","0.2861328","-0.8378906","-0.33007812","-0.03125","-5.875","5.15625"
"1574973093761","105","0.28320312","-0.89941406","-0.39453125","6.84375","-8.1875","-3.9375"
"1574973093761","106","0.2763672","-0.9199219","-0.4501953","-2.34375","-5.3125","-2.40625"
"1574973093761","107","0.28710938","-0.86816406","-0.37402344","-3.21875","-0.1875","1.78125"
"1574973093761","108","0.2939453","-0.87402344","-0.40039062","3.0625","-2.6875","1.5625"
"1574973093763","109","0.2578125","-0.8964844","-0.421875","-2.46875","-2.25","-0.40625"
"1574973094156","110","0.29785156","-0.8935547","-0.4140625","1.0","-1.40625","0.09375"
"1574973094156","111","0.296875","-0.86816406","-0.39648438","-1.3125","-1.34375","1.96875"
"1574973094157","112","0.29296875","-0.88183594","-0.41015625","3.25","0.59375","0.75"
"1574973094157","113","0.31054688","-0.8886719","-0.39941406","1.125","-0.5625","1.5625"
"1574973094157","114","0.2919922","-0.87597656","-0.3857422","-0.28125","-2.5625","0.9375"
"1574973094158","115","0.2783203","-0.8798828","-0.4013672","-0.34375","-2.09375","-0.28125"
"1574973094158","116","0.29003906","-0.86621094","-0.41308594","2.59375","-1.21875","0.15625"
"1574973094158","117","0.33203125","-0.8955078","-0.40625","7.15625","-2.5625","1.5625"
"1574973094158","118","0.25585938","-0.8769531","-0.39746094","-1.0","-0.96875","-0.78125"
"1574973094159","119","0.30273438","-0.9013672","-0.4169922","6.5625","1.34375","-0.40625"
"1574973094554","120","0.34277344","-0.8847656","-0.3935547","9.46875","0.65625","7.34375"
"1574973094555","121","0.2919922","-0.83691406","-0.35839844","4.1875","-1.40625","4.34375"
"1574973094555","122","0.2685547","-0.89453125","-0.38378906","8.25","-4.9375","2.28125"
"1574973094556","123","0.3017578","-0.92089844","-0.38476562","9.3125","-3.96875","5.03125"
"1574973094556","124","0.26757812","-0.8984375","-0.3857422","1.0625","-4.9375","0.03125"
"1574973094556","125","0.2734375","-0.9042969","-0.37402344","4.90625","-3.1875","3.125"
"1574973094556","126","0.28027344","-0.90722656","-0.3876953","7.40625","-5.25","4.46875"
"1574973094557","127","0.2685547","-0.90527344","-0.3671875","2.65625","-0.625","3.75"
"1574973094557","128","0.27441406","-0.8730469","-0.37109375","5.875","-2.8125","4.59375"
"1574973094557","129","0.29101562","-0.9189453","-0.37304688","3.75","-0.96875","3.3125"
"1574973095348","130","0.28320312","-0.8876953","-0.359375","0.09375","-2.625","3.25"
"1574973095348","131","0.28808594","-0.8935547","-0.36132812","7.28125","-3.3125","5.28125"
"1574973095349","132","0.27539062","-0.91015625","-0.37402344","2.90625","-1.71875","1.90625"
"1574973095349","133","0.27246094","-0.9042969","-0.3828125","4.46875","-4.46875","1.4375"
"1574973095349","134","0.26171875","-0.9033203","-0.3544922","3.8125","-1.15625","2.03125"
"1574973095350","135","0.26953125","-0.9033203","-0.3564453","4.53125","-3.4375","0.21875"
"1574973095350","136","0.3125","-0.9248047","-0.38183594","6.75","-3.59375","1.65625"
"1574973095351","137","0.30371094","-0.88964844","-0.38378906","5.875","-6.34375","4.21875"
"1574973095351","138","0.2607422","-0.86621094","-0.43847656","20.28125","-7.28125","5.21875"
"1574973095351","139","0.28125","-0.90722656","-0.3642578","25.84375","2.5","7.59375"
"1574973095545","140","0.25195312","-0.86328125","-0.328125","24.5625","7.1875","12.0"
"1574973095545","141","0.24707031","-0.9355469","-0.16503906","1.125","22.34375","9.4375"
"1574973095546","142","0.022460938","-1.0253906","-0.046875","-83.46875","45.96875","-29.875"
"1574973095546","143","0.2734375","-1.3271484","-0.79003906","32.96875","-24.40625","-42.28125"
"1574973095546","144","0.515625","-0.8769531","-0.2841797","-19.21875","-67.8125","12.28125"
"1574973095547","145","0.34570312","-0.7207031","-0.24902344","-7.5","3.09375","3.75"
"1574973095548","146","0.24511719","-0.7060547","-0.33203125","11.5","-4.34375","-3.28125"
"1574973095548","147","0.1796875","-0.88671875","-0.4033203","17.40625","-25.34375","17.46875"
"1574973095548","148","0.29101562","-1.0205078","-0.38378906","12.71875","5.1875","14.125"
"1574973095548","149","0.33398438","-0.9355469","-0.38867188","4.0","3.53125","8.5625"
"1574973095945","150","0.21289062","-0.9091797","-0.2705078","12.90625","-6.59375","15.09375"
"1574973095946","151","0.2265625","-0.93847656","-0.32226562","15.46875","-10.875","13.875"
"1574973095946","152","0.21289062","-0.9707031","-0.3544922","6.5","-3.84375","6.96875"
"1574973095946","153","0.23339844","-0.91503906","-0.3330078","10.09375","-7.28125","6.6875"
"1574973095947","154","0.24414062","-0.8935547","-0.3076172","2.40625","-5.625","6.5"
"1574973095947","155","0.20019531","-0.94628906","-0.34375","0.5","-6.21875","0.6875"
"1574973095947","156","0.22070312","-0.9863281","-0.3408203","-2.46875","-5.5625","-0.28125"
"1574973095949","157","0.1953125","-0.91503906","-0.31933594","-1.25","-2.6875","-3.59375"
"1574973095949","158","0.2421875","-0.9111328","-0.32421875","0.4375","4.28125","-4.5625"
"1574973095949","159","0.28515625","-0.96484375","-0.3408203","-2.71875","3.03125","-2.78125"
"1574973096342","160","0.24902344","-0.93359375","-0.3310547","-3.46875","1.75","-5.15625"
"1574973096343","161","0.2705078","-0.86816406","-0.3232422","5.03125","-3.1875","-0.34375"
"1574973096343","162","0.30371094","-0.9013672","-0.36132812","10.46875","-0.1875","4.46875"
"1574973096343","163","0.36914062","-0.8720703","-0.38964844","20.53125","-15.375","5.9375"
"1574973096344","164","0.3173828","-0.81933594","-0.44921875","7.78125","-13.375","-4.125"
"1574973096344","165","-0.09375","-1.1503906","-0.18164062","-16.75","33.1875","-15.1875"
"1574973096344","166","0.2861328","-1.1552734","-0.34960938","-24.75","-41.09375","-17.90625"
"1574973096344","167","0.2265625","-0.6533203","-0.16796875","-18.53125","13.125","-13.59375"
"1574973096345","168","0.19726562","-0.8466797","-0.3154297","7.78125","15.9375","7.34375"
"1574973096346","169","0.28515625","-0.9404297","-0.31054688","7.78125","-8.90625","10.21875"
"1574973096740","170","0.375","-0.8984375","-0.40722656","25.78125","-3.4375","4.1875"
"1574973096741","171","0.18359375","-0.9160156","-0.35546875","27.84375","10.6875","14.78125"
"1574973096741","172","0.3154297","-0.92871094","-0.33203125","26.21875","-5.9375","19.125"
"1574973096741","173","0.24902344","-0.921875","-0.31054688","18.15625","-7.8125","5.46875"
"1574973096742","174","0.16015625","-0.94921875","-0.31835938","10.59375","-0.625","3.0625"
"1574973096742","175","0.24121094","-0.9902344","-0.28125","4.65625","-4.53125","6.75"
"1574973096742","176","0.29003906","-0.99316406","-0.30566406","6.90625","-4.71875","3.75"
"1574973096742","177","0.25683594","-0.96972656","-0.2529297","-2.1875","-8.3125","1.0625"
"1574973096743","178","0.18359375","-0.9326172","-0.23828125","-1.5","-6.65625","0.28125"
"1574973096743","179","0.22949219","-0.9326172","-0.28320312","1.125","-8.375","-3.09375"
"1574973097136","180","0.2421875","-0.98339844","-0.30078125","0.5625","-4.71875","0.3125"
"1574973097138","181","0.25097656","-0.94140625","-0.2763672","3.9375","-7.9375","0.6875"
"1574973097138","182","0.21484375","-0.9121094","-0.26367188","1.125","-4.8125","-3.03125"
"1574973097138","183","0.22460938","-0.9580078","-0.27929688","4.21875","-4.65625","-1.625"
"1574973097139","184","0.19140625","-0.96777344","-0.2578125","0.28125","2.0625","-2.0625"
"1574973097139","185","0.22070312","-0.9580078","-0.24804688","-2.90625","-1.15625","-0.59375"
"1574973097139","186","0.25683594","-0.9628906","-0.28125","6.5625","-0.125","2.34375"
"1574973097139","187","0.23144531","-0.9511719","-0.26171875","10.09375","-5.25","4.40625"
"1574973097140","188","0.23242188","-0.93359375","-0.27148438","7.46875","-6.90625","4.1875"
"1574973097140","189","0.25","-0.9501953","-0.265625","3.4375","-2.15625","0.875"
"1574973097534","190","0.24609375","-0.97558594","-0.30371094","4.71875","-6.21875","-0.71875"
"1574973097535","191","0.26757812","-0.89746094","-0.2734375","2.71875","-5.25","4.125"
"1574973097535","192","0.2734375","-0.9667969","-0.28027344","-1.875","-0.96875","2.84375"
"1574973097536","193","0.23242188","-0.9707031","-0.2939453","-3.9375","-10.875","2.09375"
"1574973097536","194","0.14746094","-0.90722656","-0.25585938","3.875","-10.3125","-0.53125"
"1574973097536","195","0.19140625","-0.9277344","-0.2578125","1.78125","-4.09375","-2.0625"
"1574973097537","196","0.21484375","-0.96875","-0.26953125","0.21875","3.03125","-0.53125"
"1574973097537","197","0.21972656","-0.98535156","-0.24316406","1.3125","0.0","1.25"
"1574973097537","198","0.20605469","-0.9316406","-0.2626953","5.21875","0.96875","4.59375"
"1574973097537","199","0.2265625","-0.9550781","-0.25683594","1.84375","1.6875","4.96875"
"1574973097933","200","0.2548828","-0.95703125","-0.25976562","3.125","-2.5","4.1875"
"1574973097933","201","0.2763672","-0.92285156","-0.31835938","7.65625","-8.5625","3.4375"
"1574973097934","202","0.35351562","-0.9404297","-0.4345703","16.3125","-16.375","9.4375"
"1574973097934","203","0.36035156","-1.1445312","-0.390625","-10.53125","19.84375","8.8125"
"1574973097934","204","-0.022460938","-0.7236328","0.10546875","-44.96875","48.15625","-1.75"
"1574973097935","205","-0.14257812","-0.90234375","-0.080078125","-4.5","-0.6875","-24.8125"
"1574973097936","206","0.375","-1.2060547","-0.3359375","13.21875","-30.53125","1.71875"
"1574973097936","207","0.51953125","-0.9482422","-0.4345703","-6.5625","6.59375","-5.28125"
"1574973097936","208","0.18652344","-0.93847656","-0.20117188","-2.46875","-0.125","-0.78125"
"1574973097937","209","0.15332031","-0.9345703","-0.26757812","2.34375","-20.9375","5.8125"
"1574973098528","210","0.20898438","-0.8984375","-0.2763672","2.53125","-15.4375","-3.9375"
"1574973098528","211","0.23242188","-0.9326172","-0.30664062","-2.40625","4.875","-6.03125"
"1574973098529","212","0.24707031","-1.0068359","-0.33007812","-5.78125","-3.90625","-2.65625"
"1574973098529","213","0.2890625","-0.9707031","-0.2763672","-1.8125","-3.90625","-4.625"
"1574973098529","214","0.2734375","-0.9277344","-0.2841797","1.4375","-10.0625","-3.6875"
"1574973098529","215","0.23632812","-0.9453125","-0.28808594","-3.46875","-11.46875","-2.59375"
"1574973098529","216","0.24804688","-0.9316406","-0.32910156","-1.5625","-12.40625","-6.6875"
"1574973098531","217","0.22558594","-0.9355469","-0.3203125","-4.875","-6.125","-6.5"
"1574973098531","218","0.18457031","-0.89746094","-0.28320312","-11.28125","-1.46875","-3.53125"
"1574973098531","219","0.22070312","-0.89746094","-0.30566406","-9.4375","-4.65625","-7.1875"
"1574973098727","220","0.3173828","-0.96191406","-0.33496094","-7.125","-6.71875","-6.3125"
"1574973098727","221","0.26660156","-0.9511719","-0.3330078","-5.84375","-1.21875","-1.6875"
"1574973098728","222","0.23925781","-0.9189453","-0.33496094","-6.875","-4.21875","-1.5625"
"1574973098728","223","0.26464844","-0.91308594","-0.34375","-4.625","-2.9375","1.78125"
"1574973098728","224","0.27148438","-0.9013672","-0.3359375","-6.5","-1.78125","1.125"
"1574973098728","225","0.2578125","-0.9091797","-0.35253906","-5.78125","0.1875","0.9375"
"1574973098729","226","0.23828125","-0.9189453","-0.3486328","-6.09375","-0.375","0.6875"
"1574973098729","227","0.2548828","-0.9160156","-0.33203125","-16.15625","-1.59375","0.75"
"1574973098729","228","0.24121094","-0.90527344","-0.38867188","-9.6875","0.78125","-2.96875"
"1574973098731","229","0.30371094","-0.94921875","-0.38964844","-6.625","7.3125","5.15625"
"1574973099125","230","0.24511719","-0.89746094","-0.453125","-21.03125","12.1875","-9.8125"
"1574973099126","231","0.47753906","-0.91503906","-0.42871094","13.15625","-3.25","16.125"
"1574973099126","232","0.22753906","-0.7871094","-0.26171875","12.96875","-13.0","32.75"
"1574973099126","233","-0.2548828","-0.68847656","-0.40039062","-16.625","4.75","4.1875"
"1574973099126","234","0.28808594","-1.0039062","-0.44335938","10.875","35.8125","-22.3125"
"1574973099127","235","0.9013672","-1.1054688","-0.46289062","29.3125","-10.9375","0.875"
"1574973099127","236","0.08886719","-0.9746094","-0.3251953","-45.375","-16.96875","-7.65625"
"1574973099127","237","-0.08691406","-0.7089844","-0.3701172","7.28125","0.96875","19.125"
"1574973099127","238","0.203125","-0.74609375","-0.3251953","28.15625","9.5625","5.15625"
"1574973099128","239","0.65722656","-1.1835938","-0.37304688","-0.09375","-2.25","-26.09375"
"1574973099521","240","0.3486328","-0.9658203","-0.44433594","-6.75","-19.65625","4.0625"
"1574973099523","241","0.056640625","-0.69921875","-0.2919922","3.3125","-11.65625","6.0"
"1574973099523","242","0.19824219","-0.9013672","-0.359375","7.34375","-3.53125","-4.625"
"1574973099523","243","0.39453125","-1.0332031","-0.4267578","-5.15625","-5.8125","-8.15625"
"1574973099523","244","0.25585938","-0.8691406","-0.3642578","0.03125","-9.78125","5.6875"
"1574973099524","245","0.17871094","-0.84277344","-0.328125","-1.625","-2.5","-0.21875"
"1574973099524","246","0.23535156","-0.9355469","-0.390625","-2.0625","-3.84375","-4.25"
"1574973099524","247","0.31347656","-0.9296875","-0.38867188","-1.1875","2.8125","-1.5625"
"1574973099524","248","0.3203125","-0.90625","-0.3857422","0.8125","-4.9375","5.625"
"1574973099527","249","0.23046875","-0.8925781","-0.37597656","-4.125","-0.90625","1.25"
"1574973099920","250","0.23339844","-0.8808594","-0.3857422","3.1875","0.0625","5.875"
"1574973099921","251","0.296875","-0.9121094","-0.37890625","2.90625","-0.25","4.28125"
"1574973099921","252","0.2861328","-0.9111328","-0.38378906","3.1875","-2.3125","3.5"
"1574973099922","253","0.2421875","-0.8984375","-0.37109375","4.0","-3.65625","6.125"
"1574973099923","254","0.26464844","-0.8964844","-0.36621094","3.9375","-2.09375","2.90625"
"1574973099923","255","0.2705078","-0.9091797","-0.3857422","5.28125","-4.59375","3.0625"
"1574973099923","256","0.25390625","-0.9013672","-0.37890625","3.0625","-2.5","2.03125"
"1574973099924","257","0.25585938","-0.91015625","-0.3828125","5.46875","-0.75","1.625"
"1574973099924","258","0.2890625","-0.92089844","-0.38378906","4.34375","-2.375","3.0625"
"1574973099924","259","0.2734375","-0.89941406","-0.37109375","2.46875","-4.09375","2.78125"
"1574973100318","260","0.23339844","-0.91308594","-0.359375","3.5","-3.84375","1.84375"
"1574973100318","261","0.2548828","-0.90625","-0.3544922","-3.21875","-2.6875","-0.46875"
"1574973100319","262","0.2685547","-0.9238281","-0.37109375","1.375","-2.5625","-0.15625"
"1574973100319","263","0.2421875","-0.9091797","-0.38476562","4.34375","-5.0","1.375"
"1574973100319","264","0.24609375","-0.90625","-0.36914062","1.3125","-0.4375","-0.15625"
"1574973100321","265","0.26171875","-0.90625","-0.359375","1.65625","-1.34375","1.90625"
"1574973100321","266","0.26171875","-0.9082031","-0.36816406","3.0","-0.6875","1.0"
"1574973100321","267","0.25","-0.9091797","-0.36816406","1.1875","-1.40625","0.3125"
"1574973100321","268","0.22851562","-0.9355469","-0.37109375","4.90625","-0.5","1.3125"
"1574973100322","269","0.265625","-0.9511719","-0.36914062","-3.03125","0.46875","-1.3125"
"1574973100715","270","0.2734375","-0.8935547","-0.33496094","-6.09375","-1.03125","7.65625"
"1574973100715","271","0.203125","-0.84375","-0.34277344","9.25","-3.84375","7.71875"
"1574973100715","272","0.2421875","-0.9814453","-0.37695312","-3.875","2.6875","-7.125"
"1574973100716","273","0.26367188","-0.8876953","-0.3359375","-3.34375","1.15625","3.1875"
"1574973100716","274","0.2607422","-0.8828125","-0.36035156","6.8125","-3.0625","7.78125"
"1574973100716","275","0.26464844","-0.9628906","-0.3828125","-1.5","-1.78125","-5.53125"
"1574973100716","276","0.24902344","-0.90527344","-0.32714844","-1.0","-0.75","2.21875"
"1574973100718","277","0.25976562","-0.93847656","-0.40820312","5.09375","-1.59375","5.34375"
"1574973100719","278","0.28027344","-0.87109375","-0.38183594","3.6875","-6.46875","3.1875"
"1574973100719","279","0.2109375","-0.86816406","-0.31152344","1.78125","0.65625","4.21875"
"1574973101114","280","0.19335938","-0.93652344","-0.3642578","10.21875","0.0","0.875"
"1574973101115","281","0.26757812","-0.9433594","-0.39160156","4.0","-0.8125","1.3125"
"1574973101115","282","0.2783203","-0.89746094","-0.36035156","6.6875","-6.53125","7.28125"
"1574973101116","283","0.20019531","-0.8574219","-0.36328125","14.0","-7.40625","6.5"
"1574973101116","284","0.24023438","-0.87597656","-0.45410156","18.6875","-3.96875","4.59375"
"1574973101116","285","0.18066406","-0.8574219","-0.26171875","23.71875","17.5625","20.46875"
"1574973101119","286","0.3203125","-0.9814453","-0.049804688","-24.9375","50.09375","17.25"
"1574973101120","287","0.06640625","-1.0439453","-0.3857422","42.1875","-19.71875","-9.4375"
"1574973101120","288","0.3310547","-1.4511719","-0.42382812","-28.59375","-4.8125","-59.0625"
"1574973101121","289","0.4267578","-0.75","-0.34960938","19.0625","-51.6875","28.09375"
"1574973101509","290","0.21875","-0.64160156","-0.19238281","28.46875","-4.40625","35.0"
"1574973101510","291","0.11230469","-0.89941406","-0.33007812","8.5","13.96875","13.9375"
"1574973101510","292","0.20996094","-0.9355469","-0.27539062","1.84375","-26.4375","-2.84375"
"1574973101510","293","0.2890625","-1.0097656","-0.29003906","4.0625","-24.59375","-4.625"
"1574973101511","294","0.21679688","-0.97558594","-0.31835938","-1.1875","4.09375","-6.8125"
"1574973101511","295","0.15917969","-1.0126953","-0.34277344","-7.96875","-5.3125","2.78125"
"1574973101511","296","0.17089844","-0.9404297","-0.23535156","3.5625","-14.53125","2.65625"
"1574973101511","297","0.19824219","-0.8642578","-0.28222656","-3.9375","-6.28125","-5.84375"
"1574973101511","298","0.18164062","-0.97265625","-0.3564453","0.5","3.46875","-6.09375"
"1574973101512","299","0.2578125","-1.0253906","-0.2998047","5.40625","-3.59375","-1.3125"
"1574973101908","300","0.26660156","-0.86035156","-0.2919922","5.6875","-6.125","0.375"
"1574973101910","301","0.18554688","-0.90234375","-0.2841797","-4.625","4.15625","-8.71875"
"1574973101910","302","0.15234375","-1.0283203","-0.3125","-11.21875","3.84375","-16.9375"
"1574973101910","303","0.24511719","-0.8574219","-0.3642578","-1.4375","7.8125","-9.625"
"1574973101911","304","0.265625","-0.74902344","-0.39941406","1.1875","18.0625","0.75"
"1574973101911","305","0.46875","-1.1953125","-0.29882812","-21.40625","22.5625","-2.28125"
"1574973101911","306","0.2763672","-1.1044922","-0.12597656","-39.15625","-26.25","-21.15625"
"1574973101911","307","0.17285156","-0.7705078","-0.26367188","23.46875","-26.4375","4.1875"
"1574973101912","308","0.078125","-0.7548828","-0.25585938","6.625","-18.75","-5.28125"
"1574973101912","309","0.28710938","-0.90234375","-0.32421875","23.71875","-16.0625","6.5"
"1574973102501","310","0.29296875","-1.0507812","-0.43164062","18.625","-12.9375","3.5625"
"1574973102502","311","0.19238281","-0.97753906","-0.4013672","22.84375","2.375","10.28125"
"1574973102502","312","0.20507812","-0.8652344","-0.31835938","13.09375","5.65625","16.8125"
"1574973102503","313","0.30566406","-0.9033203","-0.3017578","19.375","8.0","18.15625"
"1574973102504","314","0.2529297","-0.97558594","-0.28808594","12.40625","0.53125","10.34375"
"1574973102504","315","0.13574219","-0.9169922","-0.296875","2.09375","-2.6875","0.4375"
"1574973102504","316","0.20214844","-0.9453125","-0.2763672","-2.90625","6.71875","-3.46875"
"1574973102505","317","0.25683594","-0.9824219","-0.2578125","-6.5625","12.3125","-0.28125"
"1574973102505","318","0.2998047","-0.9970703","-0.29003906","0.21875","5.125","3.0"
"1574973102505","319","0.24609375","-0.93652344","-0.2763672","0.5625","4.375","3.0"
"1574973102701","320","0.24707031","-0.88378906","-0.24121094","-0.34375","4.5","4.71875"
"1574973102702","321","0.25097656","-0.9267578","-0.26464844","4.34375","-2.25","4.53125"
"1574973102702","322","0.25390625","-0.9609375","-0.296875","1.5","-5.375","2.40625"
"1574973102702","323","0.22363281","-0.9345703","-0.28320312","-2.125","-3.90625","1.96875"
"1574973102702","324","0.21875","-0.9511719","-0.29589844","2.59375","-6.40625","0.8125"
"1574973102704","325","0.23925781","-0.9736328","-0.28027344","4.53125","-5.875","1.25"
"1574973102704","326","0.22460938","-0.9638672","-0.26757812","7.15625","-6.21875","0.15625"
"1574973102704","327","0.21191406","-0.9736328","-0.25878906","5.46875","-1.84375","0.09375"
"1574973102704","328","0.21582031","-0.9716797","-0.27246094","2.65625","-6.15625","-2.46875"
"1574973102705","329","0.23046875","-0.93359375","-0.24707031","1.25","-4.15625","-2.1875"
"1574973103099","330","0.19921875","-0.9658203","-0.23925781","6.84375","-5.0","0.8125"
"1574973103099","331","0.19726562","-0.9511719","-0.26367188","4.53125","-5.0625","0.9375"
"1574973103099","332","0.22753906","-0.9667969","-0.28515625","6.5","-2.5","4.0"
"1574973103100","333","0.234375","-0.9375","-0.27734375","7.28125","-0.4375","3.4375"
"1574973103100","334","0.25390625","-0.9394531","-0.2734375","6.6875","-2.25","5.28125"
"1574973103100","335","0.24316406","-0.93066406","-0.3017578","2.65625","-1.09375","3.8125"
"1574973103100","336","0.24316406","-0.9296875","-0.35839844","7.59375","2.9375","2.71875"
"1574973103102","337","0.43945312","-1.1328125","-0.453125","24.0","3.09375","15.65625"
"1574973103102","338","0.34277344","-0.96777344","0.068359375","-79.5625","63.28125","40.78125"
"1574973103102","339","-0.2685547","-0.7480469","-0.19238281","15.9375","-46.875","-25.3125"
"1574973103498","340","0.041992188","-0.9638672","-0.20019531","-1.0625","-90.71875","-47.84375"
"1574973103498","341","0.35058594","-0.85058594","-0.26171875","-31.09375","65.84375","9.90625"
"1574973103499","342","0.3408203","-1.1191406","-0.39257812","19.0625","-6.28125","-6.25"
"1574973103499","343","0.2861328","-1.0556641","-0.28808594","-8.875","-34.4375","-4.875"
"1574973103499","344","0.09472656","-0.8203125","-0.26953125","-9.1875","-12.9375","-5.59375"
"1574973103499","345","0.16699219","-0.8388672","-0.27148438","5.625","5.96875","-3.75"
"1574973103500","346","0.29785156","-1.0234375","-0.33984375","-1.5625","9.34375","5.53125"
"1574973103500","347","0.3466797","-0.99121094","-0.3671875","5.8125","-5.0625","3.5"
"1574973103500","348","0.27148438","-0.90527344","-0.26757812","-2.34375","-2.03125","4.71875"
"1574973103502","349","0.09667969","-0.9248047","-0.22363281","-2.78125","1.09375","-1.8125"
"1574973104091","350","0.14550781","-0.9404297","-0.28710938","-7.0","-7.875","-7.4375"
"1574973104091","351","0.3017578","-0.96972656","-0.37304688","3.0625","0.53125","-0.34375"
"1574973104092","352","0.32910156","-0.98339844","-0.34765625","-0.78125","10.125","10.75"
"1574973104092","353","0.17480469","-0.9111328","-0.28027344","-10.0","-5.125","2.03125"
"1574973104092","354","0.21386719","-0.85546875","-0.26464844","-9.4375","-9.09375","-1.125"
"1574973104092","355","0.23730469","-0.96777344","-0.37402344","3.625","-0.875","2.46875"
"1574973104093","356","0.27148438","-1.0087891","-0.34472656","-2.25","3.90625","3.1875"
"1574973104093","357","0.25097656","-0.90527344","-0.29882812","-9.125","-7.40625","2.03125"
"1574973104093","358","0.20703125","-0.8613281","-0.3017578","-3.15625","-6.78125","-2.65625"
"1574973104093","359","0.16992188","-0.95214844","-0.34960938","0.21875","1.75","-4.125"
"1574973104688","360","0.2548828","-0.9785156","-0.3623047","-1.625","9.03125","2.59375"
"1574973104689","361","0.27734375","-0.9375","-0.31445312","-6.875","-5.0625","5.34375"
"1574973104690","362","0.20898438","-0.8779297","-0.3154297","-6.25","-6.0","-3.59375"
"1574973104690","363","0.1953125","-0.90234375","-0.34179688","-2.1875","-0.625","-1.5"
"1574973104690","364","0.23730469","-0.97753906","-0.35546875","-0.96875","7.5625","4.90625"
"1574973104690","365","0.2607422","-0.94921875","-0.359375","-5.90625","-3.3125","2.71875"
"1574973104691","366","0.25390625","-0.8779297","-0.31835938","-7.71875","-7.9375","-4.0"
"1574973104691","367","0.26171875","-0.8857422","-0.34277344","1.90625","-7.21875","3.6875"
"1574973104691","368","0.24316406","-0.95996094","-0.38867188","2.84375","-6.125","9.0625"
"1574973104691","369","0.21289062","-0.9453125","-0.35253906","-9.125","-5.8125","6.1875"
"1574973104888","370","0.19433594","-0.8691406","-0.36132812","-2.34375","-11.0","4.71875"
"1574973104888","371","0.17871094","-0.92285156","-0.36035156","-1.125","-1.28125","1.4375"
"1574973104888","372","0.1953125","-0.9199219","-0.34277344","-13.03125","7.875","4.28125"
"1574973104890","373","0.25195312","-0.9326172","-0.3876953","-1.625","-3.78125","0.3125"
"1574973104890","374","0.23828125","-0.89453125","-0.39648438","-2.1875","-1.59375","-1.375"
"1574973104890","375","0.1875","-0.9091797","-0.3330078","-8.71875","6.84375","0.15625"
"1574973104890","376","0.28125","-0.8798828","-0.4375","14.0625","-35.90625","-6.625"
"1574973104891","377","0.38085938","-1.1152344","-0.5498047","-3.03125","-5.25","-22.0625"
"1574973104891","378","0.076171875","-0.68359375","-0.25390625","-43.25","-15.21875","-13.46875"
"1574973104891","379","0.11816406","-0.61621094","-0.12890625","-24.28125","25.9375","5.75"
"1574973105086","380","0.22265625","-0.83203125","-0.359375","82.65625","-22.96875","35.4375"
"1574973105087","381","0.14648438","-1.3876953","-0.7558594","13.15625","17.03125","-18.53125"
"1574973105087","382","0.42285156","-0.9580078","-0.53515625","-68.6875","4.9375","-12.5"
"1574973105087","383","0.32226562","-0.609375","-0.00390625","-36.125","5.96875","-3.625"
"1574973105088","384","0.15722656","-0.75878906","-0.30566406","24.0625","9.8125","-8.28125"
"1574973105088","385","0.23144531","-1.1269531","-0.6171875","38.40625","-22.65625","11.8125"
"1574973105089","386","0.2841797","-1.0175781","-0.56152344","-15.71875","-4.53125","8.875"
"1574973105089","387","0.20996094","-0.74609375","-0.2548828","-18.21875","9.03125","2.9375"
"1574973105089","388","0.19921875","-0.7841797","-0.35742188","3.25","7.6875","-9.875"
"1574973105090","389","0.375","-0.9863281","-0.48632812","8.25","-2.4375","-5.28125"
"1574973105485","390","0.30566406","-0.93847656","-0.4453125","-3.40625","-8.0","2.09375"
"1574973105486","391","0.15136719","-0.85546875","-0.37109375","3.25","-2.875","4.96875"
"1574973105486","392","0.24609375","-0.87597656","-0.40625","3.25","-1.96875","-1.6875"
"1574973105486","393","0.296875","-0.8847656","-0.4375","7.71875","-8.5","1.65625"
"1574973105487","394","0.24121094","-0.9082031","-0.39648438","12.65625","-6.84375","2.09375"
"1574973105487","395","0.18847656","-0.94140625","-0.41796875","3.0625","-0.75","-1.0"
"1574973105487","396","0.25390625","-0.8828125","-0.36523438","5.28125","-3.78125","-2.0"
"1574973105489","397","0.33203125","-0.9472656","-0.39453125","9.25","-3.84375","-0.96875"
"1574973105489","398","0.23339844","-0.9238281","-0.3779297","5.6875","-6.59375","1.90625"
"1574973105489","399","0.18359375","-0.8027344","-0.38085938","-3.03125","-7.5","6.1875"
"1574973105883","400","0.22363281","-0.86035156","-0.36816406","12.03125","0.40625","-5.46875"
"1574973105883","401","0.30664062","-1.0126953","-0.39941406","5.53125","0.59375","-5.65625"
"1574973105883","402","0.21191406","-0.91503906","-0.4189453","-1.5","-3.5","2.59375"
"1574973105884","403","0.26953125","-0.85546875","-0.34375","6.96875","-3.59375","8.625"
"1574973105884","404","0.28222656","-0.8691406","-0.3720703","11.0625","-4.875","7.15625"
"1574973105884","405","0.2421875","-0.9238281","-0.39160156","0.21875","-7.34375","-2.84375"
"1574973105884","406","0.25097656","-0.9394531","-0.39257812","0.8125","-5.875","-2.1875"
"1574973105885","407","0.23046875","-0.8876953","-0.35839844","3.8125","-2.875","4.71875"
"1574973105885","408","0.22460938","-0.8828125","-0.37695312","0.9375","-2.5625","3.3125"
"1574973105886","409","0.23535156","-0.9355469","-0.38671875","0.8125","-3.0","1.90625"
"1574973106477","410","0.21191406","-0.9238281","-0.38183594","-3.34375","0.65625","0.5625"
"1574973106478","411","0.28027344","-0.8847656","-0.43554688","11.5","3.46875","3.4375"
"1574973106478","412","0.29589844","-0.9033203","-0.4482422","27.1875","6.09375","14.625"
"1574973106479","413","0.22851562","-0.8671875","-0.35839844","22.78125","5.1875","20.53125"
"1574973106479","414","0.20117188","-0.74902344","-0.17382812","9.96875","-3.90625","28.46875"
"1574973106479","415","0.13867188","-0.890625","-0.17285156","-29.6875","16.84375","-27.6875"
"1574973106479","416","0.12402344","-1.4199219","-0.5107422","-16.625","6.03125","-64.1875"
"1574973106480","417","0.48339844","-1.1103516","-0.47753906","4.21875","-11.0625","1.0"
"1574973106480","418","0.28808594","-0.70703125","-0.29589844","-5.71875","-8.6875","14.0625"
"1574973106480","419","0.2529297","-0.74316406","-0.22753906","12.65625","-2.8125","18.03125"
"1574973106874","420","0.34570312","-0.9609375","-0.41308594","12.34375","-1.65625","13.03125"
"1574973106875","421","0.21582031","-0.875","-0.3173828","-0.59375","-19.34375","-1.875"
"1574973106876","422","0.19921875","-0.8847656","-0.34472656","-5.09375","-14.46875","-10.46875"
"1574973106876","423","0.3076172","-1.0087891","-0.40039062","0.03125","-4.875","-7.84375"
"1574973106876","424","0.22753906","-0.9609375","-0.32421875","5.28125","-1.09375","4.28125"
"1574973106877","425","0.15039062","-0.84375","-0.32421875","-3.09375","-3.125","-0.59375"
"1574973106877","426","0.25976562","-0.90722656","-0.31347656","5.8125","-4.53125","-0.59375"
"1574973106877","427","0.30664062","-0.95996094","-0.37304688","5.09375","-9.21875","1.25"
"1574973106877","428","0.23828125","-0.8730469","-0.37304688","6.6875","-6.71875","3.0625"
"1574973106878","429","0.20410156","-0.9091797","-0.3798828","8.5625","-3.71875","2.21875"
"1574973107074","430","0.24804688","-0.953125","-0.35546875","9.0","0.25","3.0625"
"1574973107074","431","0.25097656","-0.8652344","-0.27441406","-3.28125","4.5","1.3125"
"1574973107075","432","0.22460938","-0.9394531","-0.30566406","1.5","3.09375","-6.5625"
"1574973107076","433","0.265625","-0.99609375","-0.35742188","-1.0","-4.875","-4.3125"
"1574973107076","434","0.29882812","-0.9375","-0.36523438","4.46875","-6.34375","-2.90625"
"1574973107076","435","0.2705078","-0.86621094","-0.30566406","8.3125","-15.5625","1.90625"
"1574973107077","436","0.24804688","-0.8623047","-0.29101562","17.1875","-13.0","0.09375"
"1574973107077","437","0.24316406","-0.94433594","-0.35839844","6.3125","-6.84375","-5.65625"
"1574973107077","438","0.24316406","-0.99902344","-0.33398438","2.34375","-3.78125","-7.25"
"1574973107078","439","0.18847656","-0.90527344","-0.3779297","10.28125","0.0625","-9.375"
"1574973107473","440","0.24804688","-0.8105469","-0.35351562","6.75","13.0625","-4.6875"
"1574973107473","441","0.31347656","-0.7919922","-0.3251953","10.53125","17.5","3.0625"
"1574973107474","442","0.26757812","-0.9746094","-0.23632812","-16.59375","25.8125","-7.90625"
"1574973107474","443","0.32910156","-1.2236328","-0.23730469","-23.59375","9.8125","-16.09375"
"1574973107474","444","0.36132812","-0.9824219","-0.24609375","19.375","-19.0625","3.875"
"1574973107476","445","0.2607422","-0.64453125","-0.18066406","56.71875","-14.09375","20.46875"
"1574973107476","446","0.22265625","-0.7441406","-0.18066406","54.03125","-15.75","22.78125"
"1574973107476","447","0.3408203","-1.1503906","-0.34472656","43.40625","-13.5625","17.0625"
"1574973107476","448","0.3173828","-1.1162109","-0.36914062","35.3125","-12.9375","9.4375"
"1574973107477","449","0.1953125","-0.82128906","-0.25976562","33.03125","-12.75","21.5"
"1574973107870","450","0.16210938","-0.8388672","-0.19628906","17.96875","-5.6875","18.28125"
"1574973107871","451","0.19628906","-1.0605469","-0.20898438","-0.09375","-0.375","0.21875"
"1574973107871","452","0.21289062","-1.1230469","-0.19726562","4.84375","-11.53125","-0.78125"
"1574973107871","453","0.265625","-0.93652344","-0.15039062","-2.84375","-6.71875","2.34375"
"1574973107871","454","0.25097656","-0.94140625","-0.16015625","-9.0625","0.65625","-5.78125"
"1574973107872","455","0.18261719","-0.95703125","-0.20605469","-9.8125","-4.875","-7.90625"
"1574973107872","456","0.20507812","-0.96972656","-0.18945312","-3.8125","-0.875","-2.59375"
"1574973107873","457","0.26171875","-0.96777344","-0.18457031","1.375","2.5","3.9375"
"1574973107874","458","0.2548828","-0.984375","-0.17871094","-1.5","8.0","5.5625"
"1574973107874","459","0.20800781","-0.96191406","-0.19628906","0.28125","3.09375","2.46875"
"1574973108268","460","0.21582031","-0.9589844","-0.16699219","0.4375","0.53125","2.71875"
"1574973108269","461","0.23828125","-0.9589844","-0.17675781","-2.34375","-0.8125","-1.125"
"1574973108269","462","0.22460938","-0.9716797","-0.19140625","0.8125","3.90625","-0.46875"
"1574973108269","463","0.22851562","-0.9814453","-0.19238281","0.4375","1.75","0.15625"
"1574973108269","464","0.24121094","-0.97265625","-0.19238281","1.125","3.78125","1.5625"
"1574973108270","465","0.23339844","-0.9589844","-0.18359375","2.90625","2.5625","2.9375"
"1574973108270","466","0.24023438","-0.9628906","-0.16699219","0.3125","4.03125","3.25"
"1574973108270","467","0.22753906","-0.97558594","-0.18847656","1.0625","2.5","1.625"
"1574973108270","468","0.24121094","-0.9707031","-0.18261719","-0.34375","2.75","2.21875"
"1574973108271","469","0.23925781","-0.96972656","-0.18554688","-1.375","0.40625","0.3125"
"1574973108664","470","0.25195312","-0.96972656","-0.18359375","1.90625","-3.4375","0.875"
"1574973108664","471","0.22265625","-0.9824219","-0.17578125","3.5625","-4.28125","1.0"
"1574973108665","472","0.21875","-0.98339844","-0.1640625","1.1875","0.65625","0.9375"
"1574973108665","473","0.2265625","-0.9746094","-0.16796875","1.65625","-2.625","1.5"
"1574973108665","474","0.22851562","-0.95996094","-0.19726562","1.5625","-2.9375","1.4375"
"1574973108665","475","0.23242188","-0.9794922","-0.17773438","0.5625","-1.90625","1.78125"
"1574973108666","476","0.23046875","-0.97265625","-0.17382812","2.46875","-1.09375","2.40625"
"1574973108666","477","0.21777344","-0.97558594","-0.16992188","1.84375","-1.59375","2.65625"
"1574973108666","478","0.22558594","-0.9765625","-0.19140625","4.0","-1.40625","3.375"
"1574973108666","479","0.23339844","-0.9736328","-0.18164062","4.125","-1.84375","4.40625"
"1574973109062","480","0.2265625","-0.96875","-0.16894531","2.46875","-7.40625","3.75"
"1574973109063","481","0.20898438","-0.96191406","-0.171875","1.0","-6.84375","2.03125"
"1574973109063","482","0.21777344","-0.96777344","-0.19335938","-1.5625","-6.125","0.5"
"1574973109063","483","0.22363281","-0.9824219","-0.19433594","-1.8125","-4.21875","1.0625"
"1574973109064","484","0.2109375","-0.9667969","-0.19335938","-10.0625","-5.0625","0.4375"
"1574973109064","485","0.20507812","-0.96777344","-0.19628906","-16.9375","-11.78125","-0.53125"
"1574973109064","486","0.21386719","-0.99609375","-0.22167969","-15.40625","-11.65625","1.5"
"1574973109067","487","0.203125","-0.9267578","-0.18945312","-21.9375","-8.6875","-1.3125"
"1574973109067","488","0.23730469","-0.93066406","-0.22949219","-29.625","-5.0625","-5.40625"
"1574973109068","489","0.25195312","-1.0058594","-0.33203125","-21.78125","-6.71875","-6.15625"
"1574973109460","490","0.24316406","-0.9355469","-0.29101562","-9.1875","-7.34375","-5.40625"
"1574973109461","491","0.20996094","-0.8828125","-0.25097656","-7.71875","-3.59375","-1.6875"
"1574973109461","492","0.20507812","-0.95703125","-0.29101562","-3.34375","0.59375","0.625"
"1574973109462","493","0.23242188","-0.94921875","-0.3095703","5.40625","-3.25","1.5625"
"1574973109463","494","0.23730469","-0.9248047","-0.29882812","8.03125","1.59375","2.34375"
"1574973109463","495","0.21777344","-0.93652344","-0.2763672","11.875","1.40625","2.9375"
"1574973109463","496","0.22363281","-0.9628906","-0.23730469","11.5","2.4375","1.4375"
"1574973109464","497","0.23925781","-0.97265625","-0.28027344","16.4375","-3.125","3.3125"
"1574973109464","498","0.24414062","-0.9765625","-0.2607422","15.34375","-0.875","5.15625"
"1574973109464","499","0.23144531","-0.9921875","-0.19726562","13.625","1.6875","5.75"
"1574973109858","500","0.19140625","-0.9511719","-0.24902344","8.125","-8.5625","0.5625"
"1574973109859","501","0.23339844","-0.9902344","-0.23925781","5.34375","-4.9375","-1.4375"
"1574973109859","502","0.21777344","-0.9951172","-0.23046875","6.90625","-10.1875","1.5"
"1574973109859","503","0.16699219","-0.9121094","-0.18847656","2.03125","-17.59375","-2.59375"
"1574973109860","504","0.25","-0.9238281","-0.26757812","9.53125","-7.75","0.28125"
"1574973109861","505","0.18457031","-0.94433594","-0.18945312","4.96875","0.0","-0.59375"
"1574973109861","506","0.19140625","-0.9013672","-0.23339844","8.5625","2.75","-1.3125"
"1574973109862","507","0.24707031","-0.92578125","-0.22265625","7.84375","9.5625","2.90625"
"1574973109862","508","0.21484375","-0.9589844","-0.21191406","-7.3125","8.84375","-0.46875"
"1574973109862","509","0.30273438","-0.94628906","-0.3486328","15.9375","9.8125","8.625"
"1574973110256","510","0.52734375","-1.2070312","-0.32617188","15.46875","6.46875","34.3125"
"1574973110257","511","0.359375","-1.0439453","-0.28808594","12.28125","39.90625","46.15625"
"1574973110257","512","-0.09472656","-0.8017578","-0.041992188","-39.53125","-36.9375","15.28125"
"1574973110258","513","-0.4814453","-0.63378906","-0.001953125","-19.3125","-8.0625","-67.84375"
"1574973110258","514","0.34375","-0.7763672","-0.22460938","24.625","39.84375","-9.0"
"1574973110258","515","0.8623047","-1.5322266","-0.3408203","-28.84375","4.5","3.4375"
"1574973110258","516","0.265625","-1.2099609","-0.2939453","-26.78125","-32.71875","-28.1875"
"1574973110260","517","0.043945312","-0.7861328","-0.20605469","-23.84375","-18.4375","-3.28125"
"1574973110260","518","0.0107421875","-0.70214844","-0.20605469","-4.25","0.46875","5.34375"
"1574973110260","519","0.3671875","-1.0185547","-0.29003906","8.75","-8.3125","-9.875"
"1574973110849","520","0.3408203","-1.0009766","-0.34179688","-10.59375","-8.375","-9.75"
"1574973110849","521","0.19433594","-0.9658203","-0.29589844","-3.40625","-15.03125","-6.15625"
"1574973110850","522","0.22265625","-0.92578125","-0.2939453","-3.75","-7.4375","-6.5"
"1574973110850","523","0.2763672","-0.9560547","-0.31152344","-7.4375","-3.125","-5.09375"
"1574973110850","524","0.234375","-0.9316406","-0.3173828","1.375","-5.5","-2.0"
"1574973110850","525","0.33984375","-0.94628906","-0.40820312","0.15625","3.78125","-6.3125"
"1574973110851","526","0.3330078","-0.8496094","-0.119140625","-6.9375","15.125","12.40625"
"1574973110851","527","0.022460938","-0.7236328","-0.2685547","-14.875","-11.53125","-23.0"
"1574973110851","528","0.2841797","-1.0283203","-0.3623047","11.3125","-6.59375","-3.40625"
"1574973110853","529","0.30859375","-0.97753906","-0.37402344","2.53125","-0.90625","3.375"
"1574973111049","530","0.22167969","-0.8798828","-0.29492188","-11.9375","-4.34375","-4.3125"
"1574973111049","531","0.29882812","-0.90722656","-0.2734375","-4.3125","6.59375","-5.03125"
"1574973111050","532","0.24316406","-0.90625","-0.30566406","3.8125","-14.15625","-0.53125"
"1574973111050","533","0.27929688","-0.9003906","-0.30664062","-6.5","-3.78125","-5.03125"
"1574973111050","534","0.23925781","-0.9238281","-0.32421875","-6.375","3.03125","-2.125"
"1574973111050","535","0.34375","-0.9433594","-0.33691406","3.875","-0.75","0.75"
"1574973111051","536","0.33398438","-0.9267578","-0.34960938","2.03125","-9.84375","0.3125"
"1574973111051","537","0.24804688","-0.8876953","-0.3154297","-0.40625","-1.96875","-2.53125"
"1574973111051","538","0.27734375","-0.8935547","-0.32128906","-1.4375","-3.0625","-1.75"
"1574973111051","539","0.2919922","-0.9082031","-0.34375","0.09375","-2.6875","-2.40625"
"1574973111645","540","0.32226562","-0.8984375","-0.38964844","7.34375","-2.6875","1.78125"
"1574973111646","541","0.32910156","-0.93652344","-0.35058594","19.84375","-10.03125","4.40625"
"1574973111647","542","0.29492188","-0.89941406","-0.328125","15.71875","-6.34375","10.59375"
"1574973111647","543","0.26953125","-0.9238281","-0.35546875","13.5625","-3.65625","8.125"
"1574973111647","544","0.2783203","-0.96484375","-0.2763672","10.40625","-9.03125","9.78125"
"1574973111647","545","0.21289062","-0.95996094","-0.27441406","0.03125","-9.90625","-2.71875"
"1574973111648","546","0.2548828","-0.89746094","-0.29296875","1.0","-8.0","2.84375"
"1574973111648","547","0.19433594","-0.96191406","-0.3642578","-11.4375","7.0625","-2.25"
"1574973111648","548","0.31835938","-1.0498047","-0.23925781","-12.84375","-2.09375","-3.46875"
"1574973111648","549","0.2529297","-0.8984375","-0.2421875","-11.28125","-12.8125","-6.5625"
"1574973111844","550","0.21191406","-0.83496094","-0.2607422","-17.5625","-4.09375","-19.8125"
"1574973111845","551","0.32617188","-1.0351562","-0.37597656","-25.0625","-6.96875","-22.75"
"1574973111845","552","0.5234375","-1.0253906","-0.5673828","-1.5625","-13.75","-10.96875"
"1574973111847","553","0.45507812","-0.5419922","-0.40527344","4.53125","-36.9375","4.0625"
"1574973111847","554","0.08691406","-0.6972656","-0.31054688","13.03125","-12.53125","5.8125"
"1574973111847","555","-0.22558594","-0.80859375","-0.140625","-30.625","33.4375","14.0625"
"1574973111848","556","0.25195312","-1.0771484","-0.54785156","67.65625","25.1875","-17.875"
"1574973111848","557","1.1005859","-1.0898438","-0.5449219","28.59375","10.90625","8.1875"
"1574973111848","558","0.27441406","-0.95214844","-0.27539062","-62.96875","-37.96875","28.71875"
"1574973111848","559","-0.15136719","-0.5449219","-0.18164062","-1.5","-8.84375","-6.6875"
"1574973112243","560","0.23144531","-0.94140625","-0.28125","18.6875","28.25","-20.96875"
"1574973112243","561","0.5595703","-1.0830078","-0.51171875","16.5625","-2.4375","-6.5625"
"1574973112243","562","0.5097656","-0.94921875","-0.37597656","-31.21875","-20.5625","11.4375"
"1574973112244","563","0.09863281","-0.68652344","-0.21386719","-10.15625","-7.09375","-4.6875"
"1574973112244","564","0.171875","-0.83203125","-0.37402344","9.125","-0.125","-18.40625"
"1574973112245","565","0.51464844","-1.0400391","-0.46875","-9.5625","-7.40625","-9.5625"
"1574973112246","566","0.33984375","-0.84277344","-0.359375","-14.25","-10.75","-5.21875"
"1574973112246","567","0.21679688","-0.8417969","-0.33203125","-4.5","-4.65625","-3.53125"
"1574973112246","568","0.32226562","-0.921875","-0.4033203","1.3125","-5.3125","-4.3125"
"1574973112246","569","0.36816406","-0.88964844","-0.39160156","-3.09375","-3.0","-1.5625"
"1574973112836","570","0.3173828","-0.8408203","-0.3779297","-4.0","-6.96875","-1.9375"
"1574973112837","571","0.2861328","-0.8691406","-0.39453125","-0.59375","-0.1875","-2.71875"
"1574973112837","572","0.3095703","-0.88378906","-0.42578125","-1.375","-1.46875","-1.375"
"1574973112837","573","0.36132812","-0.88183594","-0.39941406","-3.59375","-3.5","-1.8125"
"1574973112838","574","0.3232422","-0.8671875","-0.390625","-4.6875","-3.84375","-0.90625"
"1574973112838","575","0.3232422","-0.8642578","-0.41796875","2.40625","-3.84375","-0.09375"
"1574973112838","576","0.3466797","-0.8886719","-0.3984375","-0.96875","-3.4375","0.5625"
"1574973112840","577","0.34179688","-0.859375","-0.43164062","0.9375","-5.625","1.0625"
"1574973112840","578","0.3564453","-0.8408203","-0.40429688","-0.15625","-4.78125","0.75"
"1574973112840","579","0.36621094","-0.8828125","-0.421875","2.53125","-5.8125","1.1875"
"1574973113038","580","0.3173828","-0.87109375","-0.42285156","9.25","-8.90625","6.0"
"1574973113038","581","0.32128906","-0.8613281","-0.41601562","13.28125","-5.75","8.875"
"1574973113039","582","0.32421875","-0.8701172","-0.39160156","6.3125","-6.15625","6.96875"
"1574973113039","583","0.23730469","-0.8232422","-0.37304688","16.875","-4.875","7.15625"
"1574973113039","584","0.3125","-0.8125","-0.375","29.5","2.4375","14.96875"
"1574973113039","585","0.38964844","-0.9560547","-0.3671875","27.3125","0.78125","9.59375"
"1574973113040","586","0.35058594","-0.9970703","-0.36523438","7.09375","0.96875","11.125"
"1574973113040","587","0.22460938","-0.89746094","-0.38476562","9.96875","-2.6875","2.40625"
"1574973113040","588","0.27539062","-0.8964844","-0.2890625","9.65625","-9.34375","1.78125"
"1574973113042","589","0.27148438","-0.9013672","-0.3125","1.90625","7.6875","6.8125"
"1574973113435","590","0.26367188","-0.9033203","-0.34570312","10.65625","0.59375","3.9375"
"1574973113436","591","0.34277344","-0.9472656","-0.33496094","9.3125","3.65625","8.3125"
"1574973113436","592","0.2841797","-0.875","-0.29882812","7.21875","-0.375","8.4375"
"1574973113436","593","0.24804688","-0.90234375","-0.3232422","0.75","-0.3125","4.34375"
"1574973113437","594","0.3125","-0.9550781","-0.32421875","5.21875","0.53125","5.15625"
"1574973113437","595","0.2626953","-0.92871094","-0.29296875","-1.6875","-3.25","4.0625"
"1574973113437","596","0.2607422","-0.9140625","-0.33789062","-3.8125","0.25","-3.28125"
"1574973113437","597","0.28125","-0.9316406","-0.375","-10.96875","7.5","-0.90625"
"1574973113438","598","0.2705078","-1.0332031","-0.38476562","-23.40625","34.0","-16.21875"
"1574973113438","599","0.42089844","-0.9003906","-0.171875","-53.125","43.5","-15.71875"
"1574973113833","600","0.140625","-0.6113281","-0.21875","-36.84375","19.59375","-20.375"
"1574973113834","601","0.39746094","-0.9248047","-0.546875","34.25","-4.8125","2.59375"
"1574973113834","602","0.42871094","-1.1259766","-0.46289062","18.40625","-14.21875","10.34375"
"1574973113834","603","0.42285156","-0.75","-0.31933594","-1.125","-14.28125","4.96875"
"1574973113834","604","0.35058594","-0.75390625","-0.30859375","11.0","-2.8125","14.625"
"1574973113835","605","0.14941406","-0.9746094","-0.35058594","9.71875","3.03125","13.5625"
"1574973113835","606","0.3125","-0.92871094","-0.4248047","-4.5","18.5","2.65625"
"1574973113835","607","0.43359375","-0.8701172","-0.36328125","10.21875","-11.84375","7.34375"
"1574973113835","608","0.28222656","-0.9345703","-0.28710938","6.8125","-11.3125","3.5625"
"1574973113836","609","0.21679688","-0.92871094","-0.28710938","-6.4375","4.4375","1.0625"
"1574973114229","610","0.30078125","-0.85253906","-0.3388672","-1.125","1.21875","2.34375"
"1574973114229","611","0.33398438","-0.9375","-0.38964844","11.1875","-8.25","3.875"
"1574973114230","612","0.3154297","-0.9785156","-0.3408203","8.4375","-11.84375","2.71875"
"1574973114231","613","0.2919922","-0.8623047","-0.2998047","1.0","-2.3125","3.25"
"1574973114231","614","0.28027344","-0.875","-0.3408203","7.34375","-0.125","4.78125"
"1574973114231","615","0.22363281","-0.9345703","-0.31445312","3.0625","0.59375","1.5625"
"1574973114232","616","0.3125","-0.89941406","-0.33398438","4.0","3.34375","4.0"
"1574973114232","617","0.2939453","-0.9345703","-0.33398438","1.375","3.96875","1.125"
"1574973114232","618","0.3330078","-0.9453125","-0.32617188","2.15625","1.40625","5.15625"
"1574973114232","619","0.31933594","-0.8642578","-0.2919922","0.75","-4.53125","6.625"
"1574973115023","620","0.2685547","-0.9472656","-0.32714844","6.75","1.03125","4.71875"
"1574973115023","621","0.29003906","-0.9394531","-0.35742188","10.65625","2.6875","3.6875"
"1574973115023","622","0.3076172","-0.85058594","-0.2861328","6.96875","-3.4375","4.34375"
"1574973115024","623","0.31054688","-0.8652344","-0.3046875","14.1875","-6.0625","6.125"
"1574973115024","624","0.2763672","-0.9472656","-0.33398438","16.875","-7.5","10.53125"
"1574973115026","625","0.21582031","-0.9238281","-0.42285156","15.9375","0.375","9.25"
"1574973115027","626","0.40527344","-1.0107422","-0.26953125","-10.53125","7.875","4.34375"
"1574973115027","627","0.24414062","-1.1259766","-0.16699219","-40.9375","-1.53125","-25.90625"
"1574973115028","628","0.19726562","-0.9814453","-0.26660156","-20.71875","-12.21875","-22.625"
"1574973115028","629","0.18554688","-0.77246094","-0.18554688","-8.28125","-1.96875","-7.59375"
"1574973115028","630","0.3095703","-0.8408203","-0.23632812","-8.53125","-7.75","-2.125"
"1574973115029","631","0.45117188","-0.9736328","-0.36328125","13.9375","-7.40625","-0.78125"
"1574973115029","632","0.2919922","-0.89746094","-0.3701172","12.40625","-17.78125","9.0625"
"1574973115032","633","0.20507812","-0.8466797","-0.36914062","22.0","-16.71875","17.40625"
"1574973115033","634","0.27539062","-0.9267578","-0.359375","-1.3125","-9.65625","0.5625"
"1574973115033","635","0.39160156","-0.96777344","-0.3984375","7.59375","-3.90625","5.34375"
"1574973115034","636","0.24707031","-0.9169922","-0.35351562","9.125","-3.84375","8.875"
"1574973115036","637","0.17089844","-0.85839844","-0.32421875","3.1875","-0.4375","6.625"
"1574973115036","638","0.16503906","-0.95214844","-0.3173828","-6.4375","-1.53125","-2.28125"
"1574973115037","639","0.32617188","-1.0058594","-0.28710938","-4.5","4.15625","5.21875"
"1574973115423","640","0.30371094","-0.9589844","-0.27441406","-15.125","2.4375","-2.53125"
"1574973115423","641","0.27734375","-0.93359375","-0.30078125","-6.03125","-3.375","-0.84375"
"1574973115424","642","0.25390625","-0.9111328","-0.31835938","-14.625","-4.875","-2.40625"
"1574973115424","643","0.25976562","-0.90625","-0.30371094","-21.78125","-6.40625","-10.15625"
"1574973115424","644","0.28320312","-0.84472656","-0.39453125","-3.9375","-9.78125","-7.125"
"1574973115424","645","0.359375","-0.87597656","-0.3955078","1.0625","-0.375","7.21875"
"1574973115424","646","0.3359375","-0.9189453","-0.4267578","12.59375","-0.5","11.625"
"1574973115425","647","0.20996094","-0.8886719","-0.3935547","11.6875","-1.15625","7.65625"
"1574973115425","648","0.19042969","-0.8642578","-0.359375","9.59375","-1.78125","6.84375"
"1574973115426","649","0.2763672","-0.93652344","-0.36914062","5.53125","6.28125","8.5"
"1574973116215","650","0.29296875","-0.953125","-0.33398438","0.625","8.96875","7.84375"
"1574973116215","651","0.25683594","-0.9091797","-0.33691406","1.84375","4.4375","5.03125"
"1574973116215","652","0.27148438","-0.9433594","-0.3125","-1.875","0.3125","4.46875"
"1574973116216","653","0.31445312","-0.92578125","-0.31640625","-2.34375","-2.4375","-1.4375"
"1574973116216","654","0.28027344","-0.90722656","-0.3173828","2.84375","-4.46875","-2.46875"
"1574973116216","655","0.25976562","-0.90527344","-0.328125","-1.0","-7.15625","-4.375"
"1574973116217","656","0.29589844","-0.9326172","-0.3408203","2.28125","-10.375","-4.875"
"1574973116217","657","0.2626953","-0.91308594","-0.32910156","8.09375","-13.9375","-3.15625"
"1574973116217","658","0.26953125","-0.90527344","-0.328125","7.46875","-12.59375","-0.03125"
"1574973116217","659","0.23828125","-0.93652344","-0.34472656","9.4375","-12.46875","0.03125"
"1574973116414","660","0.23046875","-0.90722656","-0.31347656","6.90625","-13.0625","-0.84375"
"1574973116415","661","0.26464844","-0.9169922","-0.33984375","7.46875","-6.21875","0.28125"
"1574973116416","662","0.23828125","-0.9423828","-0.33984375","7.09375","-4.21875","0.4375"
"1574973116416","663","0.21777344","-0.9433594","-0.32421875","2.03125","-3.0","-3.46875"
"1574973116416","664","0.2421875","-0.921875","-0.32421875","1.65625","-0.3125","-2.96875"
"1574973116417","665","0.2919922","-0.9248047","-0.3095703","4.78125","1.15625","1.0625"
"1574973116417","666","0.3232422","-0.96191406","-0.2705078","7.78125","-6.40625","4.1875"
"1574973116417","667","0.234375","-0.91308594","-0.3017578","9.1875","-11.53125","6.0625"
"1574973116417","668","0.18847656","-0.88378906","-0.31445312","1.4375","-6.53125","1.3125"
"1574973116418","669","0.23925781","-0.9003906","-0.3408203","2.28125","-1.59375","1.65625"
"1574973116614","670","0.2998047","-0.87109375","-0.35351562","5.46875","9.6875","5.15625"
"1574973116614","671","0.35351562","-0.9394531","-0.38867188","21.5625","22.9375","14.0"
"1574973116615","672","0.37402344","-1.0595703","-0.34960938","32.75","16.96875","29.875"
"1574973116616","673","0.21679688","-0.9189453","-0.24121094","-3.46875","-1.34375","22.375"
"1574973116616","674","0.021484375","-0.9267578","-0.1171875","-23.65625","-9.40625","-11.40625"
"1574973116617","675","0.09277344","-0.9472656","-0.29296875","1.5","-46.09375","-28.34375"
"1574973116617","676","0.24316406","-0.796875","-0.26367188","-20.84375","33.5","-13.84375"
"1574973116617","677","0.43066406","-1.1582031","-0.4033203","-0.15625","6.9375","-7.125"
"1574973116617","678","0.5048828","-1.0419922","-0.29003906","2.21875","-24.0","7.71875"
"1574973116618","679","0.17675781","-0.7636719","-0.2529297","-2.40625","-21.0625","-5.59375"
"1574973117207","680","0.034179688","-0.7753906","-0.2783203","0.28125","-6.71875","-1.875"
"1574973117208","681","0.21679688","-1.0703125","-0.33496094","-6.4375","0.84375","-0.53125"
"1574973117208","682","0.4375","-1.0419922","-0.3232422","2.34375","-12.28125","2.46875"
"1574973117208","683","0.28027344","-0.8798828","-0.27539062","-9.125","-7.09375","-2.40625"
"1574973117209","684","0.15234375","-0.8388672","-0.34765625","6.6875","-10.4375","-1.5625"
"1574973117210","685","0.21777344","-0.92285156","-0.3076172","-14.8125","0.96875","-11.34375"
"1574973117210","686","0.32421875","-1.0097656","-0.34179688","-12.5","2.6875","-14.75"
"1574973117211","687","0.30859375","-0.9638672","-0.31054688","-7.3125","-8.96875","-1.3125"
"1574973117211","688","0.21679688","-0.8388672","-0.3359375","-12.1875","-5.375","-9.125"
"1574973117211","689","0.23535156","-0.86816406","-0.3642578","-2.59375","2.75","-6.4375"
"1574973117410","690","0.3330078","-0.9189453","-0.39648438","1.1875","5.0","-1.1875"
"1574973117411","691","0.38867188","-0.9169922","-0.39453125","12.78125","-8.25","3.8125"
"1574973117411","692","0.31835938","-0.8701172","-0.30566406","6.125","-18.9375","-0.53125"
"1574973117411","693","0.20996094","-0.8828125","-0.3466797","-0.46875","-14.34375","-6.03125"
"1574973117411","694","0.27441406","-0.9423828","-0.3203125","-5.78125","-3.5","-9.25"
"1574973117412","695","0.30664062","-1.0","-0.3671875","-4.875","-2.75","-2.46875"
"1574973117412","696","0.23046875","-0.89746094","-0.35839844","-8.59375","-11.71875","-7.25"
"1574973117413","697","0.23828125","-0.828125","-0.3544922","-12.90625","-1.78125","-11.9375"
"1574973117414","698","0.32128906","-0.87890625","-0.3623047","-1.0","0.3125","1.65625"
"1574973117414","699","0.31347656","-0.9160156","-0.3955078","9.0625","-3.3125","7.21875"
"1574973117808","700","0.3046875","-0.90234375","-0.38183594","1.375","-6.21875","0.875"
"1574973117809","701","0.25683594","-0.85058594","-0.36035156","-1.6875","-3.84375","-6.4375"
"1574973117809","702","0.2841797","-0.89941406","-0.3955078","4.90625","-0.0625","-4.8125"
"1574973117809","703","0.30664062","-0.9121094","-0.34960938","2.34375","-0.5","-2.71875"
"1574973117810","704","0.32714844","-0.88964844","-0.36523438","4.78125","-9.84375","0.03125"
"1574973117810","705","0.3173828","-0.9003906","-0.37402344","3.4375","-7.6875","-0.53125"
"1574973117810","706","0.26660156","-0.95996094","-0.36523438","-3.40625","-2.09375","-5.03125"
"1574973117810","707","0.26660156","-0.9091797","-0.3623047","-4.3125","-3.0","-1.0"
"1574973117811","708","0.31054688","-0.8779297","-0.36328125","0.03125","2.8125","1.5"
"1574973117812","709","0.3203125","-0.87402344","-0.3515625","5.8125","-0.375","0.625"
"1574973118204","710","0.2998047","-0.8515625","-0.38085938","4.46875","0.78125","-12.375"
"1574973118204","711","0.37109375","-0.87109375","-0.47753906","21.15625","-3.71875","-17.0625"
"1574973118205","712","0.42773438","-0.89160156","-0.37597656","-3.28125","-4.28125","-18.65625"
"1574973118205","713","0.24609375","-0.8925781","-0.21777344","-15.1875","-4.78125","-16.875"
"1574973118205","714","0.21679688","-0.7753906","-0.31640625","12.46875","-1.21875","-2.25"
"1574973118205","715","0.42089844","-0.8828125","-0.4013672","29.125","8.53125","-6.15625"
"1574973118206","716","0.62402344","-1.0664062","-0.48535156","-6.6875","-5.4375","-5.03125"
"1574973118206","717","0.328125","-1.0273438","-0.36035156","-21.65625","-4.53125","4.78125"
"1574973118206","718","0.22851562","-0.6875","-0.27539062","1.125","-1.96875","22.375"
"1574973118206","719","0.3076172","-0.7363281","-0.27539062","11.375","1.46875","-3.75"
"1574973118602","720","0.43164062","-0.98046875","-0.4111328","1.96875","0.125","-11.34375"
"1574973118603","721","0.4091797","-0.9814453","-0.4326172","-3.09375","-2.8125","-0.53125"
"1574973118604","722","0.3544922","-0.8222656","-0.32226562","-0.59375","-10.0625","5.09375"
"1574973118604","723","0.3232422","-0.8417969","-0.31640625","1.1875","-7.28125","-0.40625"
"1574973118604","724","0.34277344","-0.8984375","-0.3623047","1.5","-5.4375","-4.0625"
"1574973118604","725","0.36914062","-0.88964844","-0.3798828","4.28125","-5.375","-1.4375"
"1574973118605","726","0.33984375","-0.8847656","-0.35253906","2.78125","-7.9375","0.9375"
"1574973118607","727","0.3232422","-0.87109375","-0.34375","-0.40625","-3.65625","0.625"
"1574973118607","728","0.3515625","-0.8798828","-0.36132812","2.15625","-2.9375","1.125"
"1574973118608","729","0.33007812","-0.8876953","-0.36914062","1.375","-4.15625","1.125"
"1574973119001","730","0.3515625","-0.88964844","-0.3466797","3.3125","-0.90625","1.125"
"1574973119001","731","0.3564453","-0.8828125","-0.35351562","2.46875","0.0625","4.59375"
"1574973119001","732","0.31933594","-0.88183594","-0.36132812","4.53125","-0.625","4.28125"
"1574973119003","733","0.33984375","-0.88378906","-0.3623047","6.125","0.71875","2.65625"
"1574973119003","734","0.35253906","-0.88671875","-0.36328125","5.40625","0.125","3.875"
"1574973119003","735","0.3330078","-0.8798828","-0.34960938","1.25","0.65625","3.75"
"1574973119004","736","0.35058594","-0.88183594","-0.36035156","7.46875","0.0","4.71875"
"1574973119004","737","0.36523438","-0.8857422","-0.3466797","3.0","0.65625","5.625"
"1574973119004","738","0.34960938","-0.890625","-0.34765625","1.0625","-1.71875","4.90625"
"1574973119004","739","0.34375","-0.8964844","-0.35546875","0.28125","-2.3125","3.5625"
"1574973119399","740","0.3671875","-0.90722656","-0.36621094","2.46875","-2.03125","4.96875"
"1574973119399","741","0.33496094","-0.9013672","-0.3486328","-5.28125","-0.8125","4.65625"
"1574973119400","742","0.29785156","-0.83496094","-0.3251953","-0.53125","1.03125","4.59375"
"1574973119400","743","0.3095703","-0.8232422","-0.33496094","0.03125","8.125","5.46875"
"1574973119400","744","0.37695312","-0.9248047","-0.38867188","15.90625","6.03125","9.78125"
"1574973119401","745","0.3232422","-0.9589844","-0.359375","-6.6875","7.75","12.84375"
"1574973119402","746","0.2685547","-0.8173828","-0.36132812","-9.125","8.53125","-2.96875"
"1574973119402","747","0.42871094","-0.9267578","-0.4013672","21.6875","-0.125","12.90625"
"1574973119402","748","0.33496094","-0.8876953","-0.3330078","-6.03125","13.65625","7.03125"
"1574973119403","749","0.2890625","-0.890625","-0.27148438","10.59375","-4.03125","9.59375"
"1574973119795","750","0.25683594","-0.79296875","-0.22851562","12.90625","1.03125","8.125"
"1574973119795","751","0.34375","-1.0605469","-0.20703125","-29.15625","12.875","-16.28125"
"1574973119796","752","0.4482422","-0.9375","-0.51660156","19.25","-35.15625","-15.90625"
"1574973119796","753","0.3408203","-0.7714844","-0.3544922","27.96875","-7.5625","26.34375"
"1574973119796","754","0.12597656","-0.81933594","-0.22070312","-20.3125","8.96875","-3.9375"
"1574973119796","755","0.27539062","-0.921875","-0.28320312","3.375","-2.9375","1.0"
"1574973119797","756","0.45410156","-0.98535156","-0.37402344","8.25","-7.09375","5.9375"
"1574973119798","757","0.28710938","-0.9277344","-0.30371094","-11.5625","1.875","-7.90625"
"1574973119798","758","0.265625","-0.8857422","-0.31054688","-7.1875","1.34375","-5.96875"
"1574973119799","759","0.3125","-0.9169922","-0.2919922","-3.75","1.8125","-0.59375"
"1574973120193","760","0.33203125","-0.890625","-0.31933594","-12.96875","8.90625","-13.71875"
"1574973120194","761","0.32128906","-0.8925781","-0.30664062","-6.1875","8.96875","-4.8125"
"1574973120194","762","0.35351562","-0.92285156","-0.38867188","-10.78125","13.53125","-5.96875"
"1574973120194","763","0.4091797","-0.8378906","-0.40039062","1.0","7.125","2.90625"
"1574973120195","764","0.36523438","-0.828125","-0.24414062","6.25","-6.78125","12.09375"
"1574973120195","765","0.1875","-0.9082031","-0.33984375","-0.40625","21.84375","-3.875"
"1574973120195","766","0.37890625","-0.8828125","-0.25390625","-38.25","50.96875","-6.1875"
"1574973120195","767","0.4765625","-0.8701172","-0.359375","11.6875","9.5","19.25"
"1574973120196","768","0.33984375","-0.8828125","-0.16894531","-18.15625","-13.75","-10.59375"
"1574973120197","769","0.38867188","-0.8125","-0.4013672","29.625","-32.46875","14.625"
"1574973120590","770","0.37695312","-0.94628906","-0.39648438","21.6875","-32.78125","21.09375"
"1574973120590","771","0.27929688","-0.9873047","-0.3515625","19.84375","-5.25","16.9375"
"1574973120591","772","0.18261719","-0.78808594","-0.35839844","28.71875","-1.09375","12.21875"
"1574973120591","773","0.5234375","-0.78125","-0.2890625","24.5625","-4.21875","22.1875"
"1574973120591","774","0.3310547","-0.98828125","-0.23828125","3.0","-10.5","19.5625"
"1574973120591","775","0.25878906","-1.0634766","-0.36132812","13.4375","-16.0","-1.4375"
"1574973120592","776","0.19824219","-0.9238281","-0.2841797","4.1875","-13.875","0.875"
"1574973120592","777","0.20898438","-0.8027344","-0.23632812","4.1875","-3.375","-1.0625"
"1574973120592","778","0.3076172","-0.8769531","-0.2939453","12.34375","-2.3125","1.78125"
"1574973120592","779","0.37597656","-1.0322266","-0.3466797","7.15625","7.5","7.53125"
"1574973121184","780","0.3798828","-0.85546875","-0.3486328","30.53125","0.46875","10.53125"
"1574973121185","781","0.26953125","-0.7480469","-0.29296875","42.3125","-16.96875","31.40625"
"1574973121185","782","0.23339844","-1.0595703","-0.16308594","-36.59375","23.6875","2.46875"
"1574973121185","783","0.32617188","-1.5283203","-0.34960938","-20.0","-1.46875","-58.6875"
"1574973121186","784","0.37695312","-0.82128906","-0.16992188","3.4375","-56.34375","-11.5625"
"1574973121186","785","0.061523438","-0.37890625","-0.056640625","22.125","11.78125","-5.53125"
"1574973121186","786","0.1484375","-0.79003906","-0.17285156","-20.0625","3.34375","0.09375"
"1574973121186","787","0.64746094","-1.3125","-0.4326172","14.4375","-16.375","10.15625"
"1574973121186","788","0.3984375","-1.0087891","-0.3310547","23.15625","-6.90625","6.75"
"1574973121186","789","0.103515625","-0.7470703","-0.17285156","17.53125","-5.9375","8.3125"
"1574973121584","790","0.14648438","-0.8339844","-0.2734375","1.0625","-5.8125","13.09375"
"1574973121584","791","0.38867188","-1.1044922","-0.32128906","5.03125","-3.375","5.28125"
"1574973121585","792","0.24707031","-1.0019531","-0.31054688","9.53125","1.40625","2.90625"
"1574973121586","793","0.16015625","-0.9013672","-0.23632812","-1.75","-2.375","0.4375"
"1574973121586","794","0.29492188","-0.94921875","-0.22070312","-13.84375","8.1875","-0.46875"
"1574973121587","795","0.359375","-0.9892578","-0.25878906","-6.625","5.96875","5.09375"
"1574973121587","796","0.26464844","-0.9199219","-0.23046875","-2.90625","1.28125","2.28125"
"1574973121587","797","0.2763672","-0.92285156","-0.23828125","4.125","-6.0","4.53125"
"1574973121587","798","0.24902344","-0.9404297","-0.23144531","2.9375","-0.5","6.0"
"1574973121588","799","0.28710938","-0.97558594","-0.25585938","4.96875","2.375","1.4375"
"1574973121782","800","0.2890625","-0.9638672","-0.28515625","13.28125","-2.8125","3.9375"
"1574973121782","801","0.28320312","-0.93359375","-0.19238281","5.75","-5.625","6.5625"
"1574973121782","802","0.25585938","-0.9160156","-0.18847656","10.21875","-4.40625","9.65625"
"1574973121782","803","0.2421875","-0.9746094","-0.21679688","9.4375","3.96875","10.21875"
"1574973121783","804","0.22753906","-1.0009766","-0.23535156","-2.25","-7.625","5.40625"
"1574973121783","805","0.24902344","-0.96777344","-0.19726562","-10.90625","-7.09375","2.21875"
"1574973121784","806","0.21386719","-0.953125","-0.22460938","-8.21875","-4.8125","-3.6875"
"1574973121784","807","0.2529297","-0.95996094","-0.22558594","7.84375","-4.34375","0.15625"
"1574973121784","808","0.23339844","-0.95410156","-0.21289062","4.90625","-4.21875","0.5"
"1574973121785","809","0.2421875","-0.94921875","-0.24023438","7.96875","-0.1875","1.78125"
"1574973122179","810","0.23632812","-0.9423828","-0.22460938","1.96875","3.09375","2.9375"
"1574973122180","811","0.25390625","-0.9472656","-0.23632812","5.34375","2.4375","5.875"
"1574973122180","812","0.24609375","-0.9716797","-0.21484375","0.15625","5.90625","5.03125"
"1574973122180","813","0.22949219","-0.9628906","-0.20507812","-2.0","2.4375","1.3125"
"1574973122180","814","0.21875","-0.93652344","-0.21191406","-0.96875","0.84375","-0.03125"
"1574973122180","815","0.22753906","-0.95214844","-0.22851562","-5.09375","-1.78125","-6.1875"
"1574973122181","816","0.26171875","-0.9736328","-0.20898438","-3.09375","-0.875","-3.34375"
"1574973122182","817","0.24609375","-0.9667969","-0.23339844","-5.34375","-4.28125","-6.3125"
"1574973122182","818","0.26953125","-0.9580078","-0.23632812","3.8125","-8.0","1.0625"
"1574973122182","819","0.2607422","-0.890625","-0.22460938","-0.71875","-2.5625","6.1875"
"1574973122578","820","0.25585938","-0.9355469","-0.18457031","-5.78125","14.34375","6.8125"
"1574973122578","821","0.33007812","-1.0927734","-0.2763672","-4.96875","24.96875","16.0625"
"1574973122579","822","0.21386719","-0.9160156","-0.31933594","20.21875","-14.53125","16.5"
"1574973122579","823","0.05859375","-0.93359375","-0.109375","12.09375","-33.21875","-0.96875"
"1574973122579","824","0.16015625","-0.8222656","-0.19433594","-6.9375","0.1875","0.28125"
"1574973122579","825","0.22851562","-0.9453125","-0.2783203","6.125","7.25","2.71875"
"1574973122580","826","0.38671875","-1.2041016","-0.2421875","-9.9375","-11.1875","-5.15625"
"1574973122580","827","0.26464844","-1.0419922","-0.19042969","-6.4375","-19.40625","-7.96875"
"1574973122580","828","0.047851562","-0.82714844","-0.1953125","0.6875","-7.5625","-7.1875"
"1574973122581","829","0.16894531","-0.8886719","-0.21191406","-2.125","5.125","-0.46875"
"1574973122974","830","0.390625","-0.9941406","-0.31152344","-5.28125","-2.3125","-4.875"
"1574973122974","831","0.35839844","-0.9902344","-0.22265625","-10.0625","4.5625","-5.15625"
"1574973122974","832","0.19726562","-0.94140625","-0.2626953","-12.25","-0.625","-8.03125"
"1574973122975","833","0.21777344","-0.9394531","-0.28125","-9.9375","-2.4375","-11.8125"
"1574973122975","834","0.28710938","-0.94921875","-0.29296875","-22.5625","4.875","-16.875"
"1574973122975","835","0.28320312","-0.95214844","-0.29785156","-34.28125","6.03125","-17.8125"
"1574973122975","836","0.2861328","-0.8671875","-0.2998047","-13.84375","4.15625","-1.3125"
"1574973122976","837","0.30859375","-0.9111328","-0.3046875","-4.6875","-3.90625","-0.21875"
"1574973122976","838","0.24609375","-0.9238281","-0.3408203","-17.90625","-6.0625","-13.15625"
"1574973122976","839","0.28222656","-0.8779297","-0.29003906","-13.53125","7.3125","-6.6875"
"1574973123373","840","0.37695312","-0.9433594","-0.32910156","5.28125","-3.78125","11.4375"
"1574973123375","841","0.3017578","-0.9238281","-0.38085938","-6.25","-6.34375","1.96875"
"1574973123375","842","0.24609375","-0.86621094","-0.3173828","-13.59375","2.3125","-14.9375"
"1574973123375","843","0.3310547","-0.8613281","-0.36621094","2.28125","-1.65625","-2.0"
"1574973123375","844","0.3798828","-0.921875","-0.3720703","16.1875","-4.65625","7.59375"
"1574973123376","845","0.2939453","-0.89746094","-0.3544922","-3.15625","-5.9375","3.8125"
"1574973123376","846","0.28515625","-0.87597656","-0.3173828","-10.34375","-5.75","-3.59375"
"1574973123376","847","0.3076172","-0.94140625","-0.3408203","2.84375","-5.5","-0.03125"
"1574973123376","848","0.24414062","-0.921875","-0.3515625","-1.5625","3.0","-1.1875"
"1574973123377","849","0.3125","-0.8876953","-0.36035156","2.65625","-0.4375","5.34375"
"1574973123770","850","0.36816406","-0.93652344","-0.36914062","7.21875","-4.40625","7.84375"
"1574973123770","851","0.29785156","-0.90625","-0.34179688","-6.15625","-5.6875","-5.46875"
"1574973123771","852","0.23046875","-0.86328125","-0.3388672","-3.6875","0.0625","-8.40625"
"1574973123772","853","0.26953125","-0.9169922","-0.35546875","1.96875","5.90625","0.15625"
"1574973123772","854","0.34765625","-0.87402344","-0.33789062","8.1875","4.03125","7.59375"
"1574973123772","855","0.38671875","-0.8388672","-0.37695312","14.375","-7.875","10.75"
"1574973123773","856","0.38671875","-1.0224609","-0.36914062","-10.59375","-8.96875","-3.21875"
"1574973123773","857","0.24121094","-0.90625","-0.32421875","-15.96875","-9.03125","-20.5"
"1574973123773","858","0.20703125","-0.83691406","-0.30859375","-1.4375","0.125","1.78125"
"1574973123773","859","0.26757812","-0.87890625","-0.41796875","15.71875","2.0","8.3125"
"1574973124166","860","0.4609375","-0.9746094","-0.37402344","-8.65625","-1.03125","-0.65625"
"1574973124167","861","0.3798828","-0.88964844","-0.33984375","-8.40625","-8.1875","-3.875"
"1574973124167","862","0.23242188","-0.8486328","-0.32910156","0.8125","-11.90625","3.125"
"1574973124167","863","0.2763672","-0.8955078","-0.38867188","1.96875","-1.90625","1.125"
"1574973124168","864","0.36816406","-0.9296875","-0.40234375","-2.25","-5.6875","0.875"
"1574973124169","865","0.3330078","-0.91015625","-0.3251953","-7.78125","-3.0625","0.3125"
"1574973124169","866","0.29101562","-0.859375","-0.37695312","8.75","-6.78125","-2.71875"
"1574973124169","867","0.32128906","-0.8847656","-0.40722656","1.90625","-0.125","1.125"
"1574973124169","868","0.30273438","-0.9111328","-0.33691406","-4.0625","-4.78125","1.0"
"1574973124170","869","0.3310547","-0.88183594","-0.359375","11.0","-10.03125","-0.90625"
"1574973124565","870","0.32226562","-0.89453125","-0.3515625","-6.5","-4.34375","-2.46875"
"1574973124566","871","0.32421875","-0.94433594","-0.38378906","8.09375","-7.875","-1.75"
"1574973124566","872","0.3232422","-0.8886719","-0.38476562","7.21875","-7.34375","4.0625"
"1574973124566","873","0.2607422","-0.86816406","-0.38378906","8.8125","-2.8125","4.59375"
"1574973124566","874","0.28515625","-0.8828125","-0.34960938","9.90625","0.3125","4.0"
"1574973124567","875","0.31054688","-0.9169922","-0.36621094","6.5","0.25","1.90625"
"1574973124567","876","0.28710938","-0.91308594","-0.34570312","4.46875","1.03125","0.6875"
"1574973124568","877","0.29101562","-0.890625","-0.33398438","1.4375","-4.9375","-0.40625"
"1574973124569","878","0.33691406","-0.890625","-0.3203125","1.0625","-8.5","-0.34375"
"1574973124569","879","0.33984375","-0.9169922","-0.34277344","2.21875","-8.0625","-1.875"
"1574973124963","880","0.31152344","-0.90625","-0.37597656","-0.53125","-10.375","-3.34375"
"1574973124963","881","0.3046875","-0.9042969","-0.36132812","-2.25","-8.4375","-0.90625"
"1574973124964","882","0.3046875","-0.8798828","-0.36132812","1.0625","-6.78125","-2.28125"
"1574973124964","883","0.31445312","-0.86035156","-0.36816406","4.59375","-4.09375","0.4375"
"1574973124964","884","0.3310547","-0.9111328","-0.36328125","7.09375","-2.875","1.375"
"1574973124964","885","0.33496094","-0.9003906","-0.35546875","9.4375","-3.0","1.96875"
"1574973124965","886","0.31054688","-0.88378906","-0.33496094","5.8125","-5.5625","2.09375"
"1574973124965","887","0.2939453","-0.91308594","-0.40039062","11.5625","-1.46875","-1.375"
"1574973124965","888","0.34960938","-0.9482422","-0.42285156","8.1875","-4.28125","7.21875"
"1574973124966","889","0.2890625","-0.8125","-0.26464844","9.0625","-1.84375","18.625"
"1574973125556","890","0.21972656","-0.73339844","-0.17285156","12.53125","-0.375","21.8125"
"1574973125557","891","0.2109375","-0.74316406","-0.32714844","25.46875","8.90625","1.625"
"1574973125557","892","0.4716797","-1.265625","-0.4423828","35.1875","8.34375","-5.46875"
"1574973125557","893","0.4267578","-1.4804688","-0.15917969","-28.78125","-4.78125","-34.9375"
"1574973125558","894","0.3017578","-0.8886719","-0.3017578","15.34375","-48.15625","-10.0"
"1574973125558","895","0.2861328","-0.56347656","-0.32910156","32.875","1.8125","29.875"
"1574973125558","896","0.25390625","-0.8642578","-0.24511719","7.90625","0.375","8.625"
"1574973125558","897","0.3251953","-1.1035156","-0.40039062","3.0","-12.59375","-3.15625"
"1574973125559","898","0.23730469","-0.93847656","-0.28710938","-0.28125","-22.40625","-4.25"
"1574973125559","899","0.20703125","-0.8486328","-0.21191406","-0.28125","-6.21875","-4.125"
"1574973125758","900","0.25390625","-0.97753906","-0.23046875","-10.15625","1.15625","-2.40625"
"1574973125758","901","0.26171875","-0.98828125","-0.2998047","-6.625","1.6875","-5.34375"
"1574973125759","902","0.34179688","-0.93652344","-0.2919922","3.125","0.0625","-1.9375"
"1574973125759","903","0.37695312","-0.8798828","-0.3046875","-2.25","-4.28125","0.15625"
"1574973125759","904","0.24804688","-0.92285156","-0.3046875","4.65625","-12.6875","0.28125"
"1574973125760","905","0.23828125","-0.9941406","-0.25","3.25","-8.0625","-0.46875"
"1574973125760","906","0.23535156","-0.8984375","-0.27148438","1.4375","5.59375","-0.65625"
"1574973125760","907","0.203125","-0.8613281","-0.265625","-1.375","8.0625","-3.8125"
"1574973125760","908","0.25683594","-0.9628906","-0.29492188","-9.1875","11.46875","-5.09375"
"1574973125761","909","0.30664062","-0.8925781","-0.33398438","-8.875","15.875","-1.75"
"1574973126155","910","0.5126953","-0.96972656","-0.3173828","5.03125","12.4375","11.8125"
"1574973126156","911","0.4013672","-0.9472656","-0.25976562","5.09375","1.21875","9.25"
"1574973126156","912","0.234375","-0.86621094","-0.24902344","11.4375","-7.03125","0.3125"
"1574973126157","913","0.24804688","-0.87402344","-0.2783203","8.03125","-15.375","-0.09375"
"1574973126157","914","0.30664062","-0.9716797","-0.28515625","-4.1875","0.375","-5.65625"
"1574973126157","915","0.34472656","-1.0273438","-0.3076172","9.46875","-1.21875","2.78125"
"1574973126158","916","0.2685547","-0.91503906","-0.25097656","14.375","-7.15625","13.15625"
"1574973126158","917","0.24707031","-0.875","-0.23730469","15.71875","-5.5","15.90625"
"1574973126158","918","0.26757812","-0.9277344","-0.2734375","14.4375","1.09375","14.4375"
"1574973126158","919","0.2783203","-0.9746094","-0.30664062","21.15625","-0.96875","17.71875"
"1574973126552","920","0.3173828","-0.9375","-0.2685547","12.09375","-3.65625","19.0"
"1574973126552","921","0.29296875","-0.8847656","-0.21875","5.09375","-1.65625","7.21875"
"1574973126553","922","0.3017578","-0.9345703","-0.25097656","1.90625","-3.375","2.9375"
"1574973126553","923","0.24023438","-0.9863281","-0.22949219","-6.09375","-8.125","-2.1875"
"1574973126553","924","0.21679688","-0.9892578","-0.20800781","-6.5625","-4.8125","-8.65625"
"1574973126555","925","0.24414062","-0.9863281","-0.19042969","-9.125","-5.3125","-8.34375"
"1574973126555","926","0.24707031","-0.96191406","-0.21679688","-0.09375","-6.71875","-6.4375"
"1574973126555","927","0.21679688","-0.921875","-0.26757812","-1.1875","-3.125","-5.84375"
"1574973126555","928","0.25195312","-0.9423828","-0.26660156","0.21875","-2.4375","2.21875"
"1574973126556","929","0.28027344","-0.9667969","-0.18066406","-4.0625","-2.03125","7.90625"
"1574973127144","930","0.3046875","-0.97753906","-0.24609375","5.03125","-1.59375","10.875"
"1574973127145","931","0.20507812","-0.95410156","-0.26757812","0.875","-5.6875","10.21875"
"1574973127145","932","0.25878906","-0.9550781","-0.2763672","8.8125","-7.40625","7.84375"
"1574973127145","933","0.29101562","-0.9355469","-0.25390625","5.875","-13.125","3.0"
"1574973127146","934","0.20898438","-0.9404297","-0.24609375","2.15625","0.84375","-2.40625"
"1574973127146","935","0.22949219","-0.984375","-0.2626953","5.34375","2.625","1.4375"
"1574973127146","936","0.2578125","-0.984375","-0.25878906","0.15625","4.6875","2.65625"
"1574973127146","937","0.26367188","-0.9550781","-0.24804688","-2.0625","-1.34375","1.4375"
"1574973127148","938","0.24902344","-0.9082031","-0.22070312","-2.0","-8.71875","3.1875"
"1574973127148","939","0.25","-0.94921875","-0.24902344","-2.78125","-8.125","0.09375"
"1574973127743","940","0.23632812","-0.96875","-0.2626953","-6.3125","-20.875","-3.6875"
"1574973127743","941","0.20898438","-0.9658203","-0.26464844","-3.40625","-22.90625","-5.78125"
"1574973127744","942","0.23632812","-0.89746094","-0.24511719","-7.53125","-15.09375","-3.625"
"1574973127744","943","0.24316406","-0.90234375","-0.25683594","-8.15625","3.21875","-4.25"
"1574973127744","944","0.25878906","-0.9746094","-0.27246094","-12.6875","-2.25","-2.40625"
"1574973127744","945","0.26953125","-0.9316406","-0.3154297","-4.4375","-2.875","-4.375"
"1574973127745","946","0.2548828","-0.89160156","-0.3046875","1.0","2.25","-1.1875"
"1574973127745","947","0.2578125","-0.9355469","-0.296875","-2.0","2.0","1.84375"
"1574973127745","948","0.3017578","-0.9794922","-0.29589844","-0.03125","0.53125","0.5"
"1574973127746","949","0.2763672","-0.97753906","-0.25390625","-5.65625","-3.96875","-4.0625"
"1574973127943","950","0.23925781","-0.9707031","-0.22265625","-11.875","-5.625","-9.4375"
"1574973127943","951","0.18652344","-0.92871094","-0.2607422","-10.84375","-11.25","-10.59375"
"1574973127943","952","0.26757812","-0.8564453","-0.29101562","2.03125","-8.96875","-6.625"
"1574973127944","953","0.31835938","-0.8701172","-0.25976562","24.375","-8.71875","6.1875"
"1574973127944","954","0.2548828","-0.9785156","-0.24414062","20.15625","-16.65625","5.6875"
"1574973127944","955","0.18554688","-1.0097656","-0.2763672","16.875","-7.625","7.34375"
"1574973127944","956","0.18359375","-0.98828125","-0.32617188","14.125","-7.75","9.53125"
"1574973127945","957","0.16601562","-0.96484375","-0.23242188","-1.9375","-3.375","6.25"
"1574973127945","958","0.26171875","-0.9482422","-0.30273438","-4.375","-9.03125","-4.375"
"1574973127945","959","0.3173828","-0.8857422","-0.3642578","-0.46875","10.0","1.0"
"1574973128142","960","0.29492188","-0.91796875","-0.33398438","2.03125","3.59375","12.15625"
"1574973128143","961","0.2685547","-0.8955078","-0.3515625","10.46875","2.3125","11.875"
"1574973128143","962","0.29296875","-0.9003906","-0.33398438","6.75","6.90625","12.34375"
"1574973128143","963","0.29589844","-0.9121094","-0.33007812","10.09375","4.875","10.65625"
"1574973128144","964","0.30566406","-0.9921875","-0.32910156","-5.65625","1.9375","3.5625"
"1574973128144","965","0.16113281","-0.8935547","-0.2841797","2.65625","-0.3125","8.9375"
"1574973128144","966","0.1328125","-0.6933594","-0.23632812","40.0625","-4.78125","29.8125"
"1574973128144","967","-0.044921875","-1.1289062","0.47460938","-123.03125","75.0","-31.46875"
"1574973128144","968","0.08496094","-1.5078125","-0.9794922","87.90625","-32.84375","-98.90625"
"1574973128145","969","0.6533203","-0.9580078","-0.35253906","-11.4375","-31.1875","11.5625"
"1574973128540","970","0.44726562","-0.60839844","-0.3154297","24.6875","21.71875","14.5"
"1574973128541","971","0.30273438","-0.73339844","-0.21289062","-17.125","7.0625","11.4375"
"1574973128541","972","0.20996094","-1.0839844","-0.3515625","7.78125","3.28125","17.28125"
"1574973128543","973","0.17773438","-1.0947266","-0.2939453","-1.0625","-13.25","-9.125"
"1574973128543","974","0.14160156","-0.7988281","-0.17285156","-16.15625","5.3125","-16.625"
"1574973128543","975","0.24023438","-0.89160156","-0.20898438","-27.9375","25.25","-0.09375"
"1574973128543","976","0.34570312","-1.0898438","-0.28222656","-18.03125","4.8125","-11.03125"
"1574973128544","977","0.3828125","-0.9589844","-0.35351562","11.4375","-7.625","-9.625"
"1574973128544","978","0.3388672","-0.81640625","-0.35351562","3.8125","-5.0","-0.90625"
"1574973128544","979","0.39941406","-0.88964844","-0.390625","-3.21875","-4.03125","-2.34375"
"1574973128939","980","0.30664062","-0.9453125","-0.35839844","-2.34375","-6.96875","0.8125"
"1574973128939","981","0.28027344","-1.0146484","-0.3642578","5.15625","-9.53125","2.21875"
"1574973128940","982","0.22070312","-0.8310547","-0.2919922","-14.6875","-3.1875","-9.5"
"1574973128940","983","0.296875","-0.71972656","-0.30273438","9.0625","-12.625","6.0"
"1574973128940","984","0.14355469","-1.0800781","-0.24316406","-33.0625","18.375","-20.0"
"1574973128942","985","0.4560547","-1.1455078","-0.2861328","-59.1875","-1.90625","-23.125"
"1574973128942","986","0.20117188","-0.69140625","-0.2861328","-8.03125","-34.25","-19.15625"
"1574973128942","987","0.32714844","-0.7578125","-0.390625","-4.125","5.96875","2.21875"
"1574973128942","988","0.5185547","-0.9863281","-0.41503906","21.15625","-16.125","14.375"
"1574973128943","989","0.35546875","-0.8730469","-0.29101562","8.3125","-8.3125","2.78125"
"1574973129531","990","0.2548828","-0.6542969","-0.24511719","26.375","7.4375","23.46875"
"1574973129532","991","0.08203125","-0.7890625","-0.28515625","36.8125","3.96875","36.875"
"1574973129532","992","0.16210938","-1.1181641","-0.36132812","35.53125","-2.25","25.65625"
"1574973129532","993","0.36035156","-1.1044922","-0.4296875","59.03125","-8.125","15.78125"
"1574973129533","994","0.32910156","-0.9736328","-0.3408203","49.71875","-15.25","44.28125"
"1574973129533","995","0.22753906","-0.9892578","-0.27441406","43.53125","-17.28125","14.3125"
"1574973129533","996","0.2421875","-1.0576172","-0.265625","13.15625","-15.75","-19.5625"
"1574973129535","997","0.3154297","-0.90625","-0.20410156","-6.4375","-7.21875","-10.96875"
"1574973129535","998","0.34277344","-0.9794922","-0.22558594","-21.59375","2.375","-2.0"
"1574973129535","999","0.203125","-1.0419922","-0.35742188","-41.25","-13.4375","-44.40625"
"1574973129732","1000","0.18652344","-0.9355469","-0.3466797","-36.78125","3.03125","-4.25"
"1574973129732","1001","0.36035156","-0.8847656","-0.23144531","-59.4375","32.59375","3.4375"
"1574973129732","1002","0.37304688","-1.0517578","-0.45996094","-32.4375","-28.25","-8.09375"
"1574973129732","1003","0.29003906","-0.74609375","-0.35253906","33.28125","-48.15625","21.8125"
"1574973129733","1004","0.009765625","-0.9238281","-0.12207031","0.375","-12.34375","26.6875"
"1574973129733","1005","-0.048828125","-0.671875","-0.16210938","-60.40625","26.84375","-21.03125"
"1574973129733","1006","0.45507812","-0.82128906","-0.53222656","39.6875","11.96875","-36.59375"
"1574973129733","1007","0.7949219","-1.3466797","-0.46191406","-28.0","2.0","-4.375"
"1574973129734","1008","0.14648438","-1.0634766","-0.3388672","-51.1875","-12.625","-5.65625"
"1574973129735","1009","0.107421875","-0.6542969","-0.19433594","3.0","10.625","20.78125"
"1574973130324","1010","0.16601562","-0.62597656","-0.34960938","28.21875","-10.8125","-5.78125"
"1574973130325","1011","0.52441406","-1.0888672","-0.4326172","14.25","1.875","-12.3125"
"1574973130325","1012","0.2919922","-1.0292969","-0.49316406","-12.78125","1.8125","3.5625"
"1574973130325","1013","0.19628906","-0.80566406","-0.29589844","0.03125","-3.78125","1.65625"
"1574973130326","1014","0.30664062","-0.8330078","-0.32714844","8.1875","-4.28125","5.46875"
"1574973130326","1015","0.28222656","-0.96484375","-0.35839844","6.125","-1.78125","-0.15625"
"1574973130326","1016","0.25878906","-0.95410156","-0.3828125","7.90625","-2.75","-3.09375"
"1574973130326","1017","0.29101562","-0.91308594","-0.36621094","4.0","-5.3125","1.90625"
"1574973130327","1018","0.26171875","-0.86816406","-0.3623047","-3.46875","-6.28125","-1.125"
"1574973130327","1019","0.25878906","-0.9042969","-0.36816406","0.75","-0.5","-2.1875"
"1574973130528","1020","0.27246094","-0.8984375","-0.3779297","-2.71875","-1.59375","-0.84375"
"1574973130529","1021","0.2939453","-0.9082031","-0.3515625","-1.0","-0.3125","0.09375"
"1574973130530","1022","0.28808594","-0.91308594","-0.38183594","3.75","-3.3125","2.28125"
"1574973130530","1023","0.2861328","-0.9140625","-0.3720703","1.25","-9.53125","3.8125"
"1574973130530","1024","0.21289062","-0.9003906","-0.3388672","-5.46875","0.53125","3.1875"
"1574973130531","1025","0.22070312","-0.8232422","-0.3486328","0.375","0.125","-1.375"
"1574973130531","1026","0.2685547","-0.92578125","-0.3642578","3.5","8.0625","2.46875"
"1574973130531","1027","0.2548828","-0.9169922","-0.33789062","-11.03125","14.28125","-2.59375"
"1574973130531","1028","0.3046875","-0.9013672","-0.359375","15.28125","0.0","5.34375"
"1574973130532","1029","0.35351562","-0.94921875","-0.3935547","16.0","9.15625","11.6875"
"1574973131124","1030","0.30273438","-0.8925781","-0.359375","13.09375","-4.65625","11.8125"
"1574973131124","1031","0.29785156","-0.8984375","-0.2998047","10.875","-6.59375","10.15625"
"1574973131125","1032","0.28125","-0.92285156","-0.33984375","18.6875","-2.09375","11.0625"
"1574973131126","1033","0.24707031","-0.9082031","-0.3359375","12.78125","-4.03125","10.34375"
"1574973131126","1034","0.25585938","-0.91015625","-0.35351562","9.3125","-3.65625","7.21875"
"1574973131127","1035","0.28027344","-0.9609375","-0.33691406","3.625","-0.0625","3.875"
"1574973131127","1036","0.25097656","-0.94433594","-0.33496094","-3.59375","-2.5","-0.03125"
"1574973131127","1037","0.24316406","-0.89746094","-0.30859375","-7.84375","-2.3125","-4.1875"
"1574973131128","1038","0.28515625","-0.9404297","-0.35839844","-5.78125","-0.375","-3.53125"
"1574973131128","1039","0.2919922","-0.9394531","-0.3486328","-9.875","3.59375","-4.90625"
"1574973131323","1040","0.30273438","-0.90234375","-0.33691406","0.9375","1.15625","2.59375"
"1574973131323","1041","0.23144531","-0.85839844","-0.26757812","-8.09375","1.15625","3.9375"
"1574973131324","1042","0.16015625","-0.80371094","-0.3720703","10.75","3.15625","-3.03125"
"1574973131324","1043","0.32128906","-0.9628906","-0.25585938","-3.09375","-0.5","-2.25"
"1574973131324","1044","0.3203125","-1.0175781","-0.40722656","-8.09375","-5.25","-17.1875"
"1574973131325","1045","0.30664062","-1.0322266","-0.4580078","-2.96875","-2.25","-7.375"
"1574973131325","1046","0.3046875","-0.7753906","-0.2109375","-12.0","-4.53125","9.53125"
"1574973131326","1047","0.21484375","-0.75683594","-0.27929688","13.375","-11.125","3.8125"
"1574973131326","1048","0.18652344","-0.95410156","-0.3486328","4.59375","2.8125","-6.3125"
"1574973131326","1049","0.37890625","-1.0947266","-0.34765625","17.84375","-11.40625","-0.65625"
"1574973131719","1050","0.375","-0.89941406","-0.37402344","11.25","-8.25","2.78125"
"1574973131719","1051","0.21777344","-0.8017578","-0.29492188","12.90625","-2.625","6.4375"
"1574973131720","1052","0.21875","-0.89160156","-0.25878906","16.9375","-0.375","12.46875"
"1574973131720","1053","0.2861328","-0.9980469","-0.3310547","13.5625","-2.21875","2.46875"
"1574973131720","1054","0.28808594","-0.9609375","-0.32421875","7.15625","-7.5","-2.1875"
"1574973131720","1055","0.29296875","-0.90234375","-0.29589844","6.625","-5.0","1.375"
"1574973131720","1056","0.2841797","-0.95410156","-0.3232422","4.65625","-0.5","-0.90625"
"1574973131722","1057","0.25390625","-0.9316406","-0.30566406","7.34375","-0.4375","5.53125"
"1574973131722","1058","0.21679688","-0.92578125","-0.24316406","1.90625","4.75","-3.53125"
"1574973131722","1059","0.25","-0.9873047","-0.21289062","-20.375","6.65625","-19.5"
"1574973132315","1060","0.32910156","-0.984375","-0.36914062","-3.15625","11.65625","-7.3125"
"1574973132315","1061","0.31933594","-0.91796875","-0.32226562","-4.96875","-2.25","-1.5625"
"1574973132316","1062","0.26953125","-0.87890625","-0.2939453","-7.59375","0.78125","-8.53125"
"1574973132316","1063","0.36035156","-0.87109375","-0.32714844","-2.53125","1.8125","2.34375"
"1574973132316","1064","0.31054688","-0.89746094","-0.33496094","6.3125","3.40625","7.34375"
"1574973132316","1065","0.3203125","-0.9082031","-0.3310547","3.3125","1.15625","5.875"
"1574973132317","1066","0.2607422","-0.9794922","-0.26464844","-8.78125","7.1875","3.9375"
"1574973132317","1067","0.31347656","-0.8691406","-0.27929688","-17.5625","9.40625","-2.84375"
"1574973132317","1068","0.38476562","-0.9355469","-0.31054688","19.3125","-10.3125","15.71875"
"1574973132318","1069","0.25195312","-0.98046875","-0.26757812","2.71875","-7.9375","6.25"
"1574973132714","1070","0.27148438","-0.8984375","-0.2998047","11.6875","-4.34375","8.5625"
"1574973132714","1071","0.28222656","-0.95214844","-0.3076172","10.53125","-12.03125","11.75"
"1574973132715","1072","0.30566406","-0.9013672","-0.3173828","4.40625","-8.0","0.375"
"1574973132715","1073","0.3095703","-0.87109375","-0.2734375","9.96875","-15.5625","0.6875"
"1574973132715","1074","0.25585938","-0.9423828","-0.2548828","-1.0","-10.375","0.75"
"1574973132715","1075","0.29589844","-0.9589844","-0.32128906","8.625","-13.1875","-0.71875"
"1574973132716","1076","0.3046875","-0.9580078","-0.28710938","-0.09375","-17.21875","0.21875"
"1574973132716","1077","0.296875","-0.9082031","-0.26953125","2.65625","-15.375","-0.46875"
"1574973132716","1078","0.2607422","-0.87402344","-0.2890625","7.40625","-15.375","3.875"
"1574973132716","1079","0.24414062","-0.9746094","-0.3125","2.9375","-3.78125","5.03125"
"1574973133111","1080","0.15917969","-0.91015625","-0.33398438","1.1875","-3.25","-8.71875"
"1574973133113","1081","0.23925781","-0.8847656","-0.3330078","11.4375","9.28125","1.375"
"1574973133113","1082","0.23046875","-0.9873047","-0.27734375","-12.6875","18.125","-5.03125"
"1574973133114","1083","0.3876953","-0.9746094","-0.3125","-12.96875","6.46875","-0.09375"
"1574973133114","1084","0.3095703","-0.87402344","-0.30664062","-1.75","-12.40625","-2.34375"
"1574973133114","1085","0.2548828","-0.90722656","-0.35546875","-1.125","-22.84375","-13.15625"
"1574973133114","1086","0.40234375","-0.8095703","-0.4013672","14.1875","-27.90625","12.15625"
"1574973133115","1087","0.31054688","-0.8466797","-0.40429688","3.625","1.6875","0.8125"
"1574973133115","1088","0.26464844","-1.3974609","-0.22851562","-123.21875","48.03125","-79.03125"
"1574973133115","1089","0.2421875","-1.0439453","-0.13476562","-22.6875","-31.1875","-19.5"
"1574973133706","1090","0.0703125","-0.4482422","-0.17578125","23.15625","-2.5625","-8.59375"
"1574973133707","1091","0.22558594","-0.7578125","-0.31640625","34.5","-6.21875","15.78125"
"1574973133707","1092","0.5","-1.1210938","-0.40429688","37.0","-25.40625","18.40625"
"1574973133708","1093","0.2919922","-0.97753906","-0.34570312","38.21875","-17.71875","11.4375"
"1574973133709","1094","0.060546875","-0.80566406","-0.29003906","35.84375","-3.0","24.0"
"1574973133709","1095","0.24902344","-0.9707031","-0.46679688","13.28125","-14.90625","18.53125"
"1574973133709","1096","0.45703125","-1.1289062","-0.33984375","6.25","3.28125","5.34375"
"1574973133709","1097","0.23535156","-0.93652344","-0.28320312","9.125","6.84375","16.8125"
"1574973133710","1098","0.15722656","-0.8066406","-0.24414062","10.40625","10.96875","20.46875"
"1574973133710","1099","0.28320312","-0.9785156","-0.29101562","4.65625","-3.78125","9.1875"
"1574973133907","1100","0.28515625","-0.9785156","-0.30566406","-3.8125","-8.625","-3.15625"
"1574973133908","1101","0.20996094","-0.8955078","-0.265625","3.8125","3.40625","-2.84375"
"1574973133908","1102","0.19921875","-0.9111328","-0.27539062","-2.0625","2.5","0.8125"
"1574973133908","1103","0.27148438","-0.9980469","-0.2998047","-4.625","2.0625","1.5625"
"1574973133909","1104","0.31152344","-0.9667969","-0.28320312","1.4375","4.6875","1.5"
"1574973133910","1105","0.24316406","-0.87597656","-0.25195312","0.5","-2.8125","-2.25"
"1574973133911","1106","0.2265625","-0.92089844","-0.29003906","2.40625","-0.8125","0.625"
"1574973133911","1107","0.23046875","-0.99609375","-0.26953125","-9.125","8.40625","-2.0"
"1574973133911","1108","0.28515625","-0.9902344","-0.22265625","-4.625","-1.46875","2.03125"
"1574973133912","1109","0.30273438","-0.96191406","-0.23144531","1.96875","-8.375","1.71875"
"1574973134304","1110","0.2548828","-0.921875","-0.25878906","3.375","-10.625","-2.125"
"1574973134304","1111","0.22070312","-0.8955078","-0.2529297","13.6875","-22.71875","0.375"
"1574973134304","1112","0.28027344","-0.91015625","-0.26953125","21.03125","-11.0","9.3125"
"1574973134304","1113","0.27246094","-0.9667969","-0.28320312","15.40625","-3.0625","7.59375"
"1574973134305","1114","0.22851562","-1.0146484","-0.30664062","19.0625","-7.40625","9.71875"
"1574973134305","1115","0.21972656","-1.0068359","-0.28710938","15.84375","-0.4375","10.09375"
"1574973134305","1116","0.28027344","-0.97753906","-0.2763672","-2.59375","1.53125","-1.0"
"1574973134306","1117","0.25878906","-0.9902344","-0.27246094","-22.0","1.28125","-12.25"
"1574973134307","1118","0.24511719","-1.0302734","-0.24414062","-30.375","-7.9375","-7.125"
"1574973134307","1119","0.20507812","-0.89453125","-0.21777344","-18.28125","-40.78125","-6.5"
"1574973134700","1120","0.20214844","-0.86328125","-0.31054688","-25.6875","-42.96875","-1.125"
"1574973134701","1121","0.18457031","-0.8515625","-0.25","-15.59375","-8.0","-7.125"
"1574973134701","1122","0.21484375","-0.9091797","-0.29589844","-13.03125","-24.84375","-3.875"
"1574973134701","1123","0.25","-0.9316406","-0.28710938","4.125","-11.65625","4.125"
"1574973134701","1124","0.16699219","-0.93359375","-0.2841797","16.8125","-4.03125","14.0625"
"1574973134702","1125","0.12988281","-0.8798828","-0.21386719","27.84375","7.5625","23.9375"
"1574973134702","1126","0.15136719","-0.8613281","-0.20703125","48.3125","26.78125","31.03125"
"1574973134702","1127","0.17480469","-0.921875","-0.22167969","63.875","22.5625","39.6875"
"1574973134702","1128","0.17480469","-0.94628906","-0.16796875","64.40625","14.59375","45.3125"
"1574973134703","1129","0.140625","-0.8857422","-0.10253906","69.90625","12.5625","49.65625"
"1574973135099","1130","0.037109375","-0.8808594","-0.053710938","80.65625","4.875","56.65625"
"1574973135100","1131","0.03125","-0.8730469","0.030273438","74.3125","-5.25","66.125"
"1574973135100","1132","-0.043945312","-0.87597656","0.08886719","80.28125","-4.65625","62.71875"
"1574973135100","1133","-0.08691406","-0.90722656","0.12207031","82.96875","-9.40625","72.40625"
"1574973135100","1134","-0.22949219","-0.89941406","0.21191406","75.59375","6.59375","76.625"
"1574973135101","1135","-0.22949219","-1.0302734","0.2529297","78.28125","-2.5625","81.8125"
"1574973135101","1136","-0.2861328","-0.87597656","0.15136719","108.3125","-29.3125","82.84375"
"1574973135101","1137","-0.099609375","-1.0888672","0.29003906","68.9375","-0.75","69.53125"
"1574973135101","1138","-0.40722656","-1.1865234","0.21875","55.9375","-13.0625","46.59375"
"1574973135102","1139","-0.32910156","-1.2685547","0.33496094","48.71875","13.71875","40.0625"
"1574973135691","1140","-0.4736328","-1.3525391","0.4189453","10.75","31.4375","13.21875"
"1574973135692","1141","-0.35839844","-1.4111328","0.43164062","-16.03125","38.5","-18.46875"
"1574973135693","1142","-0.40039062","-1.3994141","0.34472656","-43.75","23.8125","-51.25"
"1574973135693","1143","-0.14453125","-1.3701172","0.21582031","-53.8125","0.125","-72.71875"
"1574973135693","1144","-0.18945312","-0.98046875","0.26367188","-84.3125","16.78125","-91.21875"
"1574973135694","1145","-0.24023438","-0.7832031","0.2421875","-92.625","0.40625","-101.53125"
"1574973135694","1146","-0.18945312","-0.82128906","0.15332031","-111.625","-6.15625","-104.78125"
"1574973135694","1147","-0.080078125","-0.8222656","0.06542969","-91.34375","-9.90625","-99.28125"
"1574973135694","1148","-0.0107421875","-0.78125","-0.001953125","-74.375","-22.96875","-85.3125"
"1574973135695","1149","-0.00390625","-0.8769531","-0.052734375","-96.46875","-12.28125","-85.1875"
"1574973135894","1150","0.076171875","-0.78027344","-0.041015625","-85.71875","1.6875","-54.96875"
"1574973135895","1151","0.21289062","-0.94628906","-0.17382812","-77.6875","-20.625","-28.71875"
"1574973135895","1152","0.125","-0.9765625","-0.19824219","-68.09375","-37.125","-39.96875"
"1574973135896","1153","-0.00390625","-0.82421875","-0.20800781","-55.15625","-39.875","-27.875"
"1574973135897","1154","0.14160156","-0.7529297","-0.203125","-49.125","-9.03125","-23.96875"
"1574973135897","1155","0.12890625","-0.86816406","-0.2578125","-42.9375","-11.71875","-30.5625"
"1574973135897","1156","0.028320312","-0.81152344","-0.203125","-45.4375","-44.1875","-30.0625"
"1574973135897","1157","0.07519531","-0.4873047","-0.33984375","-19.4375","-27.15625","3.125"
"1574973135898","1158","0.3330078","-0.4013672","-0.30664062","-140.59375","101.3125","-75.0"
"1574973135898","1159","0.79003906","-1.7128906","-0.6308594","10.8125","-24.71875","3.375"
"1574973136489","1160","0.56640625","-0.87890625","-0.71777344","14.3125","-6.125","4.125"
"1574973136489","1161","0.60546875","-0.92871094","-0.93066406","10.65625","12.5625","-0.03125"
"1574973136489","1162","0.54296875","-1.4013672","-0.56933594","39.375","-14.34375","13.5625"
"1574973136490","1163","0.15527344","-0.7763672","-0.37695312","27.125","-42.59375","5.5625"
"1574973136490","1164","0.15917969","-0.50390625","-0.27148438","34.3125","18.4375","12.03125"
"1574973136492","1165","0.21777344","-0.73046875","-0.29882812","20.03125","10.6875","24.75"
"1574973136492","1166","0.19824219","-0.90625","-0.3095703","9.375","12.5625","9.84375"
"1574973136492","1167","0.2607422","-0.9013672","-0.38671875","4.53125","9.40625","-0.15625"
"1574973136493","1168","0.27246094","-0.82910156","-0.41601562","-6.3125","-9.65625","-4.875"
"1574973136493","1169","0.31933594","-0.8496094","-0.38378906","-19.9375","-6.65625","-10.65625"
"1574973136688","1170","0.21875","-0.8408203","-0.40625","-31.84375","-10.375","-22.0625"
"1574973136689","1171","0.2841797","-0.8222656","-0.41601562","-19.75","-9.28125","-14.4375"
"1574973136689","1172","0.35546875","-0.8417969","-0.4404297","-20.4375","-13.5","-16.40625"
"1574973136689","1173","0.35351562","-0.8095703","-0.51171875","-25.125","-17.78125","-16.34375"
"1574973136689","1174","0.38867188","-0.83203125","-0.5097656","-20.4375","-17.03125","-17.3125"
"1574973136690","1175","0.42871094","-0.76953125","-0.5888672","-10.09375","-29.71875","-15.25"
"1574973136690","1176","0.38476562","-0.8066406","-0.5878906","-0.59375","-22.90625","-8.9375"
"1574973136692","1177","0.31445312","-0.8203125","-0.5546875","6.75","-15.8125","-2.28125"
"1574973136692","1178","0.3310547","-0.81347656","-0.57714844","13.625","-23.625","-2.53125"
"1574973136692","1179","0.3623047","-0.7832031","-0.5214844","8.8125","-7.4375","2.71875"
"1574973137087","1180","0.31933594","-0.8671875","-0.5185547","5.15625","-10.3125","4.0"
"1574973137087","1181","0.20898438","-0.85058594","-0.46484375","-2.28125","-4.65625","-6.03125"
"1574973137087","1182","0.3330078","-0.8203125","-0.4892578","6.1875","2.5625","7.40625"
"1574973137088","1183","0.38476562","-0.88964844","-0.45117188","8.03125","-4.40625","5.6875"
"1574973137088","1184","0.27148438","-0.8222656","-0.5908203","21.4375","-4.34375","14.5625"
"1574973137088","1185","0.18359375","-0.7607422","-0.40722656","1.625","7.4375","6.75"
"1574973137088","1186","0.33496094","-0.90527344","-0.4716797","4.90625","7.4375","6.4375"
"1574973137089","1187","0.32226562","-0.8701172","-0.4560547","12.34375","8.21875","5.6875"
"1574973137089","1188","0.30078125","-0.8808594","-0.45996094","16.4375","2.125","-1.25"
"1574973137090","1189","0.375","-0.92871094","-0.53125","27.78125","-7.75","-1.1875"
"1574973137681","1190","0.3857422","-0.8779297","-0.49804688","16.3125","-2.5","-4.5625"
"1574973137681","1191","0.3251953","-0.5029297","-0.5761719","30.78125","-3.0625","26.21875"
"1574973137682","1192","0.20703125","-0.7919922","-0.3232422","57.6875","-9.90625","24.1875"
"1574973137682","1193","0.055664062","-0.9091797","-0.27441406","29.5","3.03125","36.71875"
"1574973137682","1194","0.0107421875","-0.93359375","-0.35058594","43.90625","9.21875","-8.9375"
"1574973137682","1195","0.8720703","-1.2802734","-0.48339844","11.1875","25.6875","-20.65625"
"1574973137683","1196","0.2685547","-1.0449219","-0.23925781","-36.96875","-19.15625","39.875"
"1574973137683","1197","-0.06640625","-0.5761719","-0.31347656","27.375","-14.34375","19.75"
"1574973137683","1198","0.14257812","-0.7451172","-0.34472656","15.78125","11.28125","-18.03125"
"1574973137683","1199","0.6513672","-1.1738281","-0.49414062","-39.84375","14.03125","-11.625"
"1574973137881","1200","0.19824219","-0.8466797","-0.33789062","-24.75","-1.15625","6.625"
"1574973137883","1201","0.125","-0.8232422","-0.31835938","-3.15625","-12.59375","5.03125"
"1574973137883","1202","0.34960938","-0.9121094","-0.42382812","-12.375","-0.90625","-17.4375"
"1574973137884","1203","0.31640625","-0.96972656","-0.40722656","-12.96875","5.25","-3.6875"
"1574973137884","1204","0.2607422","-0.85546875","-0.36914062","-5.28125","-6.46875","1.5625"
"1574973137884","1205","0.3173828","-0.86035156","-0.4013672","-1.0625","-8.1875","-5.65625"
"1574973137884","1206","0.25390625","-0.8984375","-0.375","5.21875","-2.4375","-2.25"
"1574973137885","1207","0.21582031","-0.89746094","-0.41601562","5.875","-1.78125","-0.34375"
"1574973137885","1208","0.31445312","-0.9042969","-0.3955078","5.34375","2.375","-1.625"
"1574973137885","1209","0.30859375","-0.875","-0.38378906","0.8125","-1.40625","1.78125"
"1574973138279","1210","0.26660156","-0.90722656","-0.390625","-2.53125","0.3125","-0.59375"
"1574973138279","1211","0.28808594","-0.88378906","-0.40429688","0.28125","0.40625","0.3125"
"1574973138280","1212","0.2939453","-0.8730469","-0.40039062","-0.53125","-2.625","1.625"
"1574973138280","1213","0.27929688","-0.8857422","-0.3984375","-5.03125","-2.5625","-0.21875"
"1574973138280","1214","0.28125","-0.8984375","-0.4111328","-3.21875","-2.6875","-0.21875"
"1574973138281","1215","0.2919922","-0.88671875","-0.41503906","-1.25","-6.0","0.625"
"1574973138281","1216","0.29101562","-0.8574219","-0.41503906","-2.96875","-4.09375","0.6875"
"1574973138281","1217","0.28808594","-0.89941406","-0.4404297","-1.6875","-4.28125","0.6875"
"1574973138282","1218","0.2734375","-0.90527344","-0.44433594","-4.375","-10.5","2.46875"
"1574973138282","1219","0.2685547","-0.8417969","-0.4013672","-3.40625","-2.09375","2.09375"
"1574973138871","1220","0.29882812","-0.8925781","-0.4501953","1.375","1.875","1.1875"
"1574973138872","1221","0.296875","-0.8964844","-0.41210938","4.96875","0.46875","3.75"
"1574973138872","1222","0.28027344","-0.8671875","-0.41210938","2.84375","-2.375","4.28125"
"1574973138872","1223","0.27148438","-0.8701172","-0.42578125","0.75","-0.8125","1.96875"
"1574973138872","1224","0.28222656","-0.890625","-0.4296875","-1.0625","-2.03125","1.5625"
"1574973138873","1225","0.28125","-0.8828125","-0.40820312","0.75","1.59375","2.28125"
"1574973138873","1226","0.2998047","-0.8691406","-0.4423828","4.96875","-1.96875","1.125"
"1574973138873","1227","0.29785156","-0.8779297","-0.42285156","2.15625","-5.0","2.71875"
"1574973138874","1228","0.25097656","-0.87402344","-0.4033203","-1.75","-0.875","-0.21875"
"1574973138874","1229","0.2763672","-0.890625","-0.42871094","2.40625","-0.5625","-0.84375"
"1574973139074","1230","0.29003906","-0.87402344","-0.42089844","-0.46875","-2.21875","-0.09375"
"1574973139074","1231","0.29101562","-0.8720703","-0.4296875","-2.53125","-0.1875","-0.90625"
"1574973139074","1232","0.29101562","-0.8828125","-0.43945312","-0.59375","-2.375","0.5625"
"1574973139075","1233","0.29003906","-0.8720703","-0.43066406","-1.8125","-4.34375","-0.40625"
"1574973139075","1234","0.29882812","-0.8720703","-0.4169922","-1.25","-2.3125","-1.25"
"1574973139075","1235","0.29003906","-0.8720703","-0.42382812","-2.84375","-4.71875","-0.96875"
"1574973139075","1236","0.26171875","-0.8798828","-0.41992188","-7.1875","-6.53125","-2.84375"
"1574973139078","1237","0.28027344","-0.8642578","-0.4091797","-6.375","-7.625","-3.28125"
"1574973139078","1238","0.2861328","-0.85839844","-0.4345703","-6.1875","-6.53125","-1.375"
"1574973139079","1239","0.2841797","-0.89160156","-0.4453125","-3.40625","-7.875","-1.375"
"1574973139472","1240","0.28515625","-0.87109375","-0.43945312","-6.15625","-8.4375","-2.0"
"1574973139472","1241","0.29101562","-0.8671875","-0.4560547","1.1875","-6.40625","1.1875"
"1574973139472","1242","0.2919922","-0.86328125","-0.44726562","6.5","-15.375","1.65625"
"1574973139473","1243","0.27734375","-0.9169922","-0.4248047","6.90625","-9.84375","2.9375"
"1574973139473","1244","0.21972656","-0.88671875","-0.40820312","5.40625","-4.28125","2.78125"
"1574973139473","1245","0.2265625","-0.85546875","-0.39257812","-1.125","-2.03125","-1.5625"
"1574973139473","1246","0.29003906","-0.90234375","-0.43066406","-4.5625","0.125","-7.0625"
"1574973139474","1247","0.30078125","-0.8310547","-0.4638672","-8.15625","-3.53125","-9.6875"
"1574973139474","1248","0.3310547","-0.8027344","-0.515625","-6.625","-1.03125","-6.5"
"1574973139475","1249","0.36035156","-0.73535156","-0.55371094","-3.21875","-0.1875","-4.96875"
"1574973139868","1250","0.3544922","-0.62890625","-0.6484375","6.1875","2.5","-3.34375"
"1574973139869","1251","0.4296875","-0.78808594","-0.5332031","2.84375","20.1875","3.375"
"1574973139869","1252","0.32128906","-0.89160156","-0.50878906","-8.9375","33.625","-5.96875"
"1574973139869","1253","0.11816406","-1.0976562","-0.38378906","-84.6875","43.5","-56.625"
"1574973139869","1254","0.41601562","-0.7753906","-0.41796875","-40.0625","18.96875","-18.90625"
"1574973139870","1255","0.3095703","-0.91503906","-0.40039062","-7.1875","-7.21875","-7.5"
"1574973139870","1256","0.6123047","-0.6386719","-0.5517578","35.59375","-13.8125","17.65625"
"1574973139870","1257","0.31835938","-0.6542969","-0.44433594","83.34375","-14.84375","61.25"
"1574973139871","1258","0.25976562","-1.0029297","-0.31933594","86.6875","-0.1875","68.5625"
"1574973139871","1259","0.23632812","-1.0078125","-0.3955078","61.96875","-14.53125","32.625"
"1574973140265","1260","0.22070312","-0.85253906","-0.34277344","46.78125","-12.8125","25.0625"
"1574973140266","1261","0.14648438","-0.8808594","-0.29589844","27.5625","-10.875","17.65625"
"1574973140267","1262","0.28222656","-1.03125","-0.50097656","13.09375","-28.625","7.09375"
"1574973140267","1263","0.4345703","-0.8964844","-0.33203125","-1.1875","-19.46875","-0.15625"
"1574973140267","1264","0.27734375","-0.8457031","-0.39941406","7.15625","-31.0","10.8125"
"1574973140267","1265","0.099609375","-0.93847656","-0.36621094","-3.59375","-7.03125","1.625"
"1574973140268","1266","0.11621094","-0.9296875","-0.3779297","1.5625","-1.90625","9.3125"
"1574973140268","1267","0.2705078","-0.91796875","-0.33789062","12.28125","6.84375","8.625"
"1574973140268","1268","0.27246094","-0.8964844","-0.33398438","-1.3125","10.125","4.0625"
"1574973140268","1269","0.22460938","-0.9248047","-0.30078125","9.53125","5.5625","9.84375"
"1574973140664","1270","0.18359375","-0.859375","-0.2998047","11.4375","14.8125","11.0"
"1574973140665","1271","0.2919922","-0.89941406","-0.2763672","9.4375","14.40625","12.0"
"1574973140665","1272","0.20605469","-0.9814453","-0.30664062","19.6875","14.40625","9.53125"
"1574973140666","1273","0.17578125","-0.9765625","-0.26953125","20.03125","10.75","11.5625"
"1574973140667","1274","0.16210938","-0.97753906","-0.2109375","24.4375","9.34375","14.375"
"1574973140667","1275","0.12792969","-1.0058594","-0.19042969","20.65625","4.5625","11.4375"
"1574973140667","1276","0.12597656","-1.0419922","-0.20996094","28.21875","-6.65625","13.5"
"1574973140667","1277","0.17089844","-1.0097656","-0.22265625","31.15625","7.625","21.1875"
"1574973140668","1278","0.16796875","-1.0205078","-0.19042969","27.84375","8.53125","15.53125"
"1574973140668","1279","0.20214844","-0.953125","-0.1875","27.0","-4.78125","14.5"
"1574973141062","1280","0.18261719","-0.9375","-0.14550781","19.8125","-2.5","10.15625"
"1574973141062","1281","0.12988281","-1.0322266","-0.10058594","6.84375","2.4375","2.9375"
"1574973141062","1282","0.09082031","-1.1318359","-0.11328125","-6.8125","1.34375","-3.21875"
"1574973141063","1283","0.15136719","-1.0869141","-0.11816406","-5.46875","2.125","-6.03125"
"1574973141063","1284","0.1484375","-1.03125","-0.080078125","-7.375","0.3125","-8.8125"
"1574973141064","1285","0.119140625","-0.99902344","-0.14746094","-15.53125","-16.4375","-28.0"
"1574973141065","1286","0.20898438","-1.0117188","-0.17089844","-16.9375","-14.71875","-23.40625"
"1574973141065","1287","0.19238281","-0.92871094","-0.22949219","-17.90625","-14.21875","-23.65625"
"1574973141065","1288","0.2548828","-0.8798828","-0.24414062","-18.15625","-13.8125","-16.03125"
"1574973141065","1289","0.26660156","-0.9169922","-0.28125","-12.625","-3.1875","-4.96875"
"1574973141459","1290","0.17773438","-0.9394531","-0.24707031","-13.53125","-4.875","-3.40625"
"1574973141460","1291","0.18847656","-0.9316406","-0.23632812","-8.46875","-5.0","1.5"
"1574973141460","1292","0.18554688","-0.9296875","-0.23242188","-7.25","-0.75","3.875"
"1574973141460","1293","0.20703125","-0.9716797","-0.23828125","-2.84375","-3.71875","1.78125"
"1574973141460","1294","0.25195312","-0.9794922","-0.26171875","-3.53125","-7.09375","1.0"
"1574973141461","1295","0.23730469","-0.9248047","-0.27246094","-2.65625","-9.34375","-1.4375"
"1574973141461","1296","0.18457031","-0.9160156","-0.3388672","0.375","-5.625","-1.1875"
"1574973141462","1297","0.15625","-0.8808594","-0.29882812","-0.90625","2.4375","3.5"
"1574973141463","1298","0.17480469","-0.89453125","-0.23535156","-8.53125","31.5625","4.0"
"1574973141463","1299","-0.35839844","-1.3974609","0.5292969","-241.875","194.28125","-98.90625"
"1574973141855","1300","0.70214844","-1.1025391","-0.9501953","97.25","-117.8125","-17.3125"
"1574973141855","1301","0.3876953","-0.67871094","-0.048828125","41.03125","-59.5625","4.28125"
"1574973141856","1302","0.21777344","-0.5","-0.49121094","50.4375","2.0","29.25"
"1574973141856","1303","0.36523438","-1.0205078","-0.484375","-27.1875","20.375","18.15625"
"1574973141856","1304","0.5058594","-1.4833984","-0.47851562","20.15625","1.09375","29.75"
"1574973141856","1305","0.14355469","-0.6982422","-0.24707031","9.375","-8.625","6.1875"
"1574973141857","1306","0.14550781","-0.6669922","-0.16210938","-4.0","-15.21875","-12.375"
"1574973141857","1307","0.25195312","-1.125","-0.33496094","-8.46875","4.15625","-5.46875"
"1574973141857","1308","0.25195312","-1.0917969","-0.37304688","-18.53125","-6.21875","-21.46875"
"1574973141859","1309","0.2705078","-0.8251953","-0.31933594","-16.59375","-5.5625","-18.28125"
"1574973142253","1310","0.31835938","-0.8222656","-0.37890625","-23.125","-7.6875","-17.625"
"1574973142253","1311","0.25585938","-0.96972656","-0.40527344","-25.625","-6.21875","-12.78125"
"1574973142253","1312","0.22167969","-0.9355469","-0.34472656","-15.78125","-12.15625","-5.71875"
"1574973142254","1313","0.30859375","-0.86621094","-0.35546875","-9.0625","-7.9375","-2.28125"
