"# PR data"
"# Start time: 20191128T213304"
"# Subject: rim"
"# Activity type: Wall push offs"
"# Correctness: Incorrect"
"# Notes: "
""
"timestamp","seq","accel_x","accel_y","accel_z","gyro_x","gyro_y","gyro_z"
"1574973184189","0","0.0146484375","-1.0117188","0.005859375","10.40625","-2.03125","5.9375"
"1574973184190","1","0.01171875","-1.0205078","0.026367188","5.46875","-2.375","5.21875"
"1574973184190","2","0.00390625","-1.0087891","0.033203125","4.59375","-3.84375","4.28125"
"1574973184190","3","0.0","-1.0136719","0.044921875","6.6875","-4.40625","3.6875"
"1574973184190","4","0.0234375","-0.99121094","0.07421875","10.21875","-7.09375","3.3125"
"1574973184191","5","-0.045898438","-1.1376953","0.07519531","7.90625","-18.875","-7.25"
"1574973184191","6","-0.0087890625","-0.94628906","0.087890625","-10.90625","-4.28125","-7.25"
"1574973184191","7","-0.053710938","-1.0039062","0.07128906","10.03125","-14.40625","1.25"
"1574973184191","8","0.018554688","-1.0703125","0.08984375","6.1875","-16.78125","2.9375"
"1574973184191","9","0.087890625","-1.0146484","0.06640625","3.875","-27.34375","-0.15625"
"1574973184588","10","-0.018554688","-0.96191406","0.053710938","4.46875","-16.0625","-8.28125"
"1574973184589","11","-0.07324219","-0.9707031","0.09375","-0.71875","-11.0625","6.1875"
"1574973184589","12","-0.0087890625","-1.0654297","0.049804688","5.40625","-5.125","14.625"
"1574973184590","13","0.013671875","-0.9794922","0.0625","5.09375","2.0625","9.0625"
"1574973184590","14","-0.02734375","-0.9199219","0.06347656","-5.78125","5.5","10.71875"
"1574973184590","15","-0.07519531","-0.9345703","0.049804688","10.03125","8.0","23.09375"
"1574973184591","16","-0.032226562","-0.9902344","0.04296875","15.34375","19.03125","35.0"
"1574973184591","17","-0.08300781","-0.99902344","0.08203125","15.78125","8.0625","31.625"
"1574973184591","18","-0.12988281","-1.0136719","0.0","15.03125","5.84375","17.46875"
"1574973184591","19","-0.08203125","-1.0820312","0.055664062","5.15625","3.53125","12.59375"
"1574973185379","20","-0.07324219","-1.0498047","0.083984375","1.1875","-4.40625","1.84375"
"1574973185380","21","-0.12109375","-1.0332031","0.072265625","1.90625","-5.9375","-10.0"
"1574973185380","22","-0.1484375","-1.0703125","0.021484375","-8.71875","-3.71875","-14.9375"
"1574973185380","23","-0.16503906","-0.99121094","0.029296875","-21.03125","-0.96875","-16.625"
"1574973185381","24","-0.22167969","-1.0371094","-0.047851562","-18.84375","1.34375","-28.65625"
"1574973185382","25","-0.20996094","-1.0595703","-0.10253906","-27.8125","16.03125","-23.84375"
"1574973185383","26","-0.0859375","-1.1386719","-0.1171875","-31.90625","19.15625","-30.96875"
"1574973185383","27","-0.0078125","-1.0859375","-0.0390625","-29.625","26.53125","-41.40625"
"1574973185383","28","0.2841797","-1.0898438","0.0146484375","-15.125","5.5625","-16.59375"
"1574973185383","29","0.021484375","-0.8886719","-0.06933594","-1.875","-10.3125","-10.21875"
"1574973185577","30","-0.020507812","-0.8535156","-0.09277344","-17.125","-0.1875","-27.3125"
"1574973185577","31","0.14941406","-0.90722656","-0.08984375","-26.40625","7.8125","-21.46875"
"1574973185578","32","0.087890625","-1.0273438","-0.06933594","-17.375","-0.625","-1.5"
"1574973185578","33","0.045898438","-1.0527344","-0.109375","14.1875","-4.34375","7.15625"
"1574973185578","34","0.14648438","-0.9111328","-0.07324219","12.71875","-3.90625","7.96875"
"1574973185578","35","0.1640625","-0.8535156","-0.09082031","20.96875","-6.34375","13.75"
"1574973185579","36","0.06542969","-0.9746094","-0.087890625","13.21875","-1.59375","15.84375"
"1574973185580","37","0.01171875","-0.95996094","-0.06738281","10.9375","-2.3125","16.8125"
"1574973185580","38","0.01171875","-0.9121094","-0.026367188","14.78125","3.71875","17.28125"
"1574973185581","39","0.05078125","-0.98339844","0.048828125","16.625","7.375","25.78125"
"1574973185780","40","-0.09277344","-1.1650391","0.123046875","2.46875","1.34375","18.21875"
"1574973185780","41","-0.4423828","-1.21875","0.07128906","-18.53125","6.90625","-18.90625"
"1574973185781","42","-0.31445312","-1.1933594","0.0859375","3.25","10.0","-5.96875"
"1574973185781","43","0.13867188","-1.0244141","-0.045898438","36.8125","-11.0","11.625"
"1574973185781","44","0.3359375","-0.8769531","0.0703125","6.5625","1.8125","-3.6875"
"1574973185781","45","0.24121094","-0.9140625","0.08984375","-28.34375","-5.25","-20.1875"
"1574973185782","46","-0.047851562","-1.0224609","0.005859375","11.125","-27.84375","-17.375"
"1574973185782","47","-0.034179688","-1.0820312","0.026367188","10.71875","-29.65625","-13.15625"
"1574973185782","48","0.08984375","-0.94628906","0.078125","17.25","-37.0","-15.78125"
"1574973185783","49","0.16699219","-0.9433594","0.076171875","14.1875","-36.9375","-12.6875"
"1574973186177","50","0.12109375","-1.0322266","0.055664062","6.375","-35.78125","-16.21875"
"1574973186178","51","0.078125","-1.0439453","0.016601562","1.0625","-24.71875","-14.375"
"1574973186178","52","0.078125","-1.0693359","-0.0107421875","0.6875","-0.75","-5.96875"
"1574973186179","53","0.049804688","-1.0253906","0.030273438","2.59375","11.59375","0.8125"
"1574973186179","54","0.19238281","-0.9736328","0.072265625","2.15625","20.3125","7.46875"
"1574973186179","55","0.26953125","-1.0566406","0.048828125","2.84375","17.375","9.78125"
"1574973186179","56","0.111328125","-1.0351562","-0.05859375","-2.96875","12.4375","11.75"
"1574973186180","57","-0.01171875","-0.94921875","-0.017578125","-11.5","18.625","4.53125"
"1574973186180","58","0.07324219","-0.90234375","0.07324219","-8.53125","24.59375","13.75"
"1574973186180","59","0.15917969","-1.0332031","0.032226562","-6.4375","16.90625","12.96875"
"1574973186575","60","-0.029296875","-1.0751953","-0.056640625","-4.25","12.625","9.71875"
"1574973186576","61","-0.09472656","-0.98535156","-0.026367188","-6.5","19.65625","13.6875"
"1574973186576","62","0.055664062","-0.9580078","0.033203125","-14.0","19.15625","14.3125"
"1574973186577","63","0.047851562","-1.0585938","0.021484375","-10.15625","9.46875","1.71875"
"1574973186577","64","0.0107421875","-1.0859375","0.0087890625","-6.625","-0.6875","-5.46875"
"1574973186577","65","9.765625E-4","-1.0253906","0.021484375","-4.625","-13.0","2.65625"
"1574973186577","66","0.001953125","-1.0371094","-0.07519531","-0.21875","-22.59375","-6.03125"
"1574973186578","67","0.00390625","-0.9785156","-0.076171875","-7.78125","-9.90625","-22.0625"
"1574973186578","68","-0.03125","-0.93066406","-0.030273438","0.21875","-7.34375","-14.6875"
"1574973186579","69","0.01953125","-0.9902344","-0.07910156","15.9375","-11.90625","-3.21875"
"1574973186973","70","0.13183594","-1.0039062","-0.020507812","6.375","-0.375","12.78125"
"1574973186974","71","0.111328125","-0.9453125","-0.030273438","-2.0","-0.5625","19.5"
"1574973186974","72","-0.036132812","-1.0205078","-0.055664062","3.25","-1.90625","7.53125"
"1574973186975","73","-0.072265625","-1.0048828","-0.037109375","0.8125","12.5625","5.21875"
"1574973186976","74","0.00390625","-1.0029297","-0.0126953125","-0.28125","11.34375","21.6875"
"1574973186976","75","0.11621094","-1.0537109","-0.020507812","-4.6875","7.125","14.78125"
"1574973186976","76","0.0234375","-1.0605469","-0.07128906","-0.78125","-4.46875","1.0625"
"1574973186977","77","0.0078125","-1.0429688","-0.020507812","-8.28125","-1.15625","-1.0625"
"1574973186977","78","0.045898438","-0.9921875","-0.043945312","-4.5","-7.625","-1.5"
"1574973186977","79","0.043945312","-0.98828125","-0.05859375","-8.46875","-8.625","-7.3125"
"1574973187370","80","0.001953125","-1.0253906","-0.06542969","-10.15625","-4.40625","-11.625"
"1574973187370","81","-0.0078125","-0.984375","-0.07519531","-5.59375","-6.21875","-8.15625"
"1574973187370","82","0.025390625","-0.95996094","-0.076171875","0.3125","-5.9375","-4.90625"
"1574973187371","83","0.048828125","-1.0146484","-0.095703125","-1.0625","-1.34375","-4.5"
"1574973187371","84","0.05078125","-1.0117188","-0.09472656","-3.21875","-0.125","-4.75"
"1574973187372","85","0.026367188","-0.9863281","-0.068359375","-1.5","-0.375","-4.5625"
"1574973187372","86","0.036132812","-0.9794922","-0.06933594","-3.40625","0.84375","-1.75"
"1574973187373","87","0.060546875","-1.0244141","-0.08984375","-0.96875","0.1875","-2.53125"
"1574973187373","88","0.064453125","-1.0292969","-0.09082031","-2.0","-3.1875","-3.6875"
"1574973187373","89","0.048828125","-1.0087891","-0.076171875","-1.6875","-5.1875","-0.59375"
"1574973187767","90","0.040039062","-1.0009766","-0.09277344","-1.5","-4.53125","-0.84375"
"1574973187767","91","0.047851562","-1.0146484","-0.09472656","-0.71875","-1.84375","-3.46875"
"1574973187768","92","0.0703125","-1.0117188","-0.10253906","-2.0625","-1.65625","-0.34375"
"1574973187768","93","0.064453125","-0.9814453","-0.09765625","1.125","-2.6875","3.5625"
"1574973187768","94","0.046875","-0.99609375","-0.091796875","1.5","-2.21875","2.34375"
"1574973187768","95","0.060546875","-1.0107422","-0.099609375","4.125","3.90625","2.21875"
"1574973187769","96","0.080078125","-1.0","-0.083984375","4.53125","2.8125","5.40625"
"1574973187769","97","0.049804688","-0.99121094","-0.0703125","1.71875","-0.25","6.1875"
"1574973187769","98","0.055664062","-1.0185547","-0.09667969","6.5625","-0.5","4.84375"
"1574973187770","99","0.043945312","-0.9980469","-0.07519531","5.09375","3.65625","6.84375"
"1574973188165","100","0.051757812","-1.0263672","-0.043945312","5.40625","6.71875","6.8125"
"1574973188165","101","0.037109375","-1.0195312","-0.040039062","4.59375","-0.0625","0.375"
"1574973188166","102","0.033203125","-0.9902344","-0.041992188","-2.0625","-5.4375","-1.25"
"1574973188166","103","0.04296875","-0.9980469","-0.056640625","2.90625","-6.125","-1.5625"
"1574973188166","104","0.055664062","-0.9970703","-0.06542969","3.375","-8.3125","1.4375"
"1574973188166","105","0.026367188","-1.0048828","-0.05859375","0.75","-4.71875","-0.15625"
"1574973188167","106","0.03125","-1.0039062","-0.060546875","6.0","-9.03125","1.65625"
"1574973188167","107","0.040039062","-0.9970703","-0.07519531","3.6875","-6.71875","2.71875"
"1574973188167","108","0.045898438","-1.0068359","-0.057617188","1.125","-2.875","1.0"
"1574973188169","109","0.043945312","-1.015625","-0.059570312","1.625","-2.21875","4.0625"
"1574973188564","110","0.036132812","-1.0146484","-0.059570312","4.21875","-3.4375","3.5625"
"1574973188564","111","0.029296875","-1.0214844","-0.06542969","1.84375","1.59375","4.53125"
"1574973188564","112","0.02734375","-1.0117188","-0.056640625","7.84375","4.4375","6.8125"
"1574973188565","113","0.021484375","-1.0009766","-0.056640625","4.96875","5.5","10.15625"
"1574973188565","114","0.016601562","-1.0078125","-0.060546875","5.6875","1.875","7.90625"
"1574973188565","115","0.022460938","-1.0107422","-0.041992188","6.4375","3.78125","9.71875"
"1574973188565","116","-0.00390625","-1.0097656","-0.03125","2.9375","3.78125","6.75"
"1574973188566","117","0.001953125","-1.0009766","-0.036132812","5.8125","0.375","7.34375"
"1574973188566","118","0.005859375","-1.0019531","-0.05078125","3.1875","2.3125","6.625"
"1574973188566","119","0.01171875","-1.0009766","-0.033203125","7.53125","-2.9375","7.65625"
"1574973188960","120","0.0087890625","-0.9892578","-0.037109375","7.03125","-2.8125","8.5625"
"1574973188960","121","-0.0048828125","-1.0087891","-0.030273438","3.9375","-1.59375","8.8125"
"1574973188961","122","-0.01171875","-1.0078125","-0.041992188","4.21875","-3.65625","7.90625"
"1574973188961","123","-9.765625E-4","-1.0048828","-0.030273438","5.9375","-3.4375","9.90625"
"1574973188961","124","-0.034179688","-0.9921875","-0.033203125","1.5","-1.65625","6.1875"
"1574973188961","125","-0.024414062","-0.9941406","-0.02734375","4.28125","-4.53125","7.15625"
"1574973188962","126","-0.040039062","-0.9892578","-0.028320312","1.84375","-1.21875","6.90625"
"1574973188962","127","-0.056640625","-1.0136719","-0.01953125","-5.03125","-3.375","4.59375"
"1574973188962","128","-0.06640625","-1.0","-0.015625","-2.25","1.9375","4.90625"
"1574973188962","129","-0.08984375","-1.0273438","-0.024414062","-5.15625","2.75","3.0625"
"1574973189356","130","-0.06542969","-0.9921875","-0.028320312","5.6875","-4.21875","6.75"
"1574973189357","131","-0.080078125","-0.99121094","-0.032226562","4.96875","0.53125","12.03125"
"1574973189357","132","-0.10839844","-1.0244141","-0.020507812","9.1875","0.78125","6.125"
"1574973189358","133","-0.08984375","-1.0009766","-0.0068359375","12.03125","-2.09375","13.375"
"1574973189359","134","-0.0234375","-0.9951172","0.022460938","5.9375","-1.78125","10.59375"
"1574973189359","135","-0.07519531","-1.0400391","-0.016601562","19.3125","-12.03125","17.46875"
"1574973189359","136","-0.15039062","-1.0341797","-0.00390625","6.5","-0.75","1.4375"
"1574973189359","137","-0.1015625","-0.9970703","0.03125","12.0","-10.9375","12.09375"
"1574973189360","138","-0.09277344","-1.0078125","0.0078125","16.3125","-7.40625","6.375"
"1574973189360","139","-0.11230469","-1.0195312","0.036132812","8.5","-7.34375","13.6875"
"1574973189755","140","-0.16699219","-1.0595703","0.048828125","3.6875","6.65625","1.84375"
"1574973189755","141","-0.18945312","-1.0097656","0.06738281","-5.46875","6.78125","-0.34375"
"1574973189756","142","-0.1328125","-1.0615234","0.06640625","-3.875","1.34375","-3.875"
"1574973189756","143","-0.21777344","-1.0380859","0.09277344","-6.15625","2.125","-0.84375"
"1574973189756","144","-0.19726562","-1.0722656","0.09082031","-3.15625","-0.875","-17.75"
"1574973189757","145","-0.15625","-1.0009766","0.072265625","-6.6875","-12.59375","-5.15625"
"1574973189757","146","-0.07519531","-1.0537109","0.057617188","-1.6875","-13.25","-11.09375"
"1574973189759","147","-0.11621094","-0.99902344","0.036132812","-14.4375","-10.5625","-16.59375"
"1574973189759","148","-0.11816406","-1.0146484","0.015625","-1.875","-13.9375","-17.375"
"1574973189759","149","-0.072265625","-0.9746094","0.001953125","-14.25","-14.21875","-4.875"
"1574973190153","150","-0.005859375","-0.9921875","-0.046875","-5.53125","-12.03125","-10.59375"
"1574973190153","151","0.0078125","-0.99121094","-0.059570312","-1.0","-16.125","-4.0625"
"1574973190154","152","-0.08496094","-0.96777344","-0.045898438","-0.21875","-14.90625","-1.4375"
"1574973190154","153","-0.0126953125","-0.9765625","-0.048828125","-1.8125","-11.53125","-4.0625"
"1574973190154","154","0.0087890625","-1.0","-0.06347656","3.375","-11.40625","3.0625"
"1574973190154","155","-0.048828125","-0.9902344","-0.049804688","0.375","-3.53125","-0.78125"
"1574973190155","156","-0.01953125","-1.0039062","-0.044921875","1.5","-7.40625","3.875"
"1574973190156","157","-0.03125","-0.9941406","-0.051757812","2.78125","-4.59375","-0.90625"
"1574973190156","158","0.016601562","-0.9951172","-0.049804688","3.1875","-4.9375","2.90625"
"1574973190157","159","-0.0087890625","-0.98339844","-0.030273438","1.78125","-7.21875","2.90625"
"1574973190747","160","-0.024414062","-0.9980469","-0.021484375","-0.96875","-3.125","-1.3125"
"1574973190748","161","-0.078125","-1.0214844","-0.0068359375","-4.4375","-2.9375","-0.53125"
"1574973190748","162","-0.051757812","-1.0644531","-0.0078125","-3.9375","-7.625","-3.875"
"1574973190748","163","-0.107421875","-1.0478516","-0.018554688","-2.0","-7.34375","-4.875"
"1574973190749","164","-0.06640625","-1.0820312","0.025390625","-13.71875","1.03125","-10.15625"
"1574973190749","165","-0.036132812","-1.0185547","-0.016601562","-2.53125","-6.21875","-2.53125"
"1574973190749","166","-0.0048828125","-1.0117188","-0.043945312","1.375","-1.46875","-6.8125"
"1574973190749","167","-0.021484375","-0.9970703","-0.01171875","-9.6875","2.125","-1.0"
"1574973190750","168","-0.08105469","-1.0888672","-0.013671875","-18.34375","8.0","-13.71875"
"1574973190751","169","-0.0703125","-1.0361328","-0.045898438","-12.375","5.1875","-14.5625"
"1574973190948","170","-0.048828125","-1.0908203","-0.03125","-24.875","6.71875","-9.0625"
"1574973190948","171","-0.140625","-1.0888672","-0.026367188","-28.1875","2.0","-24.34375"
"1574973190949","172","-0.037109375","-1.1298828","-0.049804688","-30.8125","-7.5625","-34.875"
"1574973190949","173","0.02734375","-1.0410156","-0.09375","-39.59375","-10.375","-39.90625"
"1574973190949","174","0.14746094","-1.1259766","-0.25878906","-40.1875","-20.03125","-50.5625"
"1574973190949","175","0.09765625","-0.83203125","-0.17871094","-32.8125","-41.6875","-53.0625"
"1574973190950","176","0.16503906","-0.69628906","-0.10253906","-32.6875","-20.34375","-32.25"
"1574973190950","177","0.22753906","-0.79003906","-0.3017578","-31.03125","9.21875","-20.0625"
"1574973190951","178","0.28222656","-0.93359375","-0.43359375","-10.40625","-7.15625","-11.875"
"1574973190951","179","0.3017578","-0.8935547","-0.3408203","-2.125","-15.5","0.03125"
"1574973191344","180","0.26660156","-0.76953125","-0.35839844","3.375","-13.625","5.8125"
"1574973191345","181","0.16992188","-0.8730469","-0.36035156","3.5","-11.125","4.21875"
"1574973191346","182","0.20507812","-0.95703125","-0.32421875","13.625","-12.03125","9.4375"
"1574973191346","183","0.15820312","-0.96484375","-0.2783203","3.4375","-5.625","10.46875"
"1574973191346","184","0.14453125","-0.9863281","-0.25878906","5.03125","-11.46875","5.625"
"1574973191346","185","0.12792969","-0.98828125","-0.24414062","-0.96875","-9.09375","0.4375"
"1574973191347","186","0.09082031","-1.0136719","-0.25390625","-4.90625","-6.40625","-2.1875"
"1574973191347","187","0.13476562","-0.9746094","-0.2939453","-3.6875","-3.3125","-2.0"
"1574973191347","188","0.17675781","-0.92871094","-0.28808594","-0.34375","-1.96875","2.84375"
"1574973191347","189","0.16601562","-0.93652344","-0.2783203","-0.53125","-2.15625","3.8125"
"1574973191941","190","0.15820312","-0.93847656","-0.28125","1.375","-0.125","4.96875"
"1574973191942","191","0.14746094","-0.94140625","-0.27734375","2.09375","2.5","3.5"
"1574973191942","192","0.14648438","-0.9873047","-0.28808594","2.03125","1.28125","3.0"
"1574973191943","193","0.12890625","-0.96972656","-0.27734375","1.0625","2.9375","3.4375"
"1574973191944","194","0.11328125","-0.96484375","-0.27929688","4.125","3.78125","3.5"
"1574973191944","195","0.140625","-0.9628906","-0.2861328","0.6875","5.84375","3.125"
"1574973191944","196","0.15820312","-0.9560547","-0.2841797","0.28125","7.625","5.15625"
"1574973191944","197","0.15722656","-0.9580078","-0.29003906","4.65625","4.625","6.625"
"1574973191945","198","0.13476562","-0.96191406","-0.2919922","3.125","6.03125","5.46875"
"1574973191945","199","0.15234375","-0.96972656","-0.27929688","4.65625","5.90625","4.40625"
"1574973192140","200","0.15429688","-0.95410156","-0.28710938","2.71875","3.90625","5.40625"
"1574973192140","201","0.13964844","-0.95703125","-0.27246094","4.71875","5.25","4.59375"
"1574973192141","202","0.15332031","-0.95703125","-0.2685547","4.84375","2.625","7.15625"
"1574973192141","203","0.14550781","-0.96777344","-0.27441406","3.5","3.71875","5.6875"
"1574973192141","204","0.13574219","-0.9658203","-0.2705078","4.90625","4.03125","4.90625"
"1574973192142","205","0.15722656","-0.9589844","-0.25683594","2.21875","4.21875","6.3125"
"1574973192143","206","0.13964844","-0.96972656","-0.24414062","1.125","6.65625","5.8125"
"1574973192143","207","0.11621094","-0.9638672","-0.2578125","2.28125","4.15625","6.125"
"1574973192143","208","0.1171875","-0.9863281","-0.24316406","3.5625","4.8125","6.0625"
"1574973192143","209","0.115234375","-0.9814453","-0.23828125","1.65625","3.21875","5.21875"
"1574973192538","210","0.10449219","-0.9667969","-0.22949219","1.84375","3.0","5.15625"
"1574973192538","211","0.09375","-0.97753906","-0.22851562","-1.3125","5.375","4.65625"
"1574973192539","212","0.123046875","-0.99316406","-0.2578125","4.59375","1.59375","3.875"
"1574973192539","213","0.08886719","-0.9707031","-0.23535156","3.5625","2.625","4.34375"
"1574973192539","214","0.057617188","-0.9824219","-0.265625","6.5625","3.96875","3.3125"
"1574973192539","215","0.09277344","-0.98339844","-0.24902344","3.5625","1.46875","6.0625"
"1574973192540","216","0.09765625","-0.9589844","-0.24804688","7.46875","5.0625","5.09375"
"1574973192541","217","0.10449219","-0.98046875","-0.24316406","8.875","1.28125","7.65625"
"1574973192542","218","0.095703125","-0.9736328","-0.22363281","9.78125","3.40625","5.21875"
"1574973192542","219","0.09375","-0.98339844","-0.2109375","8.375","2.375","5.40625"
"1574973192935","220","0.11425781","-1.0078125","-0.21484375","9.0","2.3125","5.6875"
"1574973192936","221","0.109375","-0.9785156","-0.20214844","10.53125","1.6875","9.65625"
"1574973192936","222","0.09082031","-0.9785156","-0.19042969","7.90625","4.21875","9.53125"
"1574973192936","223","0.1015625","-0.9980469","-0.19042969","7.46875","4.375","10.28125"
"1574973192936","224","0.08105469","-1.0068359","-0.1875","4.53125","5.78125","9.65625"
"1574973192937","225","0.10253906","-1.015625","-0.17089844","6.3125","1.65625","9.65625"
"1574973192937","226","0.068359375","-0.9873047","-0.16699219","1.1875","3.53125","9.53125"
"1574973192937","227","0.037109375","-1.0117188","-0.16894531","-0.28125","6.15625","5.46875"
"1574973192937","228","0.083984375","-1.0234375","-0.17480469","0.5","2.0","8.03125"
"1574973192939","229","0.078125","-0.9609375","-0.1640625","3.3125","2.125","8.25"
"1574973193332","230","0.08203125","-0.9892578","-0.16601562","5.40625","-0.4375","8.8125"
"1574973193332","231","0.0859375","-1.0039062","-0.1796875","9.25","-2.5625","11.0625"
"1574973193332","232","0.059570312","-0.9736328","-0.15429688","7.78125","-2.6875","12.09375"
"1574973193332","233","0.049804688","-0.9980469","-0.17578125","9.1875","-4.09375","11.25"
"1574973193333","234","0.0546875","-0.99609375","-0.15429688","9.125","-4.03125","11.5625"
"1574973193333","235","0.047851562","-0.9765625","-0.15136719","6.84375","-5.8125","9.53125"
"1574973193333","236","0.0","-0.9970703","-0.17089844","7.28125","-4.03125","8.125"
"1574973193333","237","-0.0078125","-0.9902344","-0.15234375","3.1875","-0.3125","12.09375"
"1574973193334","238","-0.028320312","-0.9814453","-0.15039062","7.21875","3.15625","9.90625"
"1574973193334","239","-0.0234375","-1.0107422","-0.15917969","5.34375","2.5625","11.25"
"1574973193925","240","-0.0390625","-1.0009766","-0.13769531","10.53125","3.96875","15.28125"
"1574973193926","241","-0.032226562","-1.0058594","-0.109375","10.46875","5.5625","13.4375"
"1574973193926","242","-0.038085938","-0.9941406","-0.12988281","14.125","-0.8125","14.1875"
"1574973193926","243","-0.045898438","-1.0214844","-0.10839844","12.09375","-0.25","10.75"
"1574973193927","244","-0.043945312","-1.0224609","-0.09765625","11.375","0.25","9.375"
"1574973193928","245","-0.028320312","-1.0361328","-0.095703125","15.03125","-5.4375","8.4375"
"1574973193929","246","-0.029296875","-1.0039062","-0.080078125","12.03125","-4.53125","9.0625"
"1574973193929","247","-0.049804688","-0.9902344","-0.083984375","12.71875","-5.8125","9.46875"
"1574973193929","248","-0.024414062","-0.98828125","-0.076171875","14.5","-12.46875","11.9375"
"1574973193929","249","-0.001953125","-0.99316406","-0.041015625","16.0625","-11.90625","16.25"
"1574973194129","250","-0.10546875","-0.9873047","-0.064453125","11.4375","-12.09375","12.65625"
"1574973194130","251","-0.15917969","-1.0410156","-0.06738281","9.25","-1.90625","6.125"
"1574973194130","252","-0.08203125","-1.0048828","-0.0390625","8.25","-6.0625","11.4375"
"1574973194131","253","-0.1015625","-0.9589844","-0.046875","11.375","-6.59375","11.75"
"1574973194132","254","-0.125","-1.0136719","-0.0390625","6.6875","-0.75","7.28125"
"1574973194132","255","-0.17578125","-1.0029297","-0.053710938","5.875","-3.4375","8.1875"
"1574973194132","256","-0.13964844","-0.98535156","-0.015625","8.125","-8.125","4.1875"
"1574973194133","257","-0.13671875","-0.9902344","-0.055664062","6.5625","0.25","5.75"
"1574973194133","258","-0.13085938","-1.0185547","-0.033203125","9.71875","-6.84375","5.46875"
"1574973194133","259","-0.13378906","-0.97558594","-0.0068359375","12.03125","-9.21875","7.28125"
"1574973194526","260","-0.13378906","-0.9902344","0.0078125","8.375","-6.28125","6.5625"
"1574973194527","261","-0.15917969","-1.0205078","-0.0048828125","7.78125","-10.5","7.09375"
"1574973194527","262","-0.171875","-0.9951172","-0.0029296875","11.375","-9.09375","3.875"
"1574973194527","263","-0.1484375","-0.9892578","0.022460938","10.21875","-10.375","8.8125"
"1574973194528","264","-0.17089844","-1.0087891","0.030273438","14.625","-12.46875","7.09375"
"1574973194529","265","-0.16699219","-0.98828125","0.0625","12.21875","-6.96875","8.625"
"1574973194529","266","-0.21484375","-0.95410156","0.07421875","9.96875","-0.625","6.96875"
"1574973194530","267","-0.21972656","-1.0263672","0.018554688","8.8125","-4.71875","7.03125"
"1574973194530","268","-0.20605469","-1.0244141","0.04296875","2.28125","0.125","-3.34375"
"1574973194531","269","-0.18945312","-0.97265625","0.064453125","3.4375","2.5","-2.125"
"1574973194921","270","-0.21582031","-0.9794922","0.0390625","11.0","-4.21875","-2.0625"
"1574973194922","271","-0.28710938","-1.0175781","-0.040039062","-3.03125","-0.25","-9.125"
"1574973194922","272","-0.44335938","-1.0058594","-0.009765625","-12.6875","35.46875","-27.1875"
"1574973194922","273","-0.62402344","-1.0810547","0.15234375","-23.125","52.0625","-56.8125"
"1574973194923","274","-0.40039062","-1.1572266","0.1328125","22.1875","20.125","-44.15625"
"1574973194923","275","-0.018554688","-1.1357422","-0.001953125","22.125","34.65625","-24.625"
"1574973194923","276","0.033203125","-1.0273438","0.091796875","8.03125","26.25","-13.15625"
"1574973194924","277","0.087890625","-0.96972656","0.061523438","-14.125","9.40625","-16.9375"
"1574973194924","278","0.1953125","-0.9267578","0.05859375","-19.15625","2.6875","-27.6875"
"1574973194925","279","0.107421875","-0.98339844","0.056640625","-13.34375","-15.6875","-29.40625"
"1574973195320","280","0.09277344","-0.96875","0.001953125","-11.875","-18.4375","-23.78125"
"1574973195320","281","0.060546875","-0.96191406","-0.0029296875","-18.78125","-24.3125","-30.3125"
"1574973195321","282","0.125","-1.0361328","-0.017578125","-21.40625","-16.0625","-30.1875"
"1574973195321","283","0.14550781","-0.9248047","-0.057617188","-7.53125","-24.25","-11.40625"
"1574973195321","284","0.13378906","-0.9199219","-0.0625","-4.25","-18.25","-10.59375"
"1574973195321","285","0.115234375","-0.95996094","-0.07519531","-4.125","-15.25","-5.71875"
"1574973195322","286","0.12109375","-1.0273438","-0.055664062","-7.125","-9.09375","-4.4375"
"1574973195322","287","0.12109375","-1.0","-0.0546875","-10.53125","-7.4375","-10.28125"
"1574973195322","288","0.18457031","-0.9658203","-0.091796875","-4.5625","-11.46875","-3.28125"
"1574973195323","289","0.16699219","-0.9628906","-0.07421875","-3.03125","-15.75","1.65625"
"1574973195915","290","0.1171875","-1.0166016","-0.06542969","-9.875","-9.15625","-6.09375"
"1574973195916","291","0.111328125","-1.0273438","-0.07910156","-15.78125","-6.59375","-9.875"
"1574973195916","292","0.12402344","-1.0185547","-0.115234375","-7.59375","-12.40625","-3.09375"
"1574973195916","293","0.0859375","-1.015625","-0.09667969","-16.75","-6.46875","-8.21875"
"1574973195916","294","0.10253906","-0.98535156","-0.099609375","-14.375","-9.53125","-7.5"
"1574973195917","295","0.18261719","-0.94921875","-0.13476562","0.6875","-18.3125","3.625"
"1574973195917","296","0.17675781","-0.9765625","-0.13769531","-2.65625","-17.78125","2.21875"
"1574973195917","297","0.09472656","-1.0224609","-0.13378906","-8.34375","-14.96875","-4.0"
"1574973195917","298","0.0859375","-0.98828125","-0.14550781","-6.03125","-13.125","-0.96875"
"1574973195918","299","0.12792969","-0.9707031","-0.15722656","1.125","-13.5","6.25"
"1574973196115","300","0.12695312","-0.96875","-0.16308594","1.4375","-9.96875","5.03125"
"1574973196117","301","0.115234375","-0.9765625","-0.16601562","2.28125","-6.59375","9.90625"
"1574973196118","302","0.080078125","-0.9589844","-0.1640625","-0.84375","-2.6875","10.15625"
"1574973196118","303","0.10839844","-0.984375","-0.17773438","3.75","-1.40625","8.125"
"1574973196118","304","0.087890625","-0.96875","-0.15820312","8.25","-2.3125","14.5"
"1574973196118","305","0.064453125","-0.9785156","-0.15136719","5.34375","2.1875","10.28125"
"1574973196119","306","0.0703125","-1.0166016","-0.14355469","4.46875","5.375","10.75"
"1574973196119","307","0.06347656","-1.0009766","-0.16210938","4.65625","6.78125","10.875"
"1574973196119","308","0.068359375","-1.0","-0.14648438","6.625","5.0","9.53125"
"1574973196119","309","0.064453125","-0.9892578","-0.13183594","9.1875","4.03125","10.875"
"1574973196514","310","0.078125","-0.9921875","-0.13183594","8.03125","3.03125","13.5"
"1574973196514","311","0.045898438","-1.0136719","-0.12890625","7.34375","6.40625","11.0"
"1574973196515","312","0.03125","-1.0029297","-0.11328125","6.96875","0.46875","11.25"
"1574973196516","313","0.055664062","-1.0019531","-0.11621094","8.75","-0.96875","10.9375"
"1574973196516","314","0.0546875","-1.0029297","-0.099609375","7.03125","0.53125","10.28125"
"1574973196517","315","0.022460938","-0.9921875","-0.1015625","4.84375","-0.96875","7.53125"
"1574973196517","316","-0.005859375","-1.0068359","-0.099609375","2.21875","-3.1875","2.84375"
"1574973196517","317","0.009765625","-1.0175781","-0.09375","3.6875","-4.15625","4.53125"
"1574973196518","318","0.001953125","-0.9873047","-0.09765625","1.1875","-2.5","2.65625"
"1574973196518","319","0.013671875","-1.0097656","-0.08691406","4.28125","-4.09375","4.84375"
"1574973197107","320","-0.001953125","-0.9921875","-0.08691406","1.4375","-3.84375","5.75"
"1574973197107","321","0.0029296875","-1.0322266","-0.0859375","3.375","-3.59375","2.09375"
"1574973197107","322","9.765625E-4","-1.0068359","-0.08105469","3.1875","-3.96875","5.15625"
"1574973197108","323","-0.0146484375","-1.0029297","-0.10253906","15.15625","-6.125","7.46875"
"1574973197108","324","-0.041015625","-1.0058594","-0.049804688","11.0","-2.875","11.0"
"1574973197108","325","-0.005859375","-1.0146484","-0.0068359375","1.1875","-2.625","11.375"
"1574973197109","326","-0.091796875","-1.0458984","-0.068359375","-0.78125","3.53125","4.90625"
"1574973197109","327","-0.13085938","-1.0771484","-0.041992188","-3.6875","-2.09375","-2.0625"
"1574973197110","328","-0.0703125","-1.0888672","0.001953125","-7.25","-2.03125","-7.5"
"1574973197110","329","-0.018554688","-1.0400391","-0.05859375","-2.25","-8.5","-12.96875"
"1574973197308","330","0.0","-1.0087891","-0.08886719","-2.71875","-3.96875","-10.59375"
"1574973197309","331","0.017578125","-0.984375","-0.099609375","-9.375","-2.21875","-9.375"
"1574973197309","332","0.001953125","-0.96484375","-0.09375","-7.1875","-4.03125","-8.53125"
"1574973197309","333","0.03125","-0.98535156","-0.11621094","-10.40625","-3.65625","-9.8125"
"1574973197309","334","0.07324219","-0.98828125","-0.15820312","-4.0625","-3.3125","-6.9375"
"1574973197310","335","0.08300781","-0.9638672","-0.15429688","0.5","-8.625","-3.59375"
"1574973197310","336","0.051757812","-0.95214844","-0.12890625","3.0625","-5.1875","1.4375"
"1574973197310","337","0.041015625","-0.9589844","-0.1484375","3.5625","-3.71875","1.625"
"1574973197310","338","0.068359375","-0.9765625","-0.16113281","6.1875","-0.3125","7.03125"
"1574973197311","339","0.055664062","-0.9794922","-0.13769531","12.28125","-1.53125","11.875"
"1574973197704","340","0.0126953125","-0.984375","-0.12109375","9.46875","0.65625","10.65625"
"1574973197705","341","0.024414062","-0.99609375","-0.109375","11.1875","-1.15625","10.40625"
"1574973197705","342","0.024414062","-0.9785156","-0.11035156","11.9375","2.125","12.40625"
"1574973197705","343","0.034179688","-0.98046875","-0.08691406","10.71875","3.15625","16.3125"
"1574973197706","344","-0.0078125","-0.9970703","-0.09375","11.4375","2.25","16.5"
"1574973197706","345","-0.0390625","-1.0410156","-0.07714844","10.8125","1.34375","12.03125"
"1574973197706","346","-0.078125","-1.0107422","-0.055664062","10.34375","-0.96875","12.03125"
"1574973197706","347","-0.036132812","-1.0058594","-0.047851562","12.09375","0.90625","9.71875"
"1574973197707","348","-0.013671875","-0.9892578","-0.040039062","9.53125","-0.625","15.21875"
"1574973197708","349","-0.05859375","-1.0126953","-0.05078125","14.25","-4.09375","9.59375"
"1574973198104","350","-0.0546875","-0.9941406","-0.03125","10.8125","-3.65625","14.0625"
"1574973198104","351","-0.0859375","-0.9951172","-0.0146484375","16.0625","-7.4375","13.875"
"1574973198104","352","-0.1484375","-1.0175781","-0.016601562","6.1875","-0.375","9.59375"
"1574973198105","353","-0.125","-1.0458984","-0.00390625","8.875","-3.90625","4.78125"
"1574973198105","354","-0.08105469","-0.99316406","0.00390625","17.53125","-3.0","13.9375"
"1574973198105","355","-0.10644531","-0.9824219","-0.001953125","14.1875","-2.15625","12.34375"
"1574973198106","356","-0.123046875","-1.0107422","0.01171875","14.78125","-2.625","15.9375"
"1574973198106","357","-0.12890625","-1.0166016","0.017578125","10.9375","3.15625","10.40625"
"1574973198106","358","-0.12207031","-0.98046875","0.04296875","10.28125","-2.375","13.21875"
"1574973198106","359","-0.12207031","-1.0009766","0.026367188","14.5625","-3.90625","14.5"
"1574973198500","360","-0.1328125","-0.9814453","0.040039062","9.4375","0.59375","12.0"
"1574973198502","361","-0.17285156","-0.99609375","0.053710938","9.0","-1.96875","11.5625"
"1574973198502","362","-0.17773438","-1.0175781","0.0703125","8.03125","1.34375","12.53125"
"1574973198503","363","-0.21484375","-0.9921875","0.037109375","4.34375","-2.25","6.90625"
"1574973198503","364","-0.2763672","-1.0361328","0.10546875","-4.875","6.09375","1.5625"
"1574973198503","365","-0.22363281","-1.0556641","0.12109375","-5.84375","2.6875","0.15625"
"1574973198503","366","-0.2607422","-1.0654297","0.12109375","-19.875","2.8125","-4.1875"
"1574973198504","367","-0.31933594","-1.0283203","0.16015625","-20.90625","-1.90625","-12.625"
"1574973198504","368","-0.22460938","-1.03125","0.1015625","-7.3125","-15.5","-15.71875"
"1574973198504","369","-0.22558594","-1.0039062","0.0390625","-9.125","-0.625","-20.78125"
"1574973199293","370","-0.15136719","-1.0214844","0.08984375","-19.25","-4.8125","-17.4375"
"1574973199294","371","-0.16113281","-0.99902344","0.018554688","-9.25","-10.125","-20.125"
"1574973199294","372","-0.12109375","-0.9658203","-0.017578125","-1.6875","-14.21875","-20.84375"
"1574973199294","373","-0.0546875","-0.95214844","-0.040039062","2.34375","-9.09375","-11.9375"
"1574973199295","374","0.0087890625","-0.9511719","-0.037109375","6.5","-9.40625","-3.40625"
"1574973199295","375","-0.020507812","-0.96191406","-0.044921875","5.625","-2.75","2.34375"
"1574973199295","376","-0.049804688","-0.98828125","-0.049804688","1.65625","0.3125","3.0625"
"1574973199295","377","-0.07519531","-0.96875","-0.0390625","3.3125","-2.75","7.71875"
"1574973199296","378","-0.06542969","-0.98046875","-0.024414062","-6.15625","6.03125","4.0625"
"1574973199296","379","-0.009765625","-1.0205078","-0.036132812","4.78125","5.59375","10.65625"
"1574973199493","380","-0.021484375","-0.9667969","-0.02734375","9.90625","1.15625","15.40625"
"1574973199493","381","-0.049804688","-0.95703125","-0.032226562","17.40625","-6.125","14.3125"
"1574973199493","382","-0.053710938","-0.9921875","-0.03125","22.0625","-7.6875","21.1875"
"1574973199494","383","-0.0625","-0.9609375","-0.0029296875","17.1875","-4.53125","21.375"
"1574973199494","384","-0.08300781","-0.94921875","0.0126953125","22.1875","-3.5","22.25"
"1574973199495","385","-0.13769531","-1.0039062","0.033203125","14.3125","-3.125","20.46875"
"1574973199495","386","-0.21679688","-1.0224609","0.080078125","5.21875","-2.875","17.0"
"1574973199495","387","-0.18847656","-1.0048828","0.08496094","15.40625","-1.09375","15.53125"
"1574973199496","388","-0.22558594","-1.0107422","0.08496094","17.78125","-11.96875","17.65625"
"1574973199496","389","-0.2265625","-0.99121094","0.12402344","6.1875","-0.25","12.53125"
"1574973199692","390","-0.26464844","-1.0292969","0.103515625","12.34375","-11.0","8.125"
"1574973199693","391","-0.29003906","-0.95703125","0.1328125","8.8125","2.3125","3.3125"
"1574973199693","392","-0.22167969","-1.0068359","0.08984375","12.0","-9.71875","5.28125"
"1574973199693","393","-0.22460938","-0.98046875","0.11621094","5.03125","-2.625","4.78125"
"1574973199693","394","-0.26171875","-0.9746094","0.14453125","6.125","-7.40625","-0.53125"
"1574973199694","395","-0.25097656","-0.98535156","0.13964844","4.46875","-10.625","0.8125"
"1574973199694","396","-0.31152344","-1.0039062","0.1484375","5.9375","-7.5","-3.59375"
"1574973199695","397","-0.3095703","-1.0078125","0.20214844","-14.6875","1.8125","-7.59375"
"1574973199696","398","-0.36035156","-1.0634766","0.1640625","-12.0625","-3.90625","-11.09375"
"1574973199696","399","-0.31054688","-1.0634766","0.16503906","-16.28125","-2.5","-14.75"
"1574973200090","400","-0.24023438","-0.984375","0.10449219","-6.75","-9.71875","-6.09375"
"1574973200091","401","-0.25585938","-0.9511719","0.12011719","-20.0","5.4375","-12.4375"
"1574973200091","402","-0.19042969","-1.0253906","0.06738281","-19.9375","1.6875","-21.71875"
"1574973200091","403","-0.15527344","-1.0107422","0.056640625","-17.125","-4.875","-15.1875"
"1574973200092","404","-0.15527344","-0.9873047","0.05859375","-10.78125","-7.21875","-19.8125"
"1574973200092","405","-0.1171875","-0.98339844","0.016601562","-13.71875","-12.8125","-18.78125"
"1574973200092","406","-0.12207031","-1.0253906","0.0126953125","-22.0625","-5.8125","-26.65625"
"1574973200092","407","-0.08984375","-1.0283203","0.020507812","-24.5625","-9.28125","-22.1875"
"1574973200093","408","-0.078125","-0.93847656","-0.029296875","-15.34375","-20.625","-13.40625"
"1574973200094","409","-0.0625","-0.9902344","-0.036132812","-15.25","-6.90625","-22.8125"
"1574973200684","410","-0.038085938","-0.98046875","-0.07421875","-19.3125","-7.4375","-20.96875"
"1574973200684","411","0.025390625","-0.94140625","-0.09472656","-2.125","-9.65625","-6.875"
"1574973200684","412","0.044921875","-0.9003906","-0.10253906","-0.96875","-8.90625","-2.90625"
"1574973200685","413","0.057617188","-0.9511719","-0.12597656","4.28125","-5.5","0.09375"
"1574973200685","414","0.0107421875","-0.9589844","-0.1171875","8.625","-6.125","8.5"
"1574973200685","415","0.022460938","-0.94628906","-0.09082031","7.90625","-1.09375","9.84375"
"1574973200685","416","0.0048828125","-0.9667969","-0.09277344","10.15625","1.21875","14.78125"
"1574973200686","417","-0.015625","-0.9970703","-0.0625","8.75","6.34375","14.1875"
"1574973200686","418","-0.072265625","-1.0009766","-0.015625","4.59375","7.375","15.71875"
"1574973200686","419","-0.12988281","-1.0371094","0.0087890625","-1.0625","6.15625","8.6875"
"1574973200885","420","-0.12792969","-1.0556641","0.018554688","3.9375","2.375","7.40625"
"1574973200886","421","-0.16113281","-1.0410156","0.01953125","2.40625","-0.0625","4.1875"
"1574973200887","422","-0.1640625","-1.0419922","0.028320312","-1.0625","-0.75","3.375"
"1574973200887","423","-0.18164062","-1.0615234","0.01953125","-0.84375","0.96875","-5.59375"
"1574973200887","424","-0.18554688","-1.0771484","0.041015625","-6.5625","0.0","-9.25"
"1574973200888","425","-0.17089844","-1.0761719","0.047851562","-18.90625","-0.4375","-16.75"
"1574973200888","426","-0.20507812","-1.078125","0.0234375","-19.21875","-4.875","-24.40625"
"1574973200888","427","-0.17285156","-1.1201172","-0.016601562","-28.25","0.46875","-33.96875"
"1574973200888","428","-0.15527344","-1.1494141","-0.040039062","-39.96875","-4.21875","-46.78125"
"1574973200889","429","-0.017578125","-1.015625","-0.061523438","-31.71875","-13.6875","-49.59375"
"1574973201282","430","0.11816406","-0.83203125","-0.12011719","-10.65625","-24.53125","-38.0625"
"1574973201283","431","0.140625","-0.7988281","-0.15917969","-15.59375","-16.96875","-23.21875"
"1574973201283","432","0.119140625","-0.9199219","-0.19726562","-21.71875","-4.78125","-18.90625"
"1574973201284","433","0.16992188","-0.9550781","-0.2626953","-16.875","-11.125","-17.96875"
"1574973201285","434","0.23828125","-0.9609375","-0.2626953","-1.3125","-13.25","-6.15625"
"1574973201285","435","0.14160156","-0.89453125","-0.28710938","-2.96875","-5.875","-1.375"
"1574973201285","436","0.16113281","-0.9248047","-0.23730469","3.0","-9.71875","-2.1875"
"1574973201285","437","0.12890625","-0.9326172","-0.23632812","4.34375","-1.46875","1.25"
"1574973201286","438","0.15234375","-0.9716797","-0.24609375","4.125","-2.3125","0.09375"
"1574973201286","439","0.1328125","-0.9736328","-0.21875","2.9375","-1.90625","7.34375"
"1574973201874","440","0.099609375","-0.9580078","-0.20410156","-1.0","-1.28125","5.6875"
"1574973201875","441","0.11816406","-1.0175781","-0.18457031","0.21875","-1.65625","5.46875"
"1574973201875","442","0.087890625","-0.9746094","-0.18554688","0.28125","-5.9375","3.3125"
"1574973201875","443","0.076171875","-1.0078125","-0.16308594","0.8125","-7.75","-1.375"
"1574973201876","444","0.099609375","-0.9951172","-0.18164062","1.125","-0.375","0.9375"
"1574973201876","445","0.08300781","-0.9765625","-0.20214844","0.5625","2.125","1.25"
"1574973201877","446","0.09375","-0.984375","-0.19335938","3.3125","1.75","3.0"
"1574973201877","447","0.125","-0.96972656","-0.19824219","6.0","-0.96875","6.125"
"1574973201877","448","0.06640625","-0.9746094","-0.1875","5.5625","2.375","5.03125"
"1574973201878","449","0.07519531","-1.0166016","-0.1796875","3.5625","3.03125","4.34375"
"1574973202079","450","0.055664062","-1.0107422","-0.1640625","6.25","2.75","4.21875"
"1574973202080","451","0.06640625","-0.9667969","-0.17578125","2.03125","5.1875","3.75"
"1574973202080","452","0.09667969","-1.015625","-0.1953125","8.1875","5.65625","8.25"
"1574973202080","453","0.087890625","-0.9765625","-0.16113281","6.375","4.03125","11.3125"
"1574973202080","454","0.06347656","-0.9609375","-0.16796875","3.9375","8.53125","10.21875"
"1574973202081","455","0.1015625","-1.0009766","-0.17285156","5.75","9.6875","14.0"
"1574973202081","456","0.013671875","-1.0263672","-0.15039062","1.625","13.65625","11.6875"
"1574973202083","457","0.0126953125","-1.0351562","-0.12597656","-4.90625","15.5","6.8125"
"1574973202083","458","0.028320312","-1.046875","-0.103515625","-1.5","11.84375","11.75"
"1574973202083","459","0.013671875","-1.0322266","-0.123046875","-7.375","7.875","1.65625"
"1574973202474","460","0.0234375","-1.0205078","-0.14257812","1.84375","-0.3125","0.8125"
"1574973202474","461","0.061523438","-0.9941406","-0.140625","4.46875","-8.125","1.3125"
"1574973202475","462","0.078125","-0.9667969","-0.15527344","2.90625","-6.125","-0.15625"
"1574973202475","463","0.06347656","-0.96484375","-0.1796875","3.75","-3.65625","2.21875"
"1574973202475","464","0.049804688","-0.95410156","-0.18261719","9.59375","-4.09375","6.0625"
"1574973202475","465","0.0546875","-0.9511719","-0.15917969","4.90625","-2.09375","6.6875"
"1574973202475","466","0.048828125","-1.015625","-0.16601562","-0.15625","3.96875","5.46875"
"1574973202476","467","0.025390625","-1.0273438","-0.16015625","4.78125","-0.25","4.96875"
"1574973202476","468","0.001953125","-1.0087891","-0.14453125","1.25","-1.09375","1.375"
"1574973202477","469","0.020507812","-0.9814453","-0.15625","4.0625","0.0","0.21875"
"1574973203069","470","0.043945312","-0.96875","-0.16601562","5.34375","2.5","6.5625"
"1574973203069","471","0.04296875","-0.9765625","-0.16992188","6.5","3.09375","8.5625"
"1574973203069","472","0.03125","-0.9941406","-0.1640625","9.4375","3.53125","11.6875"
"1574973203070","473","0.0126953125","-0.9970703","-0.140625","5.28125","5.96875","7.53125"
"1574973203070","474","0.0146484375","-0.9951172","-0.13476562","7.53125","3.09375","5.5625"
"1574973203070","475","0.0087890625","-1.0039062","-0.13378906","6.0625","1.9375","5.75"
"1574973203070","476","0.018554688","-1.0175781","-0.1328125","6.3125","0.59375","6.84375"
"1574973203071","477","0.0087890625","-1.0029297","-0.12988281","6.96875","-1.53125","5.625"
"1574973203071","478","0.026367188","-0.99609375","-0.12109375","9.125","-3.65625","6.5625"
"1574973203071","479","0.021484375","-0.9951172","-0.13085938","10.15625","-8.625","6.75"
"1574973203468","480","0.00390625","-0.9863281","-0.09667969","6.375","-8.84375","7.34375"
"1574973203468","481","0.005859375","-0.9970703","-0.11328125","5.21875","-7.9375","3.75"
"1574973203468","482","-0.03515625","-1.0136719","-0.1015625","7.40625","-9.90625","4.0625"
"1574973203469","483","-0.032226562","-1.0117188","-0.0859375","4.90625","-9.78125","4.28125"
"1574973203469","484","-0.028320312","-1.0107422","-0.08105469","8.9375","-12.6875","8.09375"
"1574973203470","485","-0.032226562","-1.0214844","-0.08203125","6.125","-6.0","6.75"
"1574973203470","486","-0.026367188","-1.0146484","-0.07714844","7.15625","-8.0","10.65625"
"1574973203470","487","-0.049804688","-1.0292969","-0.037109375","7.78125","-3.78125","7.78125"
"1574973203471","488","-0.024414062","-1.0322266","0.017578125","18.40625","-9.34375","11.9375"
"1574973203471","489","-0.06347656","-1.0019531","-0.029296875","15.71875","-13.4375","19.4375"
"1574973203666","490","-0.099609375","-1.0078125","-0.041992188","3.375","-5.4375","4.34375"
"1574973203667","491","-0.091796875","-1.0068359","-0.018554688","-1.5625","-3.3125","6.375"
"1574973203667","492","-0.09667969","-0.984375","-0.03515625","1.375","-7.03125","6.0"
"1574973203668","493","-0.13183594","-0.9892578","-0.053710938","3.1875","-5.875","4.0"
"1574973203668","494","-0.13476562","-0.99121094","-0.06542969","-0.15625","-3.375","5.28125"
"1574973203669","495","-0.12792969","-1.0009766","-0.041015625","-2.25","2.5625","4.53125"
"1574973203669","496","-0.12792969","-1.0263672","-0.048828125","6.375","-4.46875","7.15625"
"1574973203669","497","-0.11328125","-1.0351562","-0.046875","1.96875","-2.4375","1.96875"
"1574973203669","498","-0.14941406","-1.0351562","-0.030273438","-1.8125","0.40625","0.9375"
"1574973203670","499","-0.125","-1.015625","-0.01953125","-3.15625","-1.96875","-1.9375"
"1574973204065","500","-0.059570312","-1.0136719","-0.048828125","5.75","-10.8125","2.78125"
"1574973204066","501","-0.05859375","-1.0263672","-0.05078125","-2.59375","-7.40625","-2.40625"
"1574973204066","502","-0.061523438","-1.0009766","-0.05078125","0.3125","-14.59375","-2.125"
"1574973204066","503","-0.083984375","-0.98046875","-0.05859375","1.0625","-16.1875","-2.96875"
"1574973204066","504","-0.059570312","-0.97753906","-0.072265625","3.5","-14.65625","-1.875"
"1574973204068","505","-0.047851562","-0.9785156","-0.087890625","6.6875","-13.8125","2.65625"
"1574973204069","506","-0.06347656","-0.9628906","-0.08691406","8.5625","-12.21875","4.0"
"1574973204070","507","-0.091796875","-0.9736328","-0.0703125","3.8125","-5.625","2.40625"
"1574973204070","508","-0.06738281","-0.98828125","-0.08203125","9.84375","-6.15625","5.6875"
"1574973204070","509","-0.08984375","-0.97753906","-0.0546875","6.1875","-0.8125","4.40625"
"1574973204461","510","-0.06738281","-1.0214844","-0.072265625","7.34375","-2.25","3.0625"
"1574973204462","511","-0.111328125","-0.9951172","-0.078125","7.46875","-2.75","5.6875"
"1574973204462","512","-0.14648438","-0.9873047","-0.049804688","4.125","-1.03125","0.5"
"1574973204462","513","-0.14160156","-1.0048828","-0.0546875","4.96875","2.0625","2.40625"
"1574973204462","514","-0.18164062","-1.0117188","-0.024414062","-2.1875","14.8125","-3.75"
"1574973204463","515","-0.16601562","-1.0224609","-0.047851562","-7.1875","2.75","-13.40625"
"1574973204463","516","-0.08105469","-0.9589844","-0.06738281","8.3125","-3.96875","-2.0"
"1574973204464","517","-0.06738281","-1.0117188","-0.03125","11.0625","-0.4375","1.25"
"1574973204464","518","-0.10546875","-1.0146484","-0.055664062","6.8125","2.1875","4.71875"
"1574973204465","519","-0.11816406","-0.98828125","-0.02734375","10.34375","-1.03125","5.625"
"1574973204860","520","-0.08886719","-1.0058594","-0.005859375","11.1875","7.375","8.25"
"1574973204860","521","-0.12695312","-1.0380859","-0.018554688","8.5625","2.3125","5.8125"
"1574973204861","522","-0.16699219","-1.03125","-0.009765625","1.3125","15.6875","0.4375"
"1574973204861","523","-0.14355469","-1.1220703","0.041992188","-10.40625","14.75","-5.09375"
"1574973204861","524","-0.19824219","-1.0234375","0.05859375","-17.0625","10.1875","-15.46875"
"1574973204861","525","-0.052734375","-1.0410156","0.040039062","-5.96875","-10.625","-13.21875"
"1574973204862","526","-0.038085938","-0.9873047","-0.00390625","3.125","-7.28125","-11.40625"
"1574973204862","527","-0.013671875","-0.9716797","-0.02734375","-3.40625","-10.75","-10.0"
"1574973204862","528","-0.048828125","-0.9667969","-0.033203125","0.6875","-7.4375","-7.53125"
"1574973204863","529","-0.01953125","-0.9580078","-0.030273438","1.1875","-4.875","-2.53125"
"1574973205258","530","-0.037109375","-0.953125","-0.041992188","2.53125","0.125","3.3125"
"1574973205259","531","-0.0625","-1.0136719","-0.030273438","5.34375","3.59375","7.78125"
"1574973205259","532","-0.13867188","-1.0576172","-0.0087890625","-0.59375","14.34375","6.8125"
"1574973205259","533","-0.08203125","-1.0771484","0.0068359375","-9.4375","14.8125","5.15625"
"1574973205259","534","-0.0625","-0.99121094","-0.0234375","-3.03125","10.25","9.59375"
"1574973205260","535","-0.034179688","-0.96972656","-0.02734375","0.375","10.96875","10.09375"
"1574973205260","536","0.0087890625","-0.9785156","-0.03125","6.96875","2.5625","11.6875"
"1574973205261","537","0.0048828125","-0.95703125","-0.030273438","6.75","-1.96875","9.59375"
"1574973205261","538","-0.029296875","-0.9580078","-0.044921875","9.1875","-6.0625","13.28125"
"1574973205261","539","-0.076171875","-0.9970703","-0.01171875","7.90625","-3.5","10.9375"
"1574973205655","540","-0.10058594","-0.99609375","-0.0146484375","11.6875","-9.71875","13.6875"
"1574973205656","541","-0.10644531","-1.0185547","0.0068359375","7.46875","-3.4375","11.75"
"1574973205657","542","-0.083984375","-1.0019531","-0.0078125","12.09375","-10.25","16.3125"
"1574973205657","543","-0.17578125","-1.0058594","-9.765625E-4","10.59375","-8.3125","12.21875"
"1574973205657","544","-0.16503906","-0.9970703","0.0068359375","6.96875","-7.5625","9.78125"
"1574973205658","545","-0.1796875","-0.99121094","0.017578125","8.9375","-6.40625","10.40625"
"1574973205658","546","-0.17773438","-1.0107422","0.02734375","3.3125","0.3125","6.75"
"1574973205658","547","-0.24902344","-1.0263672","0.028320312","3.625","3.46875","6.0625"
"1574973205658","548","-0.27246094","-1.0566406","0.06738281","-5.96875","10.0625","-2.96875"
"1574973205659","549","-0.22851562","-1.0390625","0.0390625","-4.75","-0.4375","-7.3125"
"1574973206053","550","-0.17089844","-1.0234375","0.0390625","-3.28125","-1.28125","-8.78125"
"1574973206053","551","-0.11230469","-0.9892578","-0.025390625","0.3125","-6.21875","-8.71875"
"1574973206054","552","-0.08105469","-0.93847656","-0.0029296875","2.21875","-14.40625","-4.75"
"1574973206055","553","-0.09472656","-0.94140625","-0.009765625","1.0625","-11.40625","-3.9375"
"1574973206055","554","-0.095703125","-0.97558594","-0.0234375","6.125","-10.8125","1.0625"
"1574973206056","555","-0.13085938","-0.95996094","-0.022460938","5.28125","-8.1875","6.90625"
"1574973206056","556","-0.12207031","-0.97753906","-0.018554688","6.8125","-4.15625","9.0625"
"1574973206056","557","-0.140625","-0.99121094","-0.0107421875","10.09375","-3.125","12.28125"
"1574973206057","558","-0.16210938","-0.9892578","0.00390625","9.71875","-0.4375","11.9375"
"1574973206057","559","-0.14257812","-0.98046875","0.0078125","15.28125","-3.125","13.8125"
"1574973206452","560","-0.18359375","-1.0039062","0.0146484375","18.6875","-6.53125","12.46875"
"1574973206452","561","-0.22753906","-1.0087891","0.080078125","10.71875","-4.28125","14.0625"
"1574973206453","562","-0.24121094","-1.0224609","0.080078125","1.5625","-3.65625","9.0625"
"1574973206453","563","-0.20605469","-1.0107422","0.09863281","0.5","2.3125","7.46875"
"1574973206453","564","-0.20800781","-1.0292969","0.078125","-1.875","0.78125","2.21875"
"1574973206454","565","-0.2705078","-1.0078125","0.09375","-7.0","-1.53125","-2.25"
"1574973206454","566","-0.2783203","-1.0136719","0.09472656","-8.28125","-1.53125","-8.59375"
"1574973206455","567","-0.26757812","-1.0146484","0.10644531","-10.78125","1.59375","-7.53125"
"1574973206455","568","-0.20996094","-1.0371094","0.049804688","-7.84375","-3.90625","-10.96875"
"1574973206455","569","-0.23535156","-1.0136719","0.051757812","-6.8125","-3.1875","-10.59375"
"1574973207046","570","-0.2265625","-1.0283203","0.053710938","-13.65625","-5.1875","-16.09375"
"1574973207047","571","-0.2421875","-1.0097656","0.036132812","-10.53125","-2.4375","-20.375"
"1574973207047","572","-0.119140625","-1.0136719","0.025390625","-10.09375","-1.90625","-15.25"
"1574973207047","573","-0.14453125","-1.0097656","-0.0029296875","-9.4375","-3.0","-17.4375"
"1574973207048","574","-0.119140625","-0.9951172","-0.00390625","-10.53125","-6.59375","-19.21875"
"1574973207048","575","-0.11425781","-0.96875","-0.033203125","-7.84375","-7.28125","-13.34375"
"1574973207048","576","-0.087890625","-1.0146484","-0.03125","-11.34375","-2.375","-16.03125"
"1574973207050","577","-0.06738281","-0.99609375","-0.045898438","-10.65625","-3.5","-12.90625"
"1574973207050","578","-0.044921875","-0.99121094","-0.055664062","-9.75","-5.25","-11.8125"
"1574973207050","579","-0.053710938","-1.015625","-0.05078125","-11.8125","-0.8125","-12.90625"
"1574973207443","580","-0.033203125","-0.9736328","-0.07128906","-6.3125","-8.71875","-13.15625"
"1574973207444","581","0.009765625","-0.9355469","-0.087890625","1.1875","-8.71875","-8.59375"
"1574973207444","582","-0.005859375","-0.9560547","-0.08691406","-6.9375","0.125","-7.5"
"1574973207444","583","0.061523438","-0.97265625","-0.123046875","3.1875","-2.5625","1.78125"
"1574973207445","584","0.01953125","-0.9326172","-0.11230469","9.46875","-5.875","5.09375"
"1574973207445","585","0.0390625","-0.96972656","-0.10449219","6.625","-0.0625","4.40625"
"1574973207445","586","0.0029296875","-0.9785156","-0.119140625","12.0","-1.59375","13.4375"
"1574973207445","587","-0.016601562","-0.9746094","-0.07128906","7.90625","1.8125","11.6875"
"1574973207446","588","-0.017578125","-0.9921875","-0.08300781","8.375","4.625","14.4375"
"1574973207446","589","-0.057617188","-1.0185547","-0.0625","5.875","5.0625","10.75"
"1574973207841","590","-0.09082031","-1.0410156","-0.018554688","2.59375","3.78125","8.875"
"1574973207842","591","-0.16503906","-1.0830078","-0.015625","-11.9375","11.90625","-1.25"
"1574973207842","592","-0.20410156","-1.0957031","-0.013671875","-7.78125","-1.34375","-14.375"
"1574973207842","593","-0.103515625","-1.0332031","-0.048828125","0.4375","0.375","-6.8125"
"1574973207843","594","-0.045898438","-0.98339844","-0.0546875","-1.75","-4.875","-6.15625"
"1574973207843","595","-0.0390625","-1.0214844","-0.05078125","-2.46875","-8.125","-8.28125"
"1574973207843","596","-0.099609375","-1.03125","-0.061523438","-4.125","-12.53125","-14.25"
"1574973207843","597","-0.10253906","-1.0126953","-0.0390625","-8.03125","-11.96875","-12.125"
"1574973207844","598","-0.034179688","-1.0341797","-0.06347656","-8.875","-11.1875","-13.28125"
"1574973207844","599","-0.040039062","-1.0283203","-0.08496094","-5.59375","-15.25","-11.40625"
"1574973208239","600","-0.059570312","-1.0","-0.076171875","-7.53125","-14.71875","-13.15625"
"1574973208241","601","-0.013671875","-0.9951172","-0.103515625","-6.03125","-11.3125","-11.28125"
"1574973208241","602","0.015625","-0.9921875","-0.11035156","-6.75","-10.375","-10.0625"
"1574973208242","603","0.016601562","-0.984375","-0.11328125","-4.125","-10.625","-7.53125"
"1574973208242","604","0.03515625","-0.9736328","-0.1015625","-5.34375","-8.0","-6.09375"
"1574973208242","605","0.055664062","-0.97265625","-0.11621094","-1.4375","-10.0625","-2.65625"
"1574973208242","606","0.0234375","-0.95410156","-0.1171875","0.875","-8.84375","-2.0625"
"1574973208243","607","0.056640625","-1.0244141","-0.1484375","-0.34375","-7.28125","-2.0"
"1574973208243","608","0.025390625","-1.0273438","-0.119140625","0.5","-10.1875","-1.375"
"1574973208244","609","0.009765625","-0.9785156","-0.10839844","0.28125","-7.9375","-4.6875"
"1574973208833","610","0.03515625","-0.9794922","-0.12988281","2.53125","-7.34375","-3.34375"
"1574973208833","611","0.055664062","-0.984375","-0.140625","3.875","-6.78125","1.125"
"1574973208833","612","0.06933594","-0.97558594","-0.13671875","5.21875","-3.0625","2.34375"
"1574973208835","613","0.038085938","-0.9609375","-0.14453125","0.75","-3.90625","6.4375"
"1574973208835","614","0.053710938","-1.0058594","-0.14648438","1.71875","1.6875","5.15625"
"1574973208835","615","0.064453125","-1.0029297","-0.13378906","3.6875","0.78125","8.875"
"1574973208836","616","0.01953125","-0.9951172","-0.115234375","0.375","2.125","5.8125"
"1574973208836","617","0.01953125","-1.0136719","-0.11816406","1.625","2.75","2.40625"
"1574973208836","618","0.009765625","-0.99121094","-0.123046875","0.03125","3.40625","4.84375"
"1574973208837","619","0.0146484375","-1.0019531","-0.1171875","-1.625","2.875","1.90625"
"1574973209034","620","0.017578125","-0.97558594","-0.13183594","0.5","3.71875","5.28125"
"1574973209034","621","0.025390625","-0.9736328","-0.12695312","-1.0625","7.1875","4.90625"
"1574973209034","622","0.030273438","-0.9980469","-0.13867188","2.59375","0.3125","7.03125"
"1574973209035","623","-0.021484375","-0.99902344","-0.12792969","0.5","1.46875","5.75"
"1574973209035","624","0.022460938","-0.97265625","-0.12402344","2.59375","4.75","8.09375"
"1574973209036","625","0.0029296875","-1.0136719","-0.11816406","6.5625","3.09375","10.75"
"1574973209037","626","-0.0126953125","-1.0263672","-0.12011719","8.5","4.9375","7.21875"
"1574973209037","627","-0.0390625","-1.0039062","-0.11425781","11.0","8.28125","9.90625"
"1574973209037","628","-0.041015625","-1.0253906","-0.0625","4.28125","11.90625","8.75"
"1574973209038","629","-0.030273438","-1.0068359","-0.087890625","4.53125","7.375","8.25"
"1574973209430","630","-0.0068359375","-1.0175781","-0.087890625","9.1875","7.8125","10.40625"
"1574973209430","631","-0.033203125","-1.0097656","-0.078125","8.3125","5.0","13.28125"
"1574973209431","632","-0.041015625","-1.0205078","-0.0546875","9.1875","1.40625","10.15625"
"1574973209431","633","-0.041015625","-1.0380859","-0.053710938","12.34375","0.125","11.1875"
"1574973209431","634","-0.038085938","-1.0322266","-0.028320312","10.875","-2.625","10.75"
"1574973209431","635","-0.048828125","-1.0234375","0.001953125","9.125","-5.9375","9.375"
"1574973209432","636","-0.0048828125","-1.0","-0.0078125","10.65625","-19.21875","8.03125"
"1574973209433","637","0.018554688","-1.0029297","-0.0107421875","10.59375","-23.1875","10.28125"
"1574973209433","638","-0.0390625","-0.9746094","-0.021484375","7.84375","-23.125","9.0625"
"1574973209433","639","-0.091796875","-1.0009766","-0.037109375","3.8125","-21.96875","7.46875"
"1574973209829","640","-0.115234375","-1.0009766","-0.01953125","0.375","-18.0","8.1875"
"1574973209830","641","-0.09667969","-0.9941406","-0.013671875","2.59375","-16.1875","9.125"
"1574973209830","642","-0.13964844","-0.9746094","-0.040039062","8.5625","-19.28125","10.15625"
"1574973209830","643","-0.17480469","-1.0185547","-0.024414062","2.59375","-11.0625","7.78125"
"1574973209830","644","-0.16015625","-1.0195312","-0.047851562","2.15625","-5.5","5.09375"
"1574973209831","645","-0.12011719","-0.9941406","-0.0146484375","6.90625","-3.90625","5.9375"
"1574973209831","646","-0.15625","-0.9814453","-0.016601562","4.90625","-5.25","3.9375"
"1574973209831","647","-0.15136719","-1.0048828","-0.025390625","1.71875","-1.78125","1.78125"
"1574973209831","648","-0.11230469","-1.0058594","-0.013671875","3.875","-5.1875","4.65625"
"1574973209833","649","-0.1328125","-1.0146484","9.765625E-4","2.71875","-5.6875","1.375"
"1574973210424","650","-0.18945312","-1.0146484","-0.015625","0.375","-7.625","-6.15625"
"1574973210424","651","-0.15234375","-0.9824219","-0.033203125","3.5","-12.8125","-2.1875"
"1574973210425","652","-0.15429688","-0.98535156","-0.037109375","4.0625","-10.0625","-2.84375"
"1574973210425","653","-0.13671875","-1.0166016","-0.037109375","3.375","-7.21875","-3.28125"
"1574973210425","654","-0.1484375","-1.0253906","-0.025390625","2.28125","-5.6875","-2.90625"
"1574973210425","655","-0.18554688","-1.0419922","-0.009765625","-3.59375","-2.75","-9.6875"
"1574973210425","656","-0.16699219","-1.0","-0.013671875","-2.1875","-5.4375","-7.84375"
"1574973210426","657","-0.14257812","-1.0205078","-0.016601562","-5.03125","-4.15625","-8.65625"
"1574973210426","658","-0.12011719","-1.0039062","-0.026367188","-6.3125","-6.59375","-10.09375"
"1574973210426","659","-0.08886719","-0.9902344","-0.049804688","-7.25","-5.8125","-8.46875"
"1574973210624","660","-0.06640625","-0.9785156","-0.055664062","-0.46875","-4.40625","-6.03125"
"1574973210626","661","-0.0546875","-0.9589844","-0.057617188","-0.96875","-2.5","-2.90625"
"1574973210626","662","-0.052734375","-0.96777344","-0.05859375","1.96875","0.90625","1.125"
"1574973210627","663","-0.0546875","-0.9746094","-0.056640625","4.84375","1.6875","3.8125"
"1574973210627","664","-0.06640625","-0.98535156","-0.048828125","6.84375","3.34375","7.46875"
"1574973210627","665","-0.099609375","-0.9873047","-0.029296875","6.0625","6.34375","8.6875"
"1574973210628","666","-0.10449219","-0.9873047","-0.030273438","4.65625","7.8125","8.5625"
"1574973210628","667","-0.1171875","-0.9902344","-0.03515625","7.96875","13.59375","11.1875"
"1574973210628","668","-0.17480469","-0.9511719","-0.041015625","4.90625","18.125","9.25"
"1574973210628","669","-0.11816406","-0.97558594","-0.06738281","11.9375","23.90625","12.71875"
"1574973211218","670","-0.026367188","-1.0224609","-0.01953125","12.21875","27.65625","16.9375"
"1574973211219","671","-0.125","-0.98046875","0.0029296875","12.09375","17.03125","19.1875"
"1574973211219","672","-0.18847656","-1.0410156","0.033203125","6.5625","21.28125","9.25"
"1574973211220","673","-0.18554688","-1.0166016","0.034179688","0.09375","18.1875","9.46875"
"1574973211221","674","-0.13769531","-1.0664062","0.041015625","7.34375","14.28125","6.3125"
"1574973211221","675","-0.17480469","-1.0478516","0.044921875","-0.59375","9.34375","7.21875"
"1574973211221","676","-0.21191406","-1.0830078","0.07714844","-10.0","-2.9375","-5.46875"
"1574973211221","677","-0.21191406","-1.015625","0.051757812","-5.09375","-10.6875","-4.125"
"1574973211222","678","-0.15429688","-1.0195312","0.005859375","-8.78125","-6.65625","-8.71875"
"1574973211222","679","-0.15234375","-1.0097656","0.0029296875","-11.40625","-4.875","-7.4375"
"1574973211418","680","-0.18066406","-1.0009766","0.0","-11.5625","-6.90625","-11.4375"
"1574973211418","681","-0.15136719","-0.9970703","-0.0126953125","-11.5625","-9.96875","-12.0625"
"1574973211418","682","-0.125","-0.99316406","-0.033203125","-5.46875","-9.53125","-8.28125"
"1574973211419","683","-0.10644531","-0.9707031","-0.056640625","0.28125","-6.34375","-2.53125"
"1574973211419","684","-0.076171875","-0.953125","-0.08105469","3.1875","-6.0625","0.875"
"1574973211420","685","-0.056640625","-0.9472656","-0.068359375","5.53125","-3.78125","4.40625"
"1574973211421","686","-0.080078125","-0.9609375","-0.061523438","8.3125","-2.09375","5.34375"
"1574973211421","687","-0.11035156","-0.97753906","-0.06347656","6.0","2.0625","8.9375"
"1574973211421","688","-0.0859375","-0.9863281","-0.053710938","8.4375","2.25","11.1875"
"1574973211421","689","-0.107421875","-0.9765625","-0.043945312","10.09375","4.09375","14.375"
"1574973211817","690","-0.12207031","-0.98535156","-0.01953125","6.3125","5.1875","14.5625"
"1574973211817","691","-0.14160156","-0.9873047","9.765625E-4","14.78125","-3.0625","18.6875"
"1574973211817","692","-0.19042969","-0.98828125","-0.021484375","9.46875","5.65625","13.09375"
"1574973211818","693","-0.1796875","-1.0205078","0.0087890625","6.125","7.3125","8.375"
"1574973211818","694","-0.1796875","-1.0214844","0.028320312","10.65625","-5.3125","17.71875"
"1574973211818","695","-0.234375","-0.9746094","0.0107421875","5.28125","1.03125","8.25"
"1574973211818","696","-0.2529297","-0.9902344","0.02734375","1.5","3.59375","3.6875"
"1574973211820","697","-0.29003906","-0.99316406","0.024414062","0.625","4.4375","-0.78125"
"1574973211820","698","-0.2578125","-1.0537109","0.03515625","-7.53125","0.78125","-7.84375"
"1574973211820","699","-0.27246094","-1.0195312","-0.005859375","-2.46875","4.9375","-10.90625"
"1574973212214","700","-0.22265625","-1.0234375","0.041992188","-4.375","-5.375","-7.84375"
"1574973212215","701","-0.32128906","-1.0166016","0.03125","-19.8125","9.875","-18.71875"
"1574973212215","702","-0.20507812","-1.0742188","0.0234375","-17.1875","-3.375","-22.4375"
"1574973212215","703","-0.14550781","-1.0078125","-0.045898438","-0.59375","-13.1875","-13.46875"
"1574973212215","704","-0.119140625","-0.92578125","-0.033203125","-5.46875","-15.875","-16.625"
"1574973212216","705","-0.08984375","-0.97265625","-0.045898438","-1.375","-17.46875","-10.28125"
"1574973212216","706","-0.13476562","-1.0039062","-0.041015625","-5.78125","-13.875","-13.21875"
"1574973212218","707","-0.15625","-1.0166016","-0.040039062","-9.8125","-6.15625","-17.75"
"1574973212219","708","-0.057617188","-1.0302734","-0.0625","0.03125","-16.59375","-4.90625"
"1574973212219","709","-0.09277344","-0.9326172","-0.061523438","2.84375","-9.21875","-0.53125"
"1574973212612","710","-0.080078125","-0.9609375","-0.08496094","-2.28125","-2.375","-8.59375"
"1574973212612","711","-0.036132812","-0.9873047","-0.11035156","7.78125","-7.21875","4.59375"
"1574973212613","712","-0.048828125","-0.9423828","-0.09082031","7.84375","-2.6875","1.375"
"1574973212613","713","-0.03515625","-0.96972656","-0.0859375","6.0625","-0.3125","2.9375"
"1574973212613","714","-0.022460938","-0.9824219","-0.09472656","10.8125","-3.0625","13.875"
"1574973212613","715","-0.080078125","-0.9609375","-0.06738281","7.78125","2.1875","9.4375"
"1574973212614","716","-0.078125","-0.9980469","-0.059570312","2.78125","7.375","9.4375"
"1574973212614","717","-0.07519531","-1.0107422","-0.059570312","3.1875","8.53125","11.6875"
"1574973212614","718","-0.11035156","-0.9951172","-0.044921875","5.75","7.0625","12.96875"
"1574973212614","719","-0.17480469","-1.0361328","-0.0078125","-5.53125","11.53125","7.09375"
"1574973213009","720","-0.21875","-1.0488281","-0.036132812","-2.25","7.5","-0.84375"
"1574973213010","721","-0.15136719","-1.0546875","-0.0107421875","-2.59375","4.09375","0.375"
"1574973213010","722","-0.11621094","-1.0214844","-0.0029296875","-1.25","4.3125","0.4375"
"1574973213011","723","-0.16894531","-0.9951172","-0.028320312","2.59375","-11.40625","-4.8125"
"1574973213011","724","-0.22070312","-1.0244141","-0.030273438","-4.875","-8.78125","-14.875"
"1574973213011","725","-0.13378906","-1.0205078","-0.025390625","-9.125","-6.84375","-14.9375"
"1574973213011","726","-0.08691406","-1.0117188","-0.0390625","-2.34375","-14.40625","-6.875"
"1574973213012","727","-0.13183594","-1.0048828","-0.052734375","-3.6875","-16.1875","-9.1875"
"1574973213012","728","-0.1640625","-1.0087891","-0.052734375","-4.5","-14.34375","-10.0"
"1574973213012","729","-0.11328125","-1.0166016","-0.05078125","-6.25","-13.1875","-10.09375"
"1574973213405","730","-0.10058594","-1.0322266","-0.05078125","-3.6875","-14.34375","-13.84375"
"1574973213405","731","-0.1171875","-0.98046875","-0.06347656","-6.4375","-10.5","-11.5"
"1574973213406","732","-0.052734375","-1.0068359","-0.080078125","-3.46875","-6.53125","-10.59375"
"1574973213407","733","-0.0390625","-0.9863281","-0.08496094","-1.5","-12.59375","-5.40625"
"1574973213407","734","-0.0234375","-0.9921875","-0.080078125","-1.3125","-10.4375","-7.96875"
"1574973213407","735","-0.0390625","-1.0039062","-0.087890625","0.28125","-11.34375","-4.75"
"1574973213408","736","-0.013671875","-1.0048828","-0.057617188","-1.3125","-9.53125","-2.59375"
"1574973213408","737","0.03125","-0.9941406","-0.076171875","3.875","-14.90625","0.5"
"1574973213408","738","0.02734375","-0.9707031","-0.06738281","5.875","-17.65625","3.75"
"1574973213409","739","0.0107421875","-0.9765625","-0.08105469","6.0","-18.1875","4.28125"
"1574973213804","740","-0.0087890625","-0.9970703","-0.080078125","3.8125","-14.28125","4.21875"
"1574973213805","741","-0.0234375","-1.0097656","-0.08203125","2.78125","-13.875","4.53125"
"1574973213805","742","-0.034179688","-0.9951172","-0.0703125","3.5","-11.96875","8.4375"
"1574973213805","743","-0.032226562","-0.9941406","-0.07519531","2.9375","-10.125","7.65625"
"1574973213805","744","-0.056640625","-1.0009766","-0.061523438","1.5","-6.28125","9.375"
"1574973213807","745","-0.07519531","-1.0283203","-0.08300781","-0.28125","-3.90625","7.21875"
"1574973213807","746","-0.076171875","-1.0058594","-0.06738281","0.9375","-3.96875","9.53125"
"1574973213808","747","-0.051757812","-1.0214844","-0.07519531","-6.1875","-1.46875","3.5625"
"1574973213808","748","-0.11035156","-1.0107422","-0.08203125","-4.3125","-7.03125","-1.25"
"1574973213808","749","-0.1484375","-1.0273438","-0.06640625","-6.25","-10.125","-8.65625"
"1574973214201","750","-0.14941406","-1.0195312","-0.07128906","-7.0","-9.21875","-9.25"
"1574973214202","751","-0.111328125","-1.0068359","-0.09863281","-5.59375","-8.96875","-6.9375"
"1574973214202","752","-0.1015625","-1.0097656","-0.103515625","-4.4375","-8.5625","-6.4375"
"1574973214202","753","-0.11035156","-1.0195312","-0.12207031","-6.25","-8.71875","-9.125"
"1574973214202","754","-0.111328125","-0.99121094","-0.1171875","-5.78125","-8.90625","-10.28125"
"1574973214203","755","-0.08300781","-0.9794922","-0.12988281","-5.21875","-5.6875","-10.28125"
"1574973214203","756","-0.049804688","-1.0175781","-0.14355469","-4.0","-5.625","-9.25"
"1574973214204","757","-0.043945312","-1.0117188","-0.13964844","-3.53125","-8.125","-8.03125"
"1574973214205","758","-0.044921875","-1.0136719","-0.14648438","-5.46875","-6.34375","-10.59375"
"1574973214205","759","-0.013671875","-1.0263672","-0.13769531","-6.9375","-7.09375","-12.3125"
"1574973214599","760","0.005859375","-0.9921875","-0.12792969","-12.5","-3.4375","-14.9375"
"1574973214599","761","0.018554688","-0.9501953","-0.12890625","-8.15625","-4.28125","-11.8125"
"1574973214599","762","0.043945312","-0.94628906","-0.1640625","5.5625","-8.5625","-2.71875"
"1574973214600","763","0.045898438","-0.9472656","-0.18359375","6.375","-11.46875","0.3125"
"1574973214600","764","0.053710938","-1.0","-0.17675781","1.84375","-8.125","-2.0625"
"1574973214600","765","0.01953125","-0.98046875","-0.16601562","7.09375","-8.6875","-1.0625"
"1574973214600","766","0.0107421875","-0.9785156","-0.15136719","2.9375","-7.09375","-1.625"
"1574973214601","767","0.0087890625","-1.0019531","-0.15917969","7.28125","-9.96875","-0.15625"
"1574973214601","768","-0.0087890625","-0.9892578","-0.15039062","5.9375","-4.8125","-2.0"
"1574973214602","769","-0.017578125","-1.0146484","-0.13867188","-1.875","0.25","-4.5625"
"1574973214995","770","0.0048828125","-1.0039062","-0.16796875","1.78125","-5.5625","-1.0"
"1574973214996","771","0.04296875","-0.9921875","-0.1484375","-4.5625","-7.21875","-3.34375"
"1574973214996","772","0.020507812","-0.9892578","-0.15234375","-10.09375","-13.75","-8.9375"
"1574973214997","773","0.0029296875","-1.0244141","-0.12988281","-1.25","4.03125","-11.8125"
"1574973214997","774","0.061523438","-1.0029297","-0.16601562","6.375","4.03125","-4.6875"
"1574973214997","775","0.046875","-0.9873047","-0.15722656","3.1875","-3.0625","-5.21875"
"1574973215008","776","0.034179688","-1.0068359","-0.12890625","2.34375","0.0","-6.09375"
"1574973215008","777","0.045898438","-0.9980469","-0.13867188","2.78125","5.4375","-3.34375"
"1574973215008","778","0.08691406","-0.99316406","-0.13476562","7.09375","-0.5625","-2.59375"
"1574973215009","779","0.0703125","-0.98339844","-0.13183594","2.84375","-2.5625","-4.90625"
"1574973215393","780","0.072265625","-1.0029297","-0.12988281","4.96875","-0.25","-3.46875"
"1574973215395","781","0.076171875","-1.0087891","-0.13964844","3.125","-3.1875","-2.28125"
"1574973215396","782","0.07519531","-1.0087891","-0.12988281","-2.0625","-5.625","-6.3125"
"1574973215396","783","0.10058594","-1.0068359","-0.11425781","-1.3125","-5.5","-4.8125"
"1574973215396","784","0.125","-1.015625","-0.1015625","4.46875","-2.875","-2.96875"
"1574973215396","785","0.095703125","-1.0126953","-0.12109375","1.65625","-7.28125","-4.0"
"1574973215396","786","0.068359375","-1.015625","-0.10253906","-0.84375","-6.84375","-3.59375"
"1574973215397","787","0.072265625","-1.0048828","-0.10253906","-1.0625","-6.15625","-2.34375"
"1574973215397","788","0.09277344","-1.0078125","-0.11035156","-0.65625","-5.375","-1.0"
"1574973215397","789","0.091796875","-0.9951172","-0.119140625","-0.21875","-4.875","-1.5625"
"1574973215792","790","0.08496094","-1.0009766","-0.10546875","0.5","-5.625","-0.28125"
"1574973215792","791","0.078125","-1.0068359","-0.12402344","-0.78125","-3.96875","1.3125"
"1574973215792","792","0.08886719","-1.0039062","-0.12402344","3.0625","-3.96875","2.09375"
"1574973215794","793","0.09472656","-0.99316406","-0.109375","0.4375","-2.03125","2.78125"
"1574973215794","794","0.08203125","-0.9863281","-0.12695312","0.28125","0.0625","2.71875"
"1574973215794","795","0.09375","-0.99609375","-0.13378906","-0.90625","-0.25","2.09375"
"1574973215795","796","0.09472656","-0.98046875","-0.14550781","-0.15625","3.40625","1.84375"
"1574973215795","797","0.11230469","-0.96875","-0.15527344","-2.96875","7.625","3.4375"
"1574973215795","798","0.11035156","-0.9824219","-0.16503906","-2.53125","8.0","4.78125"
"1574973215795","799","0.09765625","-0.97753906","-0.171875","-1.0","7.375","5.8125"
"1574973216189","800","0.09277344","-1.0029297","-0.18164062","3.9375","3.15625","12.78125"
"1574973216189","801","0.078125","-0.9921875","-0.14550781","4.0625","7.625","14.84375"
"1574973216190","802","0.04296875","-0.9589844","-0.15136719","5.6875","9.28125","15.03125"
"1574973216190","803","0.0546875","-0.9892578","-0.1484375","5.6875","14.34375","15.53125"
"1574973216190","804","0.024414062","-0.97265625","-0.140625","5.34375","19.71875","18.8125"
"1574973216192","805","0.05859375","-1.0126953","-0.12792969","5.28125","19.9375","20.40625"
"1574973216192","806","0.033203125","-1.0195312","-0.12792969","10.03125","21.90625","25.34375"
"1574973216192","807","-0.005859375","-1.0117188","-0.09863281","9.125","17.28125","26.28125"
"1574973216192","808","-0.032226562","-1.0615234","-0.08496094","2.21875","11.28125","24.1875"
"1574973216193","809","-0.119140625","-1.0966797","-0.06738281","-1.875","6.9375","14.78125"
"1574973216587","810","-0.091796875","-1.0917969","-0.036132812","-9.375","-3.53125","3.0625"
"1574973216587","811","-0.080078125","-1.0283203","-0.07910156","-4.6875","-12.09375","-9.4375"
"1574973216587","812","0.0","-1.0068359","-0.09375","-1.5625","-19.0","-9.0"
"1574973216587","813","0.016601562","-0.9375","-0.12597656","1.375","-17.78125","-4.125"
"1574973216588","814","0.020507812","-0.9355469","-0.15039062","0.4375","-13.4375","-5.03125"
"1574973216588","815","-0.00390625","-0.9375","-0.16796875","1.375","-9.46875","-1.75"
"1574973216588","816","-0.021484375","-0.96777344","-0.15039062","3.4375","-3.25","1.90625"
"1574973216588","817","9.765625E-4","-0.97558594","-0.13378906","6.5","1.03125","6.90625"
"1574973216589","818","-0.017578125","-0.9814453","-0.1328125","8.1875","3.65625","9.46875"
"1574973216590","819","-0.049804688","-0.9980469","-0.12792969","8.375","6.9375","12.34375"
"1574973217180","820","-0.018554688","-1.0078125","-0.12402344","9.0625","10.3125","11.75"
"1574973217180","821","0.0068359375","-0.9921875","-0.107421875","16.75","3.34375","16.25"
"1574973217181","822","0.009765625","-0.9814453","-0.0859375","17.46875","1.28125","15.46875"
"1574973217181","823","0.057617188","-0.9951172","-0.123046875","36.71875","-16.375","19.75"
"1574973217181","824","0.091796875","-0.9482422","-0.083984375","36.03125","-20.28125","31.34375"
"1574973217181","825","-0.034179688","-0.9121094","-0.04296875","32.875","-14.90625","29.9375"
"1574973217182","826","-0.24316406","-1.0048828","0.015625","13.03125","-7.6875","14.25"
"1574973217182","827","-0.32714844","-1.1191406","0.07910156","-1.0625","-2.03125","1.125"
"1574973217182","828","-0.3408203","-1.0869141","0.10058594","0.375","-9.40625","-6.75"
"1574973217183","829","-0.19042969","-1.046875","0.068359375","3.8125","-17.03125","-2.25"
"1574973217381","830","-0.12792969","-1.0117188","-0.022460938","2.90625","-8.0625","7.21875"
"1574973217381","831","-0.13964844","-1.0009766","0.0048828125","-2.46875","-6.40625","-0.65625"
"1574973217382","832","-0.13378906","-0.95996094","-0.013671875","-1.9375","-1.59375","-2.46875"
"1574973217382","833","-0.12402344","-0.9824219","-0.01953125","-4.3125","1.21875","-5.59375"
"1574973217382","834","-0.09277344","-0.9941406","-0.0068359375","-4.3125","-3.59375","-4.4375"
"1574973217382","835","-0.10644531","-0.99902344","-0.016601562","5.28125","-6.53125","0.75"
"1574973217383","836","-0.099609375","-0.98339844","-0.029296875","5.09375","-7.75","3.0"
"1574973217383","837","-0.08300781","-0.96875","-0.05078125","7.34375","-5.875","6.6875"
"1574973217383","838","-0.10546875","-0.9746094","-0.040039062","5.46875","-4.875","6.1875"
"1574973217383","839","-0.10839844","-0.9814453","-0.040039062","6.375","-3.59375","6.0625"
"1574973217973","840","-0.09277344","-0.9794922","-0.040039062","12.15625","-2.21875","10.21875"
"1574973217974","841","-0.111328125","-0.96972656","0.001953125","10.71875","-0.5625","11.25"
"1574973217974","842","-0.07910156","-0.9951172","0.0146484375","28.03125","-1.09375","9.84375"
"1574973217974","843","0.072265625","-0.9824219","-0.005859375","70.53125","-37.40625","32.5625"
"1574973217974","844","-0.04296875","-0.89746094","0.018554688","63.0625","-29.1875","51.78125"
"1574973217975","845","-0.25585938","-0.99121094","0.12890625","22.125","-22.28125","8.1875"
"1574973217975","846","-0.44628906","-1.0644531","0.27929688","-6.25","-0.8125","-24.875"
"1574973217975","847","-0.3779297","-1.1191406","0.25","-13.21875","-17.53125","-17.8125"
"1574973217975","848","-0.35546875","-1.0302734","0.2890625","-9.25","-37.84375","0.03125"
"1574973217975","849","-0.22167969","-1.0820312","0.15625","-7.96875","-30.09375","-2.84375"
"1574973218178","850","-0.1796875","-1.0244141","0.10253906","-17.25","-9.53125","-12.71875"
"1574973218178","851","-0.21386719","-0.94433594","0.09375","-14.75","-3.78125","-7.3125"
"1574973218178","852","-0.16308594","-0.8964844","0.07324219","-6.875","-1.84375","-7.96875"
"1574973218179","853","-0.08496094","-0.9267578","0.051757812","-5.78125","4.09375","-3.03125"
"1574973218179","854","-0.11035156","-0.98046875","0.047851562","-1.75","7.0625","-0.40625"
"1574973218180","855","-0.12402344","-0.97265625","0.055664062","5.625","4.75","5.625"
"1574973218180","856","-0.12792969","-0.95410156","0.057617188","11.5","5.84375","11.1875"
"1574973218180","857","-0.15820312","-0.96777344","0.080078125","12.78125","7.0","10.21875"
"1574973218181","858","-0.16210938","-0.9785156","0.078125","8.75","6.28125","9.0625"
"1574973218181","859","-0.17285156","-0.9785156","0.10546875","5.21875","8.1875","8.5625"
"1574973218773","860","-0.17382812","-1.0","0.10253906","10.53125","1.09375","10.53125"
"1574973218774","861","-0.203125","-0.99316406","0.11035156","10.9375","0.40625","8.25"
"1574973218774","862","-0.21484375","-0.9951172","0.14257812","5.46875","-0.625","9.375"
"1574973218774","863","-0.21484375","-1.0224609","0.16894531","1.0","-0.125","1.1875"
"1574973218774","864","-0.16015625","-1.0380859","0.16210938","2.59375","-5.375","4.90625"
"1574973218776","865","-0.22753906","-0.98828125","0.18554688","1.3125","-11.78125","2.34375"
"1574973218776","866","-0.23828125","-0.99121094","0.15820312","-2.65625","-19.15625","0.9375"
"1574973218776","867","-0.2734375","-1.0585938","0.14941406","-16.625","-7.5625","-11.75"
"1574973218777","868","-0.2421875","-1.0341797","0.20214844","-30.9375","-5.4375","-9.5625"
"1574973218777","869","-0.34570312","-1.0136719","0.13476562","-28.25","-5.75","-21.03125"
"1574973218970","870","-0.26953125","-1.1103516","0.09472656","-31.59375","0.84375","-35.4375"
"1574973218971","871","-0.14160156","-1.0371094","0.08105469","-16.28125","-12.21875","-8.21875"
"1574973218971","872","-0.16015625","-0.9033203","0.07910156","-19.5","-8.125","-10.78125"
"1574973218971","873","-0.111328125","-0.93652344","0.032226562","-17.25","1.8125","-21.09375"
"1574973218971","874","-0.10058594","-0.9785156","0.0048828125","-15.53125","-1.21875","-15.46875"
"1574973218972","875","-0.0390625","-1.0009766","0.0107421875","-12.5625","-5.1875","-12.96875"
"1574973218972","876","-0.109375","-0.97753906","-0.005859375","-12.4375","-0.5625","-15.90625"
"1574973218973","877","-0.08886719","-1.0234375","-0.0068359375","-12.4375","4.375","-14.625"
"1574973218973","878","-0.049804688","-0.96777344","-0.048828125","-5.96875","0.0","-4.75"
"1574973218974","879","-0.061523438","-1.0136719","-0.051757812","-4.4375","-4.03125","-11.8125"
"1574973219566","880","-0.047851562","-0.99121094","-0.048828125","-7.1875","1.28125","-11.34375"
"1574973219566","881","-0.048828125","-0.99121094","-0.06738281","-6.3125","1.75","-8.34375"
"1574973219567","882","-0.0234375","-1.0449219","-0.046875","-9.6875","1.03125","-8.15625"
"1574973219567","883","-9.765625E-4","-0.97558594","-0.078125","-9.5","1.46875","-3.6875"
"1574973219567","884","0.001953125","-0.9560547","-0.072265625","-2.84375","-2.15625","-1.4375"
"1574973219568","885","0.009765625","-1.0019531","-0.083984375","-4.3125","-4.53125","1.125"
"1574973219568","886","-0.0068359375","-1.0058594","-0.07714844","-0.59375","-9.59375","4.1875"
"1574973219568","887","-0.059570312","-0.9873047","-0.057617188","-3.625","-4.34375","-2.1875"
"1574973219568","888","-0.0126953125","-1.0107422","-0.08203125","-0.46875","-6.125","1.125"
"1574973219570","889","-0.022460938","-1.0234375","-0.08691406","-2.96875","-1.28125","0.875"
"1574973219766","890","-0.022460938","-0.97558594","-0.09277344","-1.375","-0.3125","-0.40625"
"1574973219766","891","-0.0048828125","-0.97753906","-0.095703125","1.4375","-4.28125","5.75"
"1574973219767","892","-0.036132812","-0.99121094","-0.099609375","0.375","-1.59375","1.96875"
"1574973219767","893","-0.0048828125","-0.98828125","-0.091796875","-1.75","2.5","3.875"
"1574973219767","894","-0.00390625","-1.0078125","-0.115234375","5.34375","-3.25","5.40625"
"1574973219767","895","-0.0126953125","-1.0009766","-0.09375","2.90625","-2.9375","3.125"
"1574973219768","896","-0.049804688","-1.0009766","-0.09863281","2.90625","0.59375","4.34375"
"1574973219768","897","-0.041015625","-1.0097656","-0.09375","3.0","0.71875","4.40625"
"1574973219768","898","-0.01171875","-1.0107422","-0.08691406","5.03125","-0.1875","4.34375"
"1574973219768","899","-0.037109375","-0.99609375","-0.08886719","2.9375","-1.84375","5.28125"
"1574973220363","900","-0.04296875","-1.0009766","-0.08886719","0.21875","-1.78125","2.03125"
"1574973220365","901","-0.046875","-1.0175781","-0.09082031","2.15625","-4.28125","4.46875"
"1574973220365","902","-0.053710938","-1.0185547","-0.0859375","-0.28125","-1.28125","4.0625"
"1574973220365","903","-0.05859375","-0.99609375","-0.08984375","-0.65625","-0.1875","0.9375"
"1574973220366","904","-0.033203125","-0.99609375","-0.099609375","4.34375","-3.5","5.40625"
"1574973220366","905","-0.0390625","-0.98046875","-0.091796875","5.21875","-0.125","7.40625"
"1574973220366","906","-0.036132812","-1.0058594","-0.09375","3.875","2.625","2.40625"
"1574973220366","907","-0.046875","-1.0","-0.08300781","3.5625","-1.40625","6.0625"
"1574973220367","908","-0.037109375","-1.0068359","-0.08300781","3.5625","0.375","2.84375"
"1574973220367","909","-0.05859375","-1.0126953","-0.091796875","3.625","-5.125","2.09375"
"1574973220758","910","-0.07324219","-1.0322266","-0.049804688","-2.96875","-3.71875","-0.96875"
"1574973220758","911","-0.08300781","-1.0244141","-0.06933594","-3.40625","-5.0","-2.25"
"1574973220758","912","-0.07714844","-1.0029297","-0.06640625","-7.71875","-5.375","-4.90625"
"1574973220760","913","-0.055664062","-0.9980469","-0.07128906","-6.09375","-5.5625","-4.4375"
"1574973220760","914","-0.037109375","-1.0","-0.08496094","-5.34375","-8.4375","-4.3125"
"1574973220760","915","-0.07324219","-0.99902344","-0.09375","-5.28125","-10.03125","-5.40625"
"1574973220761","916","-0.06347656","-1.0087891","-0.083984375","-4.8125","-10.6875","-6.75"
"1574973220761","917","-0.055664062","-1.0","-0.10644531","-3.34375","-13.25","-6.15625"
"1574973220761","918","-0.053710938","-0.95996094","-0.10546875","-5.59375","-7.40625","-5.65625"
"1574973220761","919","-0.041992188","-1.0029297","-0.12011719","-2.0","-2.875","-1.375"
"1574973220958","920","-0.04296875","-1.0332031","-0.11816406","0.875","-4.46875","-3.21875"
"1574973220959","921","-0.044921875","-0.99609375","-0.11328125","-1.125","-3.125","-1.5625"
"1574973220959","922","-0.044921875","-0.9951172","-0.111328125","0.5","-1.84375","-0.15625"
"1574973220959","923","-0.016601562","-1.0048828","-0.11621094","3.125","-1.78125","0.5"
"1574973220959","924","-0.043945312","-0.99121094","-0.1171875","0.75","-3.0","2.09375"
"1574973220961","925","-0.030273438","-0.99902344","-0.11621094","1.78125","0.46875","1.625"
"1574973220961","926","-0.018554688","-1.0058594","-0.115234375","3.375","-3.1875","1.78125"
"1574973220961","927","-0.028320312","-0.99902344","-0.1171875","3.875","-3.0625","1.4375"
"1574973220962","928","-0.041015625","-0.99902344","-0.111328125","3.8125","-2.875","1.84375"
"1574973220962","929","-0.03515625","-0.99902344","-0.11425781","2.59375","-1.53125","0.875"
"1574973221357","930","-0.026367188","-1.0048828","-0.10546875","2.9375","-2.03125","0.21875"
"1574973221358","931","-0.024414062","-1.0117188","-0.111328125","3.8125","-1.59375","1.5625"
"1574973221358","932","-0.026367188","-0.99609375","-0.10449219","3.4375","-3.0625","0.875"
"1574973221358","933","-0.018554688","-1.0","-0.103515625","2.46875","-2.6875","0.3125"
"1574973221358","934","-0.017578125","-0.9873047","-0.11328125","3.625","-2.4375","0.3125"
"1574973221359","935","-0.032226562","-0.9941406","-0.10253906","0.3125","-2.625","-0.84375"
"1574973221359","936","-0.0234375","-1.0136719","-0.111328125","1.5","-1.21875","-1.0625"
"1574973221360","937","-0.017578125","-1.0195312","-0.107421875","2.84375","-2.75","0.5"
"1574973221361","938","-0.038085938","-0.9921875","-0.09667969","0.75","-4.59375","-0.34375"
"1574973221361","939","-0.0390625","-0.9980469","-0.103515625","-0.40625","-0.5625","-0.78125"
"1574973221753","940","-0.029296875","-1.0146484","-0.11425781","0.5","-1.40625","0.5"
"1574973221754","941","-0.03125","-0.98535156","-0.107421875","-1.5","1.9375","2.28125"
"1574973221754","942","-0.0126953125","-0.96972656","-0.12792969","2.34375","3.03125","2.84375"
"1574973221754","943","-0.030273438","-0.9902344","-0.12207031","5.5625","6.09375","3.875"
"1574973221754","944","-0.01953125","-0.9892578","-0.11621094","3.75","10.125","7.28125"
"1574973221754","945","-0.025390625","-0.9970703","-0.10546875","6.25","7.1875","8.4375"
"1574973221755","946","-0.024414062","-1.0078125","-0.10253906","6.96875","7.1875","8.125"
"1574973221755","947","-0.051757812","-1.0263672","-0.08300781","2.90625","4.5","6.5"
"1574973221755","948","-0.07910156","-1.0498047","-0.05859375","-3.625","7.375","0.5"
"1574973221756","949","-0.12011719","-1.0644531","-0.043945312","-10.09375","4.09375","-5.34375"
"1574973222151","950","-0.12402344","-1.0673828","-0.040039062","-16.28125","4.9375","-13.78125"
"1574973222152","951","-0.0625","-1.0380859","-0.09375","-14.75","8.53125","-15.78125"
"1574973222152","952","-0.017578125","-0.9765625","-0.115234375","-8.9375","-4.8125","-11.40625"
"1574973222152","953","0.01953125","-0.9746094","-0.12792969","-2.53125","-8.3125","-8.8125"
"1574973222153","954","0.037109375","-0.984375","-0.15429688","-1.5","-7.34375","-6.4375"
"1574973222153","955","0.0107421875","-0.95996094","-0.13769531","-0.53125","-5.625","-4.5625"
"1574973222153","956","0.016601562","-0.9667969","-0.15917969","5.9375","-6.0625","-0.28125"
"1574973222153","957","0.009765625","-0.98339844","-0.14453125","5.8125","-3.4375","2.28125"
"1574973222154","958","0.0","-1.0039062","-0.13476562","3.4375","-0.375","2.78125"
"1574973222154","959","-0.018554688","-0.9941406","-0.13378906","4.28125","1.65625","4.0625"
"1574973222548","960","-0.0068359375","-1.0","-0.12597656","3.3125","1.09375","2.78125"
"1574973222548","961","0.01953125","-1.0136719","-0.13671875","7.03125","-2.21875","4.96875"
"1574973222549","962","-0.0234375","-0.9746094","-0.1328125","5.75","-6.46875","4.0625"
"1574973222549","963","-0.025390625","-0.9785156","-0.15722656","13.09375","-0.90625","3.75"
"1574973222549","964","-0.041992188","-0.95703125","-0.13671875","6.625","11.03125","6.4375"
"1574973222549","965","-0.0087890625","-0.984375","-0.13085938","13.4375","16.84375","9.4375"
"1574973222549","966","-9.765625E-4","-1.0302734","-0.12792969","9.84375","11.90625","15.21875"
"1574973222550","967","-0.026367188","-1.0302734","-0.08203125","4.125","14.59375","10.15625"
"1574973222550","968","-0.12207031","-1.0732422","-0.06640625","3.125","1.9375","2.28125"
"1574973222550","969","-0.10253906","-1.0253906","-0.046875","-0.71875","10.3125","-8.21875"
"1574973222945","970","-0.0126953125","-0.9921875","-0.08105469","2.34375","13.90625","-5.71875"
"1574973222945","971","0.013671875","-1.0087891","-0.09375","3.875","8.125","2.40625"
"1574973222946","972","0.02734375","-0.9970703","-0.08496094","3.375","2.125","1.375"
"1574973222947","973","0.0107421875","-1.0292969","-0.087890625","0.21875","-2.03125","-1.5625"
"1574973222947","974","-0.03515625","-1.0039062","-0.07421875","-1.625","-4.34375","-3.53125"
"1574973222948","975","-0.0625","-1.0019531","-0.07421875","-1.8125","-1.34375","-4.1875"
"1574973222948","976","-0.052734375","-1.0371094","-0.09375","-0.53125","-0.1875","2.03125"
"1574973222948","977","-0.043945312","-1.0205078","-0.099609375","-2.28125","3.15625","0.09375"
"1574973222949","978","-0.034179688","-1.0244141","-0.0703125","-8.53125","3.46875","0.5"
"1574973222949","979","-0.0234375","-1.0449219","-0.10449219","-9.6875","2.6875","-5.84375"
"1574973223538","980","-0.01171875","-1.0478516","-0.08984375","-12.375","0.40625","-3.46875"
"1574973223539","981","0.0087890625","-1.0068359","-0.099609375","-9.5625","-2.6875","-2.90625"
"1574973223539","982","0.05078125","-0.95996094","-0.14453125","-3.6875","-8.5","2.21875"
"1574973223539","983","0.017578125","-0.9501953","-0.13867188","-2.71875","-7.09375","4.65625"
"1574973223539","984","9.765625E-4","-0.99902344","-0.14648438","-4.1875","-4.65625","3.6875"
"1574973223541","985","0.01953125","-1.0009766","-0.13769531","-4.96875","-4.46875","3.4375"
"1574973223541","986","-0.045898438","-1.0029297","-0.15234375","1.0625","-9.59375","3.3125"
"1574973223542","987","-0.040039062","-0.96972656","-0.13476562","-0.21875","-4.15625","2.59375"
"1574973223542","988","-0.0087890625","-0.97753906","-0.17382812","5.5625","-4.9375","7.90625"
"1574973223542","989","-0.01171875","-0.9902344","-0.17871094","5.5625","-0.75","9.1875"
"1574973223740","990","-9.765625E-4","-0.9794922","-0.16796875","5.8125","-1.59375","9.90625"
"1574973223741","991","-0.022460938","-0.9707031","-0.13867188","4.40625","-0.875","10.15625"
"1574973223741","992","-0.0234375","-1.0019531","-0.14550781","5.625","-1.03125","6.4375"
"1574973223741","993","-0.041992188","-0.9941406","-0.123046875","4.53125","-0.3125","7.65625"
"1574973223742","994","-0.032226562","-1.0136719","-0.13476562","7.96875","-1.96875","6.4375"
"1574973223742","995","-0.040039062","-0.98828125","-0.12988281","5.15625","-3.3125","5.8125"
"1574973223742","996","-0.044921875","-0.9873047","-0.12597656","6.5625","-2.375","4.46875"
"1574973223744","997","-0.040039062","-0.9863281","-0.125","6.5","-2.375","6.5"
"1574973223745","998","-0.044921875","-0.9892578","-0.12402344","6.125","-1.21875","6.8125"
"1574973223745","999","-0.03125","-0.984375","-0.12402344","9.375","-4.65625","8.1875"
"1574973224335","1000","-0.068359375","-0.9658203","-0.12890625","10.09375","-1.65625","9.375"
"1574973224336","1001","-0.07324219","-0.9863281","-0.13183594","9.25","1.53125","9.125"
"1574973224336","1002","-0.030273438","-0.9511719","-0.115234375","14.5","3.15625","16.125"
"1574973224336","1003","-0.055664062","-0.91503906","-0.11230469","21.9375","1.46875","20.71875"
"1574973224337","1004","-0.0625","-1.0302734","-0.14257812","23.34375","4.8125","18.03125"
"1574973224337","1005","-0.07910156","-1.0039062","-0.068359375","10.40625","7.1875","18.625"
"1574973224337","1006","-0.15917969","-1.0410156","-0.020507812","16.75","-1.71875","10.65625"
"1574973224337","1007","-0.25585938","-1.0507812","0.037109375","6.1875","5.71875","1.4375"
"1574973224338","1008","-0.3017578","-1.1054688","0.032226562","-18.28125","4.5625","-6.875"
"1574973224340","1009","-0.2919922","-1.15625","-0.033203125","-5.15625","-1.90625","-18.90625"
"1574973224535","1010","-0.12109375","-1.0097656","-0.036132812","-4.875","-8.625","-12.96875"
"1574973224536","1011","-0.08105469","-0.96191406","-0.05078125","-18.46875","-5.6875","-13.46875"
"1574973224536","1012","-0.17382812","-1.015625","-0.0546875","-26.96875","-7.875","-20.78125"
"1574973224536","1013","-0.1484375","-1.0302734","-0.048828125","-11.5","-14.53125","-18.09375"
"1574973224537","1014","-0.10839844","-1.0068359","-0.08203125","-9.8125","-7.34375","-15.34375"
"1574973224537","1015","-0.08105469","-1.0068359","-0.12695312","-9.125","-6.34375","-12.90625"
"1574973224537","1016","-0.046875","-1.0058594","-0.1171875","-5.03125","-7.75","-4.5625"
"1574973224537","1017","-0.060546875","-0.9472656","-0.119140625","1.0625","-6.0","1.625"
"1574973224538","1018","-0.061523438","-0.9716797","-0.11328125","-1.25","1.21875","0.8125"
"1574973224538","1019","-0.032226562","-1.0146484","-0.14550781","-1.375","2.75","3.375"
"1574973224933","1020","-0.06933594","-0.99121094","-0.13671875","1.4375","3.09375","2.78125"
"1574973224934","1021","-0.028320312","-1.0048828","-0.12890625","1.96875","1.8125","5.53125"
"1574973224934","1022","-0.021484375","-0.9736328","-0.13867188","2.84375","2.5625","6.25"
"1574973224934","1023","-0.0068359375","-0.9785156","-0.1328125","6.96875","0.84375","6.90625"
"1574973224934","1024","-0.0078125","-0.9746094","-0.140625","6.96875","-2.8125","8.5"
"1574973224935","1025","-0.0390625","-0.9765625","-0.12792969","6.75","-0.4375","5.21875"
"1574973224935","1026","-0.05078125","-0.9892578","-0.13085938","5.5625","-1.78125","6.6875"
"1574973224935","1027","-0.029296875","-0.9892578","-0.1328125","9.125","-3.90625","8.25"
"1574973224936","1028","-0.0126953125","-0.9550781","-0.12988281","12.59375","-3.78125","9.71875"
"1574973224936","1029","0.016601562","-0.95214844","-0.11230469","14.71875","-9.96875","19.0625"
"1574973225529","1030","-0.083984375","-0.92578125","-0.13183594","20.90625","-16.25","16.0625"
"1574973225529","1031","-0.111328125","-1.0195312","-0.09472656","18.75","1.9375","7.40625"
"1574973225529","1032","-0.17675781","-1.0166016","-0.061523438","5.53125","-1.15625","18.09375"
"1574973225530","1033","-0.21191406","-1.0458984","-0.001953125","5.15625","3.59375","9.78125"
"1574973225531","1034","-0.24511719","-1.0527344","0.017578125","4.65625","2.25","2.71875"
"1574973225531","1035","-0.31054688","-1.125","0.0068359375","-6.875","0.78125","-2.96875"
"1574973225531","1036","-0.23046875","-1.1513672","-0.034179688","3.6875","-1.53125","-10.90625"
"1574973225532","1037","-0.25976562","-1.0322266","-0.03515625","-15.0","4.03125","-19.625"
"1574973225532","1038","-0.12792969","-1.0009766","-0.029296875","-13.03125","-14.71875","-19.8125"
"1574973225532","1039","-0.028320312","-0.9453125","-0.037109375","-2.84375","-16.5","-9.625"
"1574973225728","1040","-0.01953125","-0.96777344","-0.076171875","-0.46875","-18.0625","-12.5"
"1574973225728","1041","-0.06347656","-0.98339844","-0.10058594","-1.75","-16.78125","-9.625"
"1574973225729","1042","-0.047851562","-0.9404297","-0.09375","1.25","-10.75","-4.75"
"1574973225729","1043","-0.029296875","-0.9345703","-0.115234375","4.40625","-6.78125","1.78125"
"1574973225729","1044","-0.060546875","-0.9892578","-0.12109375","3.4375","-1.65625","2.46875"
"1574973225730","1045","-0.10644531","-1.0146484","-0.10058594","-0.40625","0.40625","6.125"
"1574973225730","1046","-0.099609375","-1.0566406","-0.083984375","-0.53125","0.78125","4.78125"
"1574973225730","1047","-0.16699219","-1.0205078","-0.0703125","-3.21875","-1.78125","-3.9375"
"1574973225731","1048","-0.10058594","-1.0332031","-0.06347656","-6.1875","6.46875","-5.09375"
"1574973225731","1049","-0.040039062","-1.0078125","-0.109375","2.03125","-1.09375","2.90625"
"1574973226126","1050","-0.02734375","-0.96972656","-0.08984375","2.65625","-3.3125","-3.9375"
"1574973226127","1051","-0.026367188","-1.0097656","-0.078125","-0.65625","-9.46875","0.5"
"1574973226127","1052","-0.115234375","-1.0390625","-0.041015625","-6.6875","-13.0625","-7.59375"
"1574973226127","1053","-0.13964844","-1.0449219","-0.06738281","-5.53125","-14.84375","-13.28125"
"1574973226127","1054","-0.051757812","-0.96777344","-0.087890625","3.9375","-16.78125","0.03125"
"1574973226128","1055","-0.001953125","-0.92089844","-0.14160156","18.09375","-6.84375","4.0"
"1574973226128","1056","0.025390625","-0.97558594","-0.14355469","23.03125","-8.375","9.65625"
"1574973226129","1057","-0.029296875","-0.94140625","-0.13476562","23.875","-10.25","14.65625"
"1574973226130","1058","-0.033203125","-0.9501953","-0.0859375","18.09375","0.71875","14.65625"
"1574973226130","1059","-0.08691406","-0.9902344","-0.068359375","13.625","3.03125","14.84375"
"1574973226524","1060","-0.1015625","-1.0537109","-0.024414062","0.6875","9.34375","10.9375"
"1574973226525","1061","-0.15625","-1.0654297","9.765625E-4","0.9375","6.28125","9.1875"
"1574973226525","1062","-0.1953125","-1.0683594","0.013671875","-2.46875","6.53125","4.0"
"1574973226525","1063","-0.17773438","-1.0302734","-0.0029296875","-1.1875","5.5","6.0"
"1574973226525","1064","-0.12597656","-1.0742188","0.00390625","-5.34375","1.6875","-1.1875"
"1574973226526","1065","-0.19824219","-1.0380859","-0.0146484375","-11.625","-3.53125","-10.28125"
"1574973226526","1066","-0.15332031","-1.0341797","-0.0029296875","-13.90625","-4.875","-10.09375"
"1574973226527","1067","-0.16308594","-1.0527344","-0.020507812","-12.1875","-9.59375","-11.875"
"1574973226527","1068","-0.1328125","-1.0673828","-0.06738281","-14.6875","-9.28125","-20.90625"
"1574973226527","1069","-0.13867188","-1.0136719","-0.045898438","-14.8125","-10.9375","-17.6875"
"1574973226920","1070","-0.0625","-1.0351562","-0.0859375","-12.5625","-10.4375","-21.53125"
"1574973226921","1071","-0.032226562","-1.0791016","-0.16699219","-20.90625","-21.90625","-25.90625"
"1574973226921","1072","-0.00390625","-0.8964844","-0.11425781","-20.25","-20.15625","-22.0625"
"1574973226921","1073","0.0146484375","-0.8613281","-0.15527344","-11.875","-10.0625","-14.8125"
"1574973226922","1074","0.020507812","-0.9550781","-0.22363281","-10.40625","-6.34375","-10.78125"
"1574973226922","1075","0.047851562","-0.9746094","-0.2421875","-4.96875","-6.71875","-3.625"
"1574973226922","1076","0.06542969","-0.90234375","-0.18164062","-0.59375","1.28125","7.53125"
"1574973226922","1077","0.05078125","-0.9033203","-0.22851562","10.53125","1.40625","7.78125"
"1574973226923","1078","0.0859375","-0.9560547","-0.19824219","13.28125","1.65625","11.8125"
"1574973226923","1079","0.0546875","-0.9873047","-0.20117188","19.25","-1.53125","20.46875"
"1574973227319","1080","0.02734375","-0.9296875","-0.14746094","14.78125","4.3125","17.34375"
"1574973227321","1081","-0.005859375","-0.9902344","-0.15136719","9.46875","6.21875","15.71875"
"1574973227321","1082","-0.064453125","-1.0361328","-0.08300781","-1.3125","5.90625","10.40625"
"1574973227322","1083","-0.09765625","-1.0742188","-0.09082031","0.15625","0.0625","3.0"
"1574973227322","1084","-0.11328125","-1.0566406","-0.030273438","-7.0625","4.3125","0.5625"
"1574973227322","1085","-0.23144531","-1.1542969","-0.08300781","-10.78125","-3.65625","-13.90625"
"1574973227322","1086","-0.23730469","-1.1796875","-0.059570312","-21.09375","6.78125","-33.53125"
"1574973227323","1087","-0.09277344","-1.1191406","-0.11425781","-23.28125","-9.15625","-32.3125"
"1574973227323","1088","0.028320312","-1.0400391","-0.18359375","-23.71875","-21.0","-38.625"
"1574973227323","1089","0.09765625","-0.90527344","-0.15527344","-25.96875","-21.96875","-40.6875"
"1574973227716","1090","0.0546875","-0.8515625","-0.2421875","-23.84375","-16.125","-33.4375"
"1574973227717","1091","0.15234375","-0.921875","-0.27734375","-18.90625","-6.0625","-26.21875"
"1574973227717","1092","0.20800781","-0.90527344","-0.28027344","-20.3125","-13.375","-21.875"
"1574973227719","1093","0.13085938","-0.9433594","-0.32226562","-6.15625","-23.0625","-8.8125"
"1574973227719","1094","0.123046875","-0.890625","-0.2939453","-1.1875","-19.65625","-2.40625"
"1574973227719","1095","0.12988281","-0.9042969","-0.2919922","-1.4375","-10.125","-4.125"
"1574973227720","1096","0.13183594","-0.9189453","-0.31835938","6.25","-10.75","1.0"
"1574973227720","1097","0.125","-0.9560547","-0.2861328","-1.3125","-5.8125","0.875"
"1574973227720","1098","0.11328125","-0.98046875","-0.2734375","2.78125","-10.0625","0.625"
"1574973227720","1099","0.12207031","-0.98046875","-0.27148438","7.71875","-9.65625","6.0"
"1574973228113","1100","0.10058594","-1.0351562","-0.24414062","-0.15625","-4.15625","-2.46875"
"1574973228113","1101","0.099609375","-1.0458984","-0.22558594","-4.6875","-9.03125","-11.5"
"1574973228113","1102","0.15039062","-0.9746094","-0.25097656","-3.875","-16.1875","-7.0625"
"1574973228114","1103","0.14257812","-0.92285156","-0.24707031","-4.4375","-18.0","-7.3125"
"1574973228114","1104","0.109375","-0.9169922","-0.26464844","-11.09375","-5.9375","-12.3125"
"1574973228115","1105","0.15429688","-0.9169922","-0.3408203","-5.09375","-3.59375","-9.1875"
"1574973228115","1106","0.17285156","-0.9296875","-0.33496094","2.53125","-11.96875","-1.9375"
"1574973228116","1107","0.16308594","-0.9560547","-0.3173828","6.5625","-14.40625","-0.15625"
"1574973228116","1108","0.080078125","-0.95214844","-0.24902344","6.25","-17.03125","4.53125"
"1574973228116","1109","0.052734375","-0.984375","-0.26171875","7.46875","-7.34375","4.125"
"1574973228707","1110","0.10058594","-1.0107422","-0.27734375","2.34375","-2.25","2.53125"
"1574973228708","1111","0.12695312","-0.9941406","-0.26171875","2.09375","-6.0625","3.5625"
"1574973228708","1112","0.15234375","-0.9501953","-0.28125","3.875","-6.34375","2.40625"
"1574973228708","1113","0.13964844","-0.95214844","-0.2861328","4.0","-8.84375","-0.65625"
"1574973228708","1114","0.10644531","-0.9394531","-0.29296875","2.90625","-7.21875","1.1875"
"1574973228709","1115","0.10546875","-0.9423828","-0.26953125","2.90625","0.46875","-0.40625"
"1574973228709","1116","0.1484375","-0.95996094","-0.296875","3.625","-1.59375","-0.15625"
"1574973228711","1117","0.119140625","-0.9638672","-0.2861328","9.125","-3.25","-0.53125"
"1574973228711","1118","0.09375","-0.96972656","-0.26660156","8.25","-4.34375","-0.90625"
"1574973228711","1119","0.13574219","-0.9580078","-0.28320312","7.28125","-0.0625","-2.1875"
"1574973228909","1120","0.15429688","-0.98046875","-0.27539062","14.125","-9.78125","-1.1875"
"1574973228909","1121","0.13964844","-0.9902344","-0.24804688","10.28125","-9.46875","-1.8125"
"1574973228909","1122","0.13378906","-0.9863281","-0.23339844","7.78125","-8.625","-1.875"
"1574973228910","1123","0.10839844","-0.9746094","-0.23144531","3.5","-6.90625","-1.6875"
"1574973228910","1124","0.14550781","-0.97753906","-0.24804688","3.8125","-4.65625","1.3125"
"1574973228910","1125","0.13183594","-0.9482422","-0.24511719","3.125","-4.65625","3.625"
"1574973228910","1126","0.13867188","-0.9453125","-0.24707031","2.09375","-2.5","2.53125"
"1574973228910","1127","0.14941406","-0.95410156","-0.25683594","5.625","-2.4375","4.46875"
"1574973228911","1128","0.13671875","-0.97265625","-0.24609375","5.46875","-2.625","8.5625"
"1574973228912","1129","0.09472656","-0.9794922","-0.22558594","1.78125","1.6875","6.4375"
"1574973229307","1130","0.103515625","-0.9951172","-0.22363281","-1.9375","5.25","4.125"
"1574973229307","1131","0.11328125","-1.0039062","-0.21777344","-0.78125","4.75","6.6875"
"1574973229307","1132","0.087890625","-0.9902344","-0.20898438","-0.28125","2.6875","6.1875"
"1574973229308","1133","0.109375","-1.0126953","-0.20703125","0.875","0.25","4.90625"
"1574973229308","1134","0.109375","-1.0214844","-0.20703125","0.21875","-2.15625","1.4375"
"1574973229308","1135","0.0859375","-0.98535156","-0.20507812","2.71875","-6.90625","-0.84375"
"1574973229308","1136","0.1171875","-0.9667969","-0.22167969","4.0","-9.53125","-0.71875"
"1574973229309","1137","0.12695312","-0.9560547","-0.23339844","4.59375","-7.09375","-0.78125"
"1574973229309","1138","0.13769531","-0.95410156","-0.24121094","9.46875","-9.40625","4.40625"
"1574973229309","1139","0.099609375","-0.94921875","-0.23046875","7.78125","-8.0","4.46875"
"1574973229902","1140","0.091796875","-0.9824219","-0.21972656","4.53125","-3.84375","4.21875"
"1574973229904","1141","0.07910156","-0.9873047","-0.21679688","3.125","-2.25","4.59375"
"1574973229904","1142","0.07421875","-1.0195312","-0.20410156","1.3125","-3.90625","1.78125"
"1574973229905","1143","0.047851562","-1.0244141","-0.18457031","1.1875","-8.90625","-0.34375"
"1574973229905","1144","0.045898438","-1.0429688","-0.18359375","-2.90625","-6.46875","-6.4375"
"1574973229905","1145","0.020507812","-1.0234375","-0.19726562","-1.375","-12.28125","-10.65625"
"1574973229906","1146","0.06738281","-0.9814453","-0.20996094","-2.125","-9.96875","-11.34375"
"1574973229906","1147","0.11621094","-0.96191406","-0.2421875","1.5625","-6.40625","-7.0625"
"1574973229906","1148","0.13964844","-0.9667969","-0.24316406","2.15625","-7.21875","-3.9375"
"1574973229906","1149","0.12792969","-0.9296875","-0.24023438","4.78125","-5.625","0.5"
"1574973230299","1150","0.12597656","-0.94433594","-0.24902344","4.28125","-1.90625","1.1875"
"1574973230299","1151","0.13769531","-0.9707031","-0.23925781","4.84375","-0.0625","3.75"
"1574973230300","1152","0.14257812","-0.9433594","-0.24511719","4.71875","-0.75","5.6875"
"1574973230303","1153","0.12011719","-0.96875","-0.24023438","6.1875","0.25","5.875"
"1574973230304","1154","0.12597656","-0.96191406","-0.22753906","6.0","-2.5625","7.15625"
"1574973230304","1155","0.12695312","-0.9609375","-0.21777344","7.78125","-4.09375","7.21875"
"1574973230304","1156","0.140625","-1.0214844","-0.23144531","13.6875","-9.71875","6.3125"
"1574973230305","1157","0.0625","-1.0380859","-0.15039062","3.0625","-12.8125","4.0"
"1574973230305","1158","0.06542969","-1.0673828","-0.13964844","-2.96875","-12.34375","-4.125"
"1574973230305","1159","0.026367188","-0.98828125","-0.18164062","-2.28125","-19.34375","-7.53125"
"1574973230498","1160","0.05859375","-0.9814453","-0.21679688","-0.78125","-17.34375","-12.84375"
"1574973230498","1161","0.14941406","-0.9628906","-0.23632812","1.78125","-9.15625","-4.5"
"1574973230498","1162","0.16308594","-0.9199219","-0.23828125","7.21875","-9.21875","3.875"
"1574973230498","1163","0.1015625","-0.9091797","-0.21582031","10.15625","-5.25","6.25"
"1574973230499","1164","0.119140625","-0.9560547","-0.21972656","12.15625","-2.375","8.09375"
"1574973230500","1165","0.17382812","-0.96875","-0.22167969","16.1875","-8.25","8.625"
"1574973230500","1166","0.15625","-0.9609375","-0.19335938","20.65625","-13.8125","9.4375"
"1574973230501","1167","0.07519531","-0.97753906","-0.1484375","16.1875","-12.09375","7.28125"
"1574973230501","1168","0.09765625","-0.99121094","-0.16601562","21.4375","-16.96875","9.1875"
"1574973230501","1169","0.08203125","-0.97265625","-0.13183594","19.375","-14.59375","9.65625"
"1574973230897","1170","0.040039062","-1.0292969","-0.13378906","23.59375","-18.75","10.8125"
"1574973230897","1171","-0.0146484375","-1.0224609","-0.11230469","16.5625","-13.3125","11.3125"
"1574973230898","1172","-0.016601562","-1.0107422","-0.078125","13.21875","-7.40625","9.0625"
"1574973230898","1173","0.040039062","-1.03125","-0.06738281","7.78125","-4.71875","6.4375"
"1574973230898","1174","0.047851562","-1.0126953","-0.068359375","12.65625","-13.0","6.75"
"1574973230899","1175","0.016601562","-1.0019531","-0.064453125","17.25","-14.84375","2.46875"
"1574973230899","1176","0.049804688","-0.9892578","-0.08691406","18.28125","-17.71875","3.3125"
"1574973230900","1177","0.026367188","-1.0234375","-0.053710938","14.625","-13.4375","3.0625"
"1574973230901","1178","0.0126953125","-1.0019531","-0.056640625","12.96875","-17.53125","1.5625"
"1574973230901","1179","-0.0048828125","-1.0253906","-0.061523438","17.90625","-20.34375","-1.625"
"1574973231295","1180","0.041992188","-0.9980469","-0.041015625","17.1875","-16.375","3.375"
"1574973231296","1181","0.01171875","-1.0097656","-0.024414062","15.28125","-21.4375","2.71875"
"1574973231296","1182","-0.041015625","-1.03125","-0.00390625","9.1875","-15.4375","0.375"
"1574973231296","1183","-0.048828125","-1.0371094","0.049804688","11.3125","-14.71875","3.625"
"1574973231297","1184","-0.017578125","-1.0712891","0.029296875","8.5","-9.71875","3.1875"
"1574973231297","1185","-0.0068359375","-1.0214844","0.02734375","7.96875","-10.8125","0.625"
"1574973231297","1186","-0.041992188","-1.0488281","0.059570312","7.03125","-9.21875","2.9375"
"1574973231297","1187","-0.01171875","-1.0537109","0.06347656","6.5","-8.375","0.5"
"1574973231298","1188","-0.0625","-1.0576172","0.10058594","3.25","-18.9375","0.6875"
"1574973231299","1189","-0.001953125","-1.0683594","0.080078125","-1.0","-10.125","-4.5625"
"1574973232086","1190","-0.046875","-1.09375","0.09667969","-9.1875","-10.8125","-5.59375"
"1574973232087","1191","-0.05859375","-1.0683594","0.09082031","-6.9375","-3.59375","-8.53125"
"1574973232087","1192","-0.0126953125","-1.0214844","0.057617188","-6.6875","0.375","-0.34375"
"1574973232087","1193","0.0048828125","-1.0761719","0.05078125","-10.09375","8.34375","-3.40625"
"1574973232087","1194","-0.017578125","-1.0615234","-0.049804688","-13.15625","6.53125","-9.3125"
"1574973232088","1195","0.0390625","-1.015625","-0.0546875","-9.25","17.15625","-28.1875"
"1574973232088","1196","0.09082031","-0.8808594","0.028320312","-11.15625","-19.0625","-16.75"
"1574973232088","1197","0.123046875","-0.9042969","-0.043945312","-11.21875","-10.1875","-10.71875"
"1574973232089","1198","0.13378906","-1.015625","-0.046875","-13.84375","-8.78125","-10.0625"
"1574973232089","1199","0.13183594","-1.0683594","-0.09863281","-15.46875","-9.21875","-10.65625"
"1574973232286","1200","0.111328125","-0.9980469","-0.099609375","-12.84375","-8.25","-5.84375"
"1574973232287","1201","0.12109375","-0.91796875","-0.10546875","-3.6875","-10.03125","-0.15625"
"1574973232288","1202","0.09765625","-0.91503906","-0.13769531","-1.5625","-3.25","2.84375"
"1574973232288","1203","0.12890625","-0.9472656","-0.12988281","1.375","1.28125","7.28125"
"1574973232288","1204","0.09863281","-0.9589844","-0.107421875","1.65625","1.03125","5.34375"
"1574973232289","1205","0.12207031","-1.0166016","-0.087890625","3.0","-2.09375","3.8125"
"1574973232289","1206","0.076171875","-1.1025391","-0.034179688","-4.1875","-2.09375","1.4375"
"1574973232289","1207","0.03515625","-1.0595703","-0.06640625","-5.71875","-10.8125","-6.03125"
"1574973232290","1208","0.078125","-1.0019531","-0.060546875","-5.40625","-3.375","-3.09375"
"1574973232290","1209","0.10546875","-1.0166016","-0.11328125","-5.09375","-2.75","-1.4375"
"1574973232682","1210","0.076171875","-1.015625","-0.10546875","-7.65625","1.59375","-1.625"
"1574973232683","1211","0.11230469","-1.0234375","-0.1015625","-16.28125","12.8125","-1.8125"
"1574973232683","1212","0.034179688","-1.0898438","-0.19140625","-32.5625","11.03125","-14.6875"
"1574973232685","1213","-0.037109375","-0.99902344","0.0087890625","-10.0625","-8.125","-15.84375"
"1574973232685","1214","0.22851562","-0.9355469","-0.19335938","-8.8125","4.8125","-4.1875"
"1574973232685","1215","0.24414062","-0.9892578","-0.1875","-16.09375","1.09375","-9.8125"
"1574973232685","1216","0.19042969","-0.9355469","-0.19824219","-6.09375","-6.96875","-1.0"
"1574973232686","1217","0.17871094","-0.8720703","-0.20019531","0.875","-8.25","2.84375"
"1574973232686","1218","0.17382812","-0.8671875","-0.18457031","1.0","-5.0","5.03125"
"1574973232686","1219","0.16308594","-0.9404297","-0.21582031","6.6875","-1.40625","8.125"
"1574973232883","1220","0.14160156","-0.96972656","-0.19335938","8.625","-3.0625","9.25"
"1574973232884","1221","0.14746094","-0.99121094","-0.18847656","11.8125","0.46875","10.40625"
"1574973232884","1222","0.08886719","-0.9941406","-0.15332031","8.75","2.625","11.5625"
"1574973232884","1223","0.11035156","-0.9941406","-0.12597656","5.8125","6.84375","12.71875"
"1574973232885","1224","0.08203125","-1.0273438","-0.10546875","-0.59375","14.59375","10.53125"
"1574973232886","1225","0.09472656","-1.0644531","-0.11035156","-8.78125","9.6875","2.09375"
"1574973232886","1226","0.07714844","-1.0419922","-0.13964844","2.78125","-3.1875","4.1875"
"1574973232887","1227","0.091796875","-1.015625","-0.13378906","2.90625","-1.03125","4.21875"
"1574973232887","1228","0.083984375","-1.0390625","-0.103515625","-0.40625","-3.25","1.375"
"1574973232887","1229","0.026367188","-1.0537109","-0.078125","-6.75","-3.65625","-4.875"
"1574973233479","1230","0.0107421875","-1.0410156","-0.12011719","-4.96875","-6.0","-7.71875"
"1574973233479","1231","0.080078125","-1.0527344","-0.12597656","-10.0","2.4375","-6.5625"
"1574973233479","1232","0.11230469","-1.0195312","-0.14257812","-10.0","-1.53125","-7.59375"
"1574973233480","1233","0.06933594","-0.9814453","-0.15527344","-8.53125","1.75","-6.8125"
"1574973233480","1234","0.06738281","-0.9863281","-0.16894531","-12.90625","5.0625","-7.59375"
"1574973233480","1235","0.10058594","-1.0527344","-0.15136719","-17.0625","9.5625","-10.21875"
"1574973233480","1236","0.10253906","-1.0390625","-0.16503906","-10.21875","2.8125","-8.8125"
"1574973233485","1237","0.09375","-0.984375","-0.18164062","-11.8125","4.625","-9.4375"
"1574973233485","1238","0.17382812","-0.92089844","-0.23632812","-4.5625","6.59375","-5.53125"
"1574973233485","1239","0.25097656","-0.8808594","-0.2841797","1.3125","5.96875","2.53125"
"1574973233678","1240","0.20214844","-0.87890625","-0.26953125","1.90625","9.5625","5.40625"
"1574973233679","1241","0.18066406","-0.9423828","-0.265625","6.84375","11.15625","9.46875"
"1574973233679","1242","0.14941406","-0.97558594","-0.2265625","3.25","11.46875","11.875"
"1574973233679","1243","0.13964844","-1.0078125","-0.22265625","-2.78125","13.96875","4.28125"
"1574973233679","1244","0.16992188","-0.96777344","-0.23144531","0.8125","3.40625","6.75"
"1574973233680","1245","0.21875","-0.90625","-0.265625","4.59375","4.6875","8.8125"
"1574973233680","1246","0.18066406","-0.91308594","-0.24511719","7.71875","6.9375","6.96875"
"1574973233680","1247","0.17382812","-0.95410156","-0.2421875","11.625","5.3125","14.375"
"1574973233680","1248","0.14453125","-0.94140625","-0.22167969","12.46875","5.84375","15.46875"
"1574973233681","1249","0.11328125","-0.9902344","-0.16601562","11.1875","4.3125","14.125"
"1574973234075","1250","0.07128906","-1.0439453","-0.14355469","5.75","3.15625","13.28125"
"1574973234075","1251","0.032226562","-1.1015625","-0.09667969","-0.71875","6.09375","6.3125"
"1574973234076","1252","0.037109375","-1.0634766","-0.12695312","1.65625","2.375","2.59375"
"1574973234076","1253","0.043945312","-1.0195312","-0.13769531","3.6875","2.125","2.71875"
"1574973234076","1254","0.034179688","-1.0283203","-0.16601562","-0.65625","4.4375","-0.28125"
"1574973234076","1255","0.07910156","-1.0761719","-0.140625","0.8125","3.28125","-3.09375"
"1574973234077","1256","0.09863281","-1.0117188","-0.1328125","-11.03125","-1.15625","-6.03125"
"1574973234077","1257","0.08984375","-0.9638672","-0.16796875","-5.71875","-4.46875","-7.0625"
"1574973234077","1258","0.123046875","-1.0019531","-0.20800781","1.78125","-6.96875","-6.875"
"1574973234077","1259","0.15625","-0.97753906","-0.22753906","7.28125","-3.125","-2.1875"
"1574973234473","1260","0.095703125","-0.9267578","-0.21777344","5.46875","-2.5625","4.65625"
"1574973234475","1261","0.099609375","-0.9042969","-0.20214844","2.78125","7.875","7.46875"
"1574973234475","1262","0.12988281","-0.9863281","-0.21386719","11.1875","6.65625","8.5625"
"1574973234475","1263","0.125","-0.9736328","-0.20507812","10.8125","8.1875","11.0"
"1574973234475","1264","0.07910156","-0.9892578","-0.203125","8.1875","7.8125","12.53125"
"1574973234476","1265","0.11621094","-0.96972656","-0.16699219","12.40625","12.9375","14.3125"
"1574973234476","1266","0.13476562","-1.0117188","-0.18164062","13.8125","7.6875","13.34375"
"1574973234476","1267","0.08886719","-0.984375","-0.15332031","6.96875","7.25","12.03125"
"1574973234476","1268","0.080078125","-0.96191406","-0.14257812","8.5625","11.84375","9.78125"
"1574973234477","1269","0.07910156","-1.0097656","-0.15136719","6.125","9.6875","9.84375"
"1574973234872","1270","0.11230469","-1.0058594","-0.15917969","4.90625","7.0","10.9375"
"1574973234872","1271","0.078125","-1.0","-0.14453125","4.96875","-0.1875","9.78125"
"1574973234872","1272","0.06738281","-0.9736328","-0.12109375","1.71875","2.875","6.0625"
"1574973234874","1273","0.07421875","-1.0126953","-0.13476562","8.5625","-5.125","8.3125"
"1574973234874","1274","0.034179688","-1.0068359","-0.11035156","3.25","-2.6875","5.28125"
"1574973234874","1275","0.052734375","-0.9941406","-0.119140625","2.46875","-3.78125","5.09375"
"1574973234875","1276","0.051757812","-1.0087891","-0.12011719","4.34375","-3.25","4.96875"
"1574973234875","1277","0.049804688","-1.0019531","-0.11035156","1.625","-1.53125","1.71875"
"1574973234875","1278","0.07910156","-0.99609375","-0.11328125","3.125","-2.5","3.9375"
"1574973234875","1279","0.032226562","-0.9951172","-0.12402344","2.34375","-0.125","1.90625"
"1574973235269","1280","9.765625E-4","-0.9921875","-0.123046875","-1.8125","4.15625","-0.65625"
"1574973235270","1281","0.022460938","-1.0009766","-0.1328125","2.03125","2.9375","0.8125"
"1574973235270","1282","0.060546875","-1.0019531","-0.13867188","4.71875","2.5625","4.21875"
"1574973235270","1283","0.030273438","-0.9785156","-0.12890625","-2.25","2.75","1.0625"
"1574973235270","1284","0.030273438","-0.97753906","-0.123046875","-0.28125","6.59375","1.375"
"1574973235272","1285","0.045898438","-1.0244141","-0.13085938","2.15625","5.71875","3.875"
"1574973235272","1286","0.044921875","-1.0283203","-0.13183594","-1.8125","4.8125","2.84375"
"1574973235272","1287","0.048828125","-1.0078125","-0.11816406","-1.4375","3.59375","4.84375"
"1574973235273","1288","0.037109375","-0.9902344","-0.12402344","-0.09375","4.21875","2.28125"
"1574973235273","1289","0.030273438","-0.99316406","-0.13378906","-0.65625","2.75","1.78125"
"1574973235668","1290","0.03515625","-1.0009766","-0.13671875","-0.28125","4.09375","2.59375"
"1574973235668","1291","0.025390625","-1.0039062","-0.1484375","-1.75","4.6875","5.6875"
"1574973235669","1292","0.02734375","-0.9794922","-0.13378906","-1.75","8.0","6.6875"
"1574973235669","1293","0.030273438","-0.99316406","-0.1328125","3.375","7.8125","6.125"
"1574973235669","1294","0.022460938","-1.0244141","-0.14550781","2.9375","5.96875","5.75"
"1574973235669","1295","-0.0029296875","-1.046875","-0.10546875","1.0","6.09375","3.6875"
"1574973235670","1296","-0.015625","-0.9765625","-0.111328125","-3.34375","1.9375","-2.0"
"1574973235671","1297","0.038085938","-1.0029297","-0.123046875","0.4375","1.34375","0.03125"
