"# PR data"
"# Start time: 20191128T212744"
"# Subject: rim"
"# Activity type: Heel raises"
"# Correctness: Incorrect"
"# Notes: "
""
"timestamp","seq","accel_x","accel_y","accel_z","gyro_x","gyro_y","gyro_z"
"1574972864400","0","0.037109375","-1.0039062","-0.13867188","-0.40625","-0.3125","2.9375"
"1574972864401","1","0.024414062","-1.0058594","-0.13574219","-0.78125","5.96875","6.0625"
"1574972864401","2","0.111328125","-1.0058594","-0.111328125","-2.25","8.90625","4.84375"
"1574972864401","3","0.1015625","-0.99902344","-0.13378906","0.6875","6.15625","7.59375"
"1574972864402","4","0.107421875","-1.0009766","-0.1328125","-1.5625","0.40625","2.9375"
"1574972864402","5","0.087890625","-1.0068359","-0.1875","3.5","-11.65625","-1.0"
"1574972864404","6","0.078125","-0.97558594","-0.15527344","0.875","-0.125","-4.96875"
"1574972864404","7","0.091796875","-0.98046875","-0.13085938","0.03125","-4.53125","-3.75"
"1574972864405","8","0.08203125","-1.0058594","-0.16503906","10.21875","-3.25","-3.46875"
"1574972864405","9","0.08886719","-0.98535156","-0.17871094","8.375","-4.21875","-0.65625"
"1574972864798","10","0.059570312","-1.0087891","-0.16015625","3.6875","-3.96875","2.84375"
"1574972864798","11","0.06738281","-0.9892578","-0.14160156","0.5","0.53125","-2.78125"
"1574972864798","12","0.11328125","-1.0","-0.171875","5.6875","-3.0","2.65625"
"1574972864799","13","0.07714844","-1.0","-0.16113281","1.125","-1.78125","4.59375"
"1574972864800","14","0.08105469","-1.0009766","-0.15234375","-2.46875","2.6875","1.3125"
"1574972864800","15","0.08886719","-1.0039062","-0.16308594","-0.71875","-2.09375","4.65625"
"1574972864800","16","0.095703125","-1.0302734","-0.16894531","-4.125","-0.75","-0.53125"
"1574972864800","17","0.08496094","-0.96777344","-0.15234375","-2.34375","-1.65625","-1.0625"
"1574972864801","18","0.10644531","-0.98339844","-0.16699219","0.5625","-4.65625","4.21875"
"1574972864801","19","0.109375","-1.0078125","-0.1640625","-4.5625","-3.25","0.375"
"1574972865196","20","0.05859375","-0.98828125","-0.15625","-0.28125","-3.96875","-2.96875"
"1574972865197","21","0.10839844","-0.99609375","-0.18164062","6.3125","-9.28125","2.59375"
"1574972865197","22","0.11816406","-0.98046875","-0.16113281","1.0","-5.625","-0.71875"
"1574972865198","23","0.08105469","-1.0419922","-0.1953125","0.9375","-13.0625","-5.46875"
"1574972865198","24","0.111328125","-1.0361328","-0.15917969","2.15625","-15.75","-1.8125"
"1574972865199","25","0.08691406","-0.9121094","-0.07910156","5.5625","-21.6875","1.96875"
"1574972865200","26","0.0546875","-0.9501953","-0.14453125","15.59375","-20.4375","7.34375"
"1574972865200","27","0.06640625","-1.046875","-0.16601562","4.59375","-5.0625","2.90625"
"1574972865200","28","0.107421875","-1.0214844","-0.16699219","5.5625","-1.59375","1.78125"
"1574972865201","29","0.08203125","-0.9658203","-0.123046875","6.96875","-3.1875","3.75"
"1574972865594","30","0.0859375","-0.9863281","-0.16894531","8.03125","-0.90625","0.75"
"1574972865595","31","0.109375","-1.0214844","-0.17089844","4.84375","-1.90625","-0.59375"
"1574972865595","32","0.080078125","-1.015625","-0.14257812","3.25","-6.53125","0.03125"
"1574972865595","33","0.045898438","-0.98828125","-0.140625","5.75","-12.875","-0.34375"
"1574972865595","34","0.10449219","-0.99316406","-0.13867188","18.875","-13.5","7.96875"
"1574972865596","35","0.059570312","-1.0029297","-0.06933594","-0.03125","-12.9375","8.75"
"1574972865596","36","0.07519531","-0.9765625","-0.061523438","15.90625","-9.09375","11.0625"
"1574972865597","37","0.091796875","-1.0263672","-0.13085938","19.5625","-18.875","5.09375"
"1574972865598","38","0.10449219","-1.0146484","-0.076171875","1.71875","-15.9375","-1.0625"
"1574972865598","39","-0.0146484375","-0.9951172","-0.08496094","17.78125","-11.34375","3.6875"
"1574972865991","40","0.10644531","-1.0146484","-0.047851562","1.0","-7.5625","0.625"
"1574972865991","41","0.076171875","-1.0390625","-0.044921875","12.09375","-11.25","0.625"
"1574972865991","42","-0.064453125","-1.0087891","-0.08496094","1.0625","-10.0625","-8.65625"
"1574972865992","43","0.06933594","-1.0097656","-0.052734375","-0.28125","2.1875","-0.15625"
"1574972865992","44","0.15722656","-1.1171875","-0.111328125","-6.09375","-5.1875","-1.0625"
"1574972865992","45","0.10839844","-0.9863281","-0.057617188","-10.65625","-18.625","-2.125"
"1574972865992","46","-0.015625","-0.9404297","-0.08496094","5.21875","-19.46875","-16.59375"
"1574972865992","47","0.057617188","-1.0205078","-0.07128906","-30.6875","-6.84375","-9.0625"
"1574972865993","48","0.022460938","-1.0498047","-0.07910156","1.84375","-17.9375","-4.375"
"1574972865994","49","0.08984375","-0.9550781","-0.08984375","-1.375","1.28125","-4.625"
"1574972866388","50","0.15722656","-0.984375","-0.056640625","-20.65625","8.1875","0.28125"
"1574972866388","51","0.0087890625","-0.99609375","-0.22949219","19.6875","-16.4375","-4.5"
"1574972866388","52","0.12988281","-0.9160156","-0.12890625","-10.09375","9.9375","2.53125"
"1574972866389","53","0.125","-1.0253906","-0.14941406","-7.375","5.25","1.625"
"1574972866389","54","0.11035156","-0.9980469","-0.18847656","14.65625","-13.5625","5.03125"
"1574972866389","55","0.1171875","-1.0449219","-0.13867188","-0.53125","-4.78125","2.59375"
"1574972866389","56","0.09472656","-0.89453125","-0.16992188","16.4375","-7.03125","4.40625"
"1574972866390","57","0.119140625","-0.9472656","-0.08691406","-3.09375","-3.59375","1.1875"
"1574972866390","58","0.052734375","-1.0839844","-0.20410156","-22.3125","-0.0625","-7.53125"
"1574972866390","59","0.028320312","-0.921875","-0.16308594","12.40625","7.6875","5.9375"
"1574972866985","60","0.05859375","-0.99609375","-0.13867188","9.96875","10.90625","14.90625"
"1574972866986","61","0.19042969","-0.953125","-0.19335938","27.1875","-3.25","19.1875"
"1574972866987","62","0.13574219","-1.0410156","-0.15332031","6.625","2.875","5.875"
"1574972866987","63","0.17089844","-0.9121094","-0.005859375","15.09375","-10.3125","8.125"
"1574972866987","64","-0.029296875","-0.9453125","-0.04296875","1.625","-22.96875","0.3125"
"1574972866988","65","0.041992188","-1.0458984","-0.091796875","21.5","10.84375","-20.0625"
"1574972866988","66","0.18652344","-1.1347656","-0.02734375","17.25","-17.875","14.0"
"1574972866988","67","0.0146484375","-1.1103516","-0.10449219","7.46875","-24.84375","-11.15625"
"1574972866988","68","-0.064453125","-0.95214844","0.037109375","4.90625","2.625","-3.875"
"1574972866989","69","-0.0126953125","-1.1005859","-0.072265625","22.0625","-5.6875","12.46875"
"1574972867183","70","0.01171875","-1.0029297","0.08496094","-0.15625","17.21875","13.15625"
"1574972867184","71","0.072265625","-1.0087891","-0.08984375","25.0625","0.71875","7.53125"
"1574972867184","72","0.009765625","-0.9873047","-0.005859375","8.09375","14.15625","11.125"
"1574972867186","73","0.052734375","-1.0507812","-0.055664062","10.21875","-11.65625","11.5"
"1574972867186","74","-0.083984375","-1.0097656","0.001953125","-1.125","3.21875","5.28125"
"1574972867186","75","0.046875","-1.0888672","0.12597656","-4.75","21.125","-5.21875"
"1574972867186","76","0.11425781","-1.0253906","-0.072265625","20.15625","-10.9375","19.5625"
"1574972867187","77","0.013671875","-1.0019531","0.109375","-9.5","2.75","-7.125"
"1574972867187","78","0.12011719","-1.0292969","-0.08984375","12.78125","-4.15625","4.96875"
"1574972867187","79","-0.0126953125","-0.9941406","0.032226562","0.75","-22.96875","11.5625"
"1574972867582","80","0.0068359375","-1.1279297","-0.052734375","2.65625","-17.59375","-8.46875"
"1574972867582","81","-0.20605469","-0.96972656","0.16992188","9.84375","7.125","7.21875"
"1574972867582","82","0.16210938","-1.0361328","-0.018554688","11.6875","9.28125","12.09375"
"1574972867583","83","0.087890625","-0.98339844","0.07421875","14.65625","-1.65625","16.0625"
"1574972867583","84","-0.0068359375","-1.1464844","-0.10644531","5.34375","-19.78125","-2.59375"
"1574972867584","85","-0.18261719","-0.88671875","0.17773438","-4.1875","0.96875","-2.78125"
"1574972867585","86","0.02734375","-1.0537109","-0.022460938","19.0","-12.6875","18.75"
"1574972867585","87","-0.048828125","-0.85839844","0.13476562","6.375","13.125","-2.96875"
"1574972867585","88","0.041015625","-1.0449219","-0.009765625","17.90625","-23.0625","6.84375"
"1574972867586","89","-0.078125","-0.9873047","0.061523438","-11.8125","26.46875","-0.03125"
"1574972867978","90","0.016601562","-0.9892578","-0.024414062","10.8125","-27.84375","6.4375"
"1574972867978","91","-0.13867188","-0.93652344","0.12011719","-3.59375","20.0625","-10.28125"
"1574972867978","92","0.053710938","-1.0244141","0.0087890625","-8.71875","-13.125","7.21875"
"1574972867979","93","-0.140625","-0.953125","0.06738281","2.59375","15.1875","-3.46875"
"1574972867979","94","0.125","-1.0947266","0.059570312","-4.0625","-12.21875","6.84375"
"1574972867979","95","-0.1015625","-0.9628906","-0.001953125","7.15625","-6.84375","-0.03125"
"1574972867979","96","0.033203125","-0.98339844","0.09765625","-6.5","1.21875","0.8125"
"1574972867980","97","-0.0234375","-1.0302734","0.026367188","5.9375","-3.3125","5.40625"
"1574972867981","98","-0.017578125","-1.0087891","0.14160156","4.28125","-8.4375","1.0"
"1574972867981","99","-0.04296875","-0.9892578","-0.038085938","5.9375","-3.84375","5.5625"
"1574972868376","100","9.765625E-4","-0.9921875","0.19238281","-3.46875","0.84375","4.71875"
"1574972868377","101","-0.06542969","-0.9892578","-0.041015625","7.15625","-6.15625","4.28125"
"1574972868377","102","0.01953125","-0.99316406","0.13476562","-3.34375","-2.8125","3.6875"
"1574972868378","103","-0.057617188","-1.0029297","-0.040039062","-8.65625","-3.59375","1.1875"
"1574972868378","104","-0.119140625","-1.0195312","0.107421875","5.46875","-8.96875","4.1875"
"1574972868378","105","0.037109375","-1.0058594","-0.07324219","7.09375","-13.96875","-0.78125"
"1574972868379","106","-0.15136719","-0.96777344","0.1640625","-6.5625","13.78125","7.40625"
"1574972868379","107","0.037109375","-1.0605469","-0.07128906","14.96875","-19.53125","-4.0"
"1574972868379","108","-0.059570312","-0.9824219","0.13964844","-4.5625","9.625","8.09375"
"1574972868380","109","-0.08691406","-0.98828125","0.0029296875","11.1875","-14.21875","-2.0625"
"1574972868774","110","-0.03125","-0.99316406","0.18359375","0.03125","29.46875","5.15625"
"1574972868775","111","-0.052734375","-0.93847656","-0.030273438","18.8125","-29.25","3.4375"
"1574972868775","112","-0.040039062","-0.9433594","0.18652344","-7.1875","17.4375","-5.59375"
"1574972868775","113","-0.03515625","-0.9345703","0.14453125","17.28125","-18.0","3.125"
"1574972868775","114","-0.16113281","-0.8310547","-0.17675781","26.75","-25.875","5.03125"
"1574972868776","115","0.076171875","-0.49609375","0.20703125","9.59375","10.90625","7.84375"
"1574972868776","116","-0.036132812","-0.296875","0.30859375","0.5","-9.90625","-15.34375"
"1574972868776","117","0.1015625","-0.5234375","0.20410156","31.40625","-44.6875","19.25"
"1574972868776","118","2.0234375","-2.006836","-0.029296875","-118.09375","84.28125","-114.96875"
"1574972868777","119","-0.7939453","-0.67871094","0.21289062","-23.46875","-204.34375","14.4375"
"1574972869172","120","0.0146484375","0.15136719","0.030273438","92.3125","113.21875","63.4375"
"1574972869173","121","0.4296875","0.54003906","0.022460938","9.375","14.15625","-22.0"
"1574972869174","122","0.1328125","-0.9033203","0.38183594","-25.5","89.03125","-50.9375"
"1574972869174","123","-0.5800781","-2.006836","-1.203125","50.625","-68.90625","60.03125"
"1574972869174","124","-0.6816406","-0.5517578","0.71777344","1.5625","26.1875","-2.25"
"1574972869175","125","0.21875","-0.28515625","0.0625","46.84375","33.125","6.1875"
"1574972869175","126","0.43066406","-0.21582031","0.4189453","-30.1875","22.625","21.375"
"1574972869175","127","0.037109375","-1.3945312","-0.05078125","-56.9375","9.03125","-35.125"
"1574972869175","128","-0.32714844","-2.006836","-0.49902344","14.78125","-14.96875","-36.53125"
"1574972869176","129","-0.2265625","-0.62890625","0.31640625","-19.75","21.0","9.375"
"1574972869569","130","0.07128906","-0.39648438","0.13183594","-0.65625","1.53125","-3.6875"
"1574972869570","131","0.25390625","-0.80859375","0.13476562","-24.5","-3.125","-14.0625"
"1574972869570","132","-0.029296875","-1.4765625","-0.21679688","-20.96875","-10.6875","-25.5625"
"1574972869571","133","-0.17675781","-1.3154297","-0.16699219","-18.28125","5.65625","-8.46875"
"1574972869572","134","-0.025390625","-0.74121094","0.08105469","11.0","-7.8125","7.65625"
"1574972869572","135","0.15820312","-0.7578125","0.0068359375","-12.125","8.84375","-6.1875"
"1574972869572","136","0.18847656","-1.1357422","-0.107421875","-18.53125","-11.1875","1.5625"
"1574972869572","137","-0.10644531","-1.2207031","-0.11230469","-10.90625","-3.59375","-17.75"
"1574972869573","138","-0.0859375","-0.8798828","-0.034179688","1.96875","-3.5","-3.6875"
"1574972869573","139","0.052734375","-0.89746094","-0.04296875","4.78125","-6.84375","8.5"
"1574972870361","140","0.15527344","-1.0673828","-0.06347656","-8.28125","4.03125","-0.09375"
"1574972870362","141","-0.005859375","-1.0498047","-0.060546875","0.9375","-5.0625","-2.28125"
"1574972870362","142","-0.056640625","-0.96777344","-0.068359375","1.84375","-3.71875","-0.46875"
"1574972870362","143","0.07910156","-0.9892578","-0.047851562","3.4375","-8.25","8.03125"
"1574972870363","144","-0.08105469","-0.98046875","-0.060546875","-5.90625","16.53125","-0.84375"
"1574972870364","145","0.055664062","-1.0097656","-0.01953125","6.90625","8.59375","2.28125"
"1574972870365","146","0.059570312","-1.1376953","-0.049804688","-6.75","-8.125","10.21875"
"1574972870365","147","-0.02734375","-0.9433594","-0.030273438","1.71875","-0.4375","1.71875"
"1574972870365","148","0.025390625","-0.984375","-0.057617188","9.375","-6.78125","-0.90625"
"1574972870365","149","0.01171875","-1.1191406","-0.034179688","-14.875","2.0625","-3.21875"
"1574972870560","150","0.047851562","-0.99121094","-0.0625","0.8125","-4.71875","2.09375"
"1574972870560","151","-0.040039062","-1.0039062","0.001953125","-7.0","0.0","-2.34375"
"1574972870561","152","0.029296875","-1.0390625","-0.07421875","-6.15625","-10.125","-6.5"
"1574972870561","153","-0.025390625","-1.0351562","-0.05078125","-4.96875","-5.6875","-3.8125"
"1574972870561","154","0.021484375","-0.9628906","-0.07421875","-1.9375","-5.8125","0.9375"
"1574972870561","155","0.030273438","-0.97753906","-0.05078125","0.8125","1.8125","-7.96875"
"1574972870562","156","0.060546875","-1.0185547","-0.10253906","0.875","2.375","-0.09375"
"1574972870563","157","0.02734375","-0.9863281","-0.08496094","-0.34375","-1.15625","2.46875"
"1574972870563","158","0.005859375","-1.0126953","-0.046875","0.21875","-0.3125","-3.8125"
"1574972870564","159","0.07128906","-1.0117188","-0.09765625","3.1875","-4.9375","-2.90625"
"1574972870761","160","0.029296875","-1.0058594","-0.080078125","-3.28125","-5.625","0.21875"
"1574972870761","161","0.047851562","-1.0908203","-0.08886719","-0.15625","-4.46875","-1.4375"
"1574972870762","162","0.041992188","-1.0126953","-0.076171875","3.125","-8.96875","2.59375"
"1574972870762","163","-0.0048828125","-0.97558594","-0.043945312","2.46875","-9.21875","0.625"
"1574972870762","164","0.04296875","-0.94433594","-0.03515625","7.53125","-5.9375","6.125"
"1574972870762","165","-0.015625","-0.9560547","-0.032226562","10.75","-2.15625","5.53125"
"1574972870763","166","0.01171875","-1.0302734","-0.08105469","9.4375","1.875","6.4375"
"1574972870763","167","0.02734375","-1.0322266","-0.05859375","12.28125","4.625","4.84375"
"1574972870763","168","0.01953125","-1.0244141","-0.06542969","10.03125","-5.0625","7.09375"
"1574972870765","169","0.034179688","-0.97753906","-0.068359375","7.34375","-3.84375","8.3125"
"1574972871159","170","0.053710938","-1.0849609","-0.05859375","5.34375","-1.84375","-2.40625"
"1574972871160","171","0.12695312","-0.9941406","-0.020507812","7.09375","-8.5625","5.03125"
"1574972871160","172","-0.047851562","-0.99121094","-0.052734375","4.1875","-19.46875","0.03125"
"1574972871160","173","-0.029296875","-1.0546875","-0.05859375","5.15625","-3.1875","-9.5625"
"1574972871161","174","0.005859375","-0.99121094","-0.04296875","7.21875","-14.21875","5.9375"
"1574972871161","175","0.026367188","-1.0595703","0.0107421875","5.5625","-3.78125","2.34375"
"1574972871161","176","0.018554688","-0.9238281","0.0068359375","1.375","7.8125","3.3125"
"1574972871162","177","0.04296875","-0.98046875","0.015625","17.84375","-20.5","9.3125"
"1574972871162","178","-9.765625E-4","-1.0546875","-0.10449219","-5.40625","14.28125","-0.71875"
"1574972871162","179","-0.0546875","-0.93652344","0.017578125","9.375","-15.03125","-1.375"
"1574972871755","180","-9.765625E-4","-1.0644531","-0.041015625","3.0625","1.8125","5.8125"
"1574972871757","181","0.030273438","-1.0478516","0.0126953125","-5.78125","6.34375","-7.53125"
"1574972871757","182","-0.028320312","-0.95996094","0.06542969","6.125","-5.75","-0.71875"
"1574972871758","183","-0.016601562","-1.0625","-0.018554688","10.03125","-3.90625","10.40625"
"1574972871758","184","-0.03125","-0.89941406","0.01953125","7.15625","-6.59375","3.6875"
"1574972871758","185","-9.765625E-4","-1.0839844","-0.028320312","0.875","2.875","1.78125"
"1574972871759","186","0.029296875","-0.8935547","0.05859375","2.53125","0.46875","3.125"
"1574972871759","187","-0.15136719","-1.03125","0.005859375","-3.875","3.90625","-9.5"
"1574972871759","188","0.033203125","-1.0166016","-0.013671875","-3.46875","16.65625","6.0"
"1574972871759","189","-0.020507812","-1.0205078","0.0","-1.0","0.78125","5.28125"
"1574972872153","190","0.043945312","-1.0751953","0.018554688","-10.96875","11.65625","-0.90625"
"1574972872153","191","-0.033203125","-0.9003906","-0.01171875","1.78125","-10.0625","-1.0"
"1574972872154","192","-0.017578125","-1.1386719","-0.041992188","-14.6875","7.3125","-5.71875"
"1574972872155","193","0.0126953125","-0.9042969","-0.001953125","-5.40625","2.5625","-3.28125"
"1574972872155","194","0.024414062","-1.0585938","-0.049804688","-12.0625","0.0","-5.78125"
"1574972872156","195","0.036132812","-1.015625","-0.07519531","-9.875","-1.09375","-11.4375"
"1574972872156","196","0.016601562","-0.9609375","-0.049804688","-4.25","-7.15625","-3.53125"
"1574972872156","197","0.02734375","-1.0","-0.07421875","-6.625","-0.3125","-7.25"
"1574972872156","198","0.06640625","-0.94628906","-0.08105469","-2.28125","-2.5","0.5625"
"1574972872157","199","0.03515625","-0.890625","-0.043945312","0.625","-3.53125","-1.125"
"1574972872746","200","-0.01171875","-0.8984375","-0.045898438","2.84375","-2.4375","0.09375"
"1574972872747","201","0.1015625","-1.1865234","-0.140625","2.71875","-12.15625","-0.03125"
"1574972872747","202","0.029296875","-1.1835938","-0.022460938","-5.96875","-4.40625","-13.46875"
"1574972872747","203","0.0546875","-1.0634766","-0.111328125","4.125","-13.75","4.59375"
"1574972872748","204","0.13378906","-1.0029297","-0.1171875","0.8125","-21.6875","-2.25"
"1574972872749","205","0.061523438","-0.8847656","0.016601562","-3.46875","-4.875","-7.65625"
"1574972872750","206","0.029296875","-1.0400391","-0.123046875","-4.6875","-6.40625","-0.96875"
"1574972872750","207","0.030273438","-1.1367188","-0.1015625","-8.03125","10.5","-8.8125"
"1574972872750","208","0.0546875","-1.0292969","-0.03515625","4.125","-11.84375","8.8125"
"1574972872750","209","0.0087890625","-1.0498047","-0.041015625","2.65625","-8.625","3.0"
"1574972872948","210","0.0087890625","-0.953125","-0.07128906","-6.3125","2.1875","-2.71875"
"1574972872948","211","0.041992188","-0.89746094","0.005859375","1.125","0.96875","8.4375"
"1574972872948","212","0.044921875","-0.9873047","-0.041992188","4.65625","-1.15625","2.65625"
"1574972872949","213","-0.0068359375","-1.0263672","-0.115234375","1.1875","-0.25","-2.53125"
"1574972872949","214","-0.0068359375","-1.0224609","-0.057617188","-0.59375","2.375","4.59375"
"1574972872949","215","0.029296875","-1.0048828","-0.024414062","1.4375","9.46875","7.96875"
"1574972872949","216","0.052734375","-1.0195312","-0.07519531","4.84375","2.75","1.78125"
"1574972872950","217","0.026367188","-1.0791016","-0.06347656","5.75","7.875","7.46875"
"1574972872951","218","0.040039062","-0.96191406","-0.025390625","4.34375","1.46875","10.09375"
"1574972872951","219","0.052734375","-0.94921875","-0.034179688","16.5","-6.40625","12.46875"
"1574972873540","220","-0.0068359375","-1.0263672","-0.046875","5.34375","3.96875","7.28125"
"1574972873540","221","0.024414062","-1.0458984","-0.0859375","9.0","-7.9375","8.625"
"1574972873541","222","0.016601562","-0.9716797","-0.01171875","9.46875","-5.3125","10.21875"
"1574972873541","223","-0.045898438","-0.8925781","-0.030273438","9.96875","-8.1875","9.125"
"1574972873541","224","-0.034179688","-0.9638672","-0.0126953125","11.3125","-5.875","4.34375"
"1574972873541","225","0.0126953125","-1.1367188","-0.07714844","-0.59375","-0.1875","4.1875"
"1574972873542","226","0.0146484375","-0.99902344","-0.026367188","4.84375","-10.125","4.96875"
"1574972873542","227","-0.057617188","-1.0107422","-0.02734375","3.0","-5.8125","2.40625"
"1574972873542","228","-0.0078125","-0.9580078","0.034179688","1.0","-2.9375","-0.65625"
"1574972873543","229","-0.047851562","-0.9707031","-0.095703125","11.25","-11.96875","3.3125"
"1574972873742","230","0.0126953125","-1.1230469","-0.03125","-13.78125","3.03125","-2.90625"
"1574972873743","231","-0.005859375","-1.0537109","-0.0029296875","0.6875","-6.71875","-13.84375"
"1574972873743","232","-0.045898438","-1.0097656","-0.053710938","2.15625","-8.78125","3.5"
"1574972873743","233","-0.0625","-0.9326172","-0.001953125","-6.9375","1.59375","-0.65625"
"1574972873743","234","0.038085938","-0.9472656","-0.07910156","-0.78125","1.6875","-9.6875"
"1574972873744","235","0.07714844","-1.0595703","-0.005859375","-13.46875","6.21875","-7.84375"
"1574972873744","236","-0.049804688","-1.0556641","-0.12988281","-9.0","-4.9375","-16.09375"
"1574972873744","237","-0.03515625","-1.0039062","-0.078125","-19.25","6.34375","-9.625"
"1574972873744","238","0.0703125","-1.0742188","-0.016601562","-22.375","13.71875","-12.71875"
"1574972873745","239","0.07519531","-1.0126953","-0.13183594","-9.75","-7.8125","-10.09375"
"1574972874336","240","-0.048828125","-0.9326172","-0.06640625","-11.40625","4.8125","-9.875"
"1574972874338","241","0.022460938","-0.9267578","-0.08300781","-6.875","0.59375","-6.75"
"1574972874339","242","0.14746094","-0.9746094","-0.16210938","-5.09375","-0.0625","-9.625"
"1574972874339","243","0.09863281","-1.0605469","-0.10058594","-17.875","10.625","-14.4375"
"1574972874339","244","0.04296875","-1.0058594","-0.15917969","-5.96875","-5.0","-8.9375"
"1574972874339","245","0.07910156","-0.93652344","-0.14257812","-5.46875","2.4375","-4.4375"
"1574972874340","246","0.14160156","-0.98535156","-0.11035156","-2.40625","0.71875","-2.96875"
"1574972874340","247","0.13378906","-0.93066406","-0.13867188","4.59375","-13.25","-2.53125"
"1574972874340","248","0.13476562","-0.9746094","-0.12988281","-4.3125","-4.65625","-5.96875"
"1574972874340","249","0.06933594","-1.0380859","-0.16015625","-0.59375","2.125","-3.875"
"1574972874734","250","0.06347656","-1.03125","-0.16601562","0.5625","-6.0625","1.5625"
"1574972874734","251","0.11621094","-1.0117188","-0.13183594","7.53125","-2.5","3.9375"
"1574972874734","252","0.140625","-1.0097656","-0.14160156","8.3125","-2.375","3.75"
"1574972874736","253","0.1328125","-0.9658203","-0.15527344","8.75","-10.0625","2.71875"
"1574972874736","254","0.103515625","-0.9814453","-0.12402344","0.28125","-6.78125","0.03125"
"1574972874736","255","0.10253906","-1.0263672","-0.14160156","-2.1875","-1.90625","-4.25"
"1574972874737","256","0.12597656","-1.0146484","-0.13867188","0.15625","-9.65625","2.28125"
"1574972874737","257","0.07714844","-0.9658203","-0.14160156","0.5625","-12.75","1.1875"
"1574972874737","258","0.08105469","-1.0126953","-0.119140625","-3.15625","-4.78125","-0.40625"
"1574972874738","259","0.056640625","-1.0039062","-0.16503906","3.5","-9.53125","2.65625"
"1574972875131","260","0.06738281","-0.9082031","-0.12402344","1.125","-7.28125","4.125"
"1574972875131","261","0.034179688","-0.7451172","-0.01953125","3.0625","5.0","9.78125"
"1574972875131","262","-0.07421875","-0.51171875","-0.14648438","21.625","-10.9375","18.5625"
"1574972875132","263","0.060546875","-0.5058594","0.016601562","-0.65625","22.625","10.21875"
"1574972875132","264","0.07324219","-1.1992188","0.032226562","24.1875","5.125","-8.875"
"1574972875133","265","-0.0390625","-2.006836","-0.9248047","47.75","35.09375","-9.375"
"1574972875133","266","0.2890625","-1.4833984","0.18457031","-90.4375","-36.9375","17.53125"
"1574972875134","267","-0.038085938","-0.5332031","-0.21289062","-27.03125","-34.0","10.15625"
"1574972875134","268","-0.0546875","0.40429688","0.26464844","10.75","17.6875","-1.6875"
"1574972875134","269","-0.19726562","-0.33203125","-0.08105469","22.65625","34.34375","49.34375"
"1574972875728","270","0.6279297","-2.006836","-0.38671875","2.40625","102.78125","-13.03125"
"1574972875728","271","0.08300781","-1.3828125","-0.21875","-56.125","-29.96875","16.875"
"1574972875729","272","0.078125","-0.41503906","-0.028320312","3.875","-31.4375","11.0625"
"1574972875729","273","0.15332031","-0.35253906","0.08496094","-0.65625","12.375","-35.5"
"1574972875729","274","0.0","-1.0029297","-0.15234375","15.15625","3.84375","1.96875"
"1574972875729","275","0.1171875","-1.7705078","-0.42578125","1.0","-2.03125","0.8125"
"1574972875730","276","-0.0029296875","-0.9716797","-0.06640625","-20.65625","-33.15625","-0.46875"
"1574972875730","277","0.034179688","-0.61328125","0.028320312","19.75","-4.9375","-3.625"
"1574972875730","278","0.083984375","-0.9189453","-0.17089844","15.09375","10.90625","9.0"
"1574972875731","279","0.10449219","-1.2587891","-0.2841797","-4.625","-0.6875","3.25"
"1574972875733","280","0.045898438","-1.1210938","-0.16601562","-4.6875","-11.65625","-9.0625"
"1574972875733","281","0.036132812","-0.8310547","-0.026367188","2.46875","-10.5","7.71875"
"1574972875733","282","0.07714844","-0.9501953","-0.095703125","-3.8125","-3.125","6.75"
"1574972875734","283","0.0625","-1.0361328","-0.18554688","1.84375","-3.5","-2.0625"
"1574972875734","284","0.051757812","-1.0078125","-0.10253906","5.75","2.25","7.78125"
"1574972875734","285","0.060546875","-1.0097656","-0.15136719","5.46875","-5.375","5.15625"
"1574972875734","286","0.07128906","-0.99316406","-0.1484375","0.5625","1.09375","-4.0625"
"1574972875735","287","0.06542969","-1.0410156","-0.125","-2.25","1.65625","-0.46875"
"1574972875735","288","0.06933594","-1.0029297","-0.14257812","1.625","-2.03125","-4.25"
"1574972875735","289","0.049804688","-0.9980469","-0.14257812","-5.15625","-8.5","-4.0"
"1574972876128","290","0.01171875","-0.9863281","-0.13476562","-4.5","-8.0625","-1.4375"
"1574972876128","291","0.059570312","-1.0058594","-0.13476562","-2.78125","-3.90625","-4.90625"
"1574972876129","292","0.06640625","-1.0292969","-0.17578125","4.59375","-19.0625","0.5"
"1574972876129","293","0.0703125","-0.9394531","-0.036132812","-0.84375","-28.5625","4.34375"
"1574972876129","294","-0.030273438","-0.9482422","-0.16210938","19.1875","-36.375","8.25"
"1574972876129","295","0.001953125","-0.98535156","-0.0703125","0.8125","-1.15625","-0.15625"
"1574972876130","296","0.046875","-1.0087891","-0.15136719","12.78125","4.6875","-1.6875"
"1574972876130","297","0.107421875","-1.0722656","-0.11621094","3.25","3.84375","10.9375"
"1574972876130","298","-0.0107421875","-1.0048828","-0.15332031","0.5625","13.90625","-10.21875"
"1574972876130","299","0.029296875","-0.96777344","-0.1875","4.71875","5.1875","-6.03125"
"1574972876525","300","0.046875","-0.9951172","-0.068359375","-18.46875","-3.53125","2.46875"
"1574972876526","301","0.051757812","-0.9873047","-0.10253906","-4.3125","5.375","-5.09375"
"1574972876527","302","0.1640625","-1.0371094","-0.20800781","5.40625","-4.03125","-4.125"
"1574972876527","303","0.091796875","-1.0292969","-0.12988281","-5.84375","3.59375","-5.40625"
"1574972876527","304","-0.0078125","-0.95410156","-0.15136719","-2.0625","2.1875","-4.4375"
"1574972876528","305","0.11328125","-1.0175781","-0.15332031","-0.40625","3.65625","-8.9375"
"1574972876528","306","0.13085938","-0.9716797","-0.16308594","-11.09375","-3.90625","-6.15625"
"1574972876528","307","0.07910156","-1.0048828","-0.1640625","-8.78125","-16.59375","-4.90625"
"1574972876529","308","0.048828125","-1.0107422","-0.12011719","1.65625","-11.3125","-0.09375"
"1574972876529","309","0.055664062","-1.0244141","-0.19335938","0.3125","-10.3125","-0.34375"
"1574972876922","310","0.09472656","-1.0","-0.08984375","1.90625","-11.65625","0.03125"
"1574972876923","311","0.045898438","-0.9423828","-0.1484375","2.28125","-5.625","5.09375"
"1574972876923","312","0.026367188","-0.96777344","-0.13183594","5.40625","4.03125","0.09375"
"1574972876924","313","0.12207031","-1.0390625","-0.17089844","6.84375","1.75","6.8125"
"1574972876924","314","0.09667969","-1.0576172","-0.16308594","3.0625","-0.96875","2.53125"
"1574972876924","315","0.061523438","-1.0126953","-0.14941406","4.90625","-0.3125","0.28125"
"1574972876925","316","0.057617188","-0.9873047","-0.13671875","3.3125","-1.90625","2.53125"
"1574972876925","317","0.08300781","-1.0097656","-0.15527344","0.15625","-1.28125","4.71875"
"1574972876925","318","0.08203125","-0.99121094","-0.15917969","5.21875","-5.4375","0.75"
"1574972876925","319","0.08886719","-0.9453125","-0.09277344","1.90625","-11.59375","5.28125"
"1574972877320","320","0.06933594","-0.9921875","-0.1640625","8.03125","-11.40625","5.5625"
"1574972877321","321","0.0703125","-0.9980469","-0.0859375","2.53125","-7.34375","-1.1875"
"1574972877321","322","0.08203125","-0.9609375","-0.16308594","8.625","-15.09375","1.4375"
"1574972877321","323","0.041992188","-1.0449219","-0.1328125","-1.375","0.0","0.8125"
"1574972877322","324","0.030273438","-1.0361328","-0.14257812","3.75","-3.3125","-1.0625"
"1574972877323","325","0.091796875","-1.0068359","-0.13769531","7.21875","-9.15625","5.46875"
"1574972877323","326","0.07519531","-0.96972656","-0.087890625","0.625","-2.03125","5.15625"
"1574972877324","327","0.022460938","-0.9736328","-0.11035156","8.3125","-2.6875","1.0"
"1574972877324","328","0.07910156","-1.0126953","-0.1484375","4.84375","-4.71875","5.53125"
"1574972877324","329","0.038085938","-0.98535156","-0.107421875","6.1875","-3.65625","2.28125"
"1574972877718","330","0.06738281","-0.9765625","-0.109375","3.875","0.0","1.65625"
"1574972877718","331","0.03515625","-1.0390625","-0.15136719","5.28125","-5.75","3.8125"
"1574972877719","332","0.034179688","-0.984375","-0.09667969","2.40625","-5.875","1.3125"
"1574972877719","333","0.05859375","-1.0166016","-0.107421875","4.71875","-1.09375","2.59375"
"1574972877719","334","0.04296875","-0.9892578","-0.1015625","0.4375","-5.125","3.5625"
"1574972877719","335","0.0390625","-1.0302734","-0.099609375","3.5","2.0","-1.4375"
"1574972877720","336","0.051757812","-1.0332031","-0.10839844","-0.46875","-3.59375","1.375"
"1574972877721","337","0.04296875","-1.0097656","-0.109375","5.21875","-4.65625","4.125"
"1574972877722","338","0.059570312","-0.9824219","-0.119140625","6.5625","-5.375","1.1875"
"1574972877722","339","0.068359375","-0.9941406","-0.12597656","-0.15625","-3.0","-1.625"
"1574972878117","340","0.038085938","-1.0058594","-0.12011719","-2.28125","-3.90625","-1.125"
"1574972878117","341","0.05078125","-0.9970703","-0.111328125","-1.625","-4.59375","-0.28125"
"1574972878117","342","0.083984375","-1.0400391","-0.14453125","-0.71875","-4.21875","0.5625"
"1574972878118","343","0.038085938","-0.99121094","-0.068359375","-2.71875","-0.3125","-3.53125"
"1574972878118","344","0.038085938","-0.9892578","-0.11816406","9.125","0.46875","3.3125"
"1574972878118","345","0.07421875","-0.9716797","-0.1484375","2.71875","1.65625","1.78125"
"1574972878118","346","0.13574219","-0.9902344","-0.103515625","0.03125","-0.25","-7.4375"
"1574972878119","347","0.11621094","-1.0058594","-0.1171875","-0.46875","-0.25","-4.6875"
"1574972878119","348","0.01171875","-0.9970703","-0.17285156","-5.53125","-9.15625","-5.40625"
"1574972878120","349","0.053710938","-1.0126953","-0.13574219","-8.78125","2.8125","-11.15625"
"1574972878708","350","0.13574219","-1.0087891","-0.12011719","1.375","-5.75","-4.625"
"1574972878709","351","0.068359375","-1.0048828","-0.107421875","-6.625","-14.65625","-1.5"
"1574972878709","352","0.048828125","-1.0244141","-0.13671875","2.28125","-6.46875","-7.0625"
"1574972878709","353","0.1015625","-1.0263672","-0.13183594","3.625","-3.84375","4.84375"
"1574972878709","354","0.026367188","-0.9736328","-0.103515625","6.25","-10.8125","3.3125"
"1574972878710","355","0.0703125","-0.9814453","-0.10449219","4.125","-3.5","3.1875"
"1574972878710","356","0.046875","-0.9794922","-0.11425781","7.40625","-8.5625","10.09375"
"1574972878710","357","0.045898438","-1.0019531","-0.08691406","5.6875","-11.84375","7.71875"
"1574972878710","358","0.072265625","-1.0517578","-0.09667969","9.4375","-3.25","7.71875"
"1574972878710","359","0.009765625","-1.0126953","-0.09667969","8.375","-6.15625","12.15625"
"1574972878909","360","-0.0146484375","-0.98828125","-0.08984375","9.0","-0.3125","8.875"
"1574972878910","361","0.005859375","-0.9658203","-0.068359375","4.65625","-3.0625","8.75"
"1574972878910","362","0.06542969","-1.0361328","-0.07910156","-0.28125","0.1875","7.34375"
"1574972878911","363","0.0068359375","-1.0078125","-0.059570312","2.84375","-4.8125","1.90625"
"1574972878911","364","0.018554688","-0.9970703","-0.12011719","-1.4375","-6.15625","-0.34375"
"1574972878911","365","-0.0146484375","-1.0","-0.051757812","-1.25","-3.78125","1.71875"
"1574972878911","366","0.033203125","-0.984375","-0.10058594","-0.84375","-6.84375","-3.15625"
"1574972878911","367","0.025390625","-1.0195312","-0.060546875","-7.0","0.125","0.4375"
"1574972878911","368","-0.0048828125","-1.0039062","-0.08984375","3.5","-6.28125","0.8125"
"1574972878912","369","0.032226562","-1.0126953","-0.11230469","-6.09375","4.9375","-3.03125"
"1574972879307","370","0.0126953125","-1.0244141","-0.11425781","1.5","0.3125","2.65625"
"1574972879308","371","0.0107421875","-0.96972656","-0.099609375","0.375","1.15625","-0.90625"
"1574972879308","372","0.04296875","-1.015625","-0.08105469","-1.375","11.78125","-0.34375"
"1574972879309","373","0.009765625","-1.0039062","-0.115234375","3.875","0.65625","1.96875"
"1574972879310","374","0.045898438","-0.99902344","-0.10546875","-4.0625","11.03125","-0.96875"
"1574972879310","375","0.032226562","-1.0039062","-0.10546875","0.8125","3.96875","0.09375"
"1574972879310","376","0.0234375","-0.9453125","-0.09863281","-0.21875","2.75","-0.40625"
"1574972879311","377","0.024414062","-0.95703125","-0.064453125","2.90625","4.625","-0.40625"
"1574972879311","378","-0.016601562","-0.8574219","-0.020507812","9.25","0.46875","2.84375"
"1574972879311","379","-0.057617188","-0.65625","-0.08105469","22.375","-9.53125","4.78125"
"1574972879706","380","0.0625","-0.6621094","-0.043945312","26.09375","4.09375","11.375"
"1574972879706","381","0.21582031","-1.3212891","-0.16210938","-0.59375","26.46875","-3.09375"
"1574972879707","382","-0.0029296875","-2.006836","-0.107421875","-17.625","36.75","-36.21875"
"1574972879707","383","-0.26171875","-0.6796875","-0.3076172","-42.875","-75.9375","34.4375"
"1574972879707","384","0.018554688","0.21191406","0.41308594","29.0","5.78125","18.40625"
"1574972879709","385","0.09863281","-0.54003906","0.047851562","-14.0625","24.78125","13.03125"
"1574972879709","386","0.25097656","-2.006836","-0.31054688","35.375","10.75","-29.09375"
"1574972879709","387","-0.119140625","-1.3164062","-0.32421875","4.96875","-36.625","24.25"
"1574972879710","388","0.17578125","-0.63964844","-0.049804688","-12.5625","-15.09375","21.8125"
"1574972879710","389","0.22167969","-0.49902344","0.16015625","-9.9375","25.5625","-26.71875"
"1574972880101","390","-0.076171875","-1.0224609","-0.052734375","7.71875","17.5625","-0.65625"
"1574972880102","391","-0.025390625","-1.5888672","-0.3359375","21.9375","-16.78125","9.375"
"1574972880102","392","0.15136719","-1.0517578","-0.08496094","-13.03125","-5.3125","-3.09375"
"1574972880102","393","0.14746094","-0.70410156","0.07421875","-1.125","4.5","-4.0625"
"1574972880102","394","-0.0029296875","-0.8925781","-0.044921875","3.5","-3.65625","1.0625"
"1574972880102","395","0.032226562","-1.1953125","-0.19335938","3.0625","-10.75","-3.21875"
"1574972880102","396","0.14648438","-1.0898438","-0.10058594","-0.53125","-3.71875","-6.03125"
"1574972880103","397","0.0546875","-0.9267578","-0.041015625","-8.03125","-7.625","-1.5625"
"1574972880104","398","0.017578125","-0.9394531","-0.06738281","0.6875","-6.96875","-6.3125"
"1574972880104","399","0.09375","-1.0625","-0.11328125","1.5625","-6.65625","-1.0"
"1574972880499","400","0.08300781","-1.0419922","-0.111328125","-0.71875","-6.59375","-0.90625"
"1574972880499","401","0.044921875","-0.9746094","-0.07421875","-3.875","-4.09375","-2.96875"
"1574972880500","402","0.052734375","-0.99902344","-0.099609375","-3.03125","-1.90625","-1.875"
"1574972880500","403","0.08203125","-1.0048828","-0.09375","-2.78125","-1.84375","-0.03125"
"1574972880500","404","0.060546875","-0.9980469","-0.08691406","-0.65625","-0.125","2.59375"
"1574972880500","405","0.052734375","-1.0126953","-0.12597656","-2.90625","1.65625","0.375"
"1574972880500","406","0.09472656","-1.0175781","-0.09863281","-7.53125","0.3125","-1.0"
"1574972880501","407","0.076171875","-1.0058594","-0.123046875","-11.34375","-0.0625","-0.71875"
"1574972880501","408","0.060546875","-0.9902344","-0.076171875","-7.4375","-11.0","-1.0"
"1574972880502","409","0.049804688","-1.0742188","-0.14746094","-4.4375","-15.8125","-6.875"
"1574972880898","410","0.087890625","-0.9941406","-0.13476562","-17.75","-9.59375","-4.6875"
"1574972880898","411","0.061523438","-0.9970703","-0.11035156","-14.0625","5.5","-2.90625"
"1574972880899","412","0.04296875","-1.0654297","-0.12402344","-4.8125","8.1875","-3.9375"
"1574972880899","413","0.10449219","-1.0","-0.16015625","-7.4375","3.15625","0.21875"
"1574972880899","414","0.078125","-0.9199219","-0.107421875","-11.40625","-0.1875","-5.21875"
"1574972880899","415","0.09667969","-0.9863281","-0.16601562","-0.71875","1.09375","-4.3125"
"1574972880900","416","0.10644531","-1.0039062","-0.17285156","-5.40625","-0.75","-3.03125"
"1574972880900","417","0.08105469","-1.0","-0.16308594","-7.25","-2.3125","-5.03125"
"1574972880900","418","0.07421875","-0.98828125","-0.17480469","-4.375","0.0625","-5.21875"
"1574972880900","419","0.095703125","-1.0224609","-0.16992188","-3.6875","3.40625","-2.25"
"1574972881296","420","0.091796875","-1.0126953","-0.20507812","-1.75","-0.8125","-1.4375"
"1574972881298","421","0.1015625","-0.9814453","-0.16699219","-3.9375","-2.9375","-2.53125"
"1574972881298","422","0.11621094","-0.9423828","-0.16796875","-1.4375","-2.625","-2.1875"
"1574972881299","423","0.11230469","-0.98046875","-0.1875","-1.625","-0.1875","-0.09375"
"1574972881299","424","0.099609375","-0.99316406","-0.19042969","0.09375","-2.21875","-0.59375"
"1574972881299","425","0.109375","-1.0107422","-0.18847656","4.34375","-3.4375","-0.46875"
"1574972881299","426","0.09472656","-0.9873047","-0.17089844","0.09375","-2.875","-1.25"
"1574972881300","427","0.09472656","-1.0","-0.17382812","4.1875","-6.0625","-0.28125"
"1574972881300","428","0.099609375","-0.9921875","-0.18847656","3.75","-0.75","-0.65625"
"1574972881300","429","0.1015625","-0.96972656","-0.1796875","2.03125","-5.125","-1.25"
"1574972881693","430","0.11230469","-0.96972656","-0.15527344","0.75","-1.84375","-1.625"
"1574972881693","431","0.12988281","-1.0097656","-0.20117188","1.84375","-4.53125","-1.625"
"1574972881694","432","0.12011719","-0.9628906","-0.13867188","-1.0625","-4.09375","-0.46875"
"1574972881695","433","0.095703125","-0.9550781","-0.17578125","-0.40625","-4.34375","0.03125"
"1574972881695","434","0.068359375","-0.98339844","-0.24707031","-0.28125","-4.34375","-0.96875"
"1574972881696","435","0.13378906","-1.0175781","-0.18847656","-0.09375","-1.09375","-2.84375"
"1574972881696","436","0.18164062","-1.0546875","-0.18554688","1.0","3.90625","1.84375"
"1574972881696","437","0.09765625","-0.98535156","-0.20898438","0.625","-4.34375","4.71875"
"1574972881697","438","0.041015625","-0.96875","-0.17089844","0.21875","3.84375","0.4375"
"1574972881697","439","0.13964844","-0.99316406","-0.18847656","5.8125","4.03125","5.40625"
"1574972882090","440","0.140625","-0.9628906","-0.17480469","-0.84375","2.9375","6.3125"
"1574972882091","441","0.12011719","-1.0107422","-0.18945312","2.21875","3.84375","3.625"
"1574972882091","442","0.12402344","-0.97558594","-0.19628906","3.5625","-2.6875","4.96875"
"1574972882091","443","0.119140625","-0.9404297","-0.15527344","1.96875","-1.09375","3.5625"
"1574972882092","444","0.13476562","-0.99316406","-0.1953125","9.90625","-4.71875","0.75"
"1574972882093","445","0.06640625","-0.9736328","-0.17675781","-1.0","-4.8125","1.375"
"1574972882094","446","0.087890625","-1.0263672","-0.16894531","-0.59375","-2.15625","-2.78125"
"1574972882094","447","0.16894531","-0.9814453","-0.17089844","5.9375","-3.59375","5.40625"
"1574972882094","448","0.11230469","-1.015625","-0.19921875","-3.8125","-2.09375","2.59375"
"1574972882094","449","0.045898438","-1.0175781","-0.1796875","-1.1875","-6.65625","-4.5"
"1574972882486","450","0.10644531","-0.984375","-0.16503906","0.09375","-3.90625","2.21875"
"1574972882487","451","0.1328125","-0.9863281","-0.18945312","-0.28125","-1.15625","2.21875"
"1574972882487","452","0.09375","-0.96875","-0.1796875","-2.90625","-5.9375","0.03125"
"1574972882487","453","0.10058594","-0.96484375","-0.18164062","3.875","-3.375","3.5625"
"1574972882488","454","0.10449219","-0.9785156","-0.21484375","1.25","-6.0","2.59375"
"1574972882488","455","0.1015625","-1.0205078","-0.18261719","-0.40625","-1.40625","-2.53125"
"1574972882488","456","0.12011719","-0.9814453","-0.16894531","2.78125","-2.5625","5.09375"
"1574972882489","457","0.072265625","-0.9345703","-0.1796875","5.625","-8.6875","1.1875"
"1574972882489","458","0.10449219","-1.0302734","-0.19238281","5.03125","-1.34375","1.375"
"1574972882489","459","0.119140625","-1.0292969","-0.18945312","4.0","-6.65625","2.90625"
"1574972882886","460","0.076171875","-0.98339844","-0.15527344","5.9375","-3.125","1.3125"
"1574972882887","461","0.0703125","-0.98828125","-0.17382812","6.3125","-4.28125","2.90625"
"1574972882887","462","0.08300781","-0.96777344","-0.16796875","8.4375","-4.8125","6.8125"
"1574972882888","463","0.09765625","-1.0009766","-0.1875","7.84375","-5.4375","5.875"
"1574972882888","464","0.09472656","-1.0078125","-0.18847656","3.25","-0.4375","1.625"
"1574972882888","465","0.1015625","-1.0175781","-0.16992188","6.0625","-6.21875","4.1875"
"1574972882888","466","0.11816406","-0.9580078","-0.15039062","6.1875","-7.21875","4.78125"
"1574972882889","467","0.09667969","-0.94433594","-0.140625","2.78125","-0.875","2.59375"
"1574972882889","468","0.056640625","-0.9736328","-0.15820312","6.5","-7.6875","3.0"
"1574972882889","469","0.11035156","-0.984375","-0.15820312","9.375","-6.78125","4.84375"
"1574972883283","470","0.091796875","-1.0234375","-0.16113281","6.1875","-3.65625","-0.65625"
"1574972883284","471","0.0625","-1.0585938","-0.15429688","2.28125","-2.5","-1.625"
"1574972883284","472","0.08203125","-1.0009766","-0.15429688","5.6875","-8.0625","0.9375"
"1574972883284","473","0.06347656","-1.0019531","-0.09863281","1.78125","-3.375","-1.0625"
"1574972883285","474","0.10058594","-1.0546875","-0.16992188","7.46875","-3.59375","-0.40625"
"1574972883285","475","0.10546875","-1.0400391","-0.11816406","4.1875","-9.90625","1.71875"
"1574972883285","476","0.08691406","-1.03125","-0.13574219","6.25","-8.84375","0.625"
"1574972883285","477","0.11816406","-1.0126953","-0.09277344","6.8125","-9.96875","5.6875"
"1574972883286","478","0.040039062","-0.97558594","-0.10253906","11.5","-22.15625","5.46875"
"1574972883286","479","0.07128906","-0.953125","-0.12988281","16.25","-17.46875","2.53125"
"1574972883876","480","0.045898438","-0.9785156","-0.11425781","1.1875","-3.4375","-2.28125"
"1574972883878","481","0.08203125","-0.9736328","-0.119140625","4.65625","-9.78125","-4.75"
"1574972883878","482","0.07324219","-0.9638672","-0.10449219","1.96875","-7.875","-1.375"
"1574972883879","483","0.047851562","-0.9921875","-0.0859375","2.9375","-7.625","-4.4375"
"1574972883879","484","0.10058594","-1.0537109","-0.10546875","5.46875","-5.8125","-0.65625"
"1574972883879","485","0.056640625","-1.0283203","-0.032226562","2.71875","-2.3125","1.3125"
"1574972883879","486","-9.765625E-4","-1.0166016","-0.083984375","10.65625","-8.6875","4.65625"
"1574972883880","487","0.0703125","-0.9638672","-0.0703125","9.78125","-2.625","3.875"
"1574972883880","488","0.0703125","-0.9091797","-0.020507812","8.25","-0.375","8.875"
"1574972883880","489","-0.018554688","-0.8300781","-0.038085938","14.0625","-9.53125","7.28125"
"1574972884078","490","-0.061523438","-0.5566406","-0.0234375","31.53125","-4.15625","11.625"
"1574972884078","491","-0.17285156","-0.37402344","-0.053710938","28.53125","14.8125","17.25"
"1574972884078","492","0.0078125","-0.75","0.34179688","3.625","54.375","25.65625"
"1574972884079","493","-0.025390625","-2.006836","-0.375","-22.75","41.125","-52.65625"
"1574972884080","494","0.032226562","-2.006836","-0.045898438","10.09375","-30.09375","32.0625"
"1574972884080","495","-0.19042969","-0.9873047","-0.64160156","57.15625","-81.125","77.59375"
"1574972884080","496","0.4091797","0.5703125","0.4423828","-118.15625","71.40625","-49.0"
"1574972884081","497","-0.061523438","0.3701172","0.1328125","-21.34375","25.09375","-18.90625"
"1574972884081","498","0.11230469","-1.3623047","-0.068359375","62.9375","59.375","19.6875"
"1574972884081","499","-0.31933594","-2.006836","-0.7685547","-103.375","42.34375","14.96875"
"1574972884474","500","0.06542969","-0.49023438","-0.07910156","8.4375","-78.3125","40.625"
"1574972884474","501","0.20019531","-0.040039062","0.4453125","-28.1875","43.09375","-26.15625"
"1574972884475","502","-0.29589844","-0.58691406","0.08984375","4.28125","12.9375","6.125"
"1574972884475","503","-0.06640625","-2.006836","-0.43066406","16.25","12.875","-2.0625"
"1574972884475","504","0.31054688","-1.3730469","-0.18261719","-38.96875","-20.15625","-2.0"
"1574972884476","505","0.16992188","-0.40039062","0.19921875","9.90625","-20.875","-2.40625"
"1574972884476","506","-0.021484375","-0.453125","0.14257812","31.03125","-3.3125","0.75"
"1574972884477","507","0.022460938","-1.2480469","-0.26171875","-21.46875","-19.84375","5.53125"
"1574972884477","508","0.038085938","-1.5849609","-0.21875","-2.34375","1.8125","-20.96875"
"1574972884477","509","-0.060546875","-0.9277344","0.0234375","5.625","-9.71875","2.84375"
"1574972884873","510","-0.0146484375","-0.6826172","0.001953125","10.875","-11.90625","7.53125"
"1574972884873","511","0.095703125","-0.91796875","-0.06738281","-10.15625","4.5","0.9375"
"1574972884874","512","0.099609375","-1.2382812","-0.103515625","-8.8125","8.84375","-5.84375"
"1574972884874","513","-0.052734375","-1.1386719","-0.08691406","0.5","1.09375","-6.3125"
"1574972884874","514","0.017578125","-0.8574219","-0.037109375","3.5625","-3.96875","8.03125"
"1574972884874","515","0.11816406","-0.96191406","-0.048828125","-3.59375","-2.3125","3.25"
"1574972884875","516","0.056640625","-1.0527344","-0.09277344","-4.1875","4.75","-7.84375"
"1574972884876","517","0.0029296875","-1.0410156","-0.08105469","-0.34375","-0.8125","0.9375"
"1574972884876","518","0.036132812","-1.0292969","-0.09472656","-3.28125","-1.15625","-0.65625"
"1574972884877","519","0.078125","-0.9736328","-0.057617188","-4.875","4.875","-6.375"
"1574972885273","520","0.0546875","-0.9824219","-0.068359375","-1.0625","0.84375","-3.53125"
"1574972885273","521","0.053710938","-1.0351562","-0.09863281","-5.65625","-3.78125","-2.0625"
"1574972885274","522","0.08300781","-1.0117188","-0.11425781","-5.28125","-2.875","-3.9375"
"1574972885274","523","0.07519531","-0.9902344","-0.08886719","-8.09375","-0.375","-7.71875"
"1574972885274","524","0.07128906","-0.9970703","-0.11328125","-7.78125","-2.3125","-8.8125"
"1574972885274","525","0.09765625","-1.0185547","-0.14257812","-7.375","-5.1875","-5.21875"
"1574972885275","526","0.09277344","-1.0283203","-0.13085938","-10.78125","-4.46875","-10.28125"
"1574972885275","527","0.10449219","-0.9902344","-0.13085938","-10.78125","-4.34375","-10.46875"
"1574972885275","528","0.08496094","-0.99316406","-0.13085938","-9.0625","-5.5","-7.0625"
"1574972885276","529","0.09277344","-1.0185547","-0.140625","-8.78125","-5.875","-6.9375"
"1574972885864","530","0.091796875","-1.0009766","-0.14550781","-4.6875","-2.25","-6.5"
"1574972885865","531","0.109375","-0.9863281","-0.1796875","-1.5625","-1.21875","-6.1875"
"1574972885865","532","0.12695312","-0.96972656","-0.12792969","-14.6875","3.0","-8.09375"
"1574972885865","533","0.09765625","-1.0302734","-0.14257812","-12.0625","-5.1875","-5.09375"
"1574972885866","534","0.08496094","-1.0136719","-0.19628906","-9.3125","-7.4375","-5.90625"
"1574972885866","535","0.09375","-0.9785156","-0.14257812","-12.4375","-8.5","-4.5"
"1574972885866","536","0.11230469","-1.0","-0.17285156","-11.09375","-8.5","-6.15625"
"1574972885867","537","0.08496094","-1.0214844","-0.20507812","-10.40625","-10.125","-8.34375"
"1574972885867","538","0.10449219","-0.9794922","-0.12597656","-1.4375","-1.90625","-2.71875"
"1574972885867","539","0.15234375","-0.9824219","-0.21679688","2.28125","-6.71875","-1.25"
"1574972886064","540","0.11621094","-1.0048828","-0.17773438","2.40625","-11.71875","2.53125"
"1574972886065","541","0.07714844","-1.0224609","-0.18652344","0.4375","-7.15625","-0.53125"
"1574972886066","542","0.09082031","-0.9902344","-0.2109375","0.3125","-12.53125","0.3125"
"1574972886066","543","0.047851562","-0.9394531","-0.18261719","-5.71875","-6.84375","0.875"
"1574972886066","544","0.09277344","-0.9199219","-0.16894531","-2.53125","-1.53125","-1.625"
"1574972886066","545","0.15039062","-0.9355469","-0.18457031","0.75","2.25","3.3125"
"1574972886067","546","0.20507812","-1.0546875","-0.18945312","-4.375","0.96875","3.8125"
"1574972886067","547","0.10644531","-1.0976562","-0.23242188","-4.1875","-2.3125","-3.8125"
"1574972886067","548","0.064453125","-0.9785156","-0.17773438","-3.21875","-3.0625","-7.0"
"1574972886067","549","0.16601562","-0.91015625","-0.20019531","1.625","-5.75","2.90625"
"1574972886462","550","0.18261719","-0.99609375","-0.21289062","2.9375","-2.5","2.65625"
"1574972886462","551","0.13574219","-1.015625","-0.22363281","4.125","-9.40625","-1.0"
"1574972886463","552","0.13183594","-1.015625","-0.20800781","4.0","-10.1875","0.28125"
"1574972886464","553","0.1796875","-0.96777344","-0.19335938","7.53125","-11.0625","1.375"
"1574972886464","554","0.16796875","-0.95996094","-0.17871094","5.8125","-19.59375","-2.25"
"1574972886464","555","0.13867188","-0.9111328","-0.21875","9.96875","-24.46875","-4.90625"
"1574972886465","556","0.11621094","-0.99609375","-0.21582031","1.71875","-17.875","-7.71875"
"1574972886465","557","0.09375","-1.0390625","-0.27539062","3.625","-17.875","-8.53125"
"1574972886465","558","0.111328125","-1.0361328","-0.22949219","1.71875","-13.1875","-9.375"
"1574972886465","559","0.14550781","-0.99121094","-0.15332031","1.5","-7.625","-7.90625"
"1574972886860","560","0.14355469","-0.9423828","-0.18261719","0.4375","-12.03125","-4.375"
"1574972886861","561","0.13378906","-0.93359375","-0.21875","-4.1875","-5.625","-6.5"
"1574972886861","562","0.14746094","-1.0185547","-0.22363281","-1.5","-4.78125","-4.6875"
"1574972886861","563","0.17480469","-0.94140625","-0.22753906","-0.28125","-6.34375","-0.71875"
"1574972886862","564","0.17480469","-0.9345703","-0.20019531","4.59375","-2.09375","1.25"
"1574972886863","565","0.14746094","-0.97753906","-0.22167969","3.3125","-4.40625","0.15625"
"1574972886863","566","0.17089844","-0.95996094","-0.20507812","3.3125","-7.625","3.375"
"1574972886864","567","0.15722656","-0.95996094","-0.22167969","5.6875","-4.40625","3.25"
"1574972886864","568","0.15234375","-0.9765625","-0.21191406","7.21875","-4.9375","4.125"
"1574972886864","569","0.17773438","-0.9423828","-0.18652344","10.9375","-7.5","6.5"
"1574972887257","570","0.15136719","-0.9453125","-0.12011719","12.71875","-17.84375","9.25"
"1574972887258","571","0.021484375","-1.0087891","-0.12792969","-1.75","-5.6875","0.03125"
"1574972887258","572","0.016601562","-1.1201172","-0.265625","-1.5625","4.75","1.65625"
"1574972887258","573","0.15527344","-1.0146484","-0.25195312","1.65625","1.65625","11.25"
"1574972887258","574","0.21679688","-0.9707031","-0.14160156","-0.84375","6.53125","5.53125"
"1574972887259","575","0.13964844","-0.96484375","-0.171875","1.125","5.71875","3.75"
"1574972887259","576","0.10839844","-1.0351562","-0.23535156","-1.4375","0.78125","0.8125"
"1574972887259","577","0.16796875","-1.0458984","-0.21875","-3.59375","1.40625","0.15625"
"1574972887260","578","0.17773438","-0.984375","-0.18945312","0.3125","-0.25","1.84375"
"1574972887260","579","0.08984375","-0.9189453","-0.16992188","6.3125","-1.34375","4.96875"
"1574972887655","580","0.06933594","-0.9003906","-0.16992188","3.9375","-1.78125","5.75"
"1574972887656","581","0.15136719","-0.9736328","-0.19824219","4.59375","0.40625","2.84375"
"1574972887656","582","0.1875","-0.9980469","-0.21875","4.34375","-4.46875","2.90625"
"1574972887656","583","0.1171875","-1.0009766","-0.20703125","4.125","-2.4375","4.125"
"1574972887656","584","0.07714844","-0.9814453","-0.16796875","7.40625","-1.59375","5.46875"
"1574972887657","585","0.12988281","-0.95214844","-0.18457031","7.90625","-5.1875","6.3125"
"1574972887657","586","0.12402344","-0.9550781","-0.140625","5.6875","-0.5","5.75"
"1574972887657","587","0.0703125","-1.0244141","-0.1484375","5.21875","-0.25","0.375"
"1574972887657","588","0.08886719","-0.9667969","-0.18652344","3.625","-3.125","2.15625"
"1574972887659","589","0.11328125","-1.0048828","-0.15039062","9.375","-0.75","10.09375"
"1574972888051","590","0.07910156","-0.98339844","-0.13964844","13.5625","0.46875","9.84375"
"1574972888052","591","0.049804688","-0.984375","-0.09667969","9.375","3.0","10.40625"
"1574972888052","592","0.030273438","-1.0029297","-0.12597656","16.1875","-1.96875","12.84375"
"1574972888052","593","0.07714844","-0.95996094","-0.12597656","14.0625","-5.9375","14.90625"
"1574972888053","594","0.09765625","-0.9638672","-0.15234375","10.03125","-4.8125","9.46875"
"1574972888053","595","0.11425781","-1.109375","-0.14355469","-11.875","5.5625","-5.40625"
"1574972888053","596","0.056640625","-1.0683594","-0.13867188","0.625","2.1875","3.0625"
"1574972888053","597","0.0029296875","-0.9970703","-0.0068359375","-0.65625","-16.0625","1.5"
"1574972888054","598","0.0390625","-1.0458984","-0.123046875","7.21875","-11.59375","-8.9375"
"1574972888054","599","0.07519531","-1.0390625","-0.18847656","2.46875","-13.96875","-2.40625"
"1574972888450","600","0.044921875","-0.90234375","-0.11035156","-7.59375","-6.59375","-5.03125"
"1574972888451","601","0.0078125","-0.73535156","-0.044921875","-1.0625","0.375","-3.875"
"1574972888451","602","-0.07324219","-0.42285156","-0.15625","35.53125","-18.25","0.875"
"1574972888452","603","0.040039062","-0.3720703","-0.0146484375","10.53125","3.90625","13.6875"
"1574972888452","604","0.111328125","-0.72753906","0.20605469","6.8125","26.3125","6.625"
"1574972888452","605","-0.23339844","-2.006836","-0.76660156","9.84375","8.1875","-11.75"
"1574972888452","606","0.2109375","-1.1777344","-0.26757812","-116.8125","-24.25","2.40625"
"1574972888453","607","0.19042969","-0.12890625","-0.15820312","-23.0","-32.59375","-0.84375"
"1574972888453","608","0.4482422","0.54003906","0.51464844","-15.78125","50.71875","19.125"
"1574972888453","609","-0.4482422","-0.37304688","-0.3232422","-28.1875","-4.875","49.03125"
"1574972888846","610","0.16992188","-2.006836","-0.43847656","30.96875","82.28125","-17.125"
"1574972888847","611","0.49609375","-1.4150391","-0.22167969","-103.25","-4.40625","-27.25"
"1574972888847","612","0.34765625","-0.546875","0.05078125","-12.625","-36.03125","-1.5625"
"1574972888848","613","-0.043945312","-0.1328125","0.12695312","10.15625","3.15625","-12.90625"
"1574972888849","614","-0.19042969","-0.78515625","-0.17285156","24.375","-13.96875","17.0"
"1574972888849","615","0.14550781","-1.7783203","-0.40527344","-5.03125","17.75","-27.9375"
"1574972888849","616","0.27734375","-1.3310547","-0.21582031","-15.1875","-22.90625","8.9375"
"1574972888849","617","0.0546875","-0.6845703","-0.0078125","-3.53125","1.75","12.65625"
"1574972888850","618","0.001953125","-0.74902344","-0.14941406","11.4375","0.40625","-5.84375"
"1574972888850","619","0.16308594","-1.0732422","-0.18066406","-2.46875","0.46875","-6.15625"
"1574972889246","620","0.18652344","-1.1455078","-0.16601562","1.625","0.125","5.46875"
"1574972889246","621","0.06542969","-1.0107422","-0.15917969","5.03125","-6.78125","2.40625"
"1574972889246","622","0.072265625","-0.89746094","-0.14550781","4.90625","-11.65625","-1.125"
"1574972889247","623","0.1015625","-0.95996094","-0.16601562","-4.625","-5.3125","3.625"
"1574972889247","624","0.06640625","-1.0410156","-0.16796875","0.21875","1.15625","4.71875"
"1574972889251","625","0.0546875","-1.0263672","-0.17285156","2.09375","-5.5","4.0625"
"1574972889251","626","0.08691406","-0.99316406","-0.15234375","-7.1875","-6.96875","5.09375"
"1574972889251","627","0.08691406","-1.0087891","-0.18164062","-6.09375","-0.75","4.90625"
"1574972889252","628","0.064453125","-0.99609375","-0.13867188","-10.15625","0.125","5.46875"
"1574972889252","629","0.083984375","-0.9980469","-0.15820312","-10.21875","-2.15625","6.3125"
"1574972889643","630","0.06347656","-0.9824219","-0.16601562","-5.21875","-0.3125","5.6875"
"1574972889643","631","0.087890625","-1.0136719","-0.17285156","-5.96875","1.8125","3.5"
"1574972889643","632","0.076171875","-1.0009766","-0.17285156","-4.75","1.65625","4.28125"
"1574972889644","633","0.07324219","-0.9951172","-0.15625","-1.1875","0.40625","4.0"
"1574972889644","634","0.064453125","-1.0224609","-0.16308594","-3.53125","-2.21875","2.78125"
"1574972889644","635","0.056640625","-1.03125","-0.171875","-1.8125","-3.125","0.3125"
"1574972889644","636","0.038085938","-0.98535156","-0.15917969","-4.375","-3.96875","0.28125"
"1574972889646","637","0.038085938","-0.98046875","-0.16894531","-0.34375","-2.3125","0.5625"
"1574972889646","638","0.041992188","-1.0078125","-0.17285156","-0.90625","1.53125","1.4375"
"1574972889647","639","0.033203125","-0.98535156","-0.18652344","0.9375","-0.3125","1.71875"
"1574972890039","640","0.044921875","-0.98828125","-0.17675781","0.28125","0.3125","1.90625"
"1574972890040","641","0.048828125","-1.0146484","-0.18066406","-3.46875","2.125","1.65625"
"1574972890040","642","0.068359375","-1.0146484","-0.20019531","0.15625","6.53125","5.9375"
"1574972890040","643","0.041992188","-0.96191406","-0.19433594","1.96875","-1.46875","6.6875"
"1574972890040","644","0.045898438","-0.9326172","-0.18164062","-0.53125","1.15625","4.59375"
"1574972890041","645","0.068359375","-0.9736328","-0.20117188","1.25","2.5","2.90625"
"1574972890041","646","0.055664062","-0.9873047","-0.19238281","-0.53125","2.4375","0.3125"
"1574972890041","647","0.068359375","-0.9482422","-0.20117188","-0.59375","-3.53125","-0.40625"
"1574972890041","648","0.095703125","-1.0048828","-0.20800781","-1.3125","-3.78125","-3.15625"
"1574972890042","649","0.07128906","-1.0683594","-0.20996094","-1.6875","-3.125","-6.25"
"1574972890437","650","0.048828125","-1.0439453","-0.2265625","-0.78125","-6.28125","-1.375"
"1574972890437","651","0.046875","-0.97753906","-0.22070312","-1.375","-5.125","-1.8125"
"1574972890438","652","0.060546875","-0.9667969","-0.1953125","0.15625","0.1875","-1.25"
"1574972890438","653","0.047851562","-0.9326172","-0.19726562","1.5625","-3.59375","0.5625"
"1574972890439","654","0.076171875","-0.94921875","-0.21875","4.0","-0.96875","-0.65625"
"1574972890439","655","0.08203125","-0.9921875","-0.2265625","1.5625","1.9375","-2.65625"
"1574972890439","656","0.0625","-1.0371094","-0.21875","-2.71875","-0.1875","-1.25"
"1574972890439","657","0.07910156","-1.0166016","-0.22265625","-1.4375","-2.21875","-0.65625"
"1574972890444","658","0.09375","-0.97265625","-0.22070312","4.59375","-0.375","2.28125"
"1574972890444","659","0.06933594","-1.0029297","-0.21582031","-1.75","3.15625","0.4375"
"1574972890835","660","0.05859375","-1.0126953","-0.2265625","3.875","2.25","2.40625"
"1574972890837","661","0.08105469","-0.9863281","-0.20898438","3.625","-4.03125","2.78125"
"1574972890837","662","0.08691406","-0.9355469","-0.18847656","1.3125","-1.40625","-0.03125"
"1574972890838","663","0.09667969","-0.9746094","-0.19628906","5.34375","-2.375","0.875"
"1574972890838","664","0.07910156","-1.0009766","-0.22265625","6.25","-7.6875","-1.625"
"1574972890838","665","0.060546875","-0.95996094","-0.20996094","3.875","-6.28125","-1.1875"
"1574972890838","666","0.068359375","-0.9638672","-0.19335938","3.75","-8.71875","0.9375"
"1574972890839","667","0.07324219","-0.9511719","-0.18066406","-0.59375","-10.875","-2.34375"
"1574972890839","668","0.068359375","-1.0439453","-0.19921875","-0.40625","-5.25","-1.1875"
"1574972890839","669","0.01953125","-1.0527344","-0.2685547","3.375","-3.1875","-0.40625"
"1574972891233","670","0.061523438","-1.0048828","-0.21582031","-2.34375","-3.1875","-4.8125"
"1574972891233","671","0.12109375","-1.0058594","-0.19140625","-1.0","0.25","-2.0"
"1574972891234","672","0.07324219","-0.9638672","-0.18652344","-0.40625","-2.25","-2.0"
"1574972891235","673","0.107421875","-0.95703125","-0.23828125","5.21875","-6.15625","-3.625"
"1574972891235","674","0.09667969","-0.9951172","-0.21875","-1.3125","-6.78125","-3.53125"
"1574972891236","675","0.083984375","-0.9609375","-0.19628906","-1.3125","-5.9375","-6.75"
"1574972891236","676","0.08691406","-0.9550781","-0.18945312","2.90625","-10.5","-6.03125"
"1574972891236","677","0.09667969","-0.9238281","-0.1953125","1.90625","-4.53125","-3.8125"
"1574972891236","678","0.08300781","-0.9824219","-0.19824219","1.96875","-2.3125","-4.5625"
"1574972891237","679","0.08105469","-1.0439453","-0.22851562","-3.59375","2.1875","-3.09375"
"1574972892025","680","0.10449219","-1.0683594","-0.20800781","-1.125","8.59375","-5.21875"
"1574972892026","681","0.115234375","-0.97265625","-0.21679688","7.65625","4.5625","-0.40625"
"1574972892026","682","0.1015625","-0.9013672","-0.17480469","3.0","6.28125","5.46875"
"1574972892026","683","0.1328125","-1.0205078","-0.203125","5.34375","7.9375","-1.25"
"1574972892027","684","0.15039062","-1.0048828","-0.23242188","7.46875","2.4375","-2.0"
"1574972892028","685","0.103515625","-0.9238281","-0.19433594","2.78125","3.90625","-0.09375"
"1574972892028","686","0.11621094","-0.96875","-0.17675781","3.4375","2.5","-0.71875"
"1574972892029","687","0.125","-1.0195312","-0.22265625","-0.09375","-1.90625","-2.25"
"1574972892029","688","0.087890625","-0.94921875","-0.18164062","-1.9375","-2.09375","-2.53125"
"1574972892030","689","0.08984375","-0.9550781","-0.19628906","6.4375","0.84375","0.625"
"1574972892424","690","0.087890625","-0.9892578","-0.20214844","0.6875","1.40625","5.875"
"1574972892424","691","0.12207031","-1.0449219","-0.20507812","-2.78125","1.75","1.90625"
"1574972892425","692","0.10546875","-1.0273438","-0.18457031","2.90625","1.75","2.71875"
"1574972892425","693","0.07519531","-0.9316406","-0.19726562","1.84375","-3.0","9.1875"
"1574972892425","694","0.10449219","-0.9511719","-0.17382812","3.125","-2.03125","10.75"
"1574972892425","695","0.12988281","-1.0019531","-0.17578125","5.46875","-1.28125","7.71875"
"1574972892426","696","0.08691406","-1.0019531","-0.20019531","6.96875","-6.96875","8.6875"
"1574972892426","697","0.06738281","-0.9902344","-0.18066406","7.09375","-5.0","7.71875"
"1574972892426","698","0.053710938","-0.92089844","-0.16210938","11.0625","-6.65625","8.9375"
"1574972892427","699","0.033203125","-0.93066406","-0.15722656","5.28125","-6.59375","11.125"
"1574972892427","700","0.040039062","-1.0498047","-0.16015625","1.0","-1.65625","8.75"
"1574972892427","701","0.06640625","-1.1318359","-0.15625","14.84375","-3.375","9.78125"
"1574972892428","702","0.033203125","-0.9638672","-0.15136719","13.15625","-8.0","15.21875"
"1574972892428","703","-0.005859375","-0.9082031","-0.10058594","8.625","-2.75","16.1875"
"1574972892428","704","0.038085938","-0.88378906","-0.10449219","16.8125","-6.59375","14.4375"
"1574972892428","705","0.12792969","-0.64746094","0.0","40.125","-20.34375","21.1875"
"1574972892429","706","-0.060546875","-0.3388672","0.018554688","57.8125","-29.90625","25.21875"
"1574972892429","707","-0.13183594","-0.4345703","0.15625","53.1875","-28.8125","45.875"
"1574972892429","708","-0.36132812","-1.7753906","-1.2255859","-21.09375","-32.125","-26.34375"
"1574972892429","709","0.28808594","-2.006836","0.19140625","-73.71875","-79.0","-28.53125"
"1574972892823","710","-0.40722656","-0.50097656","-0.12109375","-61.0625","-114.8125","-9.9375"
"1574972892823","711","-0.0703125","0.6464844","0.3935547","61.90625","-34.90625","-23.15625"
"1574972892824","712","-0.41503906","-0.032226562","-0.24121094","-20.0","21.90625","24.75"
"1574972892824","713","-0.034179688","-1.4287109","-0.16699219","-53.1875","113.65625","-16.34375"
"1574972892825","714","0.38671875","-2.006836","-0.6816406","-28.25","-39.875","4.71875"
"1574972892825","715","-0.01171875","-0.33789062","0.171875","-22.6875","-49.5625","-6.75"
"1574972892825","716","-0.033203125","-0.07714844","0.11035156","18.5625","7.125","-17.375"
"1574972892825","717","-0.21191406","-0.65234375","-0.083984375","-0.84375","5.5625","27.96875"
"1574972892826","718","0.30664062","-1.7636719","-0.2841797","12.78125","12.75","-22.5625"
"1574972892826","719","0.27734375","-1.4785156","-0.30371094","-11.9375","-16.78125","-4.4375"
"1574972893222","720","-0.08496094","-0.6171875","0.034179688","10.28125","-12.8125","11.0"
"1574972893223","721","-0.08691406","-0.67285156","-0.047851562","20.03125","6.21875","4.46875"
"1574972893224","722","0.20898438","-1.0634766","-0.17480469","-6.3125","-4.21875","22.3125"
"1574972893224","723","0.26953125","-1.296875","-0.20898438","6.0625","1.9375","-6.625"
"1574972893224","724","-0.033203125","-1.0605469","-0.14257812","-5.71875","-3.84375","-7.125"
"1574972893225","725","-0.030273438","-0.8261719","-0.025390625","9.4375","-7.6875","5.34375"
"1574972893225","726","0.10449219","-0.9121094","-0.16992188","12.59375","-7.625","14.375"
"1574972893227","727","0.17480469","-1.0488281","-0.11816406","-7.78125","3.0","-2.84375"
"1574972893228","728","0.06542969","-1.0507812","-0.08886719","3.1875","-1.65625","-2.1875"
"1574972893228","729","0.020507812","-1.0048828","-0.13867188","10.03125","-7.9375","8.09375"
"1574972893616","730","0.1015625","-0.9951172","-0.10546875","3.5","-4.28125","2.09375"
"1574972893617","731","0.15820312","-1.0029297","-0.1171875","1.3125","-6.78125","-2.46875"
"1574972893617","732","0.078125","-1.0107422","-0.11621094","-2.71875","-9.28125","-7.0625"
"1574972893618","733","0.07910156","-1.0273438","-0.13183594","-2.125","-9.28125","-7.59375"
"1574972893618","734","0.099609375","-1.0273438","-0.13867188","-2.34375","-10.25","-3.875"
"1574972893618","735","0.12109375","-1.0087891","-0.11328125","-11.5625","-6.28125","-6.375"
"1574972893619","736","0.107421875","-1.0068359","-0.095703125","-4.90625","-7.9375","-6.75"
"1574972893619","737","0.0703125","-1.0146484","-0.13964844","-1.625","-10.625","-2.0625"
"1574972893619","738","0.07421875","-0.99609375","-0.119140625","-9.25","-8.25","-3.09375"
"1574972893619","739","0.09667969","-0.9550781","-0.123046875","-9.5","-8.25","-2.53125"
"1574972894015","740","0.09082031","-0.96875","-0.10253906","-7.4375","-6.46875","-0.53125"
"1574972894015","741","0.064453125","-0.9511719","-0.099609375","0.8125","-2.375","1.5"
"1574972894015","742","0.044921875","-0.9814453","-0.15234375","3.625","-4.8125","4.71875"
"1574972894015","743","0.083984375","-1.0537109","-0.21191406","-5.15625","1.03125","4.21875"
"1574972894016","744","0.15625","-1.0546875","-0.1015625","-4.4375","5.1875","-2.71875"
"1574972894017","745","0.11230469","-0.9921875","-0.15722656","-2.25","-2.3125","-1.0625"
"1574972894017","746","0.052734375","-0.95410156","-0.13378906","-5.34375","-1.65625","1.0"
"1574972894017","747","0.083984375","-1.0537109","-0.15820312","-1.375","-1.90625","-0.78125"
"1574972894018","748","0.09863281","-1.0302734","-0.16894531","-1.625","-6.125","-3.8125"
"1574972894018","749","0.08105469","-0.9628906","-0.12695312","-2.59375","-6.78125","-2.53125"
"1574972894413","750","0.06933594","-0.99902344","-0.17675781","-0.96875","-3.4375","-2.46875"
"1574972894413","751","0.083984375","-0.9902344","-0.14453125","-3.53125","-3.96875","-0.65625"
"1574972894414","752","0.09375","-0.9892578","-0.18261719","4.28125","-1.53125","0.875"
"1574972894414","753","0.091796875","-1.0078125","-0.16796875","1.78125","-1.15625","1.5625"
"1574972894414","754","0.091796875","-1.0","-0.171875","2.03125","-1.21875","0.75"
"1574972894414","755","0.0859375","-0.97753906","-0.15722656","1.96875","1.09375","1.3125"
"1574972894415","756","0.10839844","-0.99121094","-0.16601562","2.71875","0.125","3.25"
"1574972894416","757","0.1015625","-1.0068359","-0.16699219","2.9375","0.78125","2.53125"
"1574972894416","758","0.09667969","-0.9980469","-0.15429688","1.84375","2.0625","2.15625"
"1574972894417","759","0.08496094","-0.97753906","-0.15429688","-0.84375","1.9375","1.0"
"1574972894810","760","0.11230469","-0.9638672","-0.17480469","4.65625","-1.90625","2.53125"
"1574972894811","761","0.1171875","-1.0009766","-0.16992188","-0.78125","1.40625","-0.15625"
"1574972894811","762","0.10058594","-0.9970703","-0.1796875","1.375","0.96875","-1.0625"
"1574972894811","763","0.080078125","-0.98828125","-0.16210938","1.1875","-2.15625","-3.46875"
"1574972894812","764","0.095703125","-0.9902344","-0.15722656","0.09375","-3.84375","-4.5625"
"1574972894812","765","0.103515625","-0.97558594","-0.18652344","3.375","-4.78125","-3.875"
"1574972894812","766","0.10644531","-1.0039062","-0.16503906","-1.375","-4.875","-4.96875"
"1574972894812","767","0.09277344","-1.0039062","-0.15820312","-1.6875","-5.8125","-7.25"
"1574972894813","768","0.125","-0.98535156","-0.16210938","3.0625","-4.71875","-1.75"
"1574972894814","769","0.08203125","-0.94433594","-0.17675781","3.0","-6.125","-0.15625"
"1574972895208","770","0.08886719","-0.98046875","-0.16992188","-3.8125","-3.71875","1.5"
"1574972895208","771","0.11621094","-1.0625","-0.18359375","1.125","-1.46875","1.125"
"1574972895209","772","0.14453125","-1.0517578","-0.18554688","-0.84375","-0.90625","-0.65625"
"1574972895209","773","0.1015625","-1.0068359","-0.15820312","0.03125","-3.125","4.21875"
"1574972895209","774","0.099609375","-0.99316406","-0.16210938","2.84375","0.78125","1.78125"
"1574972895209","775","0.13183594","-1.0136719","-0.14550781","3.3125","-1.46875","3.9375"
"1574972895210","776","0.123046875","-0.9667969","-0.12988281","10.34375","-4.34375","7.65625"
"1574972895210","777","0.09375","-0.9609375","-0.15136719","10.09375","-7.4375","7.96875"
"1574972895210","778","0.08496094","-0.9824219","-0.14550781","10.8125","-2.21875","6.625"
"1574972895210","779","0.10644531","-0.98339844","-0.16894531","16.375","-8.0625","6.4375"
"1574972895604","780","0.109375","-0.9423828","-0.14355469","11.875","-9.84375","6.4375"
"1574972895605","781","0.080078125","-0.94628906","-0.13476562","3.625","-3.1875","-0.53125"
"1574972895605","782","0.08203125","-1.0400391","-0.12597656","2.53125","-6.90625","-3.15625"
"1574972895606","783","0.087890625","-0.9970703","-0.13671875","3.0","-6.90625","-0.34375"
"1574972895606","784","0.059570312","-0.99609375","-0.11621094","5.53125","-6.21875","-1.375"
"1574972895606","785","0.08691406","-1.015625","-0.14941406","2.65625","-5.3125","-0.46875"
"1574972895606","786","0.10839844","-1.0117188","-0.08886719","-0.09375","-1.84375","-1.875"
"1574972895607","787","0.091796875","-0.97753906","-0.13378906","5.34375","-7.21875","-0.71875"
"1574972895607","788","0.07421875","-0.9970703","-0.12207031","-0.15625","-4.03125","-0.46875"
"1574972895607","789","0.13378906","-1.0625","-0.16015625","-1.625","-4.40625","-4.125"
"1574972896002","790","0.1484375","-1.0087891","-0.095703125","-0.34375","-5.0","-2.46875"
"1574972896002","791","0.068359375","-0.9824219","-0.10058594","2.65625","-8.4375","-1.875"
"1574972896003","792","0.06738281","-1.015625","-0.14941406","4.78125","-5.75","-3.40625"
"1574972896004","793","0.13769531","-1.0126953","-0.12011719","2.71875","-5.875","-1.1875"
"1574972896004","794","0.13476562","-0.9863281","-0.099609375","2.40625","-4.8125","-2.53125"
"1574972896004","795","0.091796875","-0.97265625","-0.11425781","6.3125","-7.6875","-6.09375"
"1574972896005","796","0.11425781","-0.98339844","-0.12402344","1.625","-7.75","-3.09375"
"1574972896005","797","0.12207031","-0.9951172","-0.119140625","0.9375","-6.78125","-4.75"
"1574972896005","798","0.12402344","-0.99121094","-0.09863281","0.6875","-6.96875","-5.03125"
"1574972896005","799","0.11816406","-0.98046875","-0.119140625","3.25","-8.0","-2.0"
"1574972896402","800","0.11816406","-1.0039062","-0.12988281","4.125","-6.90625","-0.03125"
"1574972896402","801","0.125","-0.9736328","-0.103515625","4.0625","-5.625","-0.59375"
"1574972896402","802","0.08886719","-0.9501953","-0.12402344","4.0625","-6.28125","1.90625"
"1574972896403","803","0.11816406","-1.0195312","-0.15136719","1.0625","-6.15625","-0.65625"
"1574972896403","804","0.17382812","-1.0576172","-0.11621094","-2.96875","-3.0625","-2.71875"
"1574972896405","805","0.12402344","-0.9824219","-0.08984375","2.21875","-3.84375","2.53125"
"1574972896405","806","0.05859375","-0.9736328","-0.09472656","1.0625","1.8125","4.28125"
"1574972896405","807","0.10644531","-1.0283203","-0.12890625","3.4375","-4.875","6.375"
"1574972896406","808","0.16210938","-1.0068359","-0.13183594","1.1875","-3.59375","7.65625"
"1574972896406","809","0.10449219","-0.9433594","-0.055664062","10.8125","-2.15625","9.375"
"1574972896992","810","0.09082031","-0.8828125","-0.06738281","21.6875","-16.78125","14.5625"
"1574972896992","811","-0.001953125","-0.640625","0.0234375","37.875","-28.3125","23.21875"
"1574972896993","812","-0.06347656","-0.28710938","0.080078125","69.1875","-22.21875","18.21875"
"1574972896993","813","-0.111328125","-0.41796875","0.09277344","41.03125","-16.3125","40.4375"
"1574972896993","814","-0.16308594","-1.2617188","-0.4638672","13.28125","1.21875","22.0625"
"1574972896993","815","0.15429688","-2.006836","0.7998047","77.28125","207.9375","-8.15625"
"1574972896994","816","-0.6953125","-0.9980469","-0.3515625","-52.59375","-105.15625","12.09375"
"1574972896995","817","0.53027344","0.5048828","0.4013672","11.0625","52.375","1.1875"
"1574972896995","818","0.46191406","1.1552734","0.32910156","-39.21875","-20.5","7.21875"
"1574972896995","819","-0.14355469","-0.98535156","-0.44726562","15.40625","78.65625","-22.125"
"1574972897392","820","0.1015625","-2.006836","-0.65722656","30.96875","52.0","-47.65625"
"1574972897392","821","-0.17285156","-0.625","0.125","-54.375","-91.375","38.90625"
"1574972897392","822","0.56152344","-0.20703125","0.030273438","24.8125","-2.15625","-9.6875"
"1574972897393","823","0.24023438","-0.009765625","0.37304688","-25.4375","-15.09375","-13.65625"
"1574972897393","824","-0.3828125","-1.0439453","-0.26953125","-2.78125","-17.9375","-10.28125"
"1574972897393","825","0.05078125","-2.006836","-0.65722656","51.84375","4.5625","-16.03125"
"1574972897393","826","0.17285156","-0.73828125","0.0078125","-34.28125","-24.65625","27.90625"
"1574972897394","827","0.109375","-0.36132812","0.107421875","13.09375","-3.5","-2.78125"
"1574972897394","828","-0.025390625","-0.76660156","-0.0068359375","-11.15625","-4.40625","-5.09375"
"1574972897395","829","0.06933594","-1.3212891","-0.20605469","3.625","-1.46875","-2.0"
"1574972897792","830","0.01953125","-1.3330078","-0.22558594","-1.25","-3.96875","5.21875"
"1574972897793","831","0.10644531","-0.8808594","-0.013671875","-1.875","-8.4375","6.5625"
"1574972897793","832","0.08300781","-0.73535156","-0.001953125","2.34375","-13.875","3.5"
"1574972897793","833","0.041015625","-1.0517578","-0.123046875","-4.1875","-8.90625","4.53125"
"1574972897794","834","0.0390625","-1.1669922","-0.16210938","2.15625","-1.21875","-3.09375"
"1574972897794","835","0.024414062","-1.0166016","-0.09667969","0.625","-8.90625","2.15625"
"1574972897794","836","0.07519531","-0.90234375","-0.03515625","4.90625","-3.71875","4.0"
"1574972897794","837","0.05078125","-1.0205078","-0.10839844","0.75","-3.53125","2.90625"
"1574972897795","838","0.021484375","-1.0625","-0.12695312","0.3125","-1.59375","0.21875"
"1574972897795","839","0.05078125","-0.99902344","-0.09082031","0.875","0.125","2.40625"
"1574972898186","840","0.080078125","-1.0107422","-0.1015625","-4.75","0.90625","0.6875"
"1574972898188","841","0.052734375","-1.0078125","-0.10253906","-2.65625","0.25","-5.28125"
"1574972898189","842","0.045898438","-1.0126953","-0.099609375","-4.4375","0.0625","-2.25"
"1574972898189","843","0.07421875","-1.0087891","-0.11035156","-3.8125","1.875","-3.40625"
"1574972898189","844","0.08984375","-1.0039062","-0.087890625","-3.625","0.0","-3.53125"
"1574972898189","845","0.056640625","-1.0126953","-0.11816406","-4.875","2.9375","-5.46875"
"1574972898190","846","0.059570312","-1.0380859","-0.13476562","-6.09375","3.03125","-5.53125"
"1574972898190","847","0.055664062","-1.0322266","-0.12011719","-5.15625","2.25","-4.875"
"1574972898190","848","0.072265625","-0.9863281","-0.11035156","-3.34375","3.46875","-5.53125"
"1574972898190","849","0.07324219","-0.9550781","-0.09277344","-4.75","1.21875","-3.625"
"1574972898386","850","0.078125","-1.0009766","-0.14160156","0.75","1.875","-0.71875"
"1574972898387","851","0.07421875","-1.0146484","-0.12988281","2.21875","-0.6875","-0.28125"
"1574972898387","852","0.080078125","-0.97558594","-0.12207031","-1.1875","2.8125","-3.59375"
"1574972898388","853","0.091796875","-0.98046875","-0.1171875","1.25","-1.15625","-1.625"
"1574972898389","854","0.078125","-1.0117188","-0.13964844","1.25","-1.90625","-2.78125"
"1574972898389","855","0.09082031","-0.9902344","-0.1328125","2.40625","-4.40625","-4.0"
"1574972898389","856","0.09277344","-1.0136719","-0.15039062","0.9375","-2.9375","-2.0"
"1574972898390","857","0.0859375","-1.0214844","-0.14160156","0.15625","-2.6875","-3.53125"
"1574972898390","858","0.080078125","-0.99902344","-0.13183594","1.5625","-4.03125","-2.1875"
"1574972898390","859","0.09472656","-0.9941406","-0.12890625","3.375","-4.53125","1.25"
"1574972898787","860","0.095703125","-0.9951172","-0.14160156","3.5625","-3.0625","1.90625"
"1574972898788","861","0.09765625","-0.9794922","-0.14160156","7.34375","-4.21875","3.0"
"1574972898788","862","0.10839844","-0.94628906","-0.10449219","4.84375","-4.15625","6.84375"
"1574972898788","863","0.099609375","-0.92285156","-0.11035156","9.65625","-9.84375","5.09375"
"1574972898789","864","0.07128906","-0.97558594","-0.14257812","5.40625","-4.34375","3.25"
"1574972898798","865","0.06542969","-1.0595703","-0.13867188","-3.75","1.53125","0.625"
"1574972898798","866","0.08300781","-1.1298828","-0.1171875","-1.1875","2.125","1.0625"
"1574972898799","867","0.09277344","-1.0087891","-0.10546875","7.40625","-8.125","5.46875"
"1574972898799","868","0.07421875","-0.9375","-0.091796875","9.25","-7.6875","8.5625"
"1574972898799","869","0.028320312","-0.984375","-0.11035156","5.21875","-5.0625","5.15625"
"1574972899380","870","0.064453125","-0.9892578","-0.12011719","4.21875","-4.8125","6.125"
"1574972899380","871","0.10253906","-0.9921875","-0.09082031","5.5625","-7.09375","4.71875"
"1574972899381","872","0.06640625","-1.0126953","-0.11621094","-0.09375","-2.4375","0.5"
"1574972899381","873","0.06542969","-1.0371094","-0.09667969","4.125","-9.15625","2.84375"
"1574972899381","874","0.051757812","-1.0253906","-0.08886719","7.34375","-7.9375","4.0625"
"1574972899381","875","0.043945312","-0.9921875","-0.07519531","7.15625","-9.28125","4.53125"
"1574972899382","876","0.0126953125","-0.9970703","-0.076171875","9.96875","-9.71875","6.5"
"1574972899383","877","0.0390625","-1.0126953","-0.087890625","8.625","-7.09375","8.3125"
"1574972899383","878","0.05859375","-1.0048828","-0.0546875","5.53125","-4.65625","9.46875"
"1574972899383","879","0.00390625","-1.0683594","-0.11230469","11.0","1.34375","4.21875"
"1574972899579","880","-0.0107421875","-1.0322266","-0.06933594","4.40625","4.4375","4.65625"
"1574972899579","881","0.052734375","-1.0009766","-0.040039062","5.34375","5.0","9.71875"
"1574972899580","882","0.06640625","-0.9873047","-0.025390625","11.1875","1.34375","10.875"
"1574972899580","883","0.018554688","-0.95214844","-0.051757812","7.40625","3.03125","5.9375"
"1574972899580","884","0.016601562","-1.0009766","-0.08300781","9.65625","0.84375","7.40625"
"1574972899580","885","0.0390625","-1.0117188","-0.06640625","3.375","0.84375","4.125"
"1574972899580","886","0.038085938","-1.0","-0.0146484375","9.1875","-3.65625","0.5625"
"1574972899581","887","0.005859375","-1.0175781","-0.064453125","5.6875","-6.65625","1.90625"
"1574972899581","888","-0.0126953125","-0.96777344","-0.01953125","4.53125","-1.28125","2.21875"
"1574972899582","889","0.01171875","-1.0380859","-0.040039062","2.65625","-2.3125","5.40625"
"1574972899977","890","0.009765625","-1.0146484","-0.040039062","6.8125","-4.34375","1.0625"
"1574972899978","891","0.005859375","-0.9892578","-0.005859375","6.0625","-3.78125","3.6875"
"1574972899978","892","0.00390625","-1.0185547","-0.022460938","-0.90625","3.0","0.5"
"1574972899979","893","0.0","-1.03125","-0.015625","4.65625","-0.8125","-0.53125"
"1574972899979","894","0.024414062","-1.0126953","-0.05078125","5.09375","-2.75","-0.71875"
"1574972899980","895","0.041015625","-0.9902344","0.015625","-2.71875","2.75","-4.6875"
"1574972899980","896","0.028320312","-1.0390625","0.0","3.5","2.375","-6.6875"
"1574972899980","897","0.025390625","-1.015625","-0.038085938","4.1875","2.1875","-7.71875"
"1574972899981","898","0.017578125","-0.9980469","0.021484375","0.15625","4.875","-9.3125"
"1574972899981","899","0.064453125","-1.0283203","-0.032226562","4.59375","-1.40625","-7.59375"
"1574972900375","900","0.05078125","-1.015625","0.0087890625","7.78125","0.0","-10.78125"
"1574972900377","901","0.025390625","-0.9970703","-0.0146484375","8.625","-1.84375","-6.3125"
"1574972900377","902","0.043945312","-1.0009766","-0.022460938","2.15625","0.25","-5.40625"
"1574972900378","903","0.056640625","-1.0029297","-0.01953125","6.84375","2.8125","-5.28125"
"1574972900378","904","0.0859375","-1.0253906","-0.028320312","6.8125","-4.78125","-1.125"
"1574972900378","905","0.041015625","-0.9794922","-0.020507812","3.5","-2.25","-3.28125"
"1574972900378","906","0.03515625","-1.0058594","0.0078125","0.625","-1.59375","-2.71875"
"1574972900379","907","0.057617188","-1.0253906","-0.030273438","6.1875","-4.28125","-1.5"
"1574972900379","908","0.059570312","-1.015625","-0.0068359375","4.53125","-5.6875","0.875"
"1574972900379","909","0.04296875","-1.0068359","0.0087890625","5.5625","0.53125","-3.53125"
"1574972900773","910","0.018554688","-0.98828125","0.01953125","1.96875","-0.125","-0.21875"
"1574972900773","911","0.055664062","-1.0097656","0.005859375","3.5625","0.3125","4.0625"
"1574972900773","912","0.06933594","-1.0097656","0.01953125","4.53125","3.78125","1.84375"
"1574972900775","913","0.06933594","-0.9941406","0.03125","6.8125","1.875","4.40625"
"1574972900775","914","0.10058594","-1.0048828","0.041992188","13.15625","-6.21875","6.5625"
"1574972900775","915","0.06542969","-1.0390625","0.020507812","13.34375","-5.9375","0.8125"
"1574972900776","916","0.001953125","-1.0439453","-9.765625E-4","12.28125","-4.28125","-1.625"
"1574972900776","917","0.0078125","-0.9707031","0.080078125","0.6875","2.4375","-1.0625"
"1574972900776","918","0.08203125","-0.99609375","0.06542969","10.71875","-2.25","2.21875"
"1574972900777","919","0.06738281","-1.0107422","0.04296875","2.59375","-2.75","-1.0"
"1574972901170","920","0.0107421875","-1.0","0.03515625","12.34375","-2.6875","-1.875"
"1574972901170","921","0.07714844","-1.0214844","0.041992188","7.53125","-0.4375","9.78125"
"1574972901170","922","0.0546875","-0.9667969","0.1015625","2.28125","1.15625","4.90625"
"1574972901171","923","0.001953125","-0.9814453","0.07324219","5.75","-2.25","-2.78125"
"1574972901171","924","0.0625","-0.8984375","0.028320312","23.875","-21.5625","13.09375"
"1574972901172","925","-0.030273438","-0.5576172","-0.051757812","22.59375","-20.21875","15.28125"
"1574972901173","926","0.13574219","-0.30566406","0.24511719","-6.25","-17.46875","16.9375"
"1574972901173","927","-0.04296875","-0.7832031","0.015625","0.875","-48.03125","23.09375"
"1574972901173","928","-0.17578125","-1.2597656","-0.27246094","-68.75","7.8125","8.75"
"1574972901173","929","0.12207031","-2.006836","-0.5878906","96.21875","-166.625","-22.8125"
"1574972901571","930","-0.73046875","-0.546875","0.036132812","-53.125","-113.65625","-25.84375"
"1574972901571","931","-0.020507812","0.8466797","0.5283203","20.28125","45.84375","27.65625"
"1574972901572","932","0.08105469","0.515625","0.024414062","-46.5","5.90625","57.53125"
"1574972901572","933","0.18261719","-1.3085938","-0.20800781","-22.5625","99.0625","-26.71875"
"1574972901572","934","-0.3564453","-2.006836","-1.0302734","41.28125","60.125","-46.84375"
"1574972901572","935","-0.22949219","-0.47851562","0.25683594","-43.0625","-46.40625","8.625"
"1574972901573","936","0.13183594","-0.19335938","0.12695312","-7.71875","51.03125","-13.59375"
"1574972901574","937","0.4267578","-0.29003906","0.1640625","-9.8125","-5.125","5.28125"
"1574972901574","938","0.20507812","-1.2763672","-0.2705078","16.6875","-13.875","-26.15625"
"1574972901574","939","-0.33496094","-2.006836","-0.31640625","-23.53125","15.0","-15.90625"
"1574972901965","940","-0.1171875","-0.77734375","-0.040039062","0.15625","-10.8125","40.78125"
"1574972901966","941","0.23339844","-0.4404297","0.08105469","22.59375","23.625","10.15625"
"1574972901966","942","0.24511719","-0.8847656","-0.037109375","-16.8125","11.28125","-11.40625"
"1574972901966","943","0.047851562","-1.3515625","-0.23242188","-4.90625","7.875","-12.71875"
"1574972901966","944","-0.043945312","-1.28125","-0.1875","3.75","-3.90625","12.21875"
"1574972901967","945","0.053710938","-0.765625","0.05859375","10.75","-6.28125","7.34375"
"1574972901967","946","0.11816406","-0.75","-0.0859375","12.53125","-0.1875","12.09375"
"1574972901967","947","0.140625","-1.21875","-0.14453125","-14.6875","-2.375","2.9375"
"1574972901967","948","0.0078125","-1.171875","-0.13964844","-0.15625","0.53125","-17.0625"
"1574972901968","949","0.013671875","-0.8457031","-0.0390625","5.40625","-12.53125","3.9375"
"1574972902363","950","0.08203125","-0.95703125","-0.08300781","1.0625","-6.125","9.0"
"1574972902363","951","0.08886719","-1.0585938","-0.11425781","-9.375","-1.21875","-6.375"
"1574972902364","952","0.048828125","-1.0595703","-0.125","-0.34375","-6.21875","-4.125"
"1574972902364","953","0.021484375","-1.0058594","-0.111328125","-2.28125","-7.34375","-0.65625"
"1574972902364","954","0.048828125","-0.9892578","-0.10839844","-10.15625","-3.0","-2.84375"
"1574972902364","955","0.09082031","-1.0419922","-0.11425781","-9.625","-2.9375","-5.03125"
"1574972902364","956","0.08496094","-1.0351562","-0.125","-2.65625","-4.03125","-3.46875"
"1574972902365","957","0.0546875","-1.0234375","-0.09277344","-7.96875","-6.15625","-2.0"
"1574972902365","958","0.047851562","-1.0292969","-0.099609375","-9.1875","0.78125","-1.8125"
"1574972902365","959","0.05078125","-0.9980469","-0.09667969","-3.15625","0.3125","2.53125"
"1574972902761","960","0.07421875","-1.0009766","-0.13769531","2.71875","-5.6875","6.0625"
"1574972902762","961","0.0859375","-0.93066406","-0.10058594","3.25","-1.34375","3.4375"
"1574972902763","962","0.06542969","-1.0068359","-0.09277344","-0.84375","1.28125","0.4375"
"1574972902763","963","0.049804688","-1.0039062","-0.12011719","5.40625","-6.65625","2.46875"
"1574972902763","964","0.09082031","-0.9667969","-0.11621094","4.125","-4.59375","-0.15625"
"1574972902763","965","0.09277344","-0.99902344","-0.11425781","0.5","-3.90625","0.625"
"1574972902764","966","0.060546875","-0.9814453","-0.107421875","1.65625","-5.875","-1.6875"
"1574972902764","967","0.053710938","-0.9892578","-0.13085938","1.78125","-7.21875","-2.65625"
"1574972902764","968","0.076171875","-0.98339844","-0.12890625","0.4375","-7.5625","-0.03125"
"1574972902764","969","0.0703125","-1.0166016","-0.11035156","-3.75","-2.15625","-2.125"
"1574972903158","970","0.0546875","-1.0517578","-0.13476562","-0.59375","-5.1875","-3.875"
"1574972903158","971","0.07324219","-0.9941406","-0.125","-0.84375","-11.1875","-0.84375"
"1574972903159","972","0.095703125","-0.9765625","-0.09277344","-2.59375","-3.78125","-1.5625"
"1574972903160","973","0.0703125","-1.0400391","-0.140625","-1.625","-7.5625","-2.78125"
"1574972903160","974","0.072265625","-1.0283203","-0.15332031","-3.21875","-9.28125","-2.0625"
"1574972903160","975","0.06542969","-1.0107422","-0.12402344","0.09375","-5.0","-1.625"
"1574972903160","976","0.06640625","-0.9609375","-0.115234375","1.71875","-6.90625","1.0625"
"1574972903161","977","0.064453125","-0.9609375","-0.13964844","1.125","-3.84375","0.09375"
"1574972903161","978","0.09472656","-0.9902344","-0.14453125","0.75","-5.5","0.5625"
"1574972903161","979","0.0859375","-1.0029297","-0.11425781","-1.9375","-3.65625","1.0"
"1574972903555","980","0.06542969","-1.0087891","-0.15917969","1.5625","-2.09375","-0.15625"
"1574972903555","981","0.08496094","-1.0371094","-0.16210938","-1.25","-1.59375","-0.21875"
"1574972903555","982","0.091796875","-1.0517578","-0.14648438","2.09375","-3.1875","-0.34375"
"1574972903556","983","0.09082031","-1.0195312","-0.14453125","3.25","-2.875","-0.53125"
"1574972903556","984","0.06542969","-1.0214844","-0.14746094","4.28125","-3.78125","-1.375"
"1574972903557","985","0.07714844","-0.9736328","-0.13085938","7.03125","-4.34375","-0.09375"
"1574972903558","986","0.10253906","-0.95214844","-0.115234375","6.75","-6.53125","1.65625"
"1574972903558","987","0.10644531","-1.0107422","-0.1484375","7.03125","-5.625","1.90625"
"1574972903558","988","0.095703125","-1.0498047","-0.140625","1.0","-7.28125","-0.78125"
"1574972903558","989","0.10839844","-1.0361328","-0.13574219","9.0625","-15.625","-0.15625"
"1574972904149","990","0.072265625","-0.8886719","-0.123046875","11.0","-13.875","5.46875"
"1574972904149","991","0.040039062","-0.9501953","-0.12988281","1.96875","-5.1875","-1.3125"
"1574972904150","992","0.041992188","-1.0625","-0.15234375","1.90625","-3.59375","-2.28125"
"1574972904150","993","0.099609375","-1.0488281","-0.12109375","-2.40625","-3.25","2.9375"
"1574972904150","994","0.107421875","-0.9970703","-0.10449219","1.71875","-5.0625","1.0625"
"1574972904150","995","0.0703125","-0.9501953","-0.12695312","4.21875","-4.65625","4.0625"
"1574972904150","996","0.07128906","-1.0039062","-0.10839844","-1.1875","-2.6875","1.375"
"1574972904152","997","0.09375","-0.98339844","-0.123046875","6.96875","-6.28125","4.125"
"1574972904152","998","0.046875","-0.96191406","-0.11816406","3.5625","0.3125","1.96875"
"1574972904152","999","0.0546875","-1.0292969","-0.12988281","-2.1875","5.25","-2.53125"
"1574972904351","1000","0.10058594","-1.0664062","-0.125","5.40625","0.90625","3.25"
"1574972904351","1001","0.091796875","-1.0205078","-0.08105469","6.84375","-5.5625","7.09375"
"1574972904352","1002","0.03515625","-0.99316406","-0.08984375","6.625","-2.875","5.5625"
"1574972904352","1003","0.07421875","-1.03125","-0.13085938","5.8125","-4.53125","6.90625"
"1574972904352","1004","0.091796875","-1.0224609","-0.05078125","4.65625","-0.90625","7.59375"
"1574972904352","1005","0.048828125","-1.0126953","-0.0859375","9.0","-3.3125","5.9375"
"1574972904353","1006","0.043945312","-1.0195312","-0.078125","7.40625","-2.09375","6.0625"
"1574972904353","1007","0.061523438","-1.0126953","-0.0703125","7.03125","-4.09375","6.25"
"1574972904353","1008","0.072265625","-0.9824219","-0.061523438","7.53125","-3.59375","2.03125"
"1574972904355","1009","0.07714844","-0.9980469","-0.055664062","6.75","-3.5","-0.09375"
"1574972904748","1010","0.08300781","-1.0097656","-0.057617188","6.1875","-8.0","-0.34375"
"1574972904748","1011","0.06542969","-1.0273438","-0.08496094","9.3125","-6.59375","0.9375"
"1574972904749","1012","0.06738281","-1.0234375","-0.036132812","3.5","-4.59375","-4.875"
"1574972904749","1013","0.083984375","-1.0029297","-0.04296875","4.28125","-10.1875","-3.9375"
"1574972904749","1014","0.080078125","-0.9980469","-0.041992188","9.1875","-12.8125","-1.75"
"1574972904749","1015","0.04296875","-1.0078125","-0.057617188","1.0625","-9.34375","-6.03125"
"1574972904750","1016","0.06347656","-0.9921875","-0.05078125","-0.03125","-12.875","-5.46875"
"1574972904750","1017","0.07519531","-0.9980469","-0.061523438","-0.21875","-15.6875","-3.46875"
"1574972904750","1018","0.056640625","-0.99316406","-0.053710938","-5.15625","-7.875","-7.1875"
"1574972904750","1019","0.059570312","-0.9824219","-0.072265625","-3.875","-5.875","-3.875"
"1574972905144","1020","0.04296875","-0.9873047","-0.07324219","-10.78125","-1.34375","-1.8125"
"1574972905145","1021","0.05859375","-1.0175781","-0.06738281","-4.875","-1.53125","-4.0"
"1574972905145","1022","0.08203125","-1.0302734","-0.09375","-6.6875","-5.5","-2.25"
"1574972905146","1023","0.07714844","-0.99609375","-0.087890625","-1.25","-5.5625","-0.65625"
"1574972905146","1024","0.080078125","-0.9814453","-0.072265625","1.71875","-3.4375","-0.53125"
"1574972905146","1025","0.09082031","-0.9873047","-0.12597656","-3.6875","-1.34375","-0.28125"
"1574972905146","1026","0.07714844","-1.0","-0.0546875","-2.34375","0.3125","0.28125"
"1574972905147","1027","0.08886719","-1.0234375","-0.09667969","3.125","-1.96875","1.25"
"1574972905147","1028","0.087890625","-0.99121094","-0.0703125","3.5","-2.25","3.8125"
"1574972905147","1029","0.0859375","-0.99609375","-0.08886719","1.1875","-1.28125","3.5"
"1574972905542","1030","0.07128906","-0.99316406","-0.076171875","2.90625","0.84375","1.84375"
"1574972905543","1031","0.07324219","-0.9980469","-0.091796875","5.40625","-2.9375","4.46875"
"1574972905543","1032","0.09375","-1.0439453","-0.10449219","0.21875","-7.09375","1.0"
"1574972905544","1033","0.08691406","-0.9941406","-0.07910156","0.625","-3.0625","1.65625"
"1574972905544","1034","0.0625","-1.0048828","-0.09375","1.625","-4.65625","2.28125"
"1574972905545","1035","0.09375","-1.0185547","-0.076171875","-0.59375","-5.0","1.71875"
"1574972905545","1036","0.095703125","-1.0048828","-0.07128906","-0.59375","-6.0625","3.5"
"1574972905545","1037","0.064453125","-0.99609375","-0.07910156","-2.125","-7.5","1.0"
"1574972905545","1038","0.07128906","-0.9814453","-0.07519531","-2.65625","-9.34375","4.90625"
"1574972905546","1039","0.049804688","-1.0009766","-0.07714844","-2.0625","-2.3125","2.90625"
"1574972905940","1040","0.0625","-1.0039062","-0.119140625","4.0","-4.15625","5.8125"
"1574972905940","1041","0.040039062","-0.9980469","-0.09375","0.28125","-4.46875","6.125"
"1574972905940","1042","0.07910156","-1.0009766","-0.091796875","1.3125","-1.90625","1.0625"
"1574972905941","1043","0.076171875","-1.0253906","-0.07324219","-2.0625","-5.625","4.1875"
"1574972905941","1044","0.06738281","-1.0351562","-0.12207031","-1.0625","-7.40625","2.40625"
"1574972905942","1045","0.049804688","-1.015625","-0.09277344","-4.0","-6.0625","4.40625"
"1574972905943","1046","0.038085938","-1.0097656","-0.1171875","-3.09375","-7.5","5.53125"
"1574972905943","1047","0.056640625","-0.9892578","-0.12207031","-4.5625","-8.5625","3.9375"
"1574972905943","1048","0.05078125","-1.0224609","-0.10546875","-6.25","-7.03125","5.03125"
"1574972905944","1049","0.001953125","-1.0078125","-0.12988281","-5.21875","-6.40625","5.40625"
"1574972906535","1050","0.01953125","-0.98046875","-0.12109375","-2.59375","-7.03125","6.3125"
"1574972906535","1051","0.030273438","-0.99316406","-0.125","-1.375","-4.78125","5.40625"
"1574972906536","1052","0.06347656","-1.0136719","-0.14160156","-2.0625","-6.46875","4.71875"
"1574972906536","1053","0.041992188","-0.9628906","-0.14160156","-1.4375","-10.03125","7.21875"
"1574972906536","1054","0.034179688","-0.97753906","-0.12597656","-3.6875","-7.21875","4.53125"
"1574972906536","1055","0.016601562","-1.0","-0.09082031","-6.15625","-4.8125","2.71875"
"1574972906536","1056","0.032226562","-0.8535156","-0.18652344","1.5","-21.1875","6.75"
"1574972906538","1057","0.059570312","-0.8691406","-0.10449219","-7.71875","-8.375","-0.40625"
"1574972906538","1058","-0.049804688","-1.0136719","-0.1640625","-0.28125","-7.28125","-9.25"
"1574972906538","1059","0.059570312","-1.0859375","-0.359375","6.375","-24.0625","-9.9375"
"1574972906735","1060","0.06640625","-1.3007812","0.00390625","-20.90625","23.8125","-12.125"
"1574972906736","1061","-0.08105469","-1.3398438","-0.13867188","-1.375","-10.5625","2.90625"
"1574972906736","1062","-0.0146484375","-0.7236328","-0.13378906","23.34375","-31.5","27.78125"
"1574972906736","1063","0.020507812","-0.76464844","-0.12988281","-6.03125","4.875","-12.6875"
"1574972906736","1064","0.15722656","-1.0478516","-0.22363281","-2.0625","6.78125","-16.9375"
"1574972906737","1065","0.07128906","-1.0576172","-0.20605469","-13.65625","-7.875","-0.71875"
"1574972906737","1066","0.03125","-1.0136719","-0.19042969","-8.15625","6.46875","-18.71875"
"1574972906737","1067","0.033203125","-0.9404297","-0.08886719","-7.4375","6.84375","-12.6875"
"1574972906737","1068","0.060546875","-0.96777344","-0.18554688","-2.65625","-8.96875","-4.3125"
"1574972906739","1069","0.08203125","-1.0273438","-0.140625","-0.46875","1.15625","-3.59375"
"1574972907131","1070","0.036132812","-0.87402344","-0.109375","8.03125","-0.4375","1.65625"
"1574972907132","1071","0.09277344","-0.76660156","-0.1796875","1.1875","-9.65625","6.0625"
"1574972907132","1072","0.08886719","-1.140625","-0.056640625","-15.78125","36.125","-19.6875"
"1574972907132","1073","-0.15527344","-1.4140625","-0.30078125","16.5625","11.15625","6.4375"
"1574972907133","1074","-0.026367188","-0.8535156","-0.1328125","19.375","-3.3125","44.40625"
"1574972907133","1075","0.06640625","-0.7216797","-0.072265625","18.40625","17.3125","23.21875"
"1574972907133","1076","0.21582031","-0.8339844","-0.068359375","17.53125","11.34375","-2.46875"
"1574972907133","1077","0.18457031","-0.953125","-0.08300781","13.375","-3.3125","11.75"
"1574972907134","1078","-0.02734375","-0.80078125","-0.11816406","32.4375","-3.71875","8.5"
"1574972907134","1079","-0.14257812","-0.84765625","-0.055664062","33.34375","10.84375","0.5625"
"1574972907530","1080","-0.06542969","-1.9873047","-0.42089844","21.1875","18.96875","-24.9375"
"1574972907531","1081","0.23828125","-1.6064453","-0.052734375","-7.78125","1.46875","16.3125"
"1574972907532","1082","0.25878906","-0.61816406","0.06542969","14.90625","-54.21875","53.96875"
"1574972907532","1083","0.0234375","-0.15332031","0.17089844","37.75","5.96875","7.84375"
"1574972907532","1084","-0.107421875","-0.6503906","-0.35546875","-26.40625","-7.625","-57.46875"
"1574972907532","1085","0.14160156","-2.006836","-0.4296875","-50.21875","65.78125","-25.71875"
"1574972907533","1086","0.15527344","-1.2080078","-0.10449219","-24.03125","-48.34375","24.9375"
"1574972907533","1087","0.045898438","-0.328125","0.064453125","4.71875","-2.75","-15.0"
"1574972907533","1088","-0.06738281","-0.5595703","-0.091796875","-5.03125","8.125","-31.40625"
"1574972907533","1089","0.049804688","-1.2880859","-0.19628906","-20.71875","26.59375","3.9375"
"1574972907927","1090","0.13867188","-1.4160156","-0.2841797","-0.96875","-1.90625","-4.4375"
"1574972907927","1091","0.053710938","-0.7841797","-0.08496094","-0.21875","2.0","5.53125"
"1574972907928","1092","0.064453125","-0.7871094","-0.111328125","-2.78125","2.375","1.1875"
"1574972907930","1093","0.14355469","-0.98046875","-0.14550781","-8.78125","10.75","1.1875"
"1574972907930","1094","0.11035156","-1.0947266","-0.16894531","-2.96875","8.28125","-1.125"
"1574972907930","1095","0.040039062","-0.99902344","-0.16015625","6.84375","-2.03125","8.4375"
"1574972907931","1096","0.07714844","-0.94921875","-0.13769531","3.4375","-0.875","4.0"
"1574972907931","1097","0.109375","-0.96191406","-0.13867188","4.65625","1.21875","2.84375"
"1574972907931","1098","0.056640625","-1.0283203","-0.13574219","4.59375","3.03125","7.46875"
"1574972907931","1099","0.043945312","-1.0419922","-0.13671875","11.8125","-2.6875","6.0"
"1574972908324","1100","0.1015625","-1.015625","-0.16113281","12.53125","-8.71875","4.0"
"1574972908325","1101","0.09765625","-1.0068359","-0.16210938","5.46875","-3.375","0.625"
"1574972908325","1102","0.07519531","-1.0097656","-0.14257812","3.6875","-2.875","-1.75"
"1574972908325","1103","0.078125","-1.0136719","-0.13867188","-1.125","-3.0625","-3.8125"
"1574972908326","1104","0.09375","-1.0244141","-0.15136719","-0.34375","-4.03125","-5.59375"
"1574972908327","1105","0.087890625","-1.0234375","-0.140625","-7.3125","-4.59375","-6.03125"
"1574972908327","1106","0.07910156","-1.0058594","-0.12597656","-10.46875","-4.71875","-7.65625"
"1574972908328","1107","0.10546875","-1.0019531","-0.12988281","-5.46875","-1.59375","-7.25"
"1574972908328","1108","0.08984375","-1.0078125","-0.12207031","-9.25","-1.03125","-9.3125"
"1574972908328","1109","0.08203125","-1.0136719","-0.13867188","-9.3125","-0.90625","-8.71875"
"1574972909116","1110","0.09375","-1.0048828","-0.12988281","-10.15625","-1.53125","-6.875"
"1574972909116","1111","0.107421875","-0.99121094","-0.140625","-10.59375","-1.90625","-7.84375"
"1574972909116","1112","0.076171875","-1.0332031","-0.15429688","-15.46875","-2.3125","-7.0625"
"1574972909117","1113","0.10449219","-0.9863281","-0.16601562","-11.09375","-6.59375","-4.5625"
"1574972909117","1114","0.12597656","-0.9716797","-0.15820312","-13.84375","-5.875","-3.59375"
"1574972909117","1115","0.12988281","-0.95214844","-0.18847656","-9.125","-6.59375","-1.4375"
"1574972909118","1116","0.091796875","-0.98535156","-0.171875","-8.46875","-6.65625","0.21875"
"1574972909118","1117","0.07714844","-0.9658203","-0.20019531","-4.4375","-5.5625","-3.34375"
"1574972909118","1118","0.14648438","-0.9589844","-0.19335938","-0.34375","-3.0625","1.96875"
"1574972909119","1119","0.12695312","-0.97753906","-0.23925781","-1.5625","-2.15625","-0.90625"
"1574972909318","1120","0.09667969","-0.9951172","-0.19140625","-1.0625","0.125","1.84375"
"1574972909318","1121","0.08886719","-0.9863281","-0.20410156","2.9375","-2.3125","2.78125"
"1574972909318","1122","0.12597656","-0.9609375","-0.21289062","1.125","-4.21875","0.4375"
"1574972909319","1123","0.15234375","-0.98535156","-0.22753906","0.5","-0.6875","0.4375"
"1574972909319","1124","0.12695312","-0.9951172","-0.22070312","1.0625","0.1875","-0.40625"
"1574972909319","1125","0.12890625","-0.9707031","-0.22851562","1.65625","0.46875","-0.28125"
"1574972909319","1126","0.12109375","-0.96484375","-0.20605469","0.375","1.21875","2.15625"
"1574972909320","1127","0.12597656","-0.9658203","-0.21875","3.3125","0.53125","2.71875"
"1574972909320","1128","0.123046875","-0.9785156","-0.22265625","1.96875","3.46875","4.28125"
"1574972909321","1129","0.09765625","-0.9970703","-0.20507812","1.4375","3.15625","4.46875"
"1574972909716","1130","0.12402344","-1.0107422","-0.21484375","1.65625","2.4375","2.65625"
"1574972909717","1131","0.14746094","-0.9794922","-0.23535156","3.3125","2.8125","6.25"
"1574972909717","1132","0.10546875","-0.96777344","-0.17382812","3.1875","5.1875","7.09375"
"1574972909717","1133","0.07421875","-0.9658203","-0.20117188","5.03125","3.15625","5.28125"
"1574972909717","1134","0.1328125","-0.9667969","-0.21875","7.90625","-1.03125","5.9375"
"1574972909718","1135","0.12597656","-0.984375","-0.20214844","8.375","-2.03125","5.5625"
"1574972909718","1136","0.10839844","-0.9951172","-0.19238281","8.1875","-2.25","3.0"
"1574972909718","1137","0.11328125","-1.0048828","-0.22363281","11.125","-8.375","3.8125"
"1574972909718","1138","0.115234375","-1.0","-0.18847656","9.59375","-4.15625","1.625"
"1574972909719","1139","0.09765625","-0.9707031","-0.15917969","8.625","-7.4375","1.3125"
"1574972910310","1140","0.09472656","-0.9746094","-0.18945312","10.03125","-10.9375","2.34375"
"1574972910312","1141","0.087890625","-0.99316406","-0.18457031","8.03125","-8.6875","0.875"
"1574972910312","1142","0.087890625","-1.0","-0.15917969","6.6875","-7.28125","0.375"
"1574972910312","1143","0.087890625","-0.97558594","-0.17578125","6.0625","-9.65625","0.875"
"1574972910313","1144","0.09277344","-0.984375","-0.15820312","1.0625","-4.65625","-0.65625"
"1574972910313","1145","0.064453125","-1.0195312","-0.16601562","1.71875","-1.40625","0.15625"
"1574972910313","1146","0.08496094","-0.99609375","-0.19238281","5.15625","-2.75","2.21875"
"1574972910313","1147","0.111328125","-0.95703125","-0.13183594","2.65625","-3.0625","0.375"
"1574972910314","1148","0.09765625","-0.9863281","-0.14160156","0.15625","0.96875","1.84375"
"1574972910314","1149","0.09472656","-0.9970703","-0.18554688","3.25","-1.46875","1.125"
"1574972910510","1150","0.10546875","-0.9794922","-0.1484375","0.15625","-2.875","-1.5"
"1574972910510","1151","0.119140625","-0.9980469","-0.099609375","-1.875","-0.4375","1.25"
"1574972910511","1152","0.080078125","-1.0126953","-0.16601562","1.96875","-5.3125","0.28125"
"1574972910511","1153","0.0859375","-0.9824219","-0.17089844","3.6875","-6.0625","2.03125"
"1574972910511","1154","0.083984375","-0.9580078","-0.12402344","1.125","-2.8125","6.1875"
"1574972910512","1155","0.064453125","-0.95410156","-0.12109375","3.0","-7.28125","3.5"
"1574972910512","1156","0.115234375","-1.0175781","-0.15429688","9.53125","-6.34375","7.28125"
"1574972910513","1157","0.041992188","-0.9941406","-0.13671875","11.0","-19.0","10.9375"
"1574972910513","1158","0.052734375","-0.93359375","-0.048828125","17.28125","-15.25","14.0"
"1574972910513","1159","0.043945312","-0.8779297","-0.0029296875","29.375","-1.09375","19.90625"
"1574972910909","1160","-0.030273438","-0.8876953","-0.12109375","49.65625","-24.96875","15.65625"
"1574972910910","1161","0.107421875","-1.0205078","-0.1640625","-8.71875","-7.9375","11.1875"
"1574972910910","1162","0.08984375","-1.2539062","-0.07421875","10.8125","5.65625","-18.90625"
"1574972910910","1163","-0.029296875","-0.83203125","0.025390625","28.40625","-26.96875","10.65625"
"1574972910911","1164","-0.060546875","-0.54296875","-0.0087890625","30.53125","-17.09375","10.28125"
"1574972910912","1165","0.0068359375","-0.73828125","0.040039062","12.84375","-2.75","-7.4375"
"1574972910912","1166","-0.059570312","-1.03125","-0.11425781","4.78125","-14.65625","15.65625"
"1574972910913","1167","0.4970703","-2.006836","0.5449219","67.59375","31.0625","-4.0"
"1574972910913","1168","-0.4013672","-1.34375","-0.2607422","15.34375","-57.875","13.03125"
"1574972910913","1169","-0.1953125","-0.48535156","-0.3857422","77.28125","18.84375","66.125"
"1574972911307","1170","0.35058594","-0.12207031","0.12402344","-30.375","-16.375","50.0"
"1574972911307","1171","0.37695312","-0.7519531","0.41992188","-54.25","126.53125","-55.65625"
"1574972911307","1172","-0.09667969","-2.006836","-0.3623047","40.1875","-64.71875","44.46875"
"1574972911308","1173","-0.5732422","-1.0986328","-0.22558594","26.21875","-18.25","37.625"
"1574972911308","1174","0.08984375","-0.4189453","0.28710938","22.65625","24.21875","-8.875"
"1574972911308","1175","0.3046875","-0.75683594","0.17382812","-25.3125","-6.46875","23.09375"
"1574972911308","1176","-0.08105469","-1.1376953","-0.047851562","-6.6875","-4.09375","-0.90625"
"1574972911310","1177","-0.38085938","-1.3652344","-0.18652344","-7.59375","10.1875","-20.78125"
"1574972911310","1178","-0.21386719","-1.0605469","0.032226562","10.8125","-16.65625","4.90625"
"1574972911310","1179","0.0146484375","-0.79296875","0.030273438","15.21875","-4.65625","21.5"
