"# PR data"
"# Start time: 20191128T213849"
"# Subject: rim"
"# Activity type: Walking"
"# Correctness: Incorrect"
"# Notes: "
""
"timestamp","seq","accel_x","accel_y","accel_z","gyro_x","gyro_y","gyro_z"
"1574973530408","0","0.21777344","-0.9091797","-0.13476562","-7.125","-6.40625","-3.9375"
"1574973530409","1","0.16308594","-0.9140625","-0.17089844","-3.75","-7.28125","-5.34375"
"1574973530410","2","0.10449219","-1.0009766","-0.22460938","-3.625","-14.53125","-2.59375"
"1574973530410","3","0.12988281","-0.9814453","-0.19628906","-1.125","-19.71875","-3.875"
"1574973530410","4","0.14746094","-0.9746094","-0.171875","1.1875","-18.3125","-4.90625"
"1574973530410","5","0.047851562","-0.99121094","-0.23925781","6.0","-20.9375","-6.75"
"1574973530411","6","0.013671875","-0.9941406","-0.24316406","4.28125","-15.15625","-5.03125"
"1574973530411","7","0.040039062","-0.9736328","-0.24511719","0.6875","-9.96875","-2.40625"
"1574973530411","8","0.140625","-0.97265625","-0.20800781","5.15625","-2.25","-3.09375"
"1574973530411","9","0.19921875","-0.9951172","-0.22070312","4.28125","-10.25","-4.8125"
"1574973530809","10","0.17675781","-0.9980469","-0.18847656","-0.34375","-9.09375","-3.59375"
"1574973530810","11","0.13085938","-0.9716797","-0.2109375","1.375","-9.21875","-1.8125"
"1574973530810","12","0.15234375","-0.96875","-0.23925781","-0.46875","-6.90625","-2.40625"
"1574973530810","13","0.18261719","-0.98828125","-0.21191406","0.5","-4.53125","-0.15625"
"1574973530811","14","0.14746094","-0.9824219","-0.21777344","3.0","-5.375","1.71875"
"1574973530811","15","0.16113281","-0.9814453","-0.21679688","1.84375","-6.78125","-0.34375"
"1574973530811","16","0.17382812","-0.9824219","-0.22167969","2.40625","-5.125","0.28125"
"1574973530812","17","0.16601562","-0.9746094","-0.21484375","3.0625","-5.6875","1.90625"
"1574973530812","18","0.16503906","-0.96484375","-0.21484375","2.34375","-6.0","1.4375"
"1574973530812","19","0.1796875","-0.9746094","-0.22460938","0.5","-3.59375","0.5"
"1574973531008","20","0.18164062","-0.97558594","-0.22460938","2.21875","-4.53125","1.96875"
"1574973531009","21","0.16601562","-0.9716797","-0.2265625","5.46875","-7.09375","2.15625"
"1574973531009","22","0.15527344","-0.96484375","-0.20019531","3.875","-8.96875","2.09375"
"1574973531009","23","0.18652344","-0.9746094","-0.22167969","6.3125","-10.1875","1.625"
"1574973531009","24","0.16992188","-0.95703125","-0.21875","10.09375","-10.6875","2.9375"
"1574973531010","25","0.14648438","-0.97265625","-0.20214844","6.4375","-11.25","-0.53125"
"1574973531010","26","0.13085938","-0.9794922","-0.23046875","11.375","-10.5625","0.3125"
"1574973531010","27","0.12109375","-0.96875","-0.22460938","9.53125","-5.6875","1.625"
"1574973531010","28","0.1328125","-0.9707031","-0.21582031","10.53125","-4.21875","3.0625"
"1574973531011","29","0.11816406","-0.9765625","-0.20996094","10.8125","1.15625","3.875"
"1574973531406","30","0.11230469","-0.984375","-0.20507812","10.46875","1.34375","4.0"
"1574973531407","31","0.11621094","-0.9863281","-0.20117188","10.15625","3.03125","3.25"
"1574973531407","32","0.12207031","-0.9785156","-0.20019531","9.1875","5.78125","2.65625"
"1574973531408","33","0.11328125","-0.9814453","-0.18847656","10.15625","9.46875","3.0625"
"1574973531408","34","0.13183594","-0.9863281","-0.18066406","7.09375","10.0625","1.5625"
"1574973531408","35","0.1875","-1.0126953","-0.13671875","7.46875","9.875","2.21875"
"1574973531408","36","0.19921875","-0.97558594","-0.05078125","5.8125","9.15625","5.8125"
"1574973531410","37","0.18945312","-0.8955078","-0.013671875","17.28125","-9.53125","9.125"
"1574973531410","38","0.21386719","-1.0","-0.022460938","9.65625","-4.15625","3.125"
"1574973531410","39","0.17382812","-1.1191406","-0.16210938","8.875","4.75","7.90625"
"1574973532003","40","0.21289062","-0.99609375","-0.13964844","14.71875","3.09375","18.21875"
"1574973532004","41","0.20507812","-0.9169922","0.016601562","13.625","-0.375","14.0625"
"1574973532004","42","0.060546875","-0.9794922","-0.013671875","17.59375","3.84375","9.0625"
"1574973532004","43","0.119140625","-1.0371094","-0.049804688","22.0625","-3.1875","13.5"
"1574973532004","44","0.22265625","-0.96972656","-0.029296875","20.96875","-7.625","15.53125"
"1574973532005","45","0.20507812","-0.98535156","-0.03125","17.1875","-7.21875","11.5625"
"1574973532005","46","0.17480469","-1.0673828","-0.09863281","8.4375","-7.15625","9.1875"
"1574973532005","47","0.13769531","-1.0351562","-0.0703125","6.84375","-0.125","14.5625"
"1574973532005","48","0.13769531","-0.9707031","-0.080078125","1.125","6.15625","15.21875"
"1574973532007","49","0.171875","-0.9580078","-0.068359375","-9.8125","12.375","12.34375"
"1574973532200","50","0.23144531","-1.0322266","0.009765625","-20.4375","21.46875","7.21875"
"1574973532201","51","0.15429688","-1.1259766","0.013671875","-15.1875","17.6875","1.71875"
"1574973532201","52","-0.044921875","-1.0","-0.15039062","11.625","-20.28125","6.0625"
"1574973532201","53","-0.08105469","-0.9375","-0.12988281","-4.5","-13.5625","0.21875"
"1574973532202","54","0.064453125","-0.9951172","9.765625E-4","1.0","1.65625","11.375"
"1574973532202","55","0.055664062","-1.1455078","-0.06933594","-9.5","7.4375","12.46875"
"1574973532202","56","-0.022460938","-1.125","-0.19921875","-16.6875","1.53125","-6.09375"
"1574973532202","57","0.056640625","-1.0673828","-0.15136719","-6.5625","-34.0625","-9.875"
"1574973532202","58","0.10644531","-1.0273438","-0.09863281","-12.6875","-14.53125","-12.25"
"1574973532203","59","-0.01171875","-1.0566406","-0.16113281","-17.1875","-13.625","-18.28125"
"1574973532599","60","-0.13769531","-0.96484375","-0.14257812","-12.4375","2.5625","-11.15625"
"1574973532601","61","-0.17285156","-0.8701172","-0.12792969","-5.15625","-1.65625","6.90625"
"1574973532601","62","-0.060546875","-0.8828125","-0.12695312","-7.0","8.21875","12.21875"
"1574973532602","63","0.022460938","-0.97265625","-0.15527344","8.125","12.625","11.75"
"1574973532602","64","0.034179688","-0.95703125","-0.14648438","17.0625","1.09375","11.8125"
"1574973532602","65","-0.01953125","-0.9326172","-0.15429688","22.84375","4.15625","11.9375"
"1574973532602","66","-0.026367188","-0.9609375","-0.16308594","25.65625","2.625","16.75"
"1574973532603","67","0.0029296875","-0.9375","-0.14550781","26.9375","3.71875","14.0"
"1574973532603","68","0.107421875","-0.97558594","-0.140625","34.75","-1.28125","11.3125"
"1574973532603","69","0.059570312","-0.9667969","-0.14746094","29.8125","-2.6875","-1.5625"
"1574973532997","70","-0.032226562","-0.98535156","-0.15039062","18.15625","5.4375","-3.03125"
"1574973532998","71","-0.099609375","-1.078125","-0.10546875","13.5","4.6875","0.6875"
"1574973532998","72","-0.01171875","-1.125","0.0068359375","18.9375","16.40625","9.59375"
"1574973532999","73","0.038085938","-1.0322266","0.11425781","31.5625","10.6875","21.1875"
"1574973533000","74","-0.0087890625","-0.77441406","0.27734375","14.3125","-5.25","15.71875"
"1574973533000","75","-0.10644531","-0.9111328","0.1328125","-4.375","5.71875","-0.90625"
"1574973533000","76","-0.12988281","-1.2207031","0.119140625","34.625","5.0","33.21875"
"1574973533000","77","0.047851562","-1.2910156","0.16503906","46.28125","14.40625","47.5"
"1574973533001","78","0.009765625","-0.9560547","0.026367188","21.75","12.125","15.40625"
"1574973533001","79","0.028320312","-1.0820312","0.140625","-21.46875","1.09375","-8.40625"
"1574973533396","80","0.034179688","-1.1992188","0.15625","3.0","-2.8125","-4.375"
"1574973533396","81","-0.07910156","-1.0605469","0.072265625","-4.4375","-3.5","-6.5625"
"1574973533397","82","-0.009765625","-1.1074219","0.064453125","-27.3125","11.65625","-25.375"
"1574973533397","83","0.14355469","-1.1914062","0.0234375","-39.78125","7.4375","-32.21875"
"1574973533397","84","0.16796875","-1.0654297","0.06933594","-47.21875","-6.59375","-32.21875"
"1574973533399","85","0.22460938","-0.99609375","0.10449219","-52.15625","-16.125","-35.3125"
"1574973533399","86","0.11425781","-1.0556641","0.11230469","-62.71875","-8.5625","-52.21875"
"1574973533399","87","-0.056640625","-0.91308594","-0.12597656","-17.75","-46.9375","-41.1875"
"1574973533399","88","-0.045898438","-0.7441406","-0.083984375","-24.15625","-59.5625","-16.75"
"1574973533400","89","-0.034179688","-0.80078125","0.033203125","-40.25","-52.125","-12.78125"
"1574973533990","90","-0.13769531","-1.0898438","-0.060546875","3.0625","-49.8125","6.375"
"1574973533991","91","-0.0087890625","-1.03125","-0.15820312","0.5625","-39.4375","-3.6875"
"1574973533991","92","-0.045898438","-0.9394531","-0.19628906","10.75","-37.96875","2.53125"
"1574973533991","93","-0.078125","-0.9638672","-0.13964844","6.1875","-26.625","18.75"
"1574973533992","94","-0.10546875","-0.92089844","-0.1015625","15.34375","-19.28125","15.15625"
"1574973533992","95","-0.107421875","-0.9160156","-0.16503906","28.09375","-19.0","26.5"
"1574973533992","96","-0.056640625","-0.87890625","-0.119140625","27.78125","-11.96875","31.5625"
"1574973533993","97","-0.055664062","-0.8964844","-0.10546875","35.53125","-6.34375","29.5625"
"1574973533994","98","-0.091796875","-0.87109375","-0.1328125","43.53125","-8.1875","30.90625"
"1574973533994","99","-0.115234375","-0.84765625","-0.091796875","44.75","-9.21875","30.53125"
"1574973534387","100","-0.08984375","-0.82714844","0.005859375","49.09375","-14.21875","24.5625"
"1574973534388","101","-0.11328125","-0.8720703","-0.12402344","56.84375","-20.28125","13.875"
"1574973534388","102","-0.18554688","-0.9765625","-0.013671875","69.34375","-4.71875","-0.34375"
"1574973534389","103","-0.10644531","-1.4462891","0.08203125","58.125","1.9375","1.84375"
"1574973534389","104","0.16308594","-1.2792969","0.11621094","61.25","-1.53125","21.5625"
"1574973534389","105","0.06542969","-0.9589844","0.36621094","52.9375","-24.0","10.28125"
"1574973534389","106","-0.059570312","-1.0419922","0.41210938","-2.78125","44.71875","-29.8125"
"1574973534389","107","-0.31835938","-1.3945312","0.06347656","-32.8125","-15.375","-3.46875"
"1574973534390","108","-0.06640625","-1.4599609","0.14453125","-37.40625","4.625","-26.40625"
"1574973534391","109","0.29882812","-1.0234375","0.46972656","-28.59375","-23.5","-45.15625"
"1574973534586","110","0.111328125","-0.9003906","0.28125","-43.3125","18.0","-52.78125"
"1574973534587","111","-0.16015625","-0.99902344","0.1875","-57.15625","-8.71875","-37.875"
"1574973534587","112","-0.0859375","-0.9511719","0.16796875","-39.21875","-13.8125","-17.25"
"1574973534588","113","0.0546875","-0.8222656","0.18359375","-15.3125","-19.40625","-4.125"
"1574973534588","114","0.13183594","-0.7949219","0.12207031","-21.21875","3.21875","-4.0"
"1574973534588","115","0.15429688","-0.97265625","0.051757812","-33.78125","4.375","-12.84375"
"1574973534588","116","0.20117188","-1.09375","-0.02734375","-31.59375","-8.625","-8.875"
"1574973534589","117","0.21679688","-1.0185547","-0.0087890625","-29.53125","-13.0625","-7.96875"
"1574973534589","118","0.17285156","-1.0537109","-0.07519531","-36.125","0.25","-15.59375"
"1574973534589","119","0.16015625","-1.1005859","-0.08691406","-35.8125","3.21875","-11.625"
"1574973534984","120","0.05859375","-0.9267578","-0.0859375","-31.65625","-21.1875","-8.9375"
"1574973534986","121","-0.08105469","-0.8183594","-0.00390625","-13.34375","-4.40625","-9.25"
"1574973534986","122","-0.23730469","-0.83984375","-0.1171875","7.15625","-6.0","9.53125"
"1574973534986","123","-0.15136719","-0.93847656","-0.20605469","6.125","3.84375","30.90625"
"1574973534987","124","0.0126953125","-0.99316406","-0.17285156","6.8125","17.09375","34.6875"
"1574973534987","125","0.08203125","-1.0185547","-0.17675781","15.53125","-0.625","22.96875"
"1574973534987","126","-0.01171875","-0.9746094","-0.09082031","26.875","10.0625","22.96875"
"1574973534988","127","-0.17089844","-0.95996094","-0.10546875","35.71875","10.96875","25.40625"
"1574973534988","128","-0.08203125","-0.9042969","-0.08886719","42.0625","0.40625","36.9375"
"1574973534988","129","-0.041015625","-0.8808594","-0.061523438","53.125","-1.40625","38.15625"
"1574973535577","130","-0.0390625","-0.8613281","-0.06347656","68.5625","-5.5","34.5625"
"1574973535578","131","-0.048828125","-0.8886719","-0.028320312","70.03125","-13.25","37.5625"
"1574973535578","132","-0.056640625","-0.94628906","-0.1171875","69.0625","-29.3125","27.125"
"1574973535580","133","0.08496094","-1.2226562","-0.07324219","74.59375","-29.90625","12.21875"
"1574973535580","134","0.16210938","-1.2949219","0.005859375","24.375","-35.78125","-12.0625"
"1574973535581","135","-0.24902344","-1.3916016","0.12402344","6.75","15.3125","-44.90625"
"1574973535581","136","-0.38085938","-1.3740234","0.36523438","0.5625","34.78125","-13.59375"
"1574973535581","137","-0.044921875","-1.1757812","0.34765625","-7.0625","-28.3125","5.15625"
"1574973535581","138","0.12988281","-0.82128906","0.27441406","-38.625","-10.8125","-39.03125"
"1574973535582","139","-0.0029296875","-1.0419922","0.31152344","-88.0","8.53125","-70.28125"
"1574973535778","140","-0.20605469","-1.2490234","0.20410156","-53.5","6.28125","-40.0625"
"1574973535778","141","-0.11035156","-0.8720703","0.20507812","-26.28125","-9.28125","-18.15625"
"1574973535779","142","0.09472656","-0.8066406","0.15722656","-40.0625","24.09375","-25.90625"
"1574973535779","143","0.08105469","-0.82128906","0.103515625","-30.125","13.84375","-16.9375"
"1574973535779","144","0.044921875","-0.86035156","0.107421875","-27.5","13.1875","-16.15625"
"1574973535779","145","0.045898438","-0.9296875","0.111328125","-14.75","26.0","-8.9375"
"1574973535780","146","0.12207031","-0.98046875","0.034179688","-3.875","17.8125","-2.46875"
"1574973535780","147","0.16503906","-1.0078125","0.0029296875","-1.5625","23.4375","0.5625"
"1574973535781","148","0.12988281","-0.99609375","-0.00390625","-2.59375","25.5625","3.25"
"1574973535781","149","0.17578125","-1.0322266","-0.038085938","-6.03125","22.15625","2.15625"
"1574973536572","150","0.23046875","-1.0175781","-0.056640625","-7.65625","19.59375","2.15625"
"1574973536572","151","0.23339844","-1.0","-0.049804688","-13.40625","23.96875","0.8125"
"1574973536572","152","0.22851562","-0.99121094","-0.033203125","-21.78125","18.125","1.96875"
"1574973536573","153","0.28027344","-0.96875","-0.07910156","-16.9375","7.9375","3.0"
"1574973536573","154","0.31835938","-0.9199219","-0.053710938","-19.375","4.6875","-0.53125"
"1574973536573","155","0.34765625","-1.0126953","-0.0087890625","-19.625","-0.96875","-2.71875"
"1574973536574","156","0.12011719","-1.1347656","-0.041015625","-12.0625","3.03125","-0.96875"
"1574973536575","157","-0.17675781","-1.046875","-0.059570312","-2.90625","-2.625","11.0625"
"1574973536576","158","-0.19140625","-0.8955078","0.049804688","3.25","-9.65625","31.03125"
"1574973536576","159","-0.17285156","-0.77441406","0.080078125","23.71875","-0.625","49.03125"
"1574973536769","160","-0.28515625","-0.74902344","-0.11035156","23.9375","-7.09375","48.1875"
"1574973536770","161","-0.2578125","-0.98828125","-0.16210938","40.78125","-26.96875","48.3125"
"1574973536770","162","0.103515625","-1.3056641","-0.1875","21.03125","-18.9375","32.875"
"1574973536770","163","0.17871094","-1.2080078","-0.03125","5.15625","-5.875","12.90625"
"1574973536770","164","-0.16210938","-1.0195312","-0.051757812","23.21875","-18.5","10.8125"
"1574973536771","165","-0.18945312","-1.0566406","-0.15039062","14.5","-10.375","23.34375"
"1574973536771","166","-0.076171875","-1.0458984","-0.125","8.4375","0.0625","35.78125"
"1574973536771","167","-0.055664062","-1.0039062","-0.14941406","10.9375","-3.3125","5.46875"
"1574973536771","168","-0.03515625","-0.9951172","-0.12988281","12.53125","-5.125","-10.65625"
"1574973536773","169","-0.06542969","-0.9511719","-0.115234375","2.59375","-14.96875","-23.40625"
"1574973536970","170","-0.06738281","-1.0488281","-0.12695312","-6.9375","-19.15625","-42.21875"
"1574973536971","171","-0.10449219","-1.0820312","-0.09082031","-15.125","1.59375","-47.21875"
"1574973536971","172","-0.13574219","-1.1621094","-0.16699219","-28.46875","20.75","-37.5625"
"1574973536971","173","0.0107421875","-1.1416016","-0.123046875","-20.1875","8.71875","-41.71875"
"1574973536972","174","0.16796875","-0.9658203","0.037109375","-30.6875","-1.84375","-48.75"
"1574973536972","175","0.10253906","-0.8671875","0.036132812","-61.375","26.78125","-58.375"
"1574973536972","176","-0.11328125","-0.93847656","0.12109375","-29.6875","-16.5","-25.78125"
"1574973536973","177","-0.083984375","-1.0263672","0.01953125","4.46875","-4.9375","-6.875"
"1574973536973","178","0.17382812","-0.91308594","0.018554688","18.5625","-6.21875","0.375"
"1574973536973","179","0.21289062","-0.96972656","-0.016601562","1.25","15.1875","-5.21875"
"1574973537368","180","0.15625","-1.0537109","-0.051757812","7.71875","4.875","-4.96875"
"1574973537370","181","0.18457031","-0.95410156","-0.07324219","16.0625","-1.65625","3.5625"
"1574973537370","182","0.24609375","-0.94921875","0.0048828125","14.96875","-6.0625","6.0625"
"1574973537370","183","0.21484375","-0.9501953","0.001953125","18.15625","-4.8125","8.03125"
"1574973537371","184","0.16308594","-0.9589844","-0.0029296875","24.8125","-6.59375","13.21875"
"1574973537371","185","0.115234375","-0.96191406","-0.016601562","20.03125","6.9375","18.9375"
"1574973537371","186","0.1171875","-0.9628906","-0.00390625","18.40625","17.9375","24.6875"
"1574973537371","187","0.16503906","-0.93066406","-0.009765625","14.125","19.59375","28.15625"
"1574973537372","188","0.16113281","-0.92285156","0.0234375","10.9375","21.78125","27.65625"
"1574973537372","189","0.13085938","-0.94628906","0.03515625","11.4375","30.09375","32.5"
"1574973537765","190","0.15429688","-0.98046875","0.028320312","3.3125","30.625","36.9375"
"1574973537766","191","0.35351562","-1.234375","0.115234375","25.78125","20.1875","34.1875"
"1574973537766","192","0.2421875","-1.2167969","-0.07714844","17.1875","-7.75","18.6875"
"1574973537767","193","-0.18554688","-1.28125","-0.18652344","0.03125","11.09375","7.34375"
"1574973537768","194","-0.30078125","-1.171875","0.034179688","-41.84375","-0.0625","-9.75"
"1574973537768","195","-0.024414062","-1.1152344","0.0087890625","-34.46875","-22.34375","6.75"
"1574973537768","196","0.022460938","-0.95214844","-0.15917969","-31.03125","-33.21875","-29.40625"
"1574973537769","197","-0.052734375","-1.0419922","-0.029296875","-44.09375","-25.9375","-41.0625"
"1574973537769","198","-0.20703125","-0.8457031","0.046875","-25.5625","-22.84375","-26.03125"
"1574973537769","199","-0.20800781","-0.77246094","-0.13769531","-5.15625","-34.0625","-8.15625"
"1574973538164","200","-0.0390625","-0.8828125","-0.16992188","-17.875","-9.53125","-2.0"
"1574973538164","201","-0.032226562","-0.9189453","-0.12402344","-10.28125","-0.875","-0.15625"
"1574973538164","202","-0.11035156","-0.96191406","-0.19140625","11.8125","-6.46875","7.53125"
"1574973538165","203","-0.095703125","-0.98046875","-0.22753906","13.03125","-0.875","13.9375"
"1574973538165","204","0.05078125","-0.9902344","-0.19238281","14.375","-7.5625","19.5"
"1574973538166","205","0.09472656","-0.98046875","-0.19921875","28.65625","-14.78125","6.3125"
"1574973538167","206","0.029296875","-0.98535156","-0.24316406","26.9375","-14.71875","-6.75"
"1574973538167","207","0.026367188","-1.0351562","-0.27246094","17.53125","-10.0625","-10.46875"
"1574973538167","208","0.095703125","-1.0214844","-0.19628906","4.0625","-3.1875","-20.3125"
"1574973538168","209","0.055664062","-1.1132812","-0.0390625","-8.28125","22.6875","-30.25"
"1574973538756","210","-0.14941406","-1.046875","0.0068359375","1.25","46.25","-3.8125"
"1574973538756","211","-0.06542969","-0.9267578","0.07128906","45.25","8.46875","35.375"
"1574973538756","212","0.11816406","-0.7294922","0.18164062","47.75","1.15625","22.78125"
"1574973538756","213","0.07519531","-0.86035156","0.1640625","15.78125","13.53125","-2.84375"
"1574973538757","214","0.068359375","-1.2529297","0.15332031","20.84375","5.125","8.6875"
"1574973538757","215","0.07421875","-1.3769531","0.07421875","30.40625","-18.9375","9.96875"
"1574973538757","216","0.15039062","-1.1894531","-0.06640625","9.0","-15.21875","4.34375"
"1574973538758","217","0.16894531","-1.0761719","0.017578125","-36.21875","-7.09375","-12.84375"
"1574973538759","218","0.19140625","-1.0927734","0.0234375","-38.1875","-27.46875","-29.15625"
"1574973538759","219","0.064453125","-0.9951172","0.041015625","-33.90625","-36.375","-38.0625"
"1574973539158","220","-0.01171875","-0.921875","0.08496094","-30.125","-23.1875","-30.5625"
"1574973539158","221","0.028320312","-0.9111328","0.036132812","-29.34375","-20.03125","-18.46875"
"1574973539159","222","0.16796875","-1.0","-0.048828125","-19.09375","-32.125","-9.5"
"1574973539159","223","0.18359375","-0.9560547","-0.045898438","-8.46875","-23.8125","1.90625"
"1574973539159","224","0.13378906","-0.9013672","-0.024414062","-3.28125","-21.3125","10.03125"
"1574973539159","225","0.17089844","-0.9433594","-0.029296875","-3.34375","-4.59375","16.0625"
"1574973539160","226","0.19238281","-0.9902344","-0.08984375","4.28125","3.53125","22.84375"
"1574973539160","227","0.12792969","-0.9404297","-0.08105469","8.03125","6.46875","29.875"
"1574973539160","228","0.15625","-0.890625","-0.0703125","10.15625","9.6875","34.9375"
"1574973539162","229","0.13769531","-0.8417969","-0.061523438","12.84375","16.0","38.21875"
"1574973539355","230","0.072265625","-0.7871094","-0.0029296875","14.25","24.71875","40.90625"
"1574973539356","231","0.044921875","-0.7480469","0.12207031","21.75","44.65625","45.90625"
"1574973539356","232","-0.13378906","-0.88964844","0.18554688","29.75","49.90625","49.875"
"1574973539356","233","-0.54296875","-1.4042969","-0.3125","65.75","-25.59375","50.4375"
"1574973539356","234","-0.24121094","-1.5625","-0.046875","-9.75","18.78125","18.03125"
"1574973539356","235","0.115234375","-1.1552734","0.06738281","38.71875","-43.875","22.1875"
"1574973539357","236","-0.09082031","-1.125","-0.03515625","-6.875","-16.25","-21.59375"
"1574973539357","237","-0.26171875","-1.2832031","-0.083984375","-37.625","12.4375","-50.8125"
"1574973539357","238","-0.23242188","-1.078125","-0.032226562","-11.28125","-28.5625","-18.59375"
"1574973539358","239","-0.14941406","-0.79003906","-0.01171875","-16.46875","-11.125","-31.28125"
"1574973539753","240","-0.095703125","-0.74316406","-0.052734375","-21.15625","-5.625","-38.6875"
"1574973539754","241","-0.0703125","-0.82910156","-0.01171875","-20.59375","-3.65625","-26.84375"
"1574973539754","242","-0.034179688","-0.90722656","-0.06640625","-2.0","-21.0625","-9.8125"
"1574973539754","243","-0.001953125","-0.953125","-0.08300781","6.75","-19.15625","-11.5625"
"1574973539755","244","-0.022460938","-1.0087891","-0.15429688","11.5625","-21.78125","-10.09375"
"1574973539755","245","0.0048828125","-1.0400391","-0.17871094","19.5","-30.03125","-3.625"
"1574973539755","246","0.05859375","-0.9707031","-0.14160156","24.6875","-31.6875","-2.25"
"1574973539755","247","-0.001953125","-0.96972656","-0.17480469","18.6875","-22.34375","-12.0625"
"1574973539756","248","-0.032226562","-0.9746094","-0.140625","14.5625","-19.28125","-9.4375"
"1574973539756","249","-0.038085938","-1.1132812","-0.034179688","12.65625","8.21875","-6.25"
"1574973540150","250","-0.041015625","-1.0898438","-0.0107421875","23.71875","8.53125","6.96875"
"1574973540151","251","0.07324219","-1.0371094","0.06640625","26.8125","-4.15625","18.21875"
"1574973540151","252","0.17871094","-0.9892578","0.15332031","16.6875","10.4375","-9.125"
"1574973540152","253","0.057617188","-1.0517578","0.09765625","-21.65625","26.78125","-22.125"
"1574973540152","254","-0.07714844","-1.0732422","0.08886719","-12.375","13.71875","-1.9375"
"1574973540153","255","0.048828125","-1.1044922","0.10546875","-4.90625","-7.8125","-11.875"
"1574973540153","256","0.22949219","-1.1533203","0.0390625","-30.875","1.875","-21.15625"
"1574973540153","257","0.18359375","-1.1201172","0.030273438","-32.25","6.28125","-24.28125"
"1574973540153","258","0.06933594","-0.9482422","0.016601562","-13.28125","-9.03125","-23.28125"
"1574973540154","259","0.10058594","-0.8466797","0.0078125","-16.40625","-16.25","-24.34375"
"1574973540744","260","0.13378906","-0.89746094","0.0107421875","-25.25","-8.84375","-16.34375"
"1574973540744","261","0.12792969","-0.9921875","0.049804688","-12.5625","-5.5","-6.25"
"1574973540744","262","0.1484375","-0.93359375","-0.0234375","9.375","-7.40625","1.3125"
"1574973540745","263","0.171875","-0.88378906","-0.01171875","1.1875","-0.8125","4.84375"
"1574973540745","264","0.18457031","-0.9316406","-0.01171875","-1.4375","1.9375","4.40625"
"1574973540747","265","0.25390625","-0.9941406","-0.05859375","0.6875","-2.625","3.25"
"1574973540747","266","0.27539062","-0.984375","-0.103515625","3.8125","-7.875","8.4375"
"1574973540747","267","0.25878906","-0.99316406","-0.08300781","-1.75","-9.34375","8.03125"
"1574973540748","268","0.23242188","-0.99902344","-0.10839844","-3.28125","-3.90625","10.28125"
"1574973540748","269","0.19726562","-0.9785156","-0.09863281","-5.53125","-1.15625","13.6875"
"1574973540947","270","0.21972656","-0.9863281","-0.0625","-10.40625","4.3125","14.0"
"1574973540948","271","0.28515625","-0.984375","-0.1015625","-6.8125","-5.0625","14.96875"
"1574973540948","272","0.35351562","-1.1025391","-0.05078125","-12.25","4.5625","10.65625"
"1574973540948","273","0.10644531","-1.1083984","-0.10644531","-2.78125","8.90625","12.59375"
"1574973540948","274","-0.19433594","-0.9453125","-0.055664062","3.5625","-8.0625","22.3125"
"1574973540948","275","-0.17382812","-0.7753906","0.1015625","12.40625","-14.15625","43.78125"
"1574973540949","276","-0.22265625","-0.69140625","0.06640625","39.4375","-19.15625","59.90625"
"1574973540949","277","-0.31152344","-0.8925781","-0.09277344","59.59375","-28.875","55.6875"
"1574973540950","278","-0.18945312","-1.2373047","-0.18359375","24.5","-14.46875","46.46875"
"1574973540950","279","0.08300781","-1.2792969","-0.09375","-1.8125","-4.78125","24.625"
"1574973541543","280","-0.15820312","-1.1523438","0.052734375","12.46875","-9.84375","1.71875"
"1574973541543","281","-0.2734375","-1.1484375","-0.07421875","31.5625","-24.84375","-6.4375"
"1574973541544","282","-0.12207031","-1.0351562","-0.08691406","2.21875","-4.46875","-7.25"
"1574973541544","283","-0.13085938","-0.9326172","-0.06933594","-2.71875","11.78125","-16.28125"
"1574973541544","284","-0.09667969","-0.90722656","-0.07421875","0.21875","-0.0625","-15.40625"
"1574973541544","285","0.037109375","-0.9746094","-0.103515625","-4.5","-11.0","-20.65625"
"1574973541545","286","0.091796875","-1.0087891","-0.13574219","-15.1875","-21.90625","-36.21875"
"1574973541545","287","0.026367188","-1.0283203","-0.111328125","-18.03125","-18.8125","-45.9375"
"1574973541545","288","-0.095703125","-1.0361328","-0.19726562","-29.21875","-4.03125","-48.125"
"1574973541546","289","-0.022460938","-1.234375","-0.13378906","-49.71875","10.6875","-34.84375"
"1574973541740","290","0.12011719","-1.1123047","-0.08886719","-13.46875","11.71875","-21.8125"
"1574973541741","291","0.12890625","-0.9511719","-0.1171875","-3.625","-10.625","-26.78125"
"1574973541741","292","0.09472656","-0.8378906","-0.055664062","-49.96875","38.5","-46.71875"
"1574973541741","293","0.0","-1.0234375","-0.08691406","-61.0625","32.78125","-44.71875"
"1574973541741","294","0.12207031","-1.0654297","-0.0126953125","-14.375","2.25","-12.0625"
"1574973541741","295","0.15527344","-0.8925781","0.038085938","-2.0625","-9.53125","-14.625"
"1574973541742","296","0.2109375","-0.89453125","-0.0029296875","-0.28125","0.90625","-4.5625"
"1574973541742","297","0.15332031","-0.9902344","-0.041992188","4.90625","-1.28125","-0.21875"
"1574973541742","298","0.1875","-1.0087891","-0.10058594","11.6875","-2.625","7.03125"
"1574973541742","299","0.21191406","-0.9814453","-0.09667969","12.34375","-2.75","8.875"
"1574973542140","300","0.25097656","-0.9472656","-0.06738281","10.09375","-12.34375","8.9375"
"1574973542142","301","0.22753906","-0.93847656","-0.034179688","12.40625","-15.9375","9.375"
"1574973542143","302","0.17773438","-0.9355469","-0.0625","15.34375","-20.6875","11.75"
"1574973542143","303","0.22851562","-0.9736328","-0.044921875","17.25","-24.59375","16.5625"
"1574973542143","304","0.1796875","-0.9873047","-0.09082031","18.9375","-22.59375","18.6875"
"1574973542143","305","0.07714844","-0.98535156","-0.041015625","25.28125","-10.75","28.96875"
"1574973542144","306","0.111328125","-1.0029297","-0.052734375","14.5625","6.53125","33.03125"
"1574973542144","307","0.17871094","-1.0019531","-0.09082031","11.375","12.125","30.59375"
"1574973542144","308","0.13085938","-0.97558594","-0.09667969","14.625","15.25","34.625"
"1574973542144","309","0.087890625","-0.92089844","-0.047851562","17.40625","19.53125","38.71875"
"1574973542537","310","0.057617188","-0.89941406","9.765625E-4","11.75","35.53125","42.0"
"1574973542538","311","0.07519531","-0.88378906","0.099609375","19.90625","40.75","50.5"
"1574973542538","312","0.18066406","-0.97558594","0.057617188","40.375","11.03125","50.1875"
"1574973542540","313","0.0","-1.2636719","-0.14648438","46.34375","-12.6875","30.25"
"1574973542540","314","-0.29003906","-1.2607422","-0.13378906","-15.65625","20.25","-2.25"
"1574973542540","315","-0.27539062","-1.4082031","-0.048828125","-25.125","-3.375","6.6875"
"1574973542540","316","-0.19238281","-1.1699219","-0.040039062","-29.6875","-0.125","6.6875"
"1574973542541","317","-0.107421875","-1.1699219","-0.15039062","-28.25","-6.15625","-28.40625"
"1574973542541","318","-0.18164062","-1.1357422","-0.072265625","-33.65625","5.65625","-27.5625"
"1574973542541","319","-0.20800781","-0.9003906","-0.016601562","-33.0","-4.65625","-34.40625"
"1574973542934","320","-0.10546875","-0.78515625","-0.0859375","-16.875","-14.46875","-34.46875"
"1574973542935","321","-0.09375","-0.7763672","-0.095703125","-20.90625","0.78125","-25.5625"
"1574973542935","322","-0.11816406","-0.7910156","-0.14160156","-13.59375","-1.78125","-11.8125"
"1574973542935","323","-0.1015625","-0.8515625","-0.13867188","1.25","-7.09375","-4.6875"
"1574973542935","324","-0.025390625","-0.93066406","-0.18359375","15.84375","-6.34375","2.90625"
"1574973542937","325","0.053710938","-1.0537109","-0.25097656","19.4375","-6.46875","8.75"
"1574973542937","326","0.060546875","-1.0498047","-0.22460938","24.5625","-1.96875","8.3125"
"1574973542938","327","0.03125","-0.99609375","-0.23632812","28.03125","-13.5625","6.1875"
"1574973542938","328","-0.0029296875","-0.9716797","-0.22460938","31.9375","-14.40625","1.0625"
"1574973542938","329","0.03125","-0.94433594","-0.22753906","30.34375","-16.3125","-0.84375"
"1574973543530","330","0.0625","-0.9433594","-0.22949219","25.96875","-10.5625","-8.28125"
"1574973543531","331","0.08886719","-1.0585938","-0.12011719","-0.90625","-8.5625","-16.625"
"1574973543531","332","0.06738281","-1.1669922","-0.036132812","-18.40625","33.125","-27.5"
"1574973543531","333","-0.0390625","-1.1601562","0.072265625","0.8125","-9.21875","-11.6875"
"1574973543532","334","0.12207031","-1.0664062","0.18261719","7.53125","-22.15625","-19.3125"
"1574973543532","335","0.078125","-1.0380859","0.123046875","-20.125","-16.59375","-32.25"
"1574973543532","336","0.041015625","-1.125","0.08105469","-5.15625","-14.40625","-13.65625"
"1574973543534","337","-0.034179688","-1.0625","0.032226562","7.78125","-22.03125","-10.09375"
"1574973543534","338","0.109375","-0.98046875","0.043945312","3.5","-21.25","-10.28125"
"1574973543534","339","0.15234375","-0.8808594","0.11425781","-0.71875","-22.59375","-12.5"
"1574973543928","340","0.07128906","-0.9111328","0.1328125","6.84375","-27.71875","-8.46875"
"1574973543928","341","0.030273438","-0.95410156","0.10449219","16.0625","-21.0","3.0"
"1574973543929","342","0.1015625","-1.0205078","0.036132812","16.6875","-19.21875","6.4375"
"1574973543929","343","0.1015625","-1.0478516","-0.034179688","10.75","-16.59375","7.34375"
"1574973543929","344","0.034179688","-0.9472656","-0.08300781","3.75","-21.78125","5.03125"
"1574973543929","345","0.11816406","-0.8925781","0.0","1.96875","-13.25","2.78125"
"1574973543929","346","0.23632812","-0.8574219","0.10058594","2.59375","-25.875","1.71875"
"1574973543930","347","0.1796875","-0.9326172","0.15722656","15.34375","-17.46875","3.6875"
"1574973543930","348","0.01953125","-1.0498047","0.1015625","20.15625","-12.875","7.09375"
"1574973543931","349","0.13574219","-1.1386719","-0.09472656","12.46875","-7.4375","10.59375"
"1574973544720","350","0.19042969","-1.0947266","-0.05078125","17.71875","-2.9375","20.96875"
"1574973544721","351","0.10449219","-0.93652344","0.064453125","11.5625","-15.5","15.34375"
"1574973544721","352","0.046875","-0.88671875","0.083984375","3.5625","1.28125","9.375"
"1574973544722","353","-0.03125","-0.90234375","0.10253906","6.90625","22.9375","21.15625"
"1574973544722","354","-9.765625E-4","-0.88671875","0.09082031","32.6875","19.28125","37.625"
"1574973544722","355","0.12402344","-1.0048828","0.06347656","57.28125","21.0625","46.96875"
"1574973544723","356","0.07421875","-1.0283203","0.06933594","58.875","49.0625","44.03125"
"1574973544723","357","0.01953125","-1.0","0.171875","60.4375","49.375","51.0625"
"1574973544723","358","-0.11035156","-1.0039062","0.16308594","65.40625","41.8125","59.84375"
"1574973544724","359","-0.22949219","-0.96972656","-0.017578125","67.28125","3.15625","75.46875"
"1574973544919","360","0.060546875","-0.8544922","0.24511719","32.0625","-15.8125","33.46875"
"1574973544920","361","-0.0703125","-0.99902344","0.31054688","59.34375","-15.75","24.75"
"1574973544921","362","-0.6308594","-1.1621094","0.18945312","48.3125","-24.0","43.84375"
"1574973544921","363","-0.5078125","-1.2480469","0.15136719","36.03125","-6.0","38.90625"
"1574973544921","364","-0.1875","-1.1689453","0.31835938","12.03125","-5.5","21.5"
"1574973544921","365","-0.26660156","-1.0664062","0.33691406","-4.25","-21.4375","-7.53125"
"1574973544922","366","-0.5810547","-0.97558594","0.3203125","6.84375","9.46875","-53.25"
"1574973544922","367","-0.28125","-0.95214844","0.43945312","5.15625","8.0","-25.84375"
"1574973544922","368","-0.10449219","-0.96191406","0.484375","-9.0","5.5","-30.96875"
"1574973544923","369","-0.18164062","-0.85058594","0.3779297","-33.375","10.75","-57.40625"
"1574973545119","370","-0.17089844","-0.7080078","0.3857422","-26.84375","-5.125","-45.375"
"1574973545120","371","-0.15039062","-0.6816406","0.4267578","-25.25","0.90625","-49.0"
"1574973545120","372","-9.765625E-4","-1.0712891","0.37402344","-47.9375","9.8125","-37.625"
"1574973545121","373","-0.11230469","-0.97265625","0.25","-16.59375","-2.625","-27.625"
"1574973545121","374","-0.15332031","-0.95410156","0.24414062","-11.875","6.21875","-20.375"
"1574973545121","375","-0.09863281","-0.93847656","0.17285156","-19.9375","0.59375","-16.40625"
"1574973545122","376","-0.0703125","-0.9296875","0.078125","-4.1875","11.15625","-13.15625"
"1574973545122","377","0.0146484375","-0.9873047","0.076171875","-28.40625","15.25","-21.9375"
"1574973545122","378","0.14453125","-1.0371094","0.2548828","-11.8125","30.875","-48.5625"
"1574973545122","379","-0.024414062","-1.0927734","0.3515625","-29.625","52.125","-45.25"
"1574973545911","380","-0.3173828","-1.0986328","0.15136719","29.0625","15.4375","6.3125"
"1574973545911","381","-0.026367188","-1.09375","0.26464844","7.59375","2.375","10.875"
"1574973545912","382","0.4091797","-0.9345703","0.3408203","-22.1875","23.90625","-38.0625"
"1574973545912","383","0.05859375","-0.953125","0.27441406","-7.3125","19.71875","-31.65625"
"1574973545912","384","-0.080078125","-1.1015625","0.2578125","-25.6875","-12.875","-29.15625"
"1574973545913","385","0.18847656","-0.9941406","0.203125","-30.6875","-12.21875","-27.1875"
"1574973545914","386","0.16796875","-0.9033203","0.19238281","-40.125","-23.03125","-13.53125"
"1574973545915","387","0.045898438","-0.9355469","0.18945312","-16.09375","-24.3125","-17.625"
"1574973545915","388","-0.013671875","-0.90722656","0.15332031","-16.21875","-39.75","-7.90625"
"1574973545916","389","0.037109375","-0.87109375","0.12695312","-18.34375","-13.625","-4.375"
"1574973545916","390","0.17285156","-0.9746094","0.032226562","-8.71875","-16.3125","4.90625"
"1574973545916","391","0.14648438","-1.0244141","0.068359375","-5.28125","-12.21875","8.625"
"1574973545917","392","0.16601562","-0.9873047","0.1015625","-2.84375","-14.09375","6.375"
"1574973545917","393","0.16210938","-0.95703125","0.0859375","6.125","-19.15625","7.71875"
"1574973545917","394","0.18945312","-0.88964844","0.057617188","12.15625","-32.0625","12.09375"
"1574973545918","395","0.20410156","-0.89746094","0.072265625","23.28125","-35.15625","22.25"
"1574973545918","396","0.20019531","-0.93066406","0.055664062","25.15625","-27.59375","27.3125"
"1574973545918","397","0.12695312","-0.9794922","0.07324219","28.03125","-8.78125","29.0625"
"1574973545919","398","0.0126953125","-0.9716797","0.01953125","53.0","-17.875","43.125"
"1574973545919","399","0.044921875","-0.9238281","0.047851562","46.96875","-8.90625","48.84375"
"1574973546314","400","-0.10253906","-0.93652344","0.13476562","71.5625","-4.875","52.21875"
"1574973546318","401","-0.19726562","-1.2314453","0.31835938","5.9375","63.59375","38.28125"
"1574973546319","402","-0.42871094","-0.9316406","0.25195312","74.1875","12.09375","60.875"
"1574973546319","403","-0.14355469","-1.125","0.5498047","5.40625","49.25","38.46875"
"1574973546319","404","0.4375","-1.4130859","0.51953125","1.1875","40.34375","23.40625"
"1574973546319","405","0.09667969","-1.0751953","0.20507812","2.21875","-35.21875","12.53125"
"1574973546320","406","-0.21191406","-0.8886719","0.390625","-17.875","-31.1875","-55.53125"
"1574973546320","407","-0.15722656","-1.0751953","0.2265625","-13.59375","-52.5625","-51.84375"
"1574973546320","408","-0.19726562","-1.2050781","0.19042969","-33.25","-49.3125","-32.5625"
"1574973546321","409","-0.3046875","-0.9501953","0.24023438","-23.78125","-43.09375","-34.40625"
"1574973546710","410","-0.16503906","-0.7324219","0.2626953","-18.15625","-31.3125","-41.0"
"1574973546711","411","0.0078125","-0.8701172","0.21582031","-32.03125","-18.625","-23.125"
"1574973546711","412","-0.040039062","-1.0185547","0.087890625","-13.09375","-20.03125","-18.90625"
"1574973546711","413","-0.08496094","-0.9794922","0.14160156","-23.96875","9.03125","-31.28125"
"1574973546711","414","0.08105469","-0.8564453","0.13574219","-7.53125","-8.4375","-13.03125"
"1574973546712","415","0.14550781","-0.9638672","0.07128906","-4.5625","-13.125","-8.46875"
"1574973546712","416","0.09472656","-1.0126953","0.072265625","-4.4375","-3.3125","-25.25"
"1574973546712","417","0.0546875","-0.91796875","0.083984375","7.53125","-8.375","-16.03125"
"1574973546713","418","0.08105469","-0.88183594","0.11230469","-1.0625","-0.0625","-5.03125"
"1574973546713","419","0.01953125","-0.9707031","0.18066406","-26.90625","46.3125","-5.53125"
"1574973547108","420","-0.07421875","-1.0283203","0.22265625","42.125","-0.5625","32.90625"
"1574973547110","421","0.119140625","-1.0029297","0.21582031","46.34375","-27.09375","55.875"
"1574973547110","422","0.115234375","-0.85253906","0.30273438","31.09375","4.09375","17.28125"
"1574973547111","423","-0.013671875","-1.0517578","0.234375","23.9375","24.96875","12.46875"
"1574973547111","424","-0.005859375","-1.1259766","0.19238281","27.375","-0.75","19.625"
"1574973547111","425","0.103515625","-1.0849609","0.24707031","5.40625","-6.21875","17.0"
"1574973547111","426","0.022460938","-1.1035156","0.27246094","-25.96875","16.84375","-11.21875"
"1574973547112","427","-0.060546875","-1.1884766","0.20214844","-38.6875","22.875","-30.25"
"1574973547112","428","0.12207031","-1.1572266","0.16503906","-19.21875","-13.125","-15.46875"
"1574973547112","429","0.18945312","-1.0546875","0.19921875","-31.09375","-16.84375","-20.3125"
"1574973547505","430","0.09863281","-0.93847656","0.203125","-35.375","-12.09375","-32.15625"
"1574973547506","431","0.08886719","-0.9042969","0.171875","-39.78125","-24.1875","-32.875"
"1574973547506","432","0.08886719","-0.85839844","0.171875","-24.21875","-43.65625","-22.75"
"1574973547508","433","0.08203125","-0.8457031","0.14453125","-10.15625","-43.03125","-9.125"
"1574973547508","434","0.08984375","-0.8408203","0.080078125","6.0","-41.15625","-2.96875"
"1574973547509","435","0.18261719","-0.9199219","0.06542969","8.75","-31.125","4.28125"
"1574973547509","436","0.15527344","-0.93066406","0.051757812","12.84375","-18.625","8.09375"
"1574973547509","437","0.14257812","-0.9511719","0.06738281","25.28125","-21.3125","15.46875"
"1574973547509","438","0.07324219","-0.9707031","0.072265625","15.28125","-6.21875","13.4375"
"1574973547510","439","0.02734375","-0.9824219","0.021484375","18.625","0.3125","16.8125"
"1574973547903","440","-0.0126953125","-1.0087891","0.12011719","16.625","30.6875","22.84375"
"1574973547903","441","-0.14746094","-1.0458984","0.09863281","14.0","48.46875","19.8125"
"1574973547904","442","-0.16796875","-0.98046875","0.2607422","29.4375","74.03125","27.125"
"1574973547904","443","0.0390625","-0.92578125","0.3173828","36.65625","104.59375","39.5625"
"1574973547904","444","0.14941406","-1.0400391","0.125","64.53125","35.03125","84.1875"
"1574973547905","445","0.14941406","-1.1757812","0.4560547","-21.53125","77.3125","38.28125"
"1574973547906","446","0.21582031","-1.1650391","0.6923828","-24.9375","74.09375","-10.53125"
"1574973547906","447","-0.020507812","-0.97265625","0.09863281","68.0625","-75.09375","49.59375"
"1574973547906","448","-0.046875","-1.1162109","0.42578125","-60.9375","34.59375","-33.53125"
"1574973547907","449","-0.0048828125","-0.94433594","0.3623047","-7.3125","-33.34375","-46.4375"
"1574973548299","450","-0.12695312","-0.984375","0.25390625","-11.4375","-43.40625","-14.5625"
"1574973548299","451","-0.24316406","-0.92871094","0.20605469","-20.71875","-24.90625","-29.09375"
"1574973548300","452","-0.064453125","-0.9550781","0.22070312","-27.9375","-17.65625","-33.1875"
"1574973548300","453","0.030273438","-0.92285156","0.140625","-13.34375","-28.6875","-17.75"
"1574973548301","454","-0.009765625","-0.9404297","0.13183594","-11.875","-27.46875","-16.21875"
"1574973548301","455","0.025390625","-0.9003906","0.060546875","-6.75","-34.6875","-9.875"
"1574973548301","456","0.10644531","-1.0625","0.0390625","-5.65625","-26.6875","-16.75"
"1574973548302","457","0.05078125","-0.9785156","0.045898438","2.34375","-33.75","-6.625"
"1574973548302","458","0.040039062","-0.8955078","-0.040039062","1.5625","-35.84375","-5.90625"
"1574973548303","459","0.1328125","-1.0","0.055664062","-9.75","-21.6875","-12.4375"
"1574973548894","460","0.056640625","-0.97753906","-0.05078125","8.5","-21.84375","-13.46875"
"1574973548894","461","0.046875","-0.9707031","0.10449219","-2.59375","4.21875","-4.625"
"1574973548894","462","-0.028320312","-0.9550781","0.04296875","18.5625","8.28125","11.4375"
"1574973548895","463","-0.11230469","-0.96777344","0.15136719","12.78125","4.5625","35.46875"
"1574973548895","464","0.047851562","-0.8808594","0.1796875","28.03125","-4.9375","44.46875"
"1574973548895","465","0.01171875","-0.9277344","0.21386719","31.09375","6.53125","34.8125"
"1574973548895","466","-0.080078125","-1.0527344","0.20019531","21.9375","3.46875","27.5625"
"1574973548896","467","-0.0390625","-1.1181641","0.20410156","16.0625","1.8125","11.4375"
"1574973548896","468","-0.041992188","-1.1855469","0.23339844","-2.65625","-6.0625","8.6875"
"1574973548897","469","0.0107421875","-1.1748047","0.21972656","4.125","-1.46875","17.125"
"1574973549097","470","0.0390625","-1.1835938","0.24902344","-27.3125","4.75","-2.0625"
"1574973549098","471","0.01171875","-1.2070312","0.16992188","-39.09375","-6.0625","-21.34375"
"1574973549098","472","0.055664062","-1.1513672","0.1328125","-43.5","-17.9375","-26.59375"
"1574973549098","473","0.095703125","-1.0498047","0.12597656","-63.09375","-14.59375","-42.6875"
"1574973549098","474","0.021484375","-0.9453125","0.13378906","-61.4375","-11.84375","-50.8125"
"1574973549099","475","-0.034179688","-0.8388672","0.12597656","-42.21875","-16.84375","-35.9375"
"1574973549099","476","0.0087890625","-0.78125","0.10253906","-32.09375","-25.46875","-21.78125"
"1574973549099","477","0.06933594","-0.8339844","0.087890625","-29.625","-9.71875","-10.21875"
"1574973549099","478","0.15039062","-0.9736328","-0.053710938","-0.28125","-10.25","-0.46875"
"1574973549100","479","0.13671875","-0.9921875","-0.024414062","0.6875","-5.375","7.78125"
"1574973549492","480","0.091796875","-0.98339844","0.009765625","1.84375","4.6875","12.46875"
"1574973549494","481","0.15332031","-0.9785156","-0.06738281","12.03125","11.15625","15.34375"
"1574973549494","482","0.20605469","-0.97753906","-0.10839844","-2.59375","16.03125","21.9375"
"1574973549495","483","0.22265625","-0.8925781","-0.076171875","-6.375","11.78125","22.90625"
"1574973549495","484","0.19238281","-0.8300781","-0.01171875","-1.0","11.03125","23.09375"
"1574973549495","485","0.21386719","-0.9199219","0.07910156","8.125","11.34375","32.375"
"1574973549495","486","-0.034179688","-1.0498047","0.099609375","29.6875","10.0","42.75"
"1574973549496","487","-0.40234375","-0.90722656","-0.033203125","38.09375","9.75","67.65625"
"1574973549496","488","-0.4794922","-0.8544922","0.06933594","59.84375","1.03125","75.65625"
"1574973549496","489","0.07519531","-1.2617188","0.078125","74.5","-33.34375","73.25"
"1574973549890","490","0.02734375","-1.1845703","0.06640625","23.46875","6.78125","21.375"
"1574973549891","491","-0.3203125","-1.1699219","0.0068359375","20.65625","-12.40625","8.3125"
"1574973549891","492","-0.22363281","-1.2568359","0.06640625","1.71875","-4.15625","-5.78125"
"1574973549892","493","-0.2734375","-1.1650391","0.12890625","-9.0625","8.53125","-17.8125"
"1574973549893","494","-0.2607422","-1.0253906","0.029296875","-0.65625","-7.5","-30.25"
"1574973549893","495","-0.15429688","-0.8984375","0.056640625","3.0625","-1.21875","-20.59375"
"1574973549893","496","-0.11328125","-0.7939453","0.083984375","-11.40625","4.875","-30.8125"
"1574973549893","497","-0.08496094","-0.86328125","0.076171875","-7.65625","-8.125","-33.78125"
"1574973549894","498","-0.0126953125","-0.9238281","0.0234375","2.21875","-18.625","-26.71875"
"1574973549894","499","0.0087890625","-0.92089844","0.041015625","10.46875","-35.53125","-18.40625"
"1574973550286","500","-0.026367188","-0.87109375","0.015625","23.53125","-35.71875","-19.8125"
"1574973550287","501","-0.10546875","-0.8544922","0.021484375","17.78125","-32.65625","-15.78125"
"1574973550287","502","-0.13769531","-0.9609375","0.11328125","15.78125","-20.03125","-13.65625"
"1574973550287","503","-0.057617188","-1.0966797","0.22753906","17.40625","0.59375","-9.75"
"1574973550288","504","-0.026367188","-1.1328125","0.22265625","42.4375","-19.84375","23.21875"
"1574973550288","505","0.032226562","-1.0683594","0.2578125","17.65625","-3.0625","17.28125"
"1574973550289","506","-0.044921875","-1.1210938","0.25585938","-3.6875","24.09375","-7.59375"
"1574973550289","507","-0.10253906","-1.2558594","0.16503906","-5.78125","1.53125","8.375"
"1574973550289","508","0.0146484375","-1.1044922","0.2109375","-16.03125","-13.125","-17.96875"
"1574973550289","509","0.125","-1.0791016","0.24414062","-50.28125","4.9375","-39.53125"
"1574973550882","510","0.0625","-1.0224609","0.20996094","-41.125","17.5","-43.3125"
"1574973550882","511","0.0029296875","-1.0068359","0.087890625","-52.53125","7.4375","-39.71875"
"1574973550883","512","0.080078125","-0.96875","0.1484375","-49.59375","0.40625","-28.46875"
"1574973550883","513","0.026367188","-0.8955078","0.17578125","-46.25","-0.1875","-27.75"
"1574973550883","514","0.013671875","-0.8486328","0.13378906","-33.0","-0.4375","-19.25"
"1574973550883","515","0.072265625","-0.9042969","0.11816406","-28.40625","4.375","-14.5625"
"1574973550884","516","0.17578125","-0.9580078","0.12011719","-16.75","7.3125","-11.03125"
"1574973550885","517","0.18652344","-0.8964844","0.095703125","20.46875","-1.96875","-0.03125"
"1574973550885","518","0.18066406","-0.98046875","0.08203125","30.59375","-36.875","28.40625"
"1574973550885","519","0.061523438","-0.9501953","0.0","18.6875","-15.5625","16.0625"
"1574973551083","520","-0.107421875","-0.8486328","0.040039062","26.03125","1.75","30.0625"
"1574973551083","521","-0.0546875","-0.8515625","-0.043945312","35.90625","56.21875","17.0625"
"1574973551084","522","0.2109375","-1.0244141","0.140625","14.5","104.4375","26.28125"
"1574973551084","523","0.5126953","-1.2548828","0.056640625","45.875","31.375","56.125"
"1574973551084","524","0.3408203","-1.0195312","0.059570312","61.59375","5.1875","35.0625"
"1574973551084","525","0.2890625","-0.85058594","0.15917969","28.96875","-20.9375","46.40625"
"1574973551085","526","-0.0078125","-0.8095703","0.21386719","0.8125","4.75","39.75"
"1574973551085","527","-0.2763672","-1.0761719","0.22753906","13.03125","16.34375","25.84375"
"1574973551085","528","-0.390625","-1.0761719","0.099609375","-4.625","1.53125","56.40625"
"1574973551086","529","-0.0859375","-0.9267578","0.26171875","4.0","5.3125","61.96875"
"1574973551876","530","0.041992188","-1.0351562","0.26660156","26.03125","-12.40625","8.125"
"1574973551876","531","-0.38476562","-1.1826172","0.045898438","40.25","3.40625","-25.84375"
"1574973551876","532","-0.20996094","-1.0332031","0.16796875","-0.78125","2.8125","4.46875"
"1574973551877","533","0.055664062","-1.0322266","0.30566406","-0.34375","-3.0","9.59375"
"1574973551877","534","-0.04296875","-1.0703125","0.24902344","-5.28125","-26.625","1.625"
"1574973551877","535","-0.2607422","-1.1347656","0.18164062","-7.65625","-27.03125","-27.25"
"1574973551878","536","-0.33496094","-1.0185547","0.16796875","-8.15625","-19.96875","-34.40625"
"1574973551878","537","-0.13378906","-0.9345703","0.14453125","-6.5625","-18.4375","-6.8125"
"1574973551878","538","-0.10449219","-0.89746094","0.11621094","-5.71875","-4.78125","-6.375"
"1574973551879","539","-0.060546875","-0.953125","0.08300781","-16.28125","1.75","-33.96875"
"1574973552074","540","-0.02734375","-1.0185547","0.09765625","-14.9375","-2.21875","-27.03125"
"1574973552075","541","-0.078125","-0.9628906","0.06933594","-3.09375","-12.875","-19.15625"
"1574973552076","542","0.033203125","-0.9609375","0.12988281","-7.71875","-14.84375","-17.5"
"1574973552076","543","-0.044921875","-0.94433594","0.05078125","1.84375","-22.59375","-15.78125"
"1574973552076","544","-0.07910156","-0.91503906","0.04296875","1.4375","-19.71875","-8.03125"
"1574973552077","545","0.020507812","-0.91015625","0.04296875","8.875","-25.40625","-2.125"
"1574973552077","546","0.10546875","-0.9277344","0.08203125","13.15625","-31.75","-6.1875"
"1574973552077","547","0.03125","-0.93359375","0.14257812","17.125","-27.96875","-14.375"
"1574973552078","548","-0.19628906","-1.1337891","0.23339844","27.65625","-19.28125","-24.9375"
"1574973552078","549","-0.31835938","-0.90234375","0.15429688","81.5","-11.40625","12.53125"
"1574973552274","550","-0.048828125","-0.75390625","0.14453125","41.65625","-28.5","66.90625"
"1574973552275","551","0.171875","-0.953125","0.33398438","37.0","48.15625","12.71875"
"1574973552275","552","0.13574219","-1.3115234","0.37109375","8.75","56.8125","-6.4375"
"1574973552276","553","-0.25195312","-1.1015625","0.44726562","-10.78125","8.28125","3.5625"
"1574973552277","554","0.0625","-1.2216797","0.3310547","20.34375","0.125","11.3125"
"1574973552277","555","0.044921875","-1.109375","0.32617188","-3.9375","-4.9375","-6.9375"
"1574973552277","556","-0.044921875","-0.9941406","0.25585938","-19.8125","6.09375","-27.5625"
"1574973552277","557","0.10644531","-0.9667969","0.36328125","-56.625","12.375","-34.9375"
"1574973552278","558","0.12890625","-0.98535156","0.33789062","-62.59375","0.96875","-44.34375"
"1574973552278","559","0.15332031","-1.0576172","0.3076172","-47.875","-20.625","-45.5"
"1574973552867","560","0.1953125","-0.98828125","0.24804688","-33.53125","-53.21875","-20.53125"
"1574973552867","561","0.14355469","-0.8076172","0.18359375","-40.25","-61.53125","-15.71875"
"1574973552868","562","0.09472656","-0.87890625","0.13769531","-52.90625","-50.84375","-26.90625"
"1574973552868","563","0.022460938","-0.8701172","0.095703125","-39.53125","-32.84375","-31.84375"
"1574973552868","564","0.140625","-0.9628906","-0.00390625","-28.34375","-45.59375","-11.625"
"1574973552869","565","0.2939453","-0.99609375","-0.047851562","-10.28125","-63.1875","-0.34375"
"1574973552869","566","0.32421875","-1.0019531","0.015625","-30.9375","-69.84375","2.71875"
"1574973552869","567","0.21777344","-0.9091797","0.11035156","-30.5625","-43.21875","13.375"
"1574973552870","568","0.09277344","-0.91503906","0.07324219","25.0","-59.15625","12.71875"
"1574973552870","569","0.09667969","-1.0498047","0.07324219","-2.78125","-69.21875","17.84375"
"1574973553070","570","0.051757812","-0.87597656","0.024414062","8.4375","-57.875","17.46875"
"1574973553070","571","0.10449219","-1.0791016","0.009765625","18.34375","-74.09375","19.75"
"1574973553070","572","0.049804688","-0.9951172","-0.009765625","15.40625","-61.96875","9.90625"
"1574973553071","573","-0.0029296875","-0.9863281","0.021484375","10.65625","-55.0625","6.25"
"1574973553071","574","-0.037109375","-0.99609375","-0.030273438","15.21875","-38.15625","10.40625"
"1574973553071","575","-0.024414062","-0.9873047","-0.09472656","29.0","-39.125","9.96875"
"1574973553071","576","-0.055664062","-0.98046875","0.041015625","22.3125","-12.875","8.875"
"1574973553073","577","-0.03125","-0.99316406","-0.0029296875","19.375","0.375","5.28125"
"1574973553073","578","-0.0078125","-1.0380859","0.024414062","6.625","15.125","4.46875"
"1574973553074","579","0.021484375","-1.0498047","0.0087890625","9.65625","22.34375","9.71875"
"1574973553666","580","-0.018554688","-1.0576172","0.017578125","5.75","26.0625","5.9375"
"1574973553667","581","0.036132812","-1.0507812","-0.025390625","4.34375","31.5625","-3.15625"
"1574973553667","582","0.068359375","-1.0019531","-0.00390625","1.0625","41.875","-3.40625"
"1574973553668","583","0.06933594","-1.0117188","0.034179688","3.4375","40.65625","0.03125"
"1574973553668","584","0.09375","-0.9638672","0.028320312","19.25","32.09375","3.6875"
"1574973553668","585","0.09667969","-0.95703125","0.0","22.90625","27.15625","-0.90625"
"1574973553668","586","0.06738281","-0.94628906","0.009765625","32.96875","40.34375","-1.5"
"1574973553669","587","0.00390625","-0.9980469","0.009765625","32.3125","45.46875","-5.78125"
"1574973553669","588","0.07128906","-1.0380859","0.15625","20.53125","59.3125","-1.1875"
"1574973553670","589","0.0859375","-1.0253906","0.14257812","22.96875","65.4375","-5.90625"
"1574973553866","590","0.14746094","-1.0097656","0.12402344","20.78125","60.46875","1.84375"
"1574973553867","591","0.26171875","-1.0996094","0.20898438","16.5625","66.21875","9.3125"
"1574973553867","592","0.38964844","-0.91503906","0.23242188","-3.875","57.125","10.28125"
"1574973553867","593","0.44921875","-0.83496094","0.28125","9.90625","16.53125","24.625"
"1574973553868","594","0.15527344","-1.1386719","0.27539062","-37.09375","41.1875","-19.5"
"1574973553868","595","-0.10644531","-1.3486328","0.03125","-9.125","24.84375","-1.0625"
"1574973553868","596","0.033203125","-1.1171875","0.3076172","-25.375","9.15625","17.40625"
"1574973553868","597","-0.0087890625","-0.9785156","0.19335938","-29.8125","12.03125","-1.625"
"1574973553869","598","-0.17285156","-1.0722656","0.041015625","-41.65625","4.8125","-29.59375"
"1574973553869","599","-0.14746094","-1.1386719","-0.03125","-52.71875","18.0","-19.3125"
"1574973554459","600","-0.21484375","-1.0273438","0.046875","-38.84375","13.0","-5.53125"
"1574973554460","601","-0.13183594","-0.88671875","0.061523438","-27.25","17.875","-12.78125"
"1574973554461","602","-0.0068359375","-0.8671875","-0.0107421875","-21.59375","18.71875","-9.125"
"1574973554461","603","-0.08105469","-0.859375","-0.059570312","-11.15625","17.21875","2.59375"
"1574973554461","604","-0.030273438","-0.9003906","-0.040039062","-4.1875","15.1875","3.25"
"1574973554462","605","0.036132812","-0.8730469","-0.056640625","8.3125","10.125","4.96875"
"1574973554462","606","0.045898438","-0.93847656","-0.087890625","22.59375","-3.84375","11.375"
"1574973554462","607","0.051757812","-0.97265625","-0.078125","31.625","2.9375","8.09375"
"1574973554462","608","0.0625","-0.9951172","-0.09765625","40.78125","-13.375","9.46875"
"1574973554463","609","0.13476562","-0.9892578","-0.0703125","39.15625","-22.90625","8.09375"
"1574973554661","610","0.140625","-0.875","0.017578125","43.25","-34.375","-2.34375"
"1574973554662","611","-0.015625","-0.8769531","0.14746094","32.6875","-15.15625","-10.71875"
"1574973554662","612","-0.18261719","-1.0332031","0.1171875","25.59375","18.90625","-4.3125"
"1574973554663","613","-0.19628906","-1.1083984","0.06933594","56.0625","2.25","25.40625"
"1574973554664","614","0.1171875","-1.1123047","0.1640625","46.34375","-1.09375","31.09375"
"1574973554664","615","0.016601562","-1.0488281","0.14746094","13.09375","26.71875","5.9375"
"1574973554664","616","-0.029296875","-1.2724609","0.09375","2.28125","31.78125","12.53125"
"1574973554665","617","0.01171875","-1.2148438","0.19921875","9.53125","8.1875","22.0625"
"1574973554665","618","-0.05078125","-1.09375","0.24023438","-23.84375","9.46875","-7.84375"
"1574973554665","619","-0.0390625","-1.1220703","0.15917969","-33.84375","17.28125","-24.03125"
"1574973555453","620","0.0","-1.0839844","0.1875","-42.65625","-0.8125","-26.65625"
"1574973555454","621","0.015625","-1.0625","0.20605469","-50.28125","-10.875","-43.5"
"1574973555454","622","0.01953125","-0.9902344","0.18945312","-52.03125","-1.65625","-46.1875"
"1574973555454","623","-0.038085938","-0.94140625","0.14550781","-36.0625","-2.5","-34.9375"
"1574973555455","624","0.052734375","-0.89453125","0.10253906","-34.59375","-14.78125","-25.96875"
"1574973555456","625","0.14941406","-0.8671875","0.09472656","-29.53125","-11.65625","-23.59375"
"1574973555457","626","0.140625","-0.83691406","0.09277344","-19.75","-13.5625","-20.71875"
"1574973555457","627","0.11230469","-0.9589844","0.018554688","-9.3125","-24.0625","-8.03125"
"1574973555457","628","0.16796875","-1.0224609","0.013671875","-11.8125","-29.375","-3.28125"
"1574973555458","629","0.20898438","-1.0263672","-0.048828125","-4.5","-15.03125","-7.0625"
"1574973555650","630","0.17285156","-0.96484375","-0.049804688","-4.75","-17.28125","1.5625"
"1574973555650","631","0.15917969","-0.92578125","-0.034179688","9.25","-35.46875","12.28125"
"1574973555650","632","0.25390625","-0.9423828","-0.10839844","14.1875","-31.0625","11.4375"
"1574973555651","633","0.18554688","-0.95703125","-0.1171875","3.25","-15.4375","12.15625"
"1574973555651","634","0.12890625","-0.9628906","-0.10644531","3.5","-10.875","18.9375"
"1574973555651","635","0.15820312","-0.92871094","-0.0703125","11.4375","-4.40625","27.65625"
"1574973555651","636","0.2109375","-0.9140625","-0.01953125","8.375","-6.46875","26.28125"
"1574973555653","637","0.17773438","-1.0009766","0.12207031","14.90625","16.84375","26.34375"
"1574973555653","638","0.060546875","-1.0332031","0.09277344","31.28125","9.15625","35.125"
"1574973555654","639","-0.24023438","-0.9628906","-0.09472656","60.25","-41.6875","50.4375"
"1574973556248","640","-0.26367188","-0.93066406","0.09667969","27.65625","-3.59375","37.75"
"1574973556248","641","-0.015625","-1.1142578","0.1171875","32.5625","4.9375","47.4375"
"1574973556249","642","-0.03125","-1.2021484","0.020507812","-6.03125","28.375","30.53125"
"1574973556249","643","-0.045898438","-1.2714844","-0.0107421875","-7.1875","10.5","-2.25"
"1574973556249","644","-0.021484375","-1.1904297","0.06738281","-16.875","5.65625","-19.21875"
"1574973556249","645","-0.06738281","-1.0136719","0.05078125","-20.71875","6.40625","-44.15625"
"1574973556250","646","-0.091796875","-1.046875","-0.0029296875","-37.09375","1.8125","-35.75"
"1574973556250","647","-0.060546875","-1.0283203","0.0048828125","-37.09375","-1.78125","-45.5625"
"1574973556250","648","-0.09667969","-0.9267578","-0.034179688","-32.09375","-7.5625","-40.625"
"1574973556251","649","-0.1015625","-0.87402344","-0.041015625","-22.0","4.21875","-29.34375"
"1574973556446","650","-0.076171875","-0.9013672","-0.080078125","-21.28125","10.5","-22.75"
"1574973556447","651","-0.013671875","-0.97558594","-0.078125","-12.125","15.0625","-8.34375"
"1574973556447","652","-0.028320312","-0.92578125","-0.09082031","10.15625","3.65625","3.8125"
"1574973556447","653","0.01171875","-0.9082031","-0.12207031","25.34375","-4.34375","14.0625"
"1574973556448","654","0.08203125","-0.92871094","-0.12988281","25.34375","-2.8125","21.9375"
"1574973556448","655","0.15136719","-0.9580078","-0.08105469","29.625","-6.0625","27.375"
"1574973556448","656","0.10839844","-0.91503906","-0.05859375","33.34375","-14.40625","18.75"
"1574973556448","657","0.040039062","-0.95703125","-0.12402344","35.0","-33.8125","15.34375"
"1574973556449","658","0.1015625","-0.9638672","-0.08984375","41.59375","-31.0","12.0"
"1574973556449","659","0.14355469","-0.90527344","-0.043945312","31.34375","-38.8125","2.21875"
"1574973556648","660","-0.01953125","-1.0322266","0.123046875","12.96875","-3.59375","1.375"
"1574973556650","661","-0.296875","-1.2138672","0.046875","41.40625","-2.3125","23.46875"
"1574973556650","662","0.16210938","-1.1845703","0.0078125","54.96875","-34.625","33.65625"
"1574973556650","663","0.19824219","-1.2109375","0.20800781","14.1875","0.65625","2.15625"
"1574973556650","664","-0.08496094","-1.0634766","0.095703125","-10.96875","0.125","1.625"
"1574973556651","665","-0.14160156","-1.1376953","0.3076172","-22.5","-3.5","14.0625"
"1574973556651","666","-0.034179688","-1.1191406","0.171875","-10.09375","-11.34375","-10.0"
"1574973556651","667","0.037109375","-1.1142578","0.13964844","-52.34375","22.6875","-39.09375"
"1574973556651","668","-0.0078125","-0.97753906","0.1484375","-22.125","-7.09375","-32.875"
"1574973556652","669","-0.013671875","-0.9941406","0.16113281","-23.71875","-18.5","-25.625"
"1574973557046","670","0.09277344","-0.9248047","0.13183594","-20.0625","-22.53125","-28.3125"
"1574973557046","671","0.05859375","-0.97265625","0.11816406","-18.09375","-11.1875","-27.9375"
"1574973557046","672","0.00390625","-1.09375","0.028320312","-30.75","-26.0625","-22.9375"
"1574973557048","673","-0.024414062","-1.0048828","-0.045898438","-14.0625","-22.15625","-12.375"
"1574973557048","674","0.08984375","-0.8574219","0.016601562","-18.53125","-16.4375","-6.875"
"1574973557049","675","0.2109375","-0.79589844","0.06542969","-12.96875","-17.28125","-7.71875"
"1574973557049","676","0.13574219","-0.83496094","0.08496094","2.09375","-18.5","-0.03125"
"1574973557049","677","-0.0146484375","-0.8769531","0.028320312","25.21875","-16.96875","11.5625"
"1574973557049","678","-0.02734375","-0.87890625","0.024414062","29.125","-14.78125","25.15625"
"1574973557050","679","-0.032226562","-0.9003906","0.06738281","45.3125","-20.5","37.5"
"1574973557642","680","0.0029296875","-0.98828125","0.03515625","70.03125","-34.0","47.875"
"1574973557643","681","-0.0087890625","-0.9501953","0.08300781","62.53125","-17.84375","47.03125"
"1574973557643","682","-0.076171875","-0.9609375","0.18847656","58.5625","-12.28125","48.0625"
"1574973557643","683","-0.11328125","-1.0039062","0.13183594","45.90625","-4.09375","34.15625"
"1574973557644","684","-0.0625","-1.1318359","0.11328125","24.0","9.875","14.78125"
"1574973557645","685","-0.04296875","-1.25","0.1953125","23.59375","18.71875","15.59375"
"1574973557646","686","-0.048828125","-1.2333984","0.21777344","45.0625","6.21875","21.75"
"1574973557646","687","-0.032226562","-0.99609375","0.28320312","24.75","6.03125","1.625"
"1574973557646","688","-0.038085938","-0.9863281","0.27148438","-10.59375","26.125","-8.03125"
"1574973557646","689","-0.083984375","-1.0996094","0.24023438","-19.625","18.78125","-16.03125"
"1574973558036","690","0.049804688","-1.1220703","0.20996094","-16.625","6.71875","-14.3125"
"1574973558037","691","0.046875","-0.9716797","0.23339844","-31.09375","7.125","-22.875"
"1574973558037","692","-0.0029296875","-0.97558594","0.23242188","-40.625","11.78125","-33.53125"
"1574973558037","693","0.029296875","-0.9921875","0.16015625","-35.875","-1.71875","-23.59375"
"1574973558038","694","0.036132812","-0.9482422","0.10546875","-27.0625","-3.0","-23.21875"
"1574973558038","695","0.001953125","-0.94628906","0.16015625","-30.1875","10.1875","-18.96875"
"1574973558038","696","-0.022460938","-0.9267578","0.08886719","-15.96875","18.3125","-3.21875"
"1574973558040","697","0.068359375","-0.9267578","0.049804688","-0.65625","12.625","10.28125"
"1574973558040","698","0.13574219","-0.95703125","0.080078125","-17.8125","27.40625","7.71875"
"1574973558040","699","0.06640625","-0.94140625","0.0390625","-9.75","36.6875","9.59375"
"1574973558433","700","0.15917969","-0.9628906","0.0","4.78125","16.34375","37.0"
"1574973558434","701","0.27246094","-0.9873047","0.0234375","-18.59375","18.71875","19.4375"
"1574973558434","702","0.119140625","-1.1230469","0.14453125","-27.1875","46.4375","-6.5625"
"1574973558434","703","-0.27539062","-1.2158203","-0.25","39.15625","-9.46875","18.625"
"1574973558435","704","-0.13769531","-1.1113281","-0.091796875","-32.5","1.34375","15.21875"
"1574973558435","705","0.044921875","-1.0332031","0.095703125","-6.4375","4.09375","2.40625"
"1574973558435","706","-9.765625E-4","-0.99316406","0.13769531","-11.40625","-0.875","-24.34375"
"1574973558436","707","-0.13671875","-1.203125","-0.12988281","-23.90625","-24.65625","-51.5"
"1574973558436","708","-0.27734375","-1.1816406","-0.13085938","-37.21875","30.375","-41.40625"
"1574973558438","709","-0.25097656","-0.96777344","-0.060546875","-23.34375","-9.78125","-21.78125"
"1574973558635","710","-0.022460938","-0.85058594","-0.0029296875","-8.34375","-4.78125","-12.84375"
"1574973558636","711","0.049804688","-0.81152344","-0.09667969","-20.0625","4.28125","-16.28125"
"1574973558636","712","-0.032226562","-0.90625","-0.11328125","-6.25","5.375","-2.46875"
"1574973558636","713","0.005859375","-0.9189453","-0.11035156","1.25","-3.1875","-2.0"
"1574973558636","714","0.11230469","-0.92871094","-0.17089844","16.25","-18.8125","1.71875"
"1574973558637","715","0.12792969","-0.93652344","-0.13476562","19.0625","-23.8125","3.1875"
"1574973558637","716","0.087890625","-0.9140625","-0.1796875","22.96875","-29.0","2.46875"
"1574973558637","717","0.08886719","-0.9345703","-0.13671875","18.8125","-18.625","-2.96875"
"1574973558637","718","-0.08203125","-1.0","0.0068359375","15.03125","11.53125","2.21875"
"1574973558638","719","-0.2705078","-0.86816406","0.08984375","31.15625","8.65625","30.96875"
"1574973559035","720","-0.15917969","-0.7363281","0.19726562","64.71875","-6.84375","57.59375"
"1574973559036","721","-0.05859375","-0.9863281","0.20605469","78.34375","-10.625","50.375"
"1574973559036","722","0.11816406","-1.1748047","0.0703125","41.15625","-11.78125","20.59375"
"1574973559037","723","-0.013671875","-1.2998047","0.06738281","22.65625","15.25","21.375"
"1574973559037","724","-0.13378906","-1.2041016","0.17480469","31.46875","1.59375","24.875"
"1574973559037","725","-0.056640625","-1.1650391","0.23730469","1.5","-11.1875","7.46875"
"1574973559038","726","0.005859375","-1.2333984","0.19042969","-15.25","1.15625","-13.40625"
"1574973559038","727","-0.0546875","-1.1640625","0.16308594","-14.875","-11.53125","-19.6875"
"1574973559038","728","0.009765625","-1.0595703","0.19140625","-10.59375","-24.96875","-23.0625"
"1574973559038","729","0.09667969","-1.0166016","0.15429688","-38.84375","-23.03125","-31.28125"
"1574973559627","730","0.059570312","-0.9042969","0.17285156","-42.6875","-35.28125","-38.5625"
"1574973559627","731","-0.029296875","-0.8408203","0.13867188","-24.6875","-40.15625","-32.6875"
"1574973559628","732","-0.04296875","-0.8417969","0.12207031","-32.15625","-29.84375","-27.375"
"1574973559629","733","-0.020507812","-0.92285156","0.08984375","-31.46875","-13.3125","-14.6875"
"1574973559629","734","0.020507812","-0.9785156","0.0625","-14.6875","-11.34375","-6.3125"
"1574973559630","735","0.060546875","-0.9794922","0.029296875","-8.40625","-6.78125","0.4375"
"1574973559630","736","0.034179688","-0.92871094","0.018554688","-2.25","10.5","13.8125"
"1574973559630","737","0.08691406","-0.94140625","0.09863281","6.0","20.5625","22.3125"
"1574973559630","738","0.048828125","-0.9091797","0.11621094","12.15625","27.53125","27.125"
"1574973559631","739","-0.03515625","-0.9580078","0.08886719","36.875","30.875","42.125"
"1574973559826","740","-0.076171875","-1.0556641","0.033203125","53.0625","28.5625","59.21875"
"1574973559827","741","-0.056640625","-1.0087891","0.01171875","27.5","6.84375","67.96875"
"1574973559827","742","0.078125","-0.9951172","0.17089844","6.3125","13.40625","37.875"
"1574973559827","743","0.11816406","-1.1357422","0.052734375","39.03125","-0.3125","14.65625"
"1574973559828","744","-0.16992188","-1.15625","0.0087890625","13.5","-20.8125","23.03125"
"1574973559829","745","-0.22363281","-1.1044922","0.009765625","-31.03125","-1.34375","3.25"
"1574973559829","746","-0.09375","-1.1962891","0.08203125","-48.375","7.3125","-10.71875"
"1574973559830","747","-0.16992188","-1.1669922","0.01171875","-18.28125","-14.78125","-21.53125"
"1574973559830","748","-0.13378906","-1.1103516","-0.05859375","-38.625","-14.78125","-31.46875"
"1574973559830","749","-0.0859375","-0.953125","0.038085938","-60.28125","-13.9375","-45.8125"
"1574973560224","750","-0.111328125","-1.0097656","-0.07324219","-37.625","-19.125","-54.90625"
"1574973560225","751","-0.21289062","-0.96484375","-0.009765625","-30.25","-13.8125","-32.25"
"1574973560225","752","-0.23144531","-0.86816406","-0.10839844","-10.84375","-8.96875","-23.40625"
"1574973560225","753","-0.107421875","-0.8808594","-0.091796875","-9.0625","-16.4375","-12.78125"
"1574973560226","754","0.018554688","-0.95410156","-0.1171875","-5.53125","1.03125","-3.34375"
"1574973560226","755","-0.047851562","-0.9511719","-0.08203125","2.65625","3.84375","0.875"
"1574973560226","756","-0.040039062","-0.95996094","-0.15722656","11.0","-10.25","-2.78125"
"1574973560227","757","0.06542969","-0.98828125","-0.18945312","20.78125","-5.6875","1.5625"
"1574973560228","758","0.043945312","-0.9589844","-0.16992188","15.90625","-9.15625","5.875"
"1574973560228","759","0.03125","-0.9316406","-0.1484375","20.40625","-5.1875","1.96875"
"1574973560622","760","0.0625","-1.0058594","-0.13085938","16.3125","-8.3125","-4.625"
"1574973560623","761","-0.005859375","-1.0664062","-0.115234375","13.375","-1.28125","-0.90625"
"1574973560623","762","-0.09277344","-0.9794922","-9.765625E-4","11.9375","14.09375","11.625"
"1574973560623","763","-0.14941406","-0.8564453","0.091796875","42.75","3.40625","38.0"
"1574973560624","764","-0.115234375","-0.71875","0.16796875","59.03125","1.09375","48.25"
"1574973560624","765","-0.119140625","-0.7109375","0.19433594","53.5625","10.5","46.84375"
"1574973560624","766","-0.21972656","-0.96875","0.24316406","71.0","9.28125","54.53125"
"1574973560624","767","-0.22851562","-1.1171875","0.2265625","79.25","-22.84375","48.84375"
"1574973560625","768","-0.06933594","-1.046875","0.20507812","89.0625","-8.25","48.59375"
"1574973560626","769","-0.18359375","-0.9980469","0.22460938","69.125","-15.4375","43.0625"
