"# PR data"
"# Start time: 20191114T113822"
"# Subject: zoe"
"# Activity type: Squats"
"# Correctness: Incorrect"
"# Notes: "
""
"timestamp","seq","accel_x","accel_y","accel_z","gyro_x","gyro_y","gyro_z"
"1573731502729","0","-0.23242188","-0.98339844","-0.041992188","4.5625","10.25","4.8125"
"1573731502729","1","-0.25390625","-0.92285156","-0.01171875","10.375","4.1875","10.84375"
"1573731502730","2","-0.24511719","-1.1015625","-0.0234375","-24.625","6.21875","20.90625"
"1573731502730","3","-0.2548828","-0.9267578","-0.14160156","-45.0625","-22.40625","17.625"
"1573731502730","4","-0.37109375","-0.87109375","-0.07324219","-31.875","-5.9375","11.8125"
"1573731502730","5","-0.3984375","-1.0029297","-0.2548828","-9.59375","-6.71875","11.53125"
"1573731502731","6","-0.4716797","-0.984375","-0.16894531","10.40625","-2.15625","9.5"
"1573731502731","7","-0.4267578","-0.93359375","-0.046875","17.6875","-5.6875","3.21875"
"1573731502731","8","-0.41601562","-0.85839844","-0.11621094","32.75","-12.84375","2.84375"
"1573731502731","9","-0.36816406","-0.7871094","-0.0625","23.1875","5.46875","-10.875"
"1573731503126","10","-0.38671875","-1.0097656","-0.09375","25.3125","33.0","-13.25"
"1573731503127","11","-0.2626953","-1.0537109","-9.765625E-4","36.96875","49.0625","-25.28125"
"1573731503127","12","-0.21972656","-0.9482422","0.025390625","30.0","36.0","-29.75"
"1573731503129","13","-0.17285156","-0.9560547","0.026367188","20.375","19.6875","-19.71875"
"1573731503129","14","-0.23632812","-0.9628906","0.080078125","16.34375","27.34375","-8.4375"
"1573731503129","15","-0.12695312","-0.9589844","0.064453125","-7.46875","8.78125","-5.25"
"1573731503130","16","-0.10644531","-0.9326172","0.049804688","0.15625","-3.875","-5.5"
"1573731503130","17","-0.16308594","-0.8574219","0.06347656","-5.5","5.40625","-5.4375"
"1573731503130","18","-0.17871094","-0.94140625","0.11035156","-9.28125","9.1875","-13.6875"
"1573731503130","19","-0.15625","-0.9550781","-0.045898438","-19.59375","-6.90625","-6.25"
"1573731503918","20","-0.2705078","-1.1025391","-0.00390625","-28.34375","-5.25","6.6875"
"1573731503918","21","-0.27246094","-0.9902344","-0.03515625","-32.4375","-19.4375","6.46875"
"1573731503918","22","-0.2734375","-0.98828125","-0.06640625","-22.46875","-8.8125","9.6875"
"1573731503919","23","-0.25976562","-0.8955078","-0.00390625","-33.34375","-0.25","6.8125"
"1573731503919","24","-0.30273438","-0.94140625","-0.048828125","-31.5","10.40625","9.03125"
"1573731503920","25","-0.29101562","-1.0058594","-0.09765625","-10.75","2.0","1.75"
"1573731503920","26","-0.25585938","-0.8925781","-0.15527344","-20.28125","-2.875","-4.03125"
"1573731503921","27","-0.12109375","-0.98535156","-0.18945312","-0.0625","-34.3125","4.25"
"1573731503921","28","-0.30566406","-0.89746094","-0.10253906","6.9375","-4.34375","7.375"
"1573731503921","29","-0.40527344","-0.8876953","-0.14355469","3.53125","-3.4375","11.8125"
"1573731504116","30","-0.1640625","-1.0166016","-0.06542969","8.59375","5.21875","0.40625"
"1573731504117","31","-0.23339844","-0.8847656","-0.016601562","16.90625","-17.53125","-8.4375"
"1573731504117","32","-0.25","-0.9628906","-0.076171875","-10.9375","0.78125","-6.71875"
"1573731504117","33","-0.21289062","-0.9921875","-0.052734375","-14.53125","-8.625","-5.75"
"1573731504118","34","-0.24707031","-1.0039062","-0.061523438","-8.25","-10.625","-0.875"
"1573731504118","35","-0.22753906","-0.96972656","-0.05078125","-13.8125","-10.75","-1.0"
"1573731504118","36","-0.21289062","-0.97265625","-0.08691406","-9.90625","-17.28125","1.75"
"1573731504119","37","-0.27539062","-1.0332031","-0.0703125","-13.1875","2.25","8.59375"
"1573731504120","38","-0.24804688","-1.0107422","-0.08691406","-10.5625","3.03125","-1.1875"
"1573731504120","39","-0.23046875","-0.9892578","-0.1171875","-13.375","1.8125","-3.125"
"1573731504319","40","-0.26464844","-1.0166016","-0.14746094","-11.625","3.03125","-5.03125"
"1573731504320","41","-0.2421875","-1.0351562","-0.15527344","-6.0625","3.59375","-0.875"
"1573731504320","42","-0.3076172","-1.1240234","-0.12792969","-3.25","0.0","1.03125"
"1573731504320","43","-0.27539062","-1.0595703","-0.12988281","-3.0625","-3.6875","-1.1875"
"1573731504320","44","-0.31933594","-1.1064453","-0.103515625","-0.25","2.4375","-4.21875"
"1573731504321","45","-0.24023438","-1.0390625","-0.125","-3.5625","-0.5625","-11.4375"
"1573731504321","46","-0.27246094","-1.0654297","-0.11816406","1.3125","-2.59375","-8.4375"
"1573731504321","47","-0.26464844","-1.0","-0.15039062","7.125","1.09375","-7.71875"
"1573731504321","48","-0.24804688","-1.0234375","-0.123046875","4.8125","-1.59375","-6.53125"
"1573731504322","49","-0.24902344","-1.0009766","-0.095703125","10.125","-4.21875","-5.15625"
"1573731504717","50","-0.21972656","-0.9482422","-0.10839844","-1.34375","-1.71875","-3.375"
"1573731504718","51","-0.22167969","-1.0126953","-0.107421875","-4.40625","2.59375","-5.25"
"1573731504718","52","-0.2109375","-0.96484375","-0.16210938","22.5","13.03125","-8.1875"
"1573731504718","53","-0.18457031","-0.99609375","-0.10058594","40.5625","9.03125","-0.3125"
"1573731504719","54","-0.28515625","-1.0380859","-0.00390625","39.71875","11.03125","1.5625"
"1573731504719","55","-0.265625","-1.0078125","-0.036132812","29.53125","15.625","-1.90625"
"1573731504719","56","-0.19921875","-1.0849609","-0.0068359375","22.5625","7.90625","0.46875"
"1573731504719","57","-0.25976562","-1.0136719","0.0068359375","30.3125","7.25","-4.15625"
"1573731504720","58","-0.22460938","-0.99609375","0.021484375","27.28125","15.1875","-4.03125"
"1573731504720","59","-0.22851562","-0.9824219","0.055664062","27.03125","8.28125","-1.34375"
"1573731505115","60","-0.21777344","-0.9501953","0.0546875","22.125","4.25","-0.25"
"1573731505116","61","-0.20898438","-0.9404297","0.08105469","13.40625","2.125","0.09375"
"1573731505116","62","-0.20214844","-0.90527344","0.07421875","3.9375","-1.96875","1.3125"
"1573731505116","63","-0.2705078","-0.94628906","0.1328125","-9.46875","-10.9375","-3.25"
"1573731505117","64","-0.20605469","-0.9580078","0.0390625","-8.375","-5.03125","-5.21875"
"1573731505117","65","-0.25390625","-0.95703125","0.061523438","-4.84375","4.1875","-0.9375"
"1573731505118","66","-0.22363281","-0.9433594","0.043945312","-2.28125","2.3125","1.09375"
"1573731505118","67","-0.19433594","-0.9785156","0.05078125","-5.25","3.59375","2.71875"
"1573731505118","68","-0.16601562","-0.9628906","0.051757812","-11.4375","-1.46875","2.3125"
"1573731505118","69","-0.17871094","-0.9580078","0.051757812","-19.0","-5.3125","1.875"
"1573731505911","70","-0.2578125","-0.9550781","0.07519531","-30.90625","-2.8125","2.90625"
"1573731505911","71","-0.3095703","-1.0048828","0.068359375","-44.75","-21.125","-4.65625"
"1573731505912","72","-0.25878906","-0.76464844","0.016601562","-58.90625","-42.6875","-18.03125"
"1573731505913","73","-0.21289062","-0.9111328","-0.076171875","-28.09375","6.15625","-9.71875"
"1573731505913","74","-0.21386719","-0.921875","-0.030273438","-28.53125","-12.40625","-4.71875"
"1573731505913","75","-0.099609375","-0.953125","-0.07128906","-22.71875","2.5","-5.375"
"1573731505914","76","-0.095703125","-0.93359375","-0.026367188","-7.875","-2.59375","0.09375"
"1573731505914","77","-0.10644531","-0.95703125","-0.064453125","-4.65625","-1.0625","7.8125"
"1573731505914","78","-0.16992188","-1.0498047","-0.10449219","-16.6875","-2.21875","5.34375"
"1573731505914","79","-0.203125","-1.0273438","-0.078125","-11.5","2.84375","2.1875"
"1573731506106","80","-0.17089844","-1.0185547","-0.046875","6.75","-16.9375","1.3125"
"1573731506106","81","-0.23339844","-0.93066406","-0.05859375","2.59375","-25.65625","5.78125"
"1573731506106","82","-0.28027344","-0.9628906","-0.09082031","-5.875","-0.8125","14.21875"
"1573731506107","83","-0.28125","-0.93066406","-0.10449219","-12.96875","-7.875","18.96875"
"1573731506107","84","-0.3408203","-0.92871094","-0.1328125","-12.09375","-8.625","22.5625"
"1573731506108","85","-0.31152344","-0.89160156","-0.13378906","-10.625","1.625","17.0"
"1573731506109","86","-0.3046875","-0.92578125","-0.13476562","-7.21875","7.3125","12.0625"
"1573731506109","87","-0.2685547","-0.9277344","-0.14550781","-6.78125","11.75","0.71875"
"1573731506110","88","-0.24316406","-0.921875","-0.13183594","-9.78125","5.28125","-4.34375"
"1573731506110","89","-0.2607422","-0.91015625","-0.10839844","-9.53125","5.34375","-4.65625"
"1573731506306","90","-0.2705078","-0.9296875","-0.12402344","-9.21875","12.3125","-5.375"
"1573731506306","91","-0.22070312","-0.9248047","-0.12207031","-2.09375","10.78125","-7.40625"
"1573731506306","92","-0.25195312","-0.921875","-0.12695312","4.9375","14.3125","-4.15625"
"1573731506307","93","-0.22949219","-0.9667969","-0.1484375","2.3125","16.65625","-4.21875"
"1573731506307","94","-0.21777344","-0.9375","-0.15820312","10.84375","8.46875","-3.1875"
"1573731506307","95","-0.26660156","-0.9394531","-0.123046875","12.625","17.875","4.9375"
"1573731506308","96","-0.22558594","-0.9736328","-0.13378906","4.8125","18.84375","2.90625"
"1573731506310","97","-0.26464844","-1.0","-0.115234375","11.59375","4.5625","3.90625"
"1573731506310","98","-0.30273438","-1.0009766","-0.09863281","15.1875","6.34375","2.0"
"1573731506311","99","-0.26171875","-0.9716797","-0.09667969","8.21875","14.21875","-1.1875"
"1573731506705","100","-0.25878906","-1.0029297","-0.09277344","11.15625","10.0625","-0.4375"
"1573731506705","101","-0.2578125","-0.96777344","-0.10058594","13.0","14.625","-2.6875"
"1573731506706","102","-0.25683594","-0.9736328","-0.09277344","13.84375","20.25","0.28125"
"1573731506706","103","-0.2548828","-1.0263672","-0.046875","10.84375","13.96875","4.6875"
"1573731506706","104","-0.24316406","-0.9785156","-0.06640625","16.34375","8.84375","2.25"
"1573731506706","105","-0.30371094","-1.0585938","-0.038085938","13.15625","8.46875","2.25"
"1573731506707","106","-0.28222656","-0.96875","-0.046875","18.96875","3.71875","-3.0625"
"1573731506707","107","-0.28027344","-1.0634766","0.017578125","20.25","0.21875","0.09375"
"1573731506707","108","-0.265625","-0.96777344","-0.0068359375","11.34375","-1.25","-5.09375"
"1573731506709","109","-0.3046875","-1.0039062","-0.040039062","5.34375","3.03125","-1.34375"
"1573731507103","110","-0.2783203","-0.9765625","-0.0390625","15.3125","8.46875","1.875"
"1573731507104","111","-0.27929688","-0.98828125","0.0126953125","28.1875","3.78125","3.40625"
"1573731507104","112","-0.30078125","-1.0273438","0.04296875","34.15625","5.90625","2.3125"
"1573731507104","113","-0.25976562","-0.9863281","0.0546875","28.71875","-6.90625","2.78125"
"1573731507105","114","-0.28515625","-1.0478516","0.13476562","15.78125","-7.65625","1.5"
"1573731507105","115","-0.32421875","-0.9951172","0.14453125","-9.125","-15.75","-2.46875"
"1573731507105","116","-0.23828125","-1.0273438","0.060546875","1.3125","-30.53125","-3.5625"
"1573731507105","117","-0.26171875","-0.99316406","0.10058594","0.90625","-19.5","-3.5625"
"1573731507106","118","-0.2763672","-0.984375","0.09863281","-4.15625","-15.15625","-0.6875"
"1573731507106","119","-0.2861328","-0.96875","0.08105469","-1.90625","-13.625","-0.25"
"1573731507499","120","-0.2607422","-0.96191406","0.09375","2.65625","-15.53125","3.34375"
"1573731507500","121","-0.27734375","-0.9746094","0.078125","7.0","1.8125","1.8125"
"1573731507500","122","-0.25878906","-0.9970703","0.13867188","6.9375","-2.09375","-0.1875"
"1573731507501","123","-0.22265625","-0.98046875","0.111328125","2.71875","-8.5625","-3.75"
"1573731507501","124","-0.18261719","-1.0097656","0.11621094","-10.28125","-13.625","-1.3125"
"1573731507501","125","-0.25195312","-0.9970703","0.13671875","-21.25","-14.46875","6.6875"
"1573731507501","126","-0.3203125","-0.98339844","0.109375","-11.84375","-6.1875","3.21875"
"1573731507502","127","-0.31445312","-0.9472656","0.09472656","-14.53125","7.1875","4.75"
"1573731507502","128","-0.30859375","-0.9658203","0.08984375","-4.96875","5.1875","2.84375"
"1573731507502","129","-0.29785156","-0.9628906","0.08496094","-2.40625","6.03125","-2.46875"
"1573731507896","130","-0.29589844","-0.9736328","0.0625","-6.0625","8.65625","-2.28125"
"1573731507896","131","-0.27246094","-0.9667969","0.078125","-8.5","9.1875","-1.0625"
"1573731507896","132","-0.29101562","-1.0283203","0.053710938","-16.3125","6.75","-0.875"
"1573731507897","133","-0.2919922","-1.0527344","0.068359375","-20.03125","8.96875","1.3125"
"1573731507897","134","-0.30566406","-1.0429688","0.0625","-16.0625","5.28125","0.03125"
"1573731507897","135","-0.30078125","-1.0224609","0.038085938","-14.84375","5.84375","0.0"
"1573731507898","136","-0.25","-0.99902344","0.022460938","-23.28125","6.28125","-1.53125"
"1573731507898","137","-0.2734375","-0.9404297","0.017578125","-15.03125","1.4375","3.90625"
"1573731507898","138","-0.27246094","-0.92578125","-0.0107421875","-20.875","2.59375","3.90625"
"1573731507898","139","-0.2783203","-0.9199219","-0.02734375","-18.5","0.03125","5.90625"
"1573731508294","140","-0.28320312","-0.89746094","-0.03125","-17.15625","1.6875","5.78125"
"1573731508295","141","-0.296875","-0.9160156","-0.045898438","-17.71875","-1.96875","1.625"
"1573731508295","142","-0.25976562","-0.96191406","-0.091796875","-21.75","-8.9375","-1.53125"
"1573731508295","143","-0.2109375","-0.9238281","-0.051757812","-26.875","-0.8125","-10.28125"
"1573731508295","144","-0.29492188","-0.93359375","-0.036132812","-15.625","-9.65625","-6.125"
"1573731508297","145","-0.24804688","-0.84472656","-0.080078125","-21.9375","-1.90625","-17.21875"
"1573731508297","146","-0.24121094","-0.87109375","-0.06738281","-3.125","-4.53125","-12.28125"
"1573731508298","147","-0.23730469","-0.8779297","-0.04296875","6.5","-4.96875","-13.375"
"1573731508298","148","-0.24316406","-0.95214844","-0.09375","5.34375","2.0625","-13.8125"
"1573731508298","149","-0.23339844","-0.96484375","-0.07421875","7.125","2.0625","-6.0625"
"1573731508692","150","-0.26660156","-0.9560547","-0.06542969","3.53125","4.75","-4.09375"
"1573731508692","151","-0.23242188","-0.9394531","-0.078125","0.46875","5.21875","-3.90625"
"1573731508692","152","-0.19921875","-0.93847656","-0.060546875","5.40625","5.90625","-3.6875"
"1573731508693","153","-0.17773438","-0.9814453","-0.08203125","3.78125","8.59375","0.71875"
"1573731508693","154","-0.23828125","-1.0615234","-0.09082031","2.65625","10.71875","7.6875"
"1573731508693","155","-0.26757812","-1.0224609","-0.0625","8.90625","15.1875","3.65625"
"1573731508693","156","-0.23046875","-0.9501953","-0.028320312","15.1875","12.5","2.25"
"1573731508696","157","-0.21582031","-0.94921875","-0.057617188","13.65625","12.875","1.5625"
"1573731508696","158","-0.2265625","-0.95214844","-0.029296875","15.84375","17.5","5.21875"
"1573731508696","159","-0.22167969","-0.9394531","-0.025390625","12.5","12.25","3.34375"
"1573731509090","160","-0.23828125","-0.9140625","-0.036132812","11.9375","16.90625","4.5625"
"1573731509090","161","-0.2607422","-0.90722656","-0.01953125","1.03125","22.5625","4.4375"
"1573731509091","162","-0.29492188","-0.97265625","-0.041992188","6.09375","28.125","0.28125"
"1573731509091","163","-0.24609375","-1.0146484","-0.0087890625","1.6875","10.71875","-1.84375"
"1573731509091","164","-0.2265625","-0.96191406","-0.038085938","1.28125","-7.21875","0.65625"
"1573731509091","165","-0.29296875","-0.9326172","0.009765625","-8.6875","-3.0","-1.25"
"1573731509092","166","-0.22949219","-0.9091797","0.0087890625","-0.1875","-1.96875","1.75"
"1573731509092","167","-0.25976562","-0.88964844","0.01171875","1.4375","3.78125","2.78125"
"1573731509092","168","-0.2939453","-0.9140625","0.029296875","-4.71875","13.34375","2.4375"
"1573731509094","169","-0.31054688","-0.9160156","0.016601562","-1.0625","13.0","2.125"
"1573731509486","170","-0.2421875","-0.9667969","-0.09082031","-2.15625","1.9375","-4.21875"
"1573731509487","171","-0.2705078","-0.9472656","-0.026367188","-7.03125","-4.71875","-2.15625"
"1573731509487","172","-0.28027344","-0.9638672","-0.018554688","-1.1875","0.34375","1.6875"
"1573731509487","173","-0.24023438","-0.9794922","0.005859375","-2.6875","-0.1875","2.84375"
"1573731509488","174","-0.2763672","-0.98046875","0.078125","26.71875","4.6875","1.625"
"1573731509488","175","-0.29003906","-1.0996094","-0.022460938","28.0625","2.96875","-9.84375"
"1573731509488","176","-0.06933594","-0.8613281","-0.068359375","40.4375","-14.53125","-11.96875"
"1573731509489","177","-0.2783203","-0.9716797","0.15527344","20.25","5.59375","2.84375"
"1573731509489","178","-0.2529297","-0.9355469","0.07714844","1.3125","2.78125","-7.65625"
"1573731509489","179","-0.20996094","-0.9667969","0.041992188","-16.25","-8.375","-9.0"
"1573731510082","180","-0.22949219","-0.9560547","0.051757812","-10.5625","-12.40625","-5.09375"
"1573731510084","181","-0.24609375","-0.9189453","0.049804688","-6.96875","-12.21875","-5.9375"
"1573731510084","182","-0.24023438","-0.9550781","0.02734375","-15.28125","-10.28125","-4.15625"
"1573731510084","183","-0.24902344","-1.0166016","9.765625E-4","-22.28125","-2.28125","-3.8125"
"1573731510085","184","-0.26171875","-1.0712891","0.03125","-15.21875","1.28125","-6.375"
"1573731510085","185","-0.23925781","-1.0498047","0.013671875","-0.8125","-4.84375","-7.28125"
"1573731510085","186","-0.265625","-1.1181641","0.022460938","4.6875","-5.625","-6.71875"
"1573731510085","187","-0.24511719","-1.0615234","0.0048828125","-0.9375","-4.84375","-3.96875"
"1573731510086","188","-0.2998047","-1.171875","0.046875","3.21875","4.8125","-4.34375"
"1573731510086","189","-0.24511719","-1.1298828","0.025390625","11.21875","-5.15625","-3.125"
"1573731510282","190","-0.2998047","-1.1787109","0.07714844","5.53125","-3.1875","3.90625"
"1573731510282","191","-0.25976562","-1.0810547","0.047851562","13.78125","-13.0625","11.03125"
"1573731510282","192","-0.23242188","-1.078125","0.0703125","2.96875","-3.75","5.0625"
"1573731510284","193","-0.19628906","-0.9814453","0.059570312","-0.4375","-3.5","2.0625"
"1573731510284","194","-0.24804688","-1.0400391","0.078125","-10.6875","2.0625","2.5"
"1573731510285","195","-0.22949219","-1.0087891","0.04296875","-6.25","0.28125","1.5"
"1573731510285","196","-0.23925781","-1.0048828","0.057617188","-12.65625","3.65625","2.125"
"1573731510285","197","-0.23046875","-0.9736328","0.034179688","-11.96875","-1.71875","2.0"
"1573731510285","198","-0.24707031","-0.984375","0.038085938","-14.3125","-1.125","3.71875"
"1573731510286","199","-0.2685547","-0.9716797","0.025390625","-14.34375","-1.0","7.125"
"1573731510681","200","-0.23730469","-0.99902344","0.00390625","-19.0625","-3.875","8.15625"
"1573731510682","201","-0.2783203","-0.9794922","-0.005859375","-16.25","-5.5625","4.0625"
"1573731510682","202","-0.31152344","-0.9736328","-0.026367188","-12.90625","-1.78125","6.46875"
"1573731510682","203","-0.2685547","-0.96484375","-0.038085938","-12.65625","0.09375","4.125"
"1573731510682","204","-0.2548828","-0.9511719","-0.028320312","-10.5","-0.0625","-1.46875"
"1573731510684","205","-0.265625","-0.9033203","-0.046875","-2.9375","-1.125","-6.1875"
"1573731510684","206","-0.25097656","-0.9267578","-0.016601562","1.3125","1.625","-9.28125"
"1573731510684","207","-0.1875","-0.92285156","-0.005859375","11.9375","3.34375","-10.15625"
"1573731510685","208","-0.1796875","-0.92285156","0.005859375","20.90625","6.875","-8.1875"
"1573731510685","209","-0.19921875","-0.95214844","0.013671875","25.5","9.9375","-4.28125"
"1573731511077","210","-0.21679688","-0.9736328","0.026367188","27.34375","11.8125","0.09375"
"1573731511078","211","-0.23144531","-1.0097656","0.06640625","23.0","13.65625","1.6875"
"1573731511078","212","-0.24804688","-0.96777344","0.05859375","20.5625","11.8125","0.21875"
"1573731511078","213","-0.20703125","-0.953125","0.07421875","13.0","10.84375","-5.75"
"1573731511079","214","-0.21582031","-0.93359375","0.08984375","16.65625","5.90625","-7.875"
"1573731511079","215","-0.23339844","-0.8544922","0.0390625","-3.875","-13.1875","-7.40625"
"1573731511079","216","-0.16894531","-0.91796875","0.07421875","-16.125","-10.5625","-6.375"
"1573731511081","217","-0.1640625","-0.9277344","0.109375","-14.0","-2.75","-5.3125"
"1573731511082","218","-0.19628906","-0.9550781","0.048828125","-7.09375","-9.65625","-3.5625"
"1573731511082","219","-0.234375","-0.94140625","0.08300781","-5.21875","2.5","-2.15625"
"1573731511671","220","-0.23144531","-0.9482422","0.041992188","0.53125","1.6875","-1.34375"
"1573731511672","221","-0.25195312","-0.9482422","0.053710938","-2.53125","7.4375","-4.96875"
"1573731511672","222","-0.25097656","-0.95996094","0.022460938","-5.03125","11.53125","-9.65625"
"1573731511672","223","-0.25097656","-0.98828125","0.08105469","-0.9375","24.46875","-8.875"
"1573731511672","224","-0.23339844","-0.96972656","0.091796875","2.65625","9.5","-1.34375"
"1573731511673","225","-0.20800781","-0.99902344","0.08886719","-6.78125","6.40625","6.21875"
"1573731511673","226","-0.17773438","-0.9941406","0.07714844","-18.9375","0.03125","9.9375"
"1573731511673","227","-0.16992188","-0.9111328","-0.009765625","-13.3125","-7.71875","7.5625"
"1573731511673","228","-0.20898438","-0.82910156","0.0087890625","-1.71875","6.03125","6.34375"
"1573731511675","229","-0.19140625","-0.9267578","9.765625E-4","-10.75","6.625","7.125"
"1573731511871","230","-0.22363281","-0.9511719","0.060546875","-3.0","6.21875","9.8125"
"1573731511871","231","-0.24609375","-0.91308594","0.032226562","-2.40625","7.0625","6.03125"
"1573731511872","232","-0.29296875","-0.92089844","0.017578125","2.375","15.3125","4.4375"
"1573731511872","233","-0.22753906","-0.8935547","0.040039062","5.34375","22.6875","-1.3125"
"1573731511872","234","-0.25683594","-0.93652344","0.06738281","16.84375","11.8125","-1.0625"
"1573731511872","235","-0.234375","-0.9404297","0.057617188","16.15625","7.5","-6.125"
"1573731511873","236","-0.19921875","-1.0087891","0.08691406","16.09375","2.0","-2.15625"
"1573731511873","237","-0.21679688","-0.89160156","0.038085938","4.5","-5.6875","-8.4375"
"1573731511873","238","-0.24511719","-1.0136719","0.045898438","-4.53125","-1.78125","1.3125"
"1573731511874","239","-0.25878906","-0.9111328","0.038085938","-1.34375","-2.40625","3.78125"
"1573731512665","240","-0.24902344","-0.9707031","0.052734375","-17.28125","-5.09375","3.46875"
"1573731512667","241","-0.25585938","-1.0058594","0.07519531","-6.71875","-3.375","2.65625"
"1573731512667","242","-0.2685547","-0.9707031","0.087890625","-1.53125","-8.5","0.40625"
"1573731512667","243","-0.27929688","-1.0175781","0.052734375","-13.3125","-4.03125","2.3125"
"1573731512668","244","-0.2783203","-1.0195312","0.041015625","-15.8125","-5.3125","5.53125"
"1573731512668","245","-0.2705078","-0.9873047","0.028320312","-13.0625","-6.84375","5.53125"
"1573731512668","246","-0.2783203","-0.98828125","0.016601562","-15.9375","-10.21875","4.25"
"1573731512669","247","-0.30566406","-0.9951172","0.0068359375","-3.625","-3.96875","3.09375"
"1573731512669","248","-0.2607422","-0.94921875","0.01953125","0.53125","3.34375","-3.625"
"1573731512669","249","-0.24902344","-1.015625","0.06347656","-8.9375","2.78125","-4.46875"
"1573731512863","250","-0.26464844","-0.9951172","0.043945312","-7.875","0.84375","-5.3125"
"1573731512863","251","-0.25390625","-1.0253906","0.0234375","-14.84375","0.0","-0.3125"
"1573731512864","252","-0.26757812","-1.0820312","0.0","-7.34375","-1.96875","0.46875"
"1573731512865","253","-0.26367188","-1.0771484","0.005859375","-10.09375","-5.375","-0.25"
"1573731512865","254","-0.30664062","-1.1591797","0.013671875","-8.0625","-6.4375","-4.21875"
"1573731512865","255","-0.28320312","-1.15625","0.024414062","1.6875","-13.8125","-0.875"
"1573731512865","256","-0.2939453","-1.1796875","0.03515625","17.0","-20.46875","5.53125"
"1573731512866","257","-0.2529297","-1.0751953","0.028320312","26.59375","-31.875","7.90625"
"1573731512866","258","-0.18066406","-0.99316406","0.06933594","-1.96875","-11.6875","2.65625"
"1573731512866","259","-0.296875","-0.9814453","0.021484375","6.15625","-9.40625","6.15625"
"1573731513064","260","-0.3232422","-0.9160156","0.03515625","2.3125","3.21875","6.6875"
"1573731513064","261","-0.2939453","-1.0039062","0.06738281","-4.46875","-2.40625","2.0"
"1573731513065","262","-0.265625","-0.9970703","0.0048828125","9.9375","13.40625","5.0625"
"1573731513065","263","-0.30859375","-0.98535156","0.078125","13.28125","7.5","7.8125"
"1573731513065","264","-0.29296875","-0.9638672","0.07910156","11.40625","5.90625","7.6875"
"1573731513066","265","-0.27929688","-0.93847656","0.07324219","13.15625","4.3125","6.03125"
"1573731513067","266","-0.328125","-0.9345703","0.09277344","9.5","6.21875","4.0"
"1573731513068","267","-0.3046875","-0.9238281","0.083984375","8.71875","5.90625","2.65625"
"1573731513068","268","-0.29589844","-0.9404297","0.09375","-0.125","8.65625","5.34375"
"1573731513068","269","-0.29589844","-0.9394531","0.08984375","-5.9375","9.625","0.34375"
"1573731513461","270","-0.32714844","-0.9375","0.08203125","3.59375","7.6875","0.53125"
"1573731513462","271","-0.3017578","-0.89746094","0.1015625","4.1875","7.25","-1.1875"
"1573731513462","272","-0.2841797","-0.91503906","0.099609375","1.5625","5.46875","-10.40625"
"1573731513462","273","-0.27539062","-0.9765625","0.12402344","14.875","-2.40625","-5.8125"
"1573731513462","274","-0.26757812","-0.9814453","0.123046875","9.375","3.21875","-11.4375"
"1573731513463","275","-0.2607422","-0.921875","0.13867188","-11.0","21.40625","-14.84375"
"1573731513463","276","-0.21875","-0.93847656","0.06933594","-34.125","28.65625","-25.21875"
"1573731513464","277","-0.20019531","-0.88964844","0.12890625","-1.59375","29.40625","-20.09375"
"1573731513464","278","-0.24902344","-0.9580078","0.09863281","-3.5","21.46875","-12.53125"
"1573731513465","279","-0.23632812","-0.9716797","0.08300781","-6.96875","19.09375","-12.71875"
"1573731513859","280","-0.21777344","-0.9785156","0.10449219","-3.3125","2.4375","-9.28125"
"1573731513860","281","-0.21972656","-0.8847656","0.0625","-1.0","-1.46875","-4.78125"
"1573731513860","282","-0.24804688","-0.8935547","0.1015625","-7.53125","-6.25","-0.8125"
"1573731513860","283","-0.24804688","-0.9511719","0.051757812","-22.15625","-10.9375","1.75"
"1573731513861","284","-0.26464844","-0.9707031","0.053710938","-17.28125","-3.75","-0.25"
"1573731513861","285","-0.2734375","-0.94628906","0.029296875","-17.84375","-0.375","-3.75"
"1573731513861","286","-0.24804688","-0.95214844","0.032226562","-12.03125","-1.53125","-3.6875"
"1573731513861","287","-0.24511719","-0.97558594","0.0126953125","-10.03125","5.1875","-5.9375"
"1573731513862","288","-0.24023438","-0.96972656","0.0068359375","-15.34375","6.09375","-3.5"
"1573731513863","289","-0.24414062","-0.9863281","0.041992188","-17.53125","6.40625","-3.5625"
"1573731514257","290","-0.25097656","-0.9482422","-0.016601562","-13.0625","5.71875","-2.59375"
"1573731514258","291","-0.20507812","-0.93359375","-0.021484375","-14.78125","6.625","0.34375"
"1573731514258","292","-0.22558594","-0.9111328","0.005859375","-13.9375","3.59375","4.3125"
"1573731514258","293","-0.24023438","-0.85058594","-0.051757812","-9.21875","10.65625","9.375"
"1573731514258","294","-0.2529297","-0.85546875","-0.09277344","-19.84375","14.875","12.0625"
"1573731514259","295","-0.3173828","-1.0839844","-0.09082031","-13.8125","18.0","11.15625"
"1573731514259","296","-0.22558594","-0.9765625","-0.095703125","-19.0625","5.84375","2.65625"
"1573731514259","297","-0.22363281","-0.9394531","-0.09082031","0.59375","-9.21875","2.25"
"1573731514259","298","-0.2861328","-0.8808594","-0.0546875","4.6875","-1.0","9.03125"
"1573731514260","299","-0.16992188","-0.8701172","-0.10253906","-3.0625","-9.78125","0.0"
"1573731515050","300","-0.3359375","-0.9785156","-0.021484375","-7.34375","9.09375","0.53125"
"1573731515051","301","-0.25878906","-1.0","-0.01953125","-8.5625","1.3125","-6.0"
"1573731515052","302","-0.21289062","-0.9628906","-0.044921875","-7.15625","-4.96875","-4.28125"
"1573731515052","303","-0.26953125","-0.99902344","-0.056640625","-14.125","-0.625","-2.875"
"1573731515053","304","-0.24023438","-0.9003906","-0.1015625","-13.8125","-5.09375","-0.875"
"1573731515053","305","-0.2734375","-0.9902344","-0.10058594","-6.25","-1.84375","4.0"
"1573731515053","306","-0.27539062","-0.921875","-0.12890625","-0.0625","-7.40625","1.21875"
"1573731515054","307","-0.26367188","-1.0029297","-0.0546875","3.03125","-3.90625","7.125"
"1573731515054","308","-0.23242188","-0.9199219","-0.09667969","-11.1875","1.9375","0.28125"
"1573731515054","309","-0.24707031","-0.87597656","-0.10253906","-10.21875","-2.40625","-1.59375"
"1573731515248","310","-0.23339844","-0.96191406","-0.09472656","-17.15625","2.59375","0.46875"
"1573731515249","311","-0.29003906","-0.9707031","-0.12890625","-13.1875","3.53125","-3.5"
"1573731515249","312","-0.26464844","-0.95214844","-0.16601562","-5.5625","3.9375","-0.8125"
"1573731515250","313","-0.2783203","-1.0703125","-0.13574219","-2.28125","0.46875","0.53125"
"1573731515251","314","-0.26660156","-0.96875","-0.119140625","13.34375","-3.0625","-3.625"
"1573731515251","315","-0.30371094","-1.0253906","-0.1328125","15.0","-1.59375","-1.3125"
"1573731515252","316","-0.31347656","-1.0058594","-0.0859375","27.34375","1.3125","-4.21875"
"1573731515252","317","-0.3095703","-1.0283203","-0.08984375","22.375","8.59375","-6.96875"
"1573731515252","318","-0.31054688","-1.0605469","-0.06738281","32.34375","15.5625","-8.75"
"1573731515252","319","-0.328125","-1.1142578","-0.047851562","33.96875","9.5625","-3.75"
"1573731515449","320","-0.28027344","-1.1445312","0.0126953125","45.625","6.15625","0.78125"
"1573731515449","321","-0.28125","-1.1767578","0.049804688","42.40625","-4.03125","7.5"
"1573731515449","322","-0.3408203","-1.1318359","0.10839844","46.0","-0.4375","8.71875"
"1573731515450","323","-0.31347656","-1.0615234","0.08691406","41.25","-7.46875","5.0625"
"1573731515450","324","-0.20703125","-0.9511719","0.11230469","32.34375","-5.6875","-1.65625"
"1573731515450","325","-0.2783203","-0.9658203","0.15332031","15.3125","2.65625","-3.1875"
"1573731515451","326","-0.26464844","-1.0019531","0.16601562","10.53125","-3.125","-3.25"
"1573731515451","327","-0.23730469","-0.96777344","0.15820312","8.21875","-8.0","-4.46875"
"1573731515451","328","-0.2607422","-0.96972656","0.14550781","10.96875","-8.9375","-3.75"
"1573731515451","329","-0.28710938","-0.95214844","0.16503906","18.71875","-6.125","0.78125"
"1573731515847","330","-0.28320312","-0.97558594","0.18457031","7.1875","-1.25","2.0"
"1573731515847","331","-0.3095703","-0.96972656","0.17871094","-0.5625","0.65625","-0.75"
"1573731515848","332","-0.28515625","-0.92285156","0.16796875","-6.96875","3.03125","-2.53125"
"1573731515848","333","-0.25683594","-0.8935547","0.16894531","-6.90625","0.34375","-2.28125"
"1573731515848","334","-0.24902344","-0.83496094","0.13867188","-9.125","-0.4375","2.0"
"1573731515848","335","-0.25878906","-0.8613281","0.19238281","-21.6875","3.34375","2.78125"
"1573731515849","336","-0.27539062","-0.8496094","0.115234375","-60.625","-5.5","5.90625"
"1573731515850","337","-0.2529297","-0.8925781","0.0859375","-57.5625","-7.875","5.78125"
"1573731515850","338","-0.3251953","-0.9580078","0.056640625","-38.46875","-1.34375","4.0625"
"1573731515850","339","-0.26464844","-0.9667969","0.021484375","-29.8125","-0.0625","1.3125"
"1573731516248","340","-0.23730469","-0.95703125","0.021484375","-24.90625","-3.1875","0.28125"
"1573731516248","341","-0.28027344","-0.9951172","0.0068359375","-16.25","-0.6875","-0.1875"
"1573731516248","342","-0.24609375","-0.9111328","-0.013671875","-15.625","-2.09375","4.0"
"1573731516249","343","-0.25","-0.9169922","0.005859375","-16.125","-1.65625","5.65625"
"1573731516249","344","-0.21972656","-0.91015625","0.00390625","-16.375","-0.875","1.3125"
"1573731516249","345","-0.2421875","-0.9199219","-0.0048828125","-11.71875","-5.3125","-3.0"
"1573731516250","346","-0.24316406","-1.0224609","0.0107421875","0.65625","-7.9375","-3.6875"
"1573731516250","347","-0.23339844","-0.9638672","0.0","-3.0","-8.625","-6.71875"
"1573731516250","348","-0.26464844","-0.99316406","-0.0029296875","-10.09375","-4.40625","-8.4375"
"1573731516251","349","-0.2705078","-0.95214844","-0.03125","-17.78125","-3.375","-4.90625"
"1573731516642","350","-0.30078125","-0.9580078","-0.052734375","-28.40625","-3.1875","1.09375"
"1573731516643","351","-0.30566406","-0.93066406","-0.06738281","-28.03125","-2.8125","-1.65625"
"1573731516643","352","-0.2685547","-0.9326172","-0.07128906","-19.0","-2.53125","-0.25"
"1573731516643","353","-0.27734375","-0.9433594","-0.08496094","-16.5625","0.40625","-2.9375"
"1573731516644","354","-0.2919922","-0.9746094","-0.087890625","-7.09375","0.84375","-0.6875"
"1573731516644","355","-0.2890625","-0.9511719","-0.09667969","-5.9375","-1.34375","-1.0"
"1573731516645","356","-0.28027344","-0.96875","-0.0703125","-1.25","2.375","-1.0625"
"1573731516645","357","-0.25976562","-0.953125","-0.119140625","-1.125","11.53125","-1.84375"
"1573731516645","358","-0.23925781","-0.9658203","-0.09277344","-2.75","6.03125","2.96875"
"1573731516645","359","-0.21191406","-0.953125","-0.1171875","13.84375","4.875","6.46875"
"1573731517039","360","-0.19433594","-0.9199219","-0.11328125","27.875","0.90625","12.375"
"1573731517041","361","-0.28125","-0.94921875","-0.052734375","33.625","17.0625","14.5"
"1573731517041","362","-0.28125","-0.9140625","-0.041015625","29.59375","18.34375","6.21875"
"1573731517042","363","-0.29589844","-0.9199219","-0.024414062","25.0625","21.09375","0.84375"
"1573731517042","364","-0.2939453","-0.9277344","-0.013671875","11.15625","18.65625","-3.4375"
"1573731517042","365","-0.2861328","-0.8847656","-0.029296875","8.59375","4.6875","-0.125"
"1573731517042","366","-0.3310547","-0.9404297","0.0126953125","6.5625","5.78125","3.71875"
"1573731517043","367","-0.29785156","-0.8808594","0.0107421875","6.5625","8.21875","1.3125"
"1573731517043","368","-0.2685547","-0.8691406","0.034179688","17.4375","6.15625","-1.90625"
"1573731517043","369","-0.29296875","-0.92089844","0.06347656","20.6875","5.125","-4.71875"
"1573731517636","370","-0.26757812","-0.92089844","0.07128906","15.125","-0.5","-1.71875"
"1573731517637","371","-0.30371094","-0.94628906","0.06738281","7.3125","-8.625","-6.375"
"1573731517637","372","-0.28515625","-0.9238281","0.04296875","10.3125","-31.4375","-9.90625"
"1573731517638","373","-0.21484375","-0.99121094","0.053710938","19.75","-17.84375","-6.53125"
"1573731517639","374","-0.2705078","-0.90234375","0.13183594","6.9375","-14.0","0.84375"
"1573731517639","375","-0.28222656","-0.9580078","0.072265625","5.28125","-11.0625","1.21875"
"1573731517639","376","-0.2919922","-0.96484375","0.11816406","-0.6875","-2.875","-1.3125"
"1573731517640","377","-0.3046875","-0.9707031","0.06640625","-4.34375","-2.34375","-5.9375"
"1573731517640","378","-0.29589844","-1.0019531","0.109375","-2.625","6.625","-1.1875"
"1573731517640","379","-0.27929688","-1.0234375","0.09472656","-2.15625","3.71875","1.75"
"1573731517834","380","-0.31933594","-1.0087891","0.083984375","-10.34375","3.84375","-0.875"
"1573731517835","381","-0.30859375","-1.0371094","0.09375","-9.0","5.71875","-1.40625"
"1573731517835","382","-0.2998047","-1.0703125","0.12597656","-4.40625","4.5","-5.5625"
"1573731517835","383","-0.29589844","-1.0966797","0.099609375","-9.59375","4.125","-5.875"
"1573731517835","384","-0.30664062","-1.1230469","0.1015625","-11.90625","2.96875","-2.34375"
"1573731517836","385","-0.26171875","-1.1396484","0.07910156","-0.5625","-1.78125","0.46875"
"1573731517836","386","-0.30078125","-1.09375","0.13769531","-1.125","-8.5625","10.90625"
"1573731517836","387","-0.30371094","-1.0644531","0.0625","-9.0625","-11.6875","9.8125"
"1573731517837","388","-0.26757812","-0.9941406","0.083984375","5.46875","-9.0","6.15625"
"1573731517837","389","-0.27929688","-0.91015625","0.09277344","-11.0","0.0","-0.1875"
"1573731518232","390","-0.33398438","-0.95703125","0.040039062","-20.03125","-0.9375","-4.40625"
"1573731518233","391","-0.27441406","-0.9433594","0.057617188","-23.03125","-1.78125","-11.625"
"1573731518233","392","-0.26757812","-0.9511719","0.021484375","-3.4375","2.3125","-8.3125"
"1573731518233","393","-0.2578125","-0.9746094","0.001953125","-6.90625","1.5","-6.65625"
"1573731518234","394","-0.29785156","-0.9902344","0.06738281","4.9375","-0.375","-5.875"
"1573731518234","395","-0.2705078","-1.0107422","0.041992188","-10.34375","1.5625","-8.0"
"1573731518234","396","-0.22265625","-0.9746094","0.038085938","-16.875","-1.90625","-5.9375"
"1573731518235","397","-0.27246094","-0.99609375","0.029296875","-17.78125","-3.5","-3.0625"
"1573731518236","398","-0.30078125","-0.95214844","0.02734375","-20.46875","2.84375","2.84375"
"1573731518236","399","-0.24707031","-0.9824219","0.0078125","-18.03125","2.1875","-1.46875"
"1573731518630","400","-0.2626953","-0.9355469","0.01171875","-6.3125","-3.5625","-3.5625"
"1573731518630","401","-0.22949219","-0.9921875","-0.029296875","-7.65625","-4.65625","-2.75"
"1573731518631","402","-0.20410156","-1.0068359","0.0029296875","-5.3125","-6.59375","-1.25"
"1573731518631","403","-0.26660156","-0.9716797","-0.018554688","0.34375","-2.28125","1.5625"
"1573731518631","404","-0.22753906","-0.9824219","-0.030273438","0.15625","1.5625","2.84375"
"1573731518631","405","-0.2685547","-0.99316406","-0.0078125","6.875","5.0625","5.125"
"1573731518632","406","-0.25683594","-0.9355469","-0.017578125","15.96875","6.6875","6.09375"
"1573731518632","407","-0.2734375","-0.93066406","0.016601562","18.96875","3.59375","3.46875"
"1573731518632","408","-0.2734375","-0.90625","0.0126953125","23.4375","9.25","0.0"
"1573731518634","409","-0.26367188","-0.9326172","0.026367188","30.3125","9.5","-4.34375"
"1573731519026","410","-0.24804688","-0.96191406","0.059570312","26.65625","8.59375","-4.09375"
"1573731519026","411","-0.27539062","-0.9482422","0.07324219","24.34375","13.96875","-0.9375"
"1573731519026","412","-0.19824219","-1.0166016","0.11621094","8.46875","9.25","-1.84375"
"1573731519027","413","-0.21386719","-0.9824219","0.09472656","12.4375","-0.125","-9.65625"
"1573731519027","414","-0.20605469","-0.93359375","0.095703125","9.9375","3.34375","-7.21875"
"1573731519027","415","-0.2265625","-0.8691406","0.10546875","12.1875","6.5625","-3.25"
"1573731519027","416","-0.24023438","-0.94628906","0.115234375","6.6875","8.28125","-4.90625"
"1573731519028","417","-0.25683594","-0.9355469","0.13183594","6.8125","7.125","-3.1875"
"1573731519028","418","-0.28027344","-0.9716797","0.09375","16.34375","9.125","2.65625"
"1573731519028","419","-0.2734375","-0.92285156","0.17089844","12.75","16.28125","1.21875"
"1573731519425","420","-0.26367188","-0.9169922","0.1484375","-10.40625","9.3125","2.90625"
"1573731519426","421","-0.22363281","-0.9873047","0.12109375","-13.3125","2.1875","1.5"
"1573731519426","422","-0.23046875","-0.97753906","0.1484375","-10.75","1.5","-0.375"
"1573731519427","423","-0.26367188","-0.94628906","0.12988281","2.65625","4.875","-3.5625"
"1573731519427","424","-0.24023438","-0.93652344","0.11621094","-2.34375","12.125","-7.03125"
"1573731519427","425","-0.2685547","-0.9404297","0.11816406","-0.25","6.75","-3.1875"
"1573731519428","426","-0.29101562","-0.9326172","0.10644531","-11.625","7.96875","3.59375"
"1573731519428","427","-0.24804688","-0.890625","0.111328125","-23.625","10.65625","7.5"
"1573731519428","428","-0.25976562","-0.90234375","0.06933594","-19.78125","20.0625","7.5625"
"1573731519428","429","-0.29589844","-0.9628906","0.08886719","-22.34375","24.28125","-2.8125"
"1573731519822","430","-0.25683594","-0.9814453","0.033203125","-4.28125","3.84375","-1.59375"
"1573731519823","431","-0.18164062","-0.89160156","0.06933594","-6.84375","-10.40625","-4.59375"
"1573731519823","432","-0.2607422","-0.9189453","0.076171875","-15.9375","-0.4375","2.125"
"1573731519824","433","-0.2607422","-0.94921875","0.078125","-12.34375","1.75","2.125"
"1573731519825","434","-0.22460938","-0.93359375","0.021484375","-13.375","0.09375","-2.28125"
"1573731519825","435","-0.2998047","-0.93359375","0.045898438","-11.0","3.15625","3.78125"
"1573731519825","436","-0.27246094","-0.9609375","0.01953125","-15.40625","5.84375","0.40625"
"1573731519826","437","-0.25976562","-0.9580078","-0.0078125","-13.5","1.4375","-4.21875"
"1573731519826","438","-0.3095703","-0.94921875","0.0234375","-9.125","4.625","-0.6875"
"1573731519826","439","-0.22753906","-0.96875","-0.02734375","-9.96875","3.65625","-6.125"
"1573731520220","440","-0.34179688","-1.0302734","-0.041992188","2.65625","15.5625","-12.59375"
"1573731520220","441","-0.26171875","-0.99121094","0.030273438","3.03125","21.28125","-7.40625"
"1573731520221","442","-0.2265625","-0.96777344","-0.022460938","-6.59375","-0.1875","-0.75"
"1573731520221","443","-0.2548828","-1.0087891","0.0087890625","-5.9375","1.9375","0.65625"
"1573731520221","444","-0.23242188","-0.93066406","0.0029296875","-11.71875","0.21875","0.71875"
"1573731520223","445","-0.23144531","-0.95214844","-0.043945312","-14.0625","-3.5625","5.125"
"1573731520224","446","-0.2841797","-0.9863281","9.765625E-4","-12.65625","3.15625","4.4375"
"1573731520224","447","-0.21679688","-0.9482422","-0.016601562","-10.75","1.5","4.5625"
"1573731520224","448","-0.27246094","-1.0068359","-0.030273438","-6.90625","-6.25","5.0"
"1573731520224","449","-0.31347656","-0.9902344","-0.05078125","-10.09375","-7.8125","4.6875"
"1573731520617","450","-0.2919922","-0.95996094","-0.049804688","-15.40625","-5.09375","5.0625"
"1573731520618","451","-0.28125","-1.0234375","-0.033203125","-15.625","-3.96875","2.84375"
"1573731520618","452","-0.2841797","-0.9511719","-0.0703125","-6.5","-7.40625","-5.5"
"1573731520618","453","-0.28808594","-0.9902344","-0.07128906","-10.28125","-3.125","-6.375"
"1573731520618","454","-0.2998047","-0.9941406","-0.08300781","-4.71875","3.28125","-7.09375"
"1573731520619","455","-0.2783203","-1.0673828","-0.07910156","13.03125","4.25","-7.71875"
"1573731520619","456","-0.328125","-1.1669922","-0.06738281","13.59375","2.25","-7.28125"
"1573731520620","457","-0.3046875","-1.1474609","-0.046875","13.96875","0.03125","-1.65625"
"1573731520621","458","-0.3046875","-1.0957031","-0.0087890625","24.53125","-0.3125","-3.125"
"1573731520621","459","-0.23046875","-1.0185547","-0.053710938","47.71875","0.65625","-4.46875"
"1573731521014","460","-0.28515625","-0.9980469","0.061523438","31.34375","2.65625","-1.90625"
"1573731521014","461","-0.15917969","-0.90625","0.024414062","30.0","3.03125","-10.15625"
"1573731521014","462","-0.24414062","-0.8798828","0.0859375","30.9375","8.71875","-7.78125"
"1573731521014","463","-0.24121094","-0.9199219","0.06347656","36.1875","13.03125","-1.96875"
"1573731521015","464","-0.22363281","-0.9658203","0.07714844","27.75","10.90625","-2.28125"
"1573731521015","465","-0.26464844","-0.95214844","0.16992188","31.84375","8.46875","-4.09375"
"1573731521015","466","-0.25195312","-0.9501953","0.14160156","16.65625","8.46875","-2.40625"
"1573731521015","467","-0.25976562","-0.9589844","0.17089844","20.84375","3.53125","1.875"
"1573731521016","468","-0.22265625","-0.99609375","0.19335938","11.59375","5.40625","-3.3125"
"1573731521016","469","-0.2626953","-0.98339844","0.18359375","14.4375","-2.59375","0.78125"
"1573731522004","470","-0.28710938","-0.94433594","0.16894531","9.25","5.90625","-4.28125"
"1573731522004","471","-0.27148438","-0.9980469","0.20898438","6.28125","-1.25","-2.21875"
"1573731522005","472","-0.23730469","-1.0048828","0.21386719","10.46875","1.3125","-4.15625"
"1573731522005","473","-0.25585938","-0.9765625","0.2109375","1.03125","-0.25","-2.09375"
"1573731522005","474","-0.27734375","-0.98828125","0.20019531","-0.375","2.0625","-1.0625"
"1573731522005","475","-0.26367188","-0.96875","0.20800781","-4.15625","1.9375","1.4375"
"1573731522006","476","-0.25976562","-0.9765625","0.20410156","-9.71875","3.34375","-0.5"
"1573731522006","477","-0.2421875","-1.0234375","0.19921875","-5.375","0.28125","0.40625"
"1573731522006","478","-0.2529297","-0.96972656","0.22851562","-12.09375","2.125","5.34375"
"1573731522006","479","-0.22753906","-0.9121094","0.18261719","-33.21875","-0.5","0.65625"
"1573731522204","480","-0.26171875","-0.9560547","0.16113281","-19.59375","-5.6875","0.71875"
"1573731522208","481","-0.2421875","-0.9355469","0.15332031","-28.75","0.0","-2.625"
"1573731522208","482","-0.21484375","-0.9316406","0.13671875","-16.75","-4.78125","-0.375"
"1573731522209","483","-0.22167969","-0.91308594","0.14160156","-15.59375","-2.21875","0.40625"
"1573731522209","484","-0.19140625","-0.9501953","0.12109375","-17.90625","-5.375","2.65625"
"1573731522209","485","-0.2421875","-0.9873047","0.12402344","-20.65625","-6.5","2.0"
"1573731522210","486","-0.22949219","-0.95996094","0.0859375","-21.4375","-6.65625","0.71875"
"1573731522210","487","-0.20996094","-0.94628906","0.068359375","-26.75","-3.625","-4.46875"
"1573731522210","488","-0.21484375","-0.92871094","0.06738281","-22.46875","-1.84375","-8.75"
"1573731522211","489","-0.19042969","-0.8691406","0.043945312","-22.125","-4.65625","-5.25"
"1573731522211","490","-0.18652344","-0.96777344","0.044921875","-19.90625","-1.0625","-8.5"
"1573731522211","491","-0.20410156","-0.9316406","0.08105469","-0.3125","-16.1875","-6.125"
"1573731522212","492","-0.23242188","-0.92871094","0.08300781","-4.84375","-14.53125","-11.84375"
"1573731522212","493","-0.18652344","-0.92871094","-0.0029296875","-1.3125","4.9375","-5.625"
"1573731522212","494","-0.22949219","-0.9580078","0.009765625","1.3125","5.34375","-2.875"
"1573731522213","495","-0.18554688","-0.96777344","0.030273438","-10.03125","-1.96875","-1.40625"
"1573731522213","496","-0.23046875","-0.9560547","0.05078125","-17.28125","2.0","3.78125"
"1573731522213","497","-0.24023438","-0.98828125","-0.06738281","-31.5","-4.65625","6.03125"
"1573731522213","498","-0.203125","-1.0048828","0.028320312","-30.21875","7.75","8.71875"
"1573731522214","499","-0.20996094","-0.9638672","-0.037109375","-18.21875","8.65625","7.375"
"1573731522803","500","-0.17285156","-0.92089844","-0.051757812","-12.40625","5.34375","10.59375"
"1573731522803","501","-0.29492188","-0.9160156","-9.765625E-4","-4.53125","6.75","11.15625"
"1573731522804","502","-0.17382812","-0.93359375","-0.091796875","-9.40625","11.21875","8.84375"
"1573731522804","503","-0.1875","-0.93359375","-0.059570312","-10.5","-1.25","-1.46875"
"1573731522804","504","-0.30566406","-0.98046875","-0.08496094","-15.59375","-1.71875","-3.5625"
"1573731522805","505","-0.26367188","-0.9765625","-0.08886719","-21.75","1.4375","-0.75"
"1573731522806","506","-0.26757812","-0.9589844","-0.076171875","-20.59375","6.03125","-1.0625"
"1573731522806","507","-0.2421875","-0.87109375","-0.07714844","-11.4375","4.3125","-3.1875"
"1573731522807","508","-0.22851562","-0.89941406","-0.123046875","-15.9375","11.65625","-3.96875"
"1573731522807","509","-0.21777344","-0.96777344","-0.099609375","-10.8125","10.84375","0.0"
"1573731523201","510","-0.19433594","-0.9404297","-0.12890625","-14.46875","7.75","-1.78125"
"1573731523202","511","-0.20507812","-1.0175781","-0.18261719","-16.375","9.1875","-1.3125"
"1573731523202","512","-0.21386719","-0.96972656","-0.21484375","-4.40625","24.28125","5.46875"
"1573731523202","513","-0.20800781","-0.88183594","-0.12402344","14.5","22.8125","6.34375"
"1573731523203","514","-0.26660156","-1.0048828","-0.10253906","22.625","15.84375","11.40625"
"1573731523203","515","-0.2705078","-0.9628906","-0.09277344","35.25","11.15625","3.09375"
"1573731523203","516","-0.2705078","-0.95703125","-0.12597656","15.71875","10.1875","1.5"
"1573731523205","517","-0.28027344","-0.98828125","-0.0859375","15.96875","9.03125","-1.3125"
"1573731523205","518","-0.22558594","-0.9589844","-0.08691406","18.90625","5.0","0.0"
"1573731523205","519","-0.2734375","-0.984375","-0.07714844","16.78125","9.25","0.15625"
"1573731523598","520","-0.27539062","-1.0019531","-0.051757812","12.75","9.375","-3.8125"
"1573731523599","521","-0.23828125","-1.0097656","-0.018554688","17.5","-0.9375","-1.71875"
"1573731523599","522","-0.27539062","-1.0087891","-0.056640625","6.625","-4.65625","-0.375"
"1573731523599","523","-0.26953125","-1.0429688","-0.024414062","15.65625","-3.0","0.28125"
"1573731523599","524","-0.23925781","-0.94921875","0.00390625","34.53125","-7.03125","5.40625"
"1573731523600","525","-0.20410156","-0.97753906","0.04296875","24.65625","-22.90625","17.1875"
"1573731523600","526","-0.3388672","-1.0478516","0.029296875","18.0625","-6.5","9.5625"
"1573731523600","527","-0.3076172","-0.9716797","0.036132812","5.59375","1.15625","8.15625"
"1573731523600","528","-0.3330078","-1.0576172","0.08105469","11.15625","7.90625","3.59375"
"1573731523602","529","-0.30664062","-1.0234375","0.04296875","6.03125","5.21875","-1.0625"
"1573731523995","530","-0.38476562","-1.078125","0.10546875","21.84375","15.625","-4.90625"
"1573731523995","531","-0.27148438","-1.0761719","0.109375","13.28125","2.0","-11.71875"
"1573731523996","532","-0.28125","-1.0566406","0.109375","20.375","-0.3125","-4.84375"
"1573731523996","533","-0.2861328","-1.0449219","0.12011719","20.125","-4.78125","-1.125"
"1573731523996","534","-0.2529297","-1.0009766","0.13183594","4.0625","-7.875","-0.125"
"1573731523997","535","-0.21582031","-0.921875","0.11816406","2.5","-7.46875","-1.59375"
"1573731523997","536","-0.27441406","-0.9765625","0.119140625","-9.46875","-4.15625","0.78125"
"1573731523997","537","-0.2685547","-0.9550781","0.09667969","-7.71875","-0.1875","-2.6875"
"1573731523997","538","-0.30664062","-0.97265625","0.10546875","-1.1875","6.28125","-5.6875"
"1573731523998","539","-0.27148438","-0.9951172","0.115234375","-1.34375","4.75","-8.4375"
"1573731524393","540","-0.2421875","-0.9970703","0.12109375","-3.0","3.65625","-3.96875"
"1573731524395","541","-0.2939453","-0.9824219","0.09082031","-9.96875","4.9375","-1.53125"
"1573731524395","542","-0.2421875","-0.984375","0.08984375","-13.875","1.28125","0.0"
"1573731524395","543","-0.27246094","-0.9902344","0.13867188","-11.96875","-9.0","5.21875"
"1573731524396","544","-0.265625","-1.0048828","0.10644531","-7.78125","-14.125","6.15625"
"1573731524396","545","-0.26367188","-0.91796875","0.06347656","-19.71875","-9.90625","6.28125"
"1573731524396","546","-0.29785156","-0.9501953","0.06933594","-18.6875","-4.96875","3.34375"
"1573731524396","547","-0.2783203","-0.9375","0.0546875","-12.21875","-2.21875","-1.65625"
"1573731524397","548","-0.26660156","-0.94921875","0.046875","-10.5","-2.40625","-2.875"
"1573731524397","549","-0.28222656","-0.9667969","0.047851562","-10.15625","-2.8125","-3.6875"
"1573731524791","550","-0.25976562","-0.9501953","0.0390625","-15.75","-1.90625","-4.21875"
"1573731524792","551","-0.24121094","-0.9707031","0.033203125","-15.34375","-3.25","-2.75"
"1573731524792","552","-0.23632812","-0.9375","0.020507812","-17.65625","-8.0","-1.46875"
"1573731524793","553","-0.234375","-0.921875","0.01171875","-35.125","-7.65625","-0.3125"
"1573731524794","554","-0.16601562","-0.95214844","-0.0146484375","-36.625","-10.8125","-3.96875"
"1573731524794","555","-0.20898438","-0.89746094","0.00390625","-27.53125","-12.03125","-3.0625"
"1573731524794","556","-0.24707031","-0.890625","-0.048828125","-27.59375","-9.59375","-2.875"
"1573731524795","557","-0.22949219","-0.9902344","-0.07324219","-19.375","-7.03125","-5.75"
"1573731524795","558","-0.23925781","-1.0048828","-0.05859375","-6.96875","-8.375","-5.625"
"1573731524795","559","-0.26464844","-0.9824219","-0.06738281","-9.125","-4.71875","-3.4375"
"1573731525188","560","-0.2529297","-0.8984375","-0.068359375","-8.0625","-2.875","-1.0"
"1573731525189","561","-0.25585938","-0.88671875","-0.09375","-3.5","3.34375","3.40625"
"1573731525189","562","-0.2998047","-0.92578125","-0.09472656","11.9375","13.03125","8.46875"
"1573731525189","563","-0.3232422","-0.9453125","-0.087890625","1.8125","11.15625","4.5625"
"1573731525189","564","-0.29003906","-0.984375","-0.08203125","11.03125","10.1875","2.65625"
"1573731525190","565","-0.25390625","-0.9560547","-0.08203125","13.84375","11.15625","-2.59375"
"1573731525191","566","-0.21582031","-0.9169922","-0.043945312","5.0625","9.03125","-5.5"
"1573731525191","567","-0.20996094","-0.9765625","-0.05078125","0.0","9.125","-2.40625"
"1573731525192","568","-0.19433594","-0.95410156","-0.013671875","4.0","2.96875","-3.875"
"1573731525192","569","-0.20117188","-0.9814453","-0.033203125","12.1875","1.75","-6.375"
"1573731525586","570","-0.21679688","-0.9716797","-0.038085938","21.03125","5.34375","-6.84375"
"1573731525586","571","-0.22851562","-0.9707031","-0.00390625","35.3125","-1.90625","-2.28125"
"1573731525587","572","-0.19042969","-0.9707031","0.0107421875","43.0625","-9.90625","7.0"
"1573731525587","573","-0.24902344","-1.0351562","0.08984375","36.0625","3.21875","8.84375"
"1573731525587","574","-0.29589844","-0.90722656","0.080078125","30.875","10.375","-2.15625"
"1573731525588","575","-0.27929688","-0.8828125","0.024414062","28.96875","5.53125","-2.6875"
"1573731525588","576","-0.22851562","-0.8691406","0.11035156","44.96875","-1.78125","-6.96875"
"1573731525589","577","-0.23144531","-0.8330078","0.09375","48.15625","-3.625","-6.71875"
"1573731525590","578","-0.28125","-0.8564453","0.115234375","19.09375","23.84375","1.15625"
"1573731525590","579","-0.26757812","-0.97558594","0.18261719","-33.09375","53.28125","-8.25"
"1573731525983","580","-0.234375","-0.98828125","0.15039062","-16.0","15.5625","-6.3125"
"1573731525984","581","-0.24511719","-0.875","0.14355469","-5.6875","-4.96875","-0.625"
"1573731525984","582","-0.2529297","-0.8769531","0.14257812","-0.4375","10.0","-1.96875"
"1573731525984","583","-0.20117188","-0.8378906","0.13378906","-3.3125","7.84375","-3.96875"
"1573731525985","584","-0.2529297","-0.9316406","0.203125","-13.8125","12.5625","3.21875"
"1573731525985","585","-0.23632812","-0.8544922","0.11035156","-17.21875","1.03125","-0.6875"
"1573731525985","586","-0.22265625","-0.9453125","0.08886719","-2.40625","-10.875","6.46875"
"1573731525986","587","-0.24511719","-0.99609375","0.07519531","-10.6875","-10.625","2.96875"
"1573731525986","588","-0.28710938","-0.9189453","0.09863281","-11.625","-4.46875","1.75"
"1573731525987","589","-0.29003906","-1.0517578","0.09277344","-7.03125","-2.875","1.09375"
"1573731526382","590","-0.26757812","-0.9941406","0.09472656","-8.4375","-4.34375","-2.09375"
"1573731526382","591","-0.2841797","-0.9199219","0.080078125","-15.8125","-1.1875","-6.4375"
"1573731526382","592","-0.26660156","-0.99609375","0.041015625","-13.75","-1.90625","-5.25"
"1573731526383","593","-0.2548828","-1.0107422","0.09277344","-7.59375","-2.46875","-1.0"
"1573731526383","594","-0.2529297","-1.0146484","0.08203125","-3.625","-4.71875","-3.1875"
"1573731526383","595","-0.24707031","-1.0722656","0.0859375","-7.875","-5.6875","-2.28125"
"1573731526384","596","-0.27246094","-1.1015625","0.0859375","-6.0625","-10.15625","-2.8125"
"1573731526384","597","-0.31445312","-1.1279297","0.09082031","-25.84375","-8.6875","2.71875"
"1573731526384","598","-0.31640625","-1.2861328","0.07324219","-22.65625","-5.375","2.0625"
"1573731526385","599","-0.27148438","-1.1601562","0.07421875","-2.6875","-13.0625","5.125"
"1573731526778","600","-0.2919922","-1.1337891","0.046875","2.65625","-17.84375","7.5625"
"1573731526780","601","-0.23632812","-1.0205078","0.045898438","0.78125","-14.78125","3.53125"
"1573731526781","602","-0.25976562","-0.99316406","0.037109375","-11.1875","-3.0625","5.53125"
"1573731526781","603","-0.27441406","-1.0058594","0.03125","-12.34375","-1.0625","3.59375"
"1573731526781","604","-0.2998047","-0.99121094","0.034179688","-9.96875","0.59375","6.8125"
"1573731526782","605","-0.2783203","-0.9941406","0.01953125","-10.21875","3.28125","3.21875"
"1573731526782","606","-0.27148438","-0.9550781","0.001953125","-9.96875","2.125","2.375"
"1573731526782","607","-0.26464844","-0.97265625","0.015625","-11.0","-0.375","-0.1875"
"1573731526782","608","-0.28027344","-0.953125","0.01953125","-7.78125","-0.75","-3.375"
"1573731526783","609","-0.24511719","-0.9423828","-0.0078125","-11.4375","-0.5625","-4.09375"
"1573731527176","610","-0.24511719","-0.9482422","0.0087890625","-7.09375","-6.125","-4.71875"
"1573731527177","611","-0.27441406","-0.9169922","-0.0087890625","-6.375","-1.71875","-5.375"
"1573731527177","612","-0.27148438","-0.9511719","-0.001953125","-12.21875","-1.59375","-4.71875"
"1573731527178","613","-0.28027344","-0.9472656","0.009765625","-10.6875","-9.0625","-7.03125"
"1573731527179","614","-0.2685547","-0.98535156","-0.040039062","-25.28125","-10.9375","-6.1875"
"1573731527179","615","-0.25390625","-0.98046875","-0.046875","-23.75","-11.375","-8.875"
"1573731527179","616","-0.23632812","-0.94921875","-0.0703125","-15.59375","-6.71875","-9.0"
"1573731527180","617","-0.21777344","-0.9140625","-0.06738281","-6.53125","-1.46875","-5.8125"
"1573731527180","618","-0.21679688","-0.90234375","-0.07714844","3.21875","2.71875","-1.25"
"1573731527180","619","-0.22070312","-0.9589844","-0.08984375","14.15625","8.59375","1.09375"
"1573731527573","620","-0.21679688","-0.9501953","-0.055664062","11.15625","11.8125","-3.5625"
"1573731527574","621","-0.21484375","-0.90625","-0.016601562","17.875","10.375","-5.75"
"1573731527574","622","-0.20019531","-0.9248047","-0.030273438","13.03125","20.375","-7.21875"
"1573731527574","623","-0.19726562","-1.0019531","0.005859375","17.875","14.75","-1.1875"
"1573731527575","624","-0.19726562","-0.9814453","0.0146484375","16.9375","11.15625","2.0625"
"1573731527576","625","-0.19140625","-0.9433594","0.0234375","11.59375","11.03125","3.90625"
"1573731527577","626","-0.22753906","-0.95214844","0.033203125","18.78125","10.59375","3.03125"
"1573731527577","627","-0.22167969","-0.9355469","0.033203125","17.0625","9.03125","1.8125"
"1573731527577","628","-0.24023438","-0.95996094","0.052734375","14.15625","7.125","1.75"
"1573731527578","629","-0.23925781","-0.9638672","0.05078125","11.40625","4.5625","-1.0625"
"1573731527970","630","-0.22851562","-0.9746094","0.06347656","11.8125","4.5625","-3.0"
"1573731527970","631","-0.24511719","-0.96191406","0.07421875","14.625","5.78125","-3.4375"
"1573731527970","632","-0.23339844","-0.96484375","0.06640625","11.28125","8.03125","-6.1875"
"1573731527971","633","-0.23828125","-0.93359375","0.05859375","20.96875","20.0625","-10.625"
"1573731527971","634","-0.24804688","-0.91015625","0.06347656","2.1875","25.6875","-15.28125"
"1573731527971","635","-0.20898438","-0.9003906","0.07714844","-16.375","17.625","-12.46875"
"1573731527971","636","-0.19628906","-0.9121094","0.083984375","-9.21875","12.0","-6.375"
"1573731527972","637","-0.18945312","-0.92089844","0.095703125","-10.875","15.90625","1.6875"
"1573731527973","638","-0.22167969","-0.9238281","0.107421875","-8.9375","13.0","4.5625"
"1573731527973","639","-0.17871094","-0.8847656","0.06738281","-5.5625","4.0625","-0.125"
"1573731528764","640","-0.20703125","-0.95214844","0.030273438","-18.875","1.3125","3.03125"
"1573731528764","641","-0.20605469","-0.82910156","0.030273438","-36.46875","-1.0625","2.90625"
"1573731528765","642","-0.22265625","-0.953125","0.018554688","-18.6875","0.34375","10.59375"
"1573731528765","643","-0.19726562","-1.0068359","-0.0107421875","-14.84375","2.375","2.0625"
"1573731528765","644","-0.25195312","-0.94140625","0.0126953125","-6.84375","4.375","-2.28125"
"1573731528766","645","-0.22753906","-1.0126953","-0.0078125","-5.4375","5.0625","-0.9375"
"1573731528766","646","-0.24707031","-1.0732422","-0.0107421875","-9.53125","5.0","-1.25"
"1573731528766","647","-0.22753906","-0.9765625","-0.009765625","-9.28125","-0.6875","2.96875"
"1573731528766","648","-0.2685547","-1.0341797","-9.765625E-4","-16.375","2.65625","0.71875"
"1573731528768","649","-0.24121094","-1.0087891","-0.053710938","-5.8125","3.28125","-3.4375"
"1573731528961","650","-0.24707031","-1.0048828","-0.0078125","-2.59375","2.25","0.40625"
"1573731528962","651","-0.2421875","-0.9707031","-0.06640625","-12.96875","2.78125","-3.0625"
"1573731528962","652","-0.25195312","-0.9921875","-0.040039062","-10.5625","1.15625","-3.375"
"1573731528962","653","-0.23046875","-0.99316406","-0.029296875","-3.6875","-4.90625","-5.4375"
"1573731528963","654","-0.21972656","-1.0136719","-0.056640625","-10.8125","-6.5","-8.125"
"1573731528963","655","-0.19433594","-1.0253906","-0.061523438","-12.90625","-4.15625","-8.1875"
"1573731528963","656","-0.25683594","-1.0947266","-0.053710938","-9.21875","2.71875","-3.25"
"1573731528963","657","-0.24707031","-1.1142578","-0.05078125","-5.875","4.0625","-7.71875"
"1573731528964","658","-0.2529297","-1.1347656","-0.076171875","-3.6875","1.28125","-4.59375"
"1573731528964","659","-0.25683594","-1.1669922","-0.068359375","2.96875","-5.3125","-3.4375"
"1573731529163","660","-0.14160156","-1.1132812","-0.041992188","2.375","-20.59375","-4.53125"
"1573731529164","661","-0.18554688","-1.0625","-0.013671875","3.9375","-33.71875","1.09375"
"1573731529164","662","-0.24316406","-0.8769531","-0.056640625","-19.3125","-4.15625","-0.5"
"1573731529165","663","-0.2578125","-0.9921875","-0.11621094","-11.625","-1.59375","-4.34375"
"1573731529165","664","-0.1875","-1.0205078","-0.078125","-1.1875","-2.875","-7.65625"
"1573731529165","665","-0.203125","-1.0078125","-0.057617188","0.15625","-3.625","-4.65625"
"1573731529165","666","-0.19335938","-1.0185547","-0.0859375","-9.96875","-4.90625","-4.09375"
"1573731529166","667","-0.1875","-0.98046875","-0.055664062","-5.375","-3.0625","-1.46875"
"1573731529166","668","-0.20703125","-1.0029297","-0.07714844","-9.21875","-0.75","0.84375"
"1573731529166","669","-0.19335938","-0.9580078","-0.0859375","-6.25","-1.96875","-0.1875"
"1573731529561","670","-0.20507812","-0.9951172","-0.0859375","-8.3125","-1.0","2.5625"
"1573731529561","671","-0.21484375","-1.0","-0.099609375","-6.90625","2.5","5.65625"
"1573731529562","672","-0.22851562","-1.0078125","-0.11035156","-5.875","5.96875","5.0"
"1573731529563","673","-0.20996094","-1.0224609","-0.10449219","0.0","4.8125","4.0"
"1573731529563","674","-0.23828125","-1.0253906","-0.10253906","9.6875","6.03125","4.0"
"1573731529563","675","-0.22558594","-0.99121094","-0.095703125","14.15625","1.3125","4.8125"
"1573731529564","676","-0.21484375","-0.9609375","-0.06738281","12.0","-0.625","5.90625"
"1573731529564","677","-0.20214844","-0.96191406","-0.056640625","12.0","-3.5625","1.03125"
"1573731529564","678","-0.19921875","-0.88671875","-0.0625","8.53125","-3.1875","0.96875"
"1573731529565","679","-0.20800781","-0.9238281","-0.06738281","-11.375","4.875","1.15625"
"1573731529957","680","-0.22851562","-0.94921875","-0.08203125","1.375","9.8125","-3.125"
"1573731529957","681","-0.19140625","-0.95410156","-0.044921875","5.65625","10.59375","-4.21875"
"1573731529958","682","-0.20117188","-1.0146484","-0.025390625","15.96875","8.03125","-6.1875"
"1573731529958","683","-0.1796875","-0.96972656","-0.0126953125","15.71875","1.5625","-3.75"
"1573731529958","684","-0.203125","-1.0244141","-0.026367188","10.375","5.0625","-3.25"
"1573731529959","685","-0.20019531","-0.93847656","-0.0068359375","9.03125","6.8125","-0.5"
"1573731529960","686","-0.2421875","-0.96484375","0.0048828125","10.25","1.3125","3.90625"
"1573731529960","687","-0.19433594","-0.93652344","0.0068359375","-1.71875","2.84375","3.59375"
"1573731529960","688","-0.22167969","-0.9033203","9.765625E-4","-26.8125","13.46875","4.125"
"1573731529960","689","-0.24414062","-0.9199219","-0.044921875","0.0","6.28125","2.90625"
"1573731530356","690","-0.17578125","-0.9355469","-0.049804688","-4.84375","9.625","2.125"
"1573731530356","691","-0.19433594","-0.97753906","-0.06347656","-7.40625","6.15625","2.65625"
"1573731530356","692","-0.21484375","-0.99121094","0.005859375","11.28125","12.25","2.0625"
"1573731530357","693","-0.15917969","-0.99316406","0.0146484375","12.625","5.65625","-2.03125"
"1573731530357","694","-0.16699219","-0.9892578","0.055664062","0.96875","-6.59375","0.15625"
"1573731530360","695","-0.22949219","-1.0068359","0.001953125","-10.34375","-8.8125","0.0"
"1573731530360","696","-0.25976562","-0.9951172","-0.016601562","-17.28125","-3.625","-1.96875"
"1573731530362","697","-0.24511719","-0.9736328","-0.04296875","-14.25","0.0","-4.46875"
"1573731530362","698","-0.23730469","-0.9628906","-0.055664062","-8.5625","2.71875","-5.8125"
"1573731530363","699","-0.24902344","-0.9667969","-0.055664062","-4.71875","3.9375","-4.28125"
