"# PR data"
"# Start time: 20191201T171436"
"# Subject: seb"
"# Activity type: Wall push offs"
"# Correctness: Incorrect"
"# Notes: "
""
"timestamp","seq","accel_x","accel_y","accel_z","gyro_x","gyro_y","gyro_z"
"1575216876408","0","0.35839844","-0.9277344","0.21972656","11.53125","14.5","-10.34375"
"1575216876409","1","0.3671875","-0.87109375","0.20019531","12.1875","1.625","-6.53125"
"1575216876409","2","0.3173828","-0.8779297","0.25","9.6875","4.25","-5.9375"
"1575216876409","3","0.26464844","-0.90234375","0.24511719","5.46875","12.5","-4.03125"
"1575216876409","4","0.2578125","-0.94921875","0.20507812","-1.3125","16.34375","-1.34375"
"1575216876410","5","0.30859375","-0.9404297","0.17871094","-8.1875","14.3125","0.21875"
"1575216876410","6","0.30566406","-0.9404297","0.21875","-18.6875","15.65625","-1.3125"
"1575216876410","7","0.33203125","-0.90722656","0.20800781","-13.1875","13.34375","-4.65625"
"1575216876410","8","0.25195312","-0.9941406","0.15625","-22.71875","18.78125","0.53125"
"1575216876411","9","0.171875","-0.9814453","0.15429688","-28.59375","32.875","-0.25"
"1575216876804","10","0.12988281","-0.9199219","0.15917969","-24.5625","31.90625","2.65625"
"1575216876805","11","0.020507812","-0.98339844","0.19628906","-22.78125","42.65625","4.0625"
"1575216876805","12","0.044921875","-0.9638672","0.15429688","-17.34375","41.78125","12.375"
"1575216876808","13","0.22070312","-0.9941406","0.12988281","-8.375","39.71875","12.625"
"1575216876809","14","0.12597656","-0.93847656","0.12792969","-7.65625","30.4375","18.40625"
"1575216876810","15","0.18652344","-0.9980469","0.033203125","-6.3125","29.09375","10.0625"
"1575216876810","16","0.27539062","-1.0664062","-0.0107421875","-13.0625","19.625","-1.1875"
"1575216876810","17","0.19921875","-0.98828125","0.044921875","-13.375","9.875","-2.9375"
"1575216876811","18","0.15332031","-0.90625","0.020507812","-6.3125","0.34375","-0.25"
"1575216876811","19","0.12109375","-0.90234375","-0.0234375","-3.125","-2.15625","-1.59375"
"1575216877202","20","0.13867188","-0.9892578","-0.013671875","-3.6875","6.40625","-5.8125"
"1575216877202","21","0.11328125","-1.0595703","0.04296875","-8.8125","9.4375","-7.28125"
"1575216877202","22","0.22363281","-0.9707031","0.18457031","-5.8125","9.875","-6.3125"
"1575216877203","23","0.1328125","-0.94628906","0.2109375","8.78125","-1.59375","0.15625"
"1575216877203","24","0.15820312","-0.92089844","0.044921875","12.4375","-10.75","7.375"
"1575216877204","25","0.15722656","-0.9248047","0.07519531","-0.5625","-2.15625","9.9375"
"1575216877204","26","0.2548828","-0.98046875","0.10644531","2.84375","-8.0","9.125"
"1575216877205","27","0.18164062","-0.95410156","0.15136719","12.6875","-28.40625","2.78125"
"1575216877205","28","0.16796875","-0.9511719","0.16113281","19.53125","-38.53125","-2.21875"
"1575216877205","29","-0.0029296875","-0.9550781","0.19824219","9.75","-21.375","-14.84375"
"1575216877800","30","0.080078125","-0.9375","0.19335938","7.84375","-11.5625","-9.71875"
"1575216877801","31","0.16113281","-1.0625","0.19238281","8.65625","-7.40625","-8.5"
"1575216877801","32","0.13476562","-1.0087891","0.21386719","5.40625","-8.8125","-2.03125"
"1575216877801","33","0.11035156","-0.96484375","0.20996094","2.25","-10.6875","-3.75"
"1575216877801","34","0.1484375","-0.93652344","0.20019531","-1.65625","-4.53125","-9.78125"
"1575216877802","35","0.20996094","-0.96484375","0.18066406","-4.09375","-0.875","-11.84375"
"1575216877802","36","0.21582031","-0.9736328","0.18554688","-7.53125","-0.3125","-12.40625"
"1575216877803","37","0.22265625","-0.9628906","0.16601562","-8.6875","-2.21875","-11.71875"
"1575216877803","38","0.25097656","-0.9658203","0.15039062","-6.1875","-4.65625","-8.875"
"1575216877804","39","0.2548828","-0.9472656","0.13769531","-6.96875","-6.1875","-8.375"
"1575216877996","40","0.28125","-0.95214844","0.13574219","-6.3125","-11.0625","-8.0625"
"1575216877997","41","0.2861328","-0.9394531","0.08105469","0.34375","-14.59375","-8.625"
"1575216877997","42","0.26953125","-0.9423828","0.111328125","-7.71875","-12.21875","-8.8125"
"1575216877997","43","0.28222656","-0.9345703","0.09472656","-3.6875","-13.0625","-9.0"
"1575216877998","44","0.29882812","-0.9277344","0.053710938","0.34375","-11.71875","-2.15625"
"1575216877998","45","0.24414062","-0.93359375","0.09863281","-7.78125","-1.25","-3.96875"
"1575216877998","46","0.296875","-0.94921875","0.08496094","-3.0","0.40625","-3.90625"
"1575216877998","47","0.3125","-0.9472656","0.078125","-5.375","3.59375","-2.03125"
"1575216877999","48","0.3154297","-0.9716797","0.083984375","-3.3125","1.6875","-1.65625"
"1575216878000","49","0.203125","-0.96777344","0.08886719","-3.1875","1.03125","-5.8125"
"1575216878394","50","0.29492188","-0.9082031","0.11230469","-11.0625","14.21875","-5.09375"
"1575216878395","51","0.3203125","-0.921875","0.09765625","-4.28125","8.28125","-3.1875"
"1575216878395","52","0.31640625","-0.9394531","0.078125","-0.1875","0.90625","-0.1875"
"1575216878395","53","0.2734375","-0.9472656","0.09472656","-5.875","4.5","-1.3125"
"1575216878396","54","0.2783203","-0.94433594","0.083984375","-4.09375","6.75","-1.90625"
"1575216878396","55","0.28515625","-0.95214844","0.06738281","-0.375","3.84375","-0.6875"
"1575216878396","56","0.28515625","-0.94628906","0.06640625","-1.90625","3.53125","-0.625"
"1575216878396","57","0.2861328","-0.9482422","0.06542969","-0.5625","5.28125","0.96875"
"1575216878397","58","0.27441406","-0.9277344","0.0546875","-1.0","7.4375","0.78125"
"1575216878397","59","0.26464844","-0.95410156","0.091796875","-1.25","9.4375","2.71875"
"1575216878793","60","0.26953125","-0.9375","0.08105469","-2.75","12.9375","1.75"
"1575216878794","61","0.27148438","-0.9609375","0.047851562","2.1875","12.875","3.78125"
"1575216878797","62","0.27246094","-0.9453125","0.07519531","-1.53125","12.0","4.5625"
"1575216878797","63","0.27148438","-0.9453125","0.07519531","-0.875","10.125","4.5625"
"1575216878798","64","0.24121094","-0.9511719","0.083984375","1.875","9.03125","3.90625"
"1575216878798","65","0.23339844","-0.96875","0.08886719","2.0","7.8125","2.5625"
"1575216878798","66","0.23046875","-0.9560547","0.09277344","0.15625","9.125","0.40625"
"1575216878798","67","0.25097656","-0.9560547","0.10253906","-1.125","9.625","0.96875"
"1575216878799","68","0.24316406","-0.96191406","0.10644531","-3.5","10.125","1.4375"
"1575216878799","69","0.22460938","-0.96191406","0.107421875","-5.4375","10.96875","1.3125"
"1575216879190","70","0.23046875","-0.9667969","0.09472656","-5.625","10.96875","2.1875"
"1575216879190","71","0.22851562","-0.9638672","0.09277344","-5.5","11.75","2.78125"
"1575216879191","72","0.23535156","-0.9609375","0.08886719","-2.8125","10.125","4.0"
"1575216879191","73","0.24511719","-0.96191406","0.08496094","2.71875","8.15625","4.1875"
"1575216879191","74","0.24121094","-0.97265625","0.10839844","5.53125","4.75","4.6875"
"1575216879192","75","0.24609375","-0.9394531","0.0859375","2.84375","-1.0625","4.5625"
"1575216879192","76","0.21875","-0.9716797","0.09863281","2.78125","-2.28125","4.25"
"1575216879192","77","0.23242188","-0.94433594","0.10546875","3.40625","-0.625","2.3125"
"1575216879193","78","0.22070312","-0.9628906","0.087890625","4.875","0.78125","0.90625"
"1575216879193","79","0.22070312","-0.95996094","0.10058594","3.59375","0.40625","-0.8125"
"1575216879588","80","0.22460938","-0.9589844","0.109375","4.0625","0.71875","-1.71875"
"1575216879589","81","0.22949219","-0.94140625","0.09082031","3.71875","2.5","-1.53125"
"1575216879589","82","0.22265625","-0.94433594","0.099609375","3.34375","5.53125","0.15625"
"1575216879589","83","0.23925781","-0.95410156","0.10546875","3.46875","6.28125","0.90625"
"1575216879589","84","0.25976562","-0.9550781","0.09082031","5.0","3.71875","1.8125"
"1575216879591","85","0.25585938","-0.95214844","0.103515625","3.09375","4.5625","2.96875"
"1575216879592","86","0.22167969","-0.95410156","0.1171875","3.21875","7.5","2.0625"
"1575216879592","87","0.22265625","-0.93652344","0.12109375","2.65625","5.65625","2.0625"
"1575216879592","88","0.24121094","-0.94433594","0.119140625","5.0625","1.625","2.0625"
"1575216879593","89","0.2421875","-0.94628906","0.11425781","6.21875","0.0","3.09375"
"1575216879985","90","0.21679688","-0.95410156","0.1328125","5.21875","1.15625","3.34375"
"1575216879986","91","0.22851562","-0.953125","0.13769531","7.25","0.03125","5.78125"
"1575216879986","92","0.19042969","-0.93066406","0.13378906","7.90625","2.25","5.53125"
"1575216879986","93","0.19628906","-0.95410156","0.15820312","10.375","3.78125","8.15625"
"1575216879987","94","0.1796875","-0.9453125","0.17285156","6.875","5.65625","7.0"
"1575216879987","95","0.18164062","-0.95996094","0.15820312","9.9375","5.34375","6.5625"
"1575216879987","96","0.16992188","-0.95703125","0.18164062","8.15625","6.875","6.5625"
"1575216879989","97","0.15429688","-0.95410156","0.19921875","8.46875","11.40625","6.6875"
"1575216879989","98","0.14355469","-0.9501953","0.19238281","9.5","9.9375","7.25"
"1575216879989","99","0.15625","-0.95996094","0.20019531","9.8125","10.0625","7.5"
"1575216880381","100","0.14550781","-0.9580078","0.22949219","7.8125","13.40625","7.375"
"1575216880382","101","0.107421875","-0.96484375","0.22460938","9.125","11.28125","7.25"
"1575216880382","102","0.09765625","-0.9580078","0.25","7.0","14.21875","5.90625"
"1575216880382","103","0.09765625","-0.9560547","0.26660156","5.46875","17.4375","4.4375"
"1575216880382","104","0.11816406","-0.9628906","0.27929688","4.1875","18.53125","2.78125"
"1575216880383","105","0.11328125","-0.95214844","0.27539062","2.71875","12.9375","1.875"
"1575216880383","106","0.09277344","-0.93652344","0.2705078","4.9375","12.25","0.53125"
"1575216880383","107","0.107421875","-0.9501953","0.29492188","6.15625","12.9375","1.375"
"1575216880383","108","0.0625","-0.9316406","0.29101562","5.125","11.59375","-2.21875"
"1575216880385","109","0.06542969","-0.9560547","0.31054688","0.65625","8.71875","-4.84375"
"1575216880780","110","0.040039062","-0.9501953","0.30859375","5.90625","6.03125","-3.8125"
"1575216880781","111","0.030273438","-0.93847656","0.34277344","-2.59375","2.78125","-7.78125"
"1575216880781","112","0.053710938","-0.95996094","0.3203125","2.84375","-1.84375","-8.6875"
"1575216880781","113","0.068359375","-0.9667969","0.31933594","0.09375","-2.03125","-9.90625"
"1575216880782","114","0.057617188","-0.95996094","0.3330078","-3.375","-0.5","-8.1875"
"1575216880782","115","0.068359375","-0.9609375","0.328125","-4.90625","1.09375","-7.15625"
"1575216880782","116","0.0859375","-0.9746094","0.3173828","-6.1875","1.9375","-6.375"
"1575216880782","117","0.061523438","-0.96972656","0.33398438","-8.0625","-0.5625","-7.53125"
"1575216880783","118","0.07714844","-0.9628906","0.3251953","-9.46875","-3.75","-8.625"
"1575216880783","119","0.08105469","-0.94433594","0.30078125","-10.34375","-3.3125","-9.15625"
"1575216881178","120","0.10449219","-0.9394531","0.28710938","-10.21875","-3.625","-8.8125"
"1575216881181","121","0.12890625","-0.9472656","0.2685547","-9.34375","-3.90625","-8.375"
"1575216881181","122","0.13378906","-0.94433594","0.265625","-11.0625","-4.71875","-9.78125"
"1575216881182","123","0.14355469","-0.9433594","0.25390625","-9.34375","-6.0625","-9.53125"
"1575216881182","124","0.15332031","-0.94140625","0.24023438","-8.0625","-7.03125","-9.46875"
"1575216881182","125","0.15820312","-0.9355469","0.24316406","-10.5","-3.6875","-9.0"
"1575216881182","126","0.17675781","-0.9560547","0.24316406","-11.5","-3.625","-7.28125"
"1575216881183","127","0.18847656","-0.9560547","0.21972656","-4.96875","-6.0625","-5.625"
"1575216881183","128","0.19140625","-0.9746094","0.23046875","-9.71875","-7.65625","-3.8125"
"1575216881183","129","0.18457031","-0.9296875","0.20117188","-6.0","-9.90625","-3.96875"
"1575216881576","130","0.203125","-0.93359375","0.16503906","-0.125","-10.5","-1.1875"
"1575216881577","131","0.20214844","-0.92285156","0.17675781","0.90625","-8.8125","-1.59375"
"1575216881577","132","0.22070312","-0.9404297","0.16894531","0.46875","-5.75","-2.28125"
"1575216881579","133","0.25390625","-0.94140625","0.14941406","0.90625","-5.09375","-1.71875"
"1575216881579","134","0.25390625","-0.9560547","0.16210938","-4.65625","-0.875","-0.75"
"1575216881579","135","0.28125","-0.9355469","0.15917969","-6.65625","-3.3125","-0.75"
"1575216881579","136","0.24902344","-0.9277344","0.13964844","-5.6875","-7.40625","0.71875"
"1575216881580","137","0.2421875","-0.92871094","0.13574219","-5.375","-9.34375","1.375"
"1575216881580","138","0.25585938","-0.93066406","0.13671875","-5.4375","-9.0625","0.65625"
"1575216881580","139","0.25","-0.92578125","0.125","-5.8125","-5.5","0.78125"
"1575216881973","140","0.23046875","-0.9628906","0.115234375","-7.8125","-2.03125","0.65625"
"1575216881973","141","0.2685547","-0.96484375","0.11230469","-6.71875","-1.84375","-0.625"
"1575216881974","142","0.265625","-0.9638672","0.09863281","-7.46875","-3.375","-2.03125"
"1575216881974","143","0.24023438","-0.9326172","0.0859375","-7.03125","-2.9375","-3.25"
"1575216881974","144","0.22851562","-0.9423828","0.107421875","-9.78125","-1.1875","-4.53125"
"1575216881976","145","0.2607422","-0.95214844","0.08496094","-4.78125","-0.0625","-3.125"
"1575216881976","146","0.24511719","-0.9423828","0.11035156","-12.78125","4.1875","-5.8125"
"1575216881977","147","0.26367188","-0.9433594","0.07910156","-10.40625","7.4375","-5.875"
"1575216881977","148","0.26660156","-0.953125","0.07910156","-10.8125","8.09375","-5.25"
"1575216881977","149","0.26367188","-0.93847656","0.083984375","-11.375","5.71875","-5.4375"
"1575216882369","150","0.265625","-0.9453125","0.08496094","-9.53125","5.34375","-5.8125"
"1575216882369","151","0.2705078","-0.9501953","0.06640625","-6.59375","4.0625","-4.96875"
"1575216882370","152","0.26367188","-0.94921875","0.059570312","-7.71875","4.5","-4.90625"
"1575216882370","153","0.27929688","-0.9433594","0.06640625","-6.5","5.0625","-4.40625"
"1575216882370","154","0.26464844","-0.93847656","0.06542969","-4.21875","5.34375","-3.75"
"1575216882371","155","0.26464844","-0.94921875","0.0625","-3.5","5.28125","-3.3125"
"1575216882371","156","0.2841797","-0.94921875","0.055664062","-2.59375","4.625","-3.125"
"1575216882371","157","0.27929688","-0.9560547","0.0546875","-1.71875","4.25","-2.28125"
"1575216882372","158","0.30078125","-0.9550781","0.044921875","-1.0625","2.0625","-1.3125"
"1575216882372","159","0.26464844","-0.9375","0.05859375","0.90625","1.03125","-0.125"
"1575216882766","160","0.2548828","-0.93652344","0.06542969","2.65625","2.4375","-1.59375"
"1575216882767","161","0.28222656","-0.9423828","0.072265625","5.0","1.3125","-1.46875"
"1575216882767","162","0.2705078","-0.9199219","0.059570312","4.9375","0.0","-1.53125"
"1575216882767","163","0.28320312","-0.96191406","0.07128906","6.6875","1.21875","2.71875"
"1575216882768","164","0.28320312","-0.9238281","0.087890625","1.21875","2.125","1.8125"
"1575216882768","165","0.30664062","-0.9511719","0.044921875","6.5625","0.65625","3.21875"
"1575216882768","166","0.28515625","-0.9375","0.07324219","6.75","-1.3125","6.6875"
"1575216882768","167","0.24707031","-0.9394531","0.08691406","9.4375","-0.8125","7.25"
"1575216882769","168","0.25390625","-0.93066406","0.09765625","12.0625","0.28125","8.34375"
"1575216882770","169","0.24121094","-0.9404297","0.107421875","13.96875","2.96875","11.15625"
"1575216883165","170","0.24023438","-0.93847656","0.12011719","14.375","1.6875","13.40625"
"1575216883166","171","0.24023438","-0.9404297","0.11328125","18.125","-2.15625","15.96875"
"1575216883166","172","0.17675781","-0.9394531","0.14648438","19.34375","-0.125","16.53125"
"1575216883166","173","0.16894531","-0.9404297","0.18066406","16.09375","3.21875","14.375"
"1575216883167","174","0.15429688","-0.95410156","0.19042969","15.3125","6.28125","12.625"
"1575216883167","175","0.12207031","-0.96875","0.23144531","12.9375","6.8125","10.1875"
"1575216883167","176","0.13574219","-0.9824219","0.23242188","12.0625","9.375","10.0625"
"1575216883167","177","0.14160156","-0.9814453","0.24023438","9.25","11.03125","11.15625"
"1575216883168","178","0.07519531","-0.9482422","0.265625","6.8125","12.25","7.125"
"1575216883168","179","0.0146484375","-0.9609375","0.26757812","5.90625","17.875","0.84375"
"1575216883758","180","0.09375","-0.9580078","0.28808594","4.0","24.71875","-4.15625"
"1575216883759","181","0.078125","-0.9355469","0.2890625","9.125","25.625","-1.78125"
"1575216883760","182","0.09863281","-0.96191406","0.35839844","-3.75","14.75","-2.59375"
"1575216883760","183","0.064453125","-0.9638672","0.3173828","-1.90625","2.375","-6.0625"
"1575216883761","184","0.045898438","-0.9765625","0.3154297","0.0","1.09375","-5.09375"
"1575216883761","185","0.038085938","-0.9873047","0.3203125","-0.75","3.9375","-8.3125"
"1575216883761","186","0.052734375","-1.0097656","0.3310547","-0.6875","3.59375","-8.875"
"1575216883762","187","0.060546875","-0.97753906","0.3515625","-2.53125","4.75","-8.6875"
"1575216883762","188","0.049804688","-0.96191406","0.33691406","-3.96875","2.84375","-5.8125"
"1575216883762","189","0.057617188","-0.96484375","0.32128906","-6.4375","4.5","-7.40625"
"1575216883960","190","0.06738281","-0.9667969","0.30859375","-6.125","2.1875","-6.71875"
"1575216883960","191","0.06933594","-0.9511719","0.3125","-8.3125","2.0625","-8.25"
"1575216883961","192","0.078125","-0.9589844","0.29492188","-6.59375","2.59375","-7.28125"
"1575216883962","193","0.10546875","-0.94921875","0.29101562","-7.65625","3.9375","-6.375"
"1575216883963","194","0.12890625","-0.9550781","0.2705078","-7.09375","1.28125","-4.71875"
"1575216883963","195","0.10839844","-0.9355469","0.2626953","-8.375","-0.6875","-4.03125"
"1575216883963","196","0.13378906","-0.93652344","0.25097656","-7.46875","-2.9375","-1.40625"
"1575216883963","197","0.13378906","-0.93359375","0.23144531","-7.71875","-3.5","-1.0"
"1575216883964","198","0.16699219","-0.97265625","0.234375","-3.96875","0.90625","0.0"
"1575216883964","199","0.13183594","-0.9511719","0.24902344","4.625","-6.125","8.71875"
"1575216884357","200","0.20605469","-0.98828125","0.16894531","8.84375","-6.0","6.875"
"1575216884357","201","0.18261719","-0.9267578","0.19335938","-6.125","-1.78125","1.875"
"1575216884358","202","0.16503906","-0.9140625","0.18261719","-1.71875","-3.4375","-0.25"
"1575216884358","203","0.17382812","-0.9423828","0.1796875","-3.5625","-0.3125","-2.6875"
"1575216884358","204","0.20117188","-0.9472656","0.17871094","-6.0","-2.6875","-3.90625"
"1575216884360","205","0.23242188","-0.93652344","0.15917969","-11.71875","-0.9375","-5.75"
"1575216884360","206","0.24121094","-0.95410156","0.13085938","-13.4375","-3.3125","-5.21875"
"1575216884360","207","0.25","-0.9453125","0.1328125","-13.625","-7.28125","-5.875"
"1575216884361","208","0.23730469","-0.9453125","0.12207031","-10.34375","-10.5","-7.28125"
"1575216884361","209","0.21386719","-0.9404297","0.12011719","-9.96875","-9.28125","-9.21875"
"1575216884754","210","0.20800781","-0.9345703","0.11328125","-9.59375","-8.0625","-10.4375"
"1575216884754","211","0.22070312","-0.9375","0.12109375","-11.90625","-1.59375","-10.5625"
"1575216884755","212","0.25976562","-0.96484375","0.12597656","-12.46875","3.15625","-10.625"
"1575216884755","213","0.28222656","-0.9326172","0.09863281","-11.3125","-7.875","-8.5625"
"1575216884755","214","0.2548828","-0.9140625","0.08691406","-8.375","-9.28125","-6.90625"
"1575216884755","215","0.28320312","-0.95410156","0.09082031","-6.5","-5.03125","-7.78125"
"1575216884756","216","0.26953125","-0.98535156","0.09863281","-8.8125","-2.34375","-8.0625"
"1575216884757","217","0.25976562","-0.94921875","0.08984375","-11.71875","-4.15625","-5.875"
"1575216884757","218","0.25097656","-0.9296875","0.07519531","-5.8125","-0.0625","-5.03125"
"1575216884757","219","0.265625","-0.9482422","0.11621094","-10.28125","0.40625","-3.1875"
"1575216885347","220","0.2763672","-0.94140625","0.076171875","-9.90625","-1.125","-4.84375"
"1575216885347","221","0.28808594","-0.9550781","0.051757812","-6.59375","-1.96875","-2.875"
"1575216885348","222","0.26660156","-0.94140625","0.064453125","-7.53125","0.21875","-2.625"
"1575216885348","223","0.2734375","-0.9511719","0.051757812","-4.78125","-0.0625","-0.875"
"1575216885348","224","0.26757812","-0.9482422","0.041992188","-4.71875","2.4375","0.21875"
"1575216885349","225","0.25976562","-0.9560547","0.051757812","-3.1875","3.9375","1.375"
"1575216885349","226","0.24804688","-0.94140625","0.057617188","-2.40625","4.6875","0.0"
"1575216885349","227","0.26171875","-0.94921875","0.05078125","0.90625","5.0","1.4375"
"1575216885349","228","0.25585938","-0.9628906","0.051757812","1.8125","5.34375","2.3125"
"1575216885350","229","0.2578125","-0.94921875","0.064453125","6.46875","6.21875","2.84375"
"1575216885551","230","0.26171875","-0.95410156","0.064453125","6.09375","7.5","2.65625"
"1575216885551","231","0.2626953","-0.94921875","0.061523438","5.21875","6.15625","2.375"
"1575216885552","232","0.2548828","-0.9511719","0.07128906","5.125","6.21875","2.5625"
"1575216885552","233","0.25","-0.9580078","0.076171875","3.53125","7.8125","2.3125"
"1575216885552","234","0.2607422","-0.94921875","0.07324219","2.90625","7.90625","2.125"
"1575216885552","235","0.26367188","-0.9453125","0.06933594","2.5","7.375","2.78125"
"1575216885553","236","0.24707031","-0.96191406","0.078125","1.03125","9.25","2.84375"
"1575216885553","237","0.25585938","-0.9433594","0.052734375","4.125","9.6875","3.40625"
"1575216885553","238","0.23632812","-0.953125","0.09082031","-1.1875","9.09375","4.1875"
"1575216885553","239","0.24023438","-0.94628906","0.08496094","-0.9375","11.21875","1.5"
"1575216885948","240","0.23925781","-0.9550781","0.049804688","2.5625","9.6875","2.78125"
"1575216885948","241","0.24316406","-0.9511719","0.07714844","2.5625","12.1875","3.34375"
"1575216885949","242","0.21972656","-0.9609375","0.08886719","5.40625","15.1875","6.03125"
"1575216885949","243","0.23925781","-0.9550781","0.08886719","5.59375","13.96875","8.03125"
"1575216885949","244","0.20996094","-0.9404297","0.11328125","7.5","11.59375","9.125"
"1575216885950","245","0.20019531","-0.9453125","0.11621094","10.46875","11.15625","8.84375"
"1575216885950","246","0.19824219","-0.9375","0.11230469","11.15625","9.5","10.71875"
"1575216885951","247","0.14648438","-0.94433594","0.14257812","13.71875","8.84375","10.84375"
"1575216885952","248","0.12695312","-0.9482422","0.17871094","14.875","10.46875","12.625"
"1575216885952","249","0.10546875","-0.9589844","0.22753906","12.875","11.9375","11.53125"
"1575216886347","250","0.111328125","-0.9589844","0.22167969","12.375","11.59375","11.9375"
"1575216886347","251","0.12402344","-0.9736328","0.20996094","11.59375","10.46875","11.15625"
"1575216886347","252","0.07519531","-0.9589844","0.21484375","15.3125","9.5","9.6875"
"1575216886349","253","0.028320312","-0.96972656","0.2607422","18.96875","18.78125","3.71875"
"1575216886349","254","0.01171875","-0.9560547","0.29589844","18.0","26.09375","-3.5"
"1575216886350","255","0.08203125","-0.9472656","0.30566406","16.21875","31.96875","-4.40625"
"1575216886350","256","0.052734375","-0.9453125","0.32910156","9.9375","30.5","-6.5"
"1575216886350","257","0.056640625","-0.9267578","0.33789062","3.03125","28.71875","-5.375"
"1575216886351","258","0.068359375","-0.92089844","0.33007812","-1.65625","24.65625","-6.5"
"1575216886351","259","-0.0068359375","-0.96191406","0.3486328","-3.0625","8.53125","-2.75"
"1575216886744","260","0.091796875","-0.94628906","0.3623047","0.90625","-4.21875","-6.5"
"1575216886744","261","0.103515625","-0.9482422","0.30859375","7.4375","-9.21875","-5.3125"
"1575216886745","262","0.051757812","-0.9296875","0.33691406","5.84375","-17.03125","-2.625"
"1575216886745","263","0.044921875","-0.9375","0.36035156","8.40625","-16.6875","-2.6875"
"1575216886745","264","0.0078125","-0.9609375","0.3984375","7.84375","-15.46875","-3.8125"
"1575216886746","265","-0.0703125","-0.95703125","0.38085938","8.96875","-6.53125","-8.5"
"1575216886746","266","-0.047851562","-0.9707031","0.3876953","1.75","8.59375","-12.84375"
"1575216886746","267","0.0146484375","-0.9765625","0.38476562","-4.15625","11.75","-14.96875"
"1575216886746","268","0.087890625","-0.9794922","0.38867188","-6.125","11.21875","-14.90625"
"1575216886746","269","0.09667969","-0.94628906","0.3828125","-9.0","15.65625","-15.03125"
"1575216887140","270","0.095703125","-0.9355469","0.3564453","-11.0","16.46875","-15.40625"
"1575216887141","271","0.10449219","-0.921875","0.3388672","-13.8125","12.6875","-14.46875"
"1575216887142","272","0.140625","-0.9189453","0.3310547","-15.34375","7.4375","-14.53125"
"1575216887142","273","0.15429688","-0.9111328","0.31445312","-15.75","1.03125","-12.53125"
"1575216887142","274","0.16308594","-0.9169922","0.29589844","-15.75","-2.6875","-10.03125"
"1575216887142","275","0.17675781","-0.9160156","0.27734375","-13.875","-8.375","-6.78125"
"1575216887143","276","0.16601562","-0.9267578","0.2529297","-12.53125","-11.78125","-3.96875"
"1575216887144","277","0.15625","-0.91308594","0.24121094","-10.9375","-12.46875","-3.3125"
"1575216887145","278","0.17871094","-0.9248047","0.23144531","-9.15625","-10.5","-4.03125"
"1575216887145","279","0.20898438","-0.95703125","0.24121094","-8.8125","-11.78125","-4.78125"
"1575216887538","280","0.23632812","-0.9433594","0.22363281","-1.46875","-12.65625","-6.4375"
"1575216887538","281","0.24609375","-0.984375","0.21386719","-3.1875","-10.8125","-6.5"
"1575216887539","282","0.18945312","-0.9589844","0.20019531","-11.1875","-8.125","-7.21875"
"1575216887541","283","0.24804688","-0.9404297","0.1640625","-4.96875","-12.03125","-3.3125"
"1575216887542","284","0.27539062","-0.8984375","0.171875","-5.21875","-13.25","-0.125"
"1575216887542","285","0.27734375","-0.91796875","0.18359375","-6.4375","-12.90625","-3.8125"
"1575216887542","286","0.30664062","-0.92089844","0.17285156","-6.125","-16.0","-4.21875"
"1575216887543","287","0.34765625","-0.9277344","0.12597656","-4.40625","-28.40625","-1.84375"
"1575216887543","288","0.27441406","-0.9082031","0.14941406","-5.8125","-23.75","-2.625"
"1575216887543","289","0.27246094","-0.9326172","0.13378906","-0.125","-22.40625","-3.375"
"1575216887934","290","0.25878906","-0.9296875","0.11425781","-3.0625","-18.5","-3.25"
"1575216887935","291","0.296875","-0.9433594","0.111328125","-5.09375","-12.71875","-5.09375"
"1575216887935","292","0.28320312","-0.9345703","0.115234375","-8.5","-8.1875","-7.71875"
"1575216887935","293","0.30371094","-0.92871094","0.115234375","-7.09375","-5.03125","-9.0625"
"1575216887935","294","0.3125","-0.9121094","0.12109375","-6.71875","-2.34375","-10.03125"
"1575216887936","295","0.33691406","-0.9277344","0.10449219","-4.28125","-5.8125","-10.34375"
"1575216887936","296","0.33984375","-0.921875","0.09277344","-3.6875","-5.5","-10.09375"
"1575216887936","297","0.3232422","-0.9316406","0.091796875","-4.21875","-5.15625","-8.0"
"1575216887936","298","0.33007812","-0.9296875","0.10253906","-5.09375","-4.96875","-6.125"
"1575216887937","299","0.328125","-0.92578125","0.10058594","-5.625","-2.6875","-4.71875"
"1575216888331","300","0.32714844","-0.9160156","0.068359375","-1.78125","-1.25","-3.375"
"1575216888332","301","0.3251953","-0.9296875","0.10546875","-3.90625","-0.875","-0.125"
"1575216888332","302","0.3330078","-0.92285156","0.08105469","-2.34375","-2.8125","0.03125"
"1575216888332","303","0.3310547","-0.9355469","0.055664062","1.375","-2.28125","1.4375"
"1575216888333","304","0.33007812","-0.93066406","0.08691406","-0.375","0.59375","3.03125"
"1575216888333","305","0.33398438","-0.9296875","0.0859375","1.6875","-1.40625","4.375"
"1575216888333","306","0.32226562","-0.93359375","0.0859375","2.1875","-2.34375","5.46875"
"1575216888333","307","0.3310547","-0.9355469","0.091796875","2.3125","-2.40625","7.6875"
"1575216888334","308","0.30273438","-0.9267578","0.099609375","0.59375","-0.8125","6.9375"
"1575216888334","309","0.30859375","-0.9248047","0.08984375","0.09375","1.21875","7.125"
"1575216888733","310","0.30859375","-0.9394531","0.083984375","0.78125","1.03125","7.375"
"1575216888733","311","0.29589844","-0.9296875","0.09082031","0.0","2.375","8.71875"
"1575216888734","312","0.29296875","-0.93359375","0.09375","1.6875","2.4375","9.125"
"1575216888735","313","0.2939453","-0.9375","0.08886719","5.34375","1.21875","9.03125"
"1575216888735","314","0.27148438","-0.9453125","0.08691406","7.0","2.3125","8.59375"
"1575216888736","315","0.2734375","-0.9472656","0.09472656","7.6875","4.0","7.90625"
"1575216888737","316","0.23242188","-0.9472656","0.10644531","6.15625","9.03125","6.34375"
"1575216888737","317","0.24707031","-0.9296875","0.119140625","6.46875","12.1875","5.78125"
"1575216888738","318","0.25683594","-0.93652344","0.11621094","6.875","10.71875","8.59375"
"1575216888738","319","0.2548828","-0.9267578","0.13574219","3.65625","10.25","8.84375"
"1575216889127","320","0.2607422","-0.9511719","0.10449219","10.375","9.9375","10.0625"
"1575216889127","321","0.21191406","-0.9277344","0.15820312","3.53125","10.0625","8.71875"
"1575216889128","322","0.23632812","-0.9326172","0.16210938","6.34375","9.5625","8.59375"
"1575216889128","323","0.23339844","-0.9345703","0.15039062","8.15625","7.125","10.375"
"1575216889128","324","0.23730469","-0.9267578","0.171875","11.8125","1.3125","17.0"
"1575216889130","325","0.15917969","-0.9609375","0.19335938","12.9375","-3.5625","18.34375"
"1575216889130","326","0.15917969","-0.9355469","0.21972656","15.0","-5.09375","20.625"
"1575216889131","327","0.11230469","-0.95214844","0.23339844","16.90625","-3.90625","18.53125"
"1575216889131","328","0.099609375","-0.9423828","0.24609375","14.9375","1.09375","15.0625"
"1575216889131","329","0.078125","-0.96191406","0.24902344","19.53125","1.75","15.3125"
"1575216889525","330","0.1328125","-0.9736328","0.24902344","17.0","2.96875","19.21875"
"1575216889525","331","0.07128906","-0.9375","0.32128906","5.53125","19.53125","13.40625"
"1575216889526","332","0.026367188","-0.9091797","0.3154297","9.125","19.53125","11.28125"
"1575216889526","333","0.052734375","-0.9511719","0.3046875","10.46875","20.8125","7.5625"
"1575216889526","334","0.036132812","-0.9423828","0.32617188","7.6875","21.78125","4.0625"
"1575216889526","335","0.064453125","-0.94921875","0.3408203","6.8125","24.28125","0.09375"
"1575216889527","336","0.03515625","-0.94628906","0.34570312","-0.4375","29.03125","-1.59375"
"1575216889528","337","0.03515625","-0.90234375","0.37109375","-2.9375","30.4375","-2.75"
"1575216889528","338","0.06347656","-0.94433594","0.36914062","0.46875","16.28125","1.625"
"1575216889529","339","-0.0546875","-0.9453125","0.36816406","-2.6875","3.40625","-3.0625"
"1575216889922","340","-0.05859375","-0.9658203","0.38476562","0.65625","1.15625","-2.9375"
"1575216889922","341","-0.103515625","-0.9609375","0.37890625","-3.3125","3.53125","-6.0"
"1575216889923","342","-0.0859375","-0.97753906","0.359375","-0.6875","1.03125","-5.09375"
"1575216889923","343","-0.06542969","-0.96191406","0.35351562","0.78125","1.8125","-4.78125"
"1575216889923","344","-0.016601562","-0.9863281","0.34570312","-0.875","3.65625","-7.03125"
"1575216889923","345","0.0078125","-0.9433594","0.3466797","-3.1875","1.15625","-6.0"
"1575216889924","346","-0.0068359375","-0.9345703","0.3330078","-3.5625","-1.3125","-6.25"
"1575216889924","347","-0.0068359375","-0.93359375","0.35058594","-8.25","0.90625","-8.625"
"1575216889924","348","0.0048828125","-0.96191406","0.33496094","-8.3125","0.59375","-10.4375"
"1575216889924","349","0.0078125","-0.9589844","0.3173828","-12.15625","0.78125","-12.65625"
"1575216890319","350","0.01953125","-0.9667969","0.3076172","-10.4375","3.15625","-12.78125"
"1575216890319","351","0.0703125","-0.9716797","0.30859375","-10.40625","5.0625","-13.25"
"1575216890320","352","0.0703125","-0.9501953","0.3017578","-10.21875","-0.1875","-12.96875"
"1575216890320","353","0.068359375","-0.9375","0.2763672","-12.53125","0.90625","-14.25"
"1575216890320","354","0.12011719","-0.9404297","0.2734375","-14.34375","2.96875","-12.96875"
"1575216890320","355","0.1484375","-0.9189453","0.2529297","-16.625","4.1875","-12.46875"
"1575216890321","356","0.16699219","-0.96191406","0.21484375","-13.03125","0.03125","-10.75"
"1575216890321","357","0.14453125","-0.9453125","0.19140625","-13.8125","-3.90625","-11.78125"
"1575216890321","358","0.1640625","-0.9326172","0.20703125","-11.71875","-5.875","-9.90625"
"1575216890321","359","0.16894531","-0.91308594","0.20117188","-11.0","-5.5625","-11.1875"
"1575216890718","360","0.21777344","-0.9277344","0.17578125","-6.0","-4.53125","-8.0625"
"1575216890719","361","0.18261719","-0.91308594","0.16796875","-6.84375","-7.9375","-6.125"
"1575216890719","362","0.21386719","-0.9160156","0.17480469","-3.25","-8.875","-4.21875"
"1575216890719","363","0.2607422","-0.9658203","0.15332031","-3.875","-6.65625","-4.84375"
"1575216890720","364","0.25097656","-1.0009766","0.14160156","-6.4375","-7.59375","-6.71875"
"1575216890720","365","0.23339844","-0.9638672","0.12890625","-11.3125","-8.6875","-8.5"
"1575216890722","366","0.23339844","-0.9433594","0.14453125","-11.90625","-7.65625","-10.625"
"1575216890722","367","0.21679688","-0.9189453","0.14453125","-10.28125","-7.9375","-10.625"
"1575216890722","368","0.23730469","-0.93652344","0.13964844","-9.78125","-4.96875","-9.46875"
"1575216890723","369","0.26367188","-0.953125","0.11328125","-9.34375","-4.71875","-8.0625"
"1575216891115","370","0.27734375","-0.9589844","0.09472656","-9.53125","-6.0625","-6.96875"
"1575216891116","371","0.25097656","-0.95996094","0.08886719","-10.28125","-6.5","-6.65625"
"1575216891116","372","0.23828125","-0.95214844","0.09082031","-9.15625","-4.03125","-6.1875"
"1575216891118","373","0.234375","-0.9501953","0.076171875","-5.625","-2.21875","-4.40625"
"1575216891118","374","0.25195312","-0.9482422","0.083984375","-6.84375","-1.0625","-3.25"
"1575216891118","375","0.24804688","-0.9609375","0.08984375","-10.5625","-1.53125","-2.40625"
"1575216891119","376","0.2626953","-0.94921875","0.053710938","-7.03125","-0.5","-1.46875"
"1575216891119","377","0.24316406","-0.953125","0.07519531","-11.1875","1.625","-1.1875"
"1575216891119","378","0.25878906","-0.953125","0.0546875","-11.78125","1.03125","-2.21875"
"1575216891119","379","0.2548828","-0.9580078","0.02734375","-7.46875","0.59375","-1.84375"
"1575216891514","380","0.26953125","-0.94628906","0.0546875","-8.125","3.15625","-0.5625"
"1575216891514","381","0.2685547","-0.94140625","0.040039062","-5.625","1.15625","1.21875"
"1575216891515","382","0.2607422","-0.93359375","0.047851562","-2.34375","0.78125","2.65625"
"1575216891515","383","0.2421875","-0.9433594","0.045898438","-0.5","2.3125","2.90625"
"1575216891515","384","0.27539062","-0.9423828","0.05078125","0.03125","4.3125","1.5625"
"1575216891516","385","0.26953125","-0.9501953","0.04296875","3.46875","2.1875","1.8125"
"1575216891517","386","0.25878906","-0.9472656","0.0546875","5.21875","2.125","2.65625"
"1575216891517","387","0.25976562","-0.94140625","0.0625","6.9375","2.1875","3.90625"
"1575216891517","388","0.2626953","-0.9375","0.06640625","8.84375","3.53125","5.0625"
"1575216891518","389","0.2578125","-0.9482422","0.0625","9.6875","3.09375","7.125"
"1575216891910","390","0.2626953","-0.93652344","0.0703125","10.1875","1.15625","9.125"
"1575216891911","391","0.24316406","-0.953125","0.07519531","11.8125","0.46875","9.5"
"1575216891911","392","0.23242188","-0.96191406","0.080078125","12.75","2.5625","8.90625"
"1575216891911","393","0.23242188","-0.94433594","0.08886719","12.1875","3.21875","7.6875"
"1575216891912","394","0.22167969","-0.9628906","0.10449219","11.28125","2.84375","8.90625"
"1575216891912","395","0.21777344","-0.9404297","0.08105469","13.96875","6.15625","8.03125"
"1575216891912","396","0.20898438","-0.95996094","0.123046875","4.5625","7.625","9.375"
"1575216891913","397","0.20507812","-0.9580078","0.12109375","4.75","8.59375","7.90625"
"1575216891913","398","0.18652344","-0.9892578","0.09863281","6.46875","9.6875","9.03125"
"1575216891914","399","0.15917969","-0.9638672","0.12988281","3.46875","13.15625","10.46875"
"1575216892507","400","0.13476562","-0.9394531","0.18066406","3.34375","13.96875","11.28125"
"1575216892507","401","0.12207031","-0.9472656","0.18359375","11.28125","11.28125","10.1875"
"1575216892508","402","0.09863281","-0.9580078","0.19921875","7.6875","12.25","7.90625"
"1575216892508","403","0.119140625","-0.93652344","0.19628906","8.03125","12.625","5.90625"
"1575216892508","404","0.13085938","-0.9716797","0.21386719","6.9375","17.4375","9.8125"
"1575216892508","405","0.041015625","-0.9765625","0.2626953","1.15625","18.0","5.53125"
"1575216892509","406","0.0390625","-0.97753906","0.2783203","4.25","13.28125","2.90625"
"1575216892509","407","0.025390625","-0.96191406","0.27734375","4.75","15.65625","1.375"
"1575216892509","408","-0.016601562","-0.9404297","0.29296875","5.21875","19.53125","1.375"
"1575216892511","409","0.020507812","-0.92089844","0.26757812","12.75","19.34375","3.78125"
"1575216892705","410","0.0546875","-0.95214844","0.25585938","11.28125","19.40625","9.6875"
"1575216892705","411","0.046875","-0.9824219","0.2939453","8.15625","10.84375","10.59375"
"1575216892705","412","-0.0087890625","-0.9501953","0.32714844","10.46875","6.46875","5.46875"
"1575216892706","413","-0.00390625","-0.9902344","0.31835938","12.25","6.46875","1.09375"
"1575216892706","414","-0.05078125","-0.9658203","0.3251953","2.71875","8.28125","-2.875"
"1575216892706","415","-0.016601562","-0.9736328","0.35058594","3.71875","0.40625","-1.84375"
"1575216892706","416","-0.052734375","-0.9472656","0.35839844","-1.46875","-0.0625","-3.125"
"1575216892707","417","-0.013671875","-0.9765625","0.328125","1.75","0.0","-1.71875"
"1575216892707","418","-0.034179688","-0.96875","0.3466797","-3.3125","-0.375","-1.53125"
"1575216892707","419","-0.03515625","-0.95996094","0.35253906","-4.34375","-2.03125","-4.09375"
"1575216893103","420","-0.0126953125","-0.9580078","0.34765625","-7.46875","-0.625","-6.25"
"1575216893104","421","-0.017578125","-0.9560547","0.3076172","-7.40625","-4.09375","-7.53125"
"1575216893104","422","0.009765625","-0.94433594","0.3076172","-7.875","-8.3125","-6.53125"
"1575216893104","423","0.028320312","-0.93847656","0.3046875","-8.125","-9.53125","-8.5625"
"1575216893104","424","0.048828125","-0.9667969","0.29003906","-9.96875","-7.9375","-9.21875"
"1575216893105","425","0.09667969","-1.0107422","0.2939453","-9.59375","-7.8125","-10.34375"
"1575216893105","426","0.06933594","-0.9863281","0.25","-8.9375","-10.34375","-9.15625"
"1575216893105","427","0.072265625","-0.9345703","0.21582031","-9.34375","-9.96875","-8.5625"
"1575216893106","428","0.09765625","-0.8964844","0.20214844","-3.8125","-10.6875","-6.0625"
"1575216893106","429","0.12792969","-0.9267578","0.19726562","0.71875","-7.875","-5.03125"
"1575216893500","430","0.15429688","-0.98828125","0.19921875","-1.0","-5.6875","-5.5"
"1575216893501","431","0.16015625","-0.9609375","0.1953125","-6.53125","-6.65625","-6.375"
"1575216893501","432","0.15429688","-0.9316406","0.18066406","-5.3125","-7.03125","-7.78125"
"1575216893503","433","0.14941406","-0.9355469","0.1796875","-10.9375","-7.8125","-9.84375"
"1575216893503","434","0.19824219","-0.95410156","0.16308594","-4.90625","-7.03125","-7.34375"
"1575216893503","435","0.16015625","-0.9580078","0.19628906","-11.71875","-10.34375","-10.09375"
"1575216893504","436","0.19824219","-0.9423828","0.15722656","-12.15625","-8.3125","-12.90625"
"1575216893504","437","0.24707031","-0.9511719","0.13769531","-8.4375","-9.78125","-8.5625"
"1575216893504","438","0.20996094","-0.9433594","0.13769531","-8.375","-15.875","-8.0"
"1575216893504","439","0.2109375","-0.94921875","0.14160156","-5.625","-15.46875","-7.78125"
"1575216893897","440","0.21289062","-0.9550781","0.125","-6.5","-9.96875","-9.0"
"1575216893897","441","0.23535156","-0.9628906","0.111328125","-5.4375","-9.125","-7.875"
"1575216893897","442","0.23535156","-0.9550781","0.13671875","-9.96875","-6.0","-8.8125"
"1575216893897","443","0.234375","-0.9501953","0.109375","-9.96875","-8.8125","-8.1875"
"1575216893898","444","0.25683594","-0.9375","0.08886719","-8.0625","-8.5625","-5.5625"
"1575216893899","445","0.2734375","-0.95703125","0.09277344","-10.40625","-5.21875","-6.59375"
"1575216893899","446","0.26367188","-0.9501953","0.08691406","-13.5","-0.25","-8.4375"
"1575216893899","447","0.26660156","-0.9482422","0.07128906","-11.625","1.28125","-8.6875"
"1575216893900","448","0.25683594","-0.953125","0.064453125","-11.6875","3.34375","-7.71875"
"1575216893900","449","0.24902344","-0.94628906","0.07714844","-15.40625","9.09375","-7.21875"
"1575216894295","450","0.24707031","-0.9423828","0.08203125","-17.90625","10.53125","-7.875"
"1575216894296","451","0.27539062","-0.9404297","0.06738281","-12.34375","8.53125","-5.875"
"1575216894296","452","0.29492188","-0.94140625","0.016601562","-7.78125","4.25","-3.90625"
"1575216894297","453","0.33398438","-0.9404297","0.0029296875","-5.375","0.90625","-1.59375"
"1575216894297","454","0.25683594","-0.9355469","0.03515625","-5.6875","0.09375","-2.03125"
"1575216894297","455","0.2734375","-0.94433594","0.056640625","2.4375","-1.0625","-1.71875"
"1575216894297","456","0.29003906","-0.9433594","0.05859375","0.28125","-2.28125","-2.875"
"1575216894299","457","0.2841797","-0.9501953","0.028320312","3.84375","-3.3125","-1.25"
"1575216894299","458","0.25585938","-0.9316406","0.043945312","3.84375","-0.5","-0.5"
"1575216894299","459","0.2734375","-0.92285156","0.0546875","6.6875","4.0625","0.78125"
"1575216894693","460","0.28125","-0.94140625","0.052734375","7.5625","7.90625","0.65625"
"1575216894694","461","0.27246094","-0.9472656","0.049804688","8.28125","5.40625","1.03125"
"1575216894694","462","0.27246094","-0.9482422","0.060546875","5.34375","7.25","2.3125"
"1575216894694","463","0.2890625","-0.93847656","0.06347656","8.84375","6.46875","4.0"
"1575216894694","464","0.21679688","-0.9453125","0.072265625","6.21875","9.25","3.21875"
"1575216894695","465","0.2705078","-0.9326172","0.09375","2.5","14.5","4.0"
"1575216894695","466","0.26464844","-0.9501953","0.087890625","6.03125","14.375","6.09375"
"1575216894695","467","0.234375","-0.9404297","0.107421875","8.15625","14.5","5.90625"
"1575216894695","468","0.23144531","-0.94433594","0.099609375","10.84375","11.28125","7.125"
"1575216894697","469","0.24316406","-0.9433594","0.12792969","13.71875","8.90625","7.6875"
"1575216895090","470","0.23535156","-0.94628906","0.12890625","15.3125","5.90625","9.6875"
"1575216895091","471","0.18652344","-0.94628906","0.16699219","17.3125","7.8125","12.25"
"1575216895091","472","0.19140625","-0.9453125","0.18554688","19.15625","7.5","17.0"
"1575216895091","473","0.16601562","-0.9707031","0.19335938","15.1875","9.8125","18.21875"
"1575216895092","474","0.15722656","-0.95214844","0.17675781","18.125","13.15625","17.875"
"1575216895092","475","0.13183594","-0.9472656","0.23242188","13.28125","11.9375","16.40625"
"1575216895092","476","0.123046875","-0.95214844","0.23339844","13.28125","15.1875","11.59375"
"1575216895092","477","0.1171875","-0.97753906","0.23339844","13.28125","17.375","10.0625"
"1575216895093","478","0.057617188","-0.96875","0.2841797","4.5625","21.15625","3.59375"
"1575216895093","479","0.109375","-0.9746094","0.25878906","7.625","29.28125","0.0"
"1575216895488","480","0.09863281","-0.9589844","0.2578125","3.90625","30.75","4.125"
"1575216895489","481","0.09472656","-0.9160156","0.30273438","1.09375","27.625","5.46875"
"1575216895489","482","0.043945312","-0.9316406","0.3095703","5.125","22.6875","7.6875"
"1575216895489","483","0.018554688","-0.9345703","0.31933594","3.78125","24.875","2.5"
"1575216895489","484","0.0390625","-0.94140625","0.31835938","4.0","24.71875","1.3125"
"1575216895490","485","0.02734375","-0.90625","0.328125","3.21875","23.125","-0.625"
"1575216895490","486","0.034179688","-0.92578125","0.328125","7.0","15.1875","1.625"
"1575216895492","487","0.01953125","-0.9316406","0.3623047","4.5625","8.71875","-1.40625"
"1575216895492","488","-0.032226562","-0.9375","0.35058594","4.5625","2.5625","-6.4375"
"1575216895492","489","-0.015625","-0.9511719","0.34179688","5.53125","-2.09375","-6.5"
"1575216895884","490","0.0107421875","-0.97753906","0.359375","8.21875","-5.5","-7.65625"
"1575216895884","491","0.0087890625","-0.9609375","0.37304688","4.375","-3.8125","-8.875"
"1575216895885","492","0.026367188","-0.9746094","0.37597656","4.75","-3.375","-8.1875"
"1575216895886","493","0.0146484375","-0.92871094","0.35351562","1.09375","-5.875","-7.28125"
"1575216895887","494","0.045898438","-0.92871094","0.35351562","0.59375","-7.875","-2.09375"
"1575216895887","495","0.03125","-0.91503906","0.3671875","-0.375","-13.75","-0.875"
"1575216895888","496","0.0390625","-0.9345703","0.328125","2.0625","-10.6875","-1.1875"
"1575216895888","497","0.02734375","-0.9423828","0.36328125","0.0","-11.125","-0.25"
"1575216895888","498","0.05078125","-0.9511719","0.37304688","-0.875","-11.71875","-2.75"
"1575216895888","499","0.036132812","-0.9589844","0.38183594","-5.15625","-8.875","-6.78125"
"1575216896282","500","0.043945312","-0.9404297","0.38183594","-7.9375","-9.84375","-8.5"
"1575216896282","501","0.046875","-0.9248047","0.3779297","-11.625","-10.5","-9.34375"
"1575216896283","502","0.12597656","-0.9423828","0.34960938","-13.375","-11.96875","-6.96875"
"1575216896283","503","0.08105469","-0.9404297","0.34472656","-15.875","-13.3125","-9.21875"
"1575216896283","504","0.07421875","-0.921875","0.33007812","-16.3125","-15.34375","-12.96875"
"1575216896284","505","0.091796875","-0.91503906","0.2919922","-14.84375","-13.5","-14.3125"
"1575216896284","506","0.14355469","-0.92089844","0.24511719","-12.90625","-8.75","-11.0625"
"1575216896285","507","0.18652344","-0.91796875","0.25683594","-8.875","-10.4375","-6.71875"
"1575216896285","508","0.1640625","-0.9082031","0.24023438","-5.03125","-13.6875","-3.25"
"1575216896285","509","0.23339844","-0.93652344","0.17480469","-3.875","-4.96875","-3.3125"
"1575216896680","510","0.26367188","-0.93359375","0.19140625","-7.09375","-5.75","-0.8125"
"1575216896681","511","0.27246094","-0.91308594","0.19628906","-4.03125","-10.9375","-1.125"
"1575216896681","512","0.25390625","-0.94140625","0.19042969","-4.40625","-11.5","-2.40625"
"1575216896681","513","0.2265625","-0.96191406","0.15722656","-5.8125","-7.53125","-5.3125"
"1575216896682","514","0.14746094","-0.96777344","0.18652344","-9.0","1.375","-7.09375"
"1575216896682","515","0.20410156","-0.90722656","0.20117188","-7.09375","5.28125","-6.65625"
"1575216896682","516","0.30273438","-0.93847656","0.13574219","-1.90625","3.9375","-9.59375"
"1575216896683","517","0.34570312","-0.953125","0.11328125","-6.0","1.8125","-8.4375"
"1575216896684","518","0.3203125","-0.9140625","0.13964844","-8.8125","-2.875","-7.09375"
"1575216896684","519","0.29589844","-0.9140625","0.14160156","-8.3125","-5.9375","-7.15625"
"1575216897078","520","0.28710938","-0.94433594","0.12988281","-6.4375","-10.40625","-4.59375"
"1575216897078","521","0.22753906","-0.9394531","0.13964844","-3.5625","-9.15625","-6.53125"
"1575216897079","522","0.25195312","-0.96777344","0.13867188","-1.65625","-11.25","-5.625"
"1575216897079","523","0.28320312","-0.96972656","0.115234375","-3.75","-15.09375","-4.90625"
"1575216897079","524","0.29785156","-0.91503906","0.13574219","-8.5","-13.6875","-1.0"
"1575216897080","525","0.26757812","-0.91503906","0.13769531","-6.71875","-11.84375","0.96875"
"1575216897080","526","0.2841797","-0.92285156","0.13867188","-7.65625","-3.125","-1.78125"
"1575216897080","527","0.2783203","-0.9355469","0.11230469","-5.4375","0.65625","-2.28125"
"1575216897080","528","0.2861328","-0.9375","0.10058594","-4.09375","-1.1875","-1.125"
"1575216897082","529","0.2890625","-0.9277344","0.10644531","0.0","-3.75","0.28125"
"1575216897475","530","0.26367188","-0.93066406","0.123046875","1.15625","-2.53125","0.96875"
"1575216897475","531","0.2861328","-0.92578125","0.12207031","0.96875","0.71875","0.78125"
"1575216897476","532","0.28710938","-0.9501953","0.11425781","4.125","4.375","1.5625"
"1575216897476","533","0.265625","-0.94140625","0.11230469","2.84375","6.21875","2.0625"
"1575216897476","534","0.26464844","-0.9560547","0.13476562","4.125","4.5625","3.46875"
"1575216897476","535","0.25390625","-0.9111328","0.14941406","2.71875","5.34375","3.90625"
"1575216897477","536","0.25683594","-0.92871094","0.12695312","7.125","5.59375","4.75"
"1575216897477","537","0.25585938","-0.92871094","0.1484375","7.90625","6.5625","5.78125"
"1575216897477","538","0.2607422","-0.9140625","0.16113281","7.5","6.03125","5.90625"
"1575216897478","539","0.24609375","-0.92871094","0.16210938","7.375","5.65625","7.25"
"1575216897873","540","0.22460938","-0.9326172","0.17382812","9.25","5.65625","8.71875"
"1575216897874","541","0.22070312","-0.9355469","0.19042969","9.9375","6.15625","9.03125"
"1575216897874","542","0.21679688","-0.9501953","0.19042969","12.625","5.90625","10.46875"
"1575216897874","543","0.21191406","-0.93652344","0.20507812","15.71875","8.90625","12.75"
"1575216897875","544","0.18164062","-0.93066406","0.23828125","18.1875","4.6875","14.3125"
"1575216897875","545","0.13671875","-0.91796875","0.25","23.96875","2.90625","15.5"
"1575216897875","546","0.11328125","-0.9199219","0.26171875","25.25","3.03125","16.34375"
"1575216897875","547","0.15234375","-0.95410156","0.28222656","22.4375","9.25","16.40625"
"1575216897876","548","0.115234375","-0.9501953","0.31347656","14.28125","14.5","12.375"
"1575216897879","549","0.10058594","-0.93847656","0.31640625","12.0625","18.71875","10.59375"
"1575216898270","550","0.08300781","-0.93847656","0.32714844","10.1875","22.1875","9.6875"
"1575216898271","551","0.095703125","-0.9511719","0.359375","8.59375","24.65625","7.25"
"1575216898271","552","0.051757812","-0.91015625","0.38476562","3.21875","21.03125","4.4375"
"1575216898273","553","0.049804688","-0.9248047","0.3984375","2.375","21.59375","3.34375"
"1575216898273","554","0.05859375","-0.90722656","0.3857422","-4.09375","17.125","1.4375"
"1575216898273","555","0.052734375","-0.9404297","0.35253906","-3.4375","13.65625","2.5"
"1575216898274","556","0.030273438","-0.9296875","0.38671875","-4.53125","9.4375","0.0"
"1575216898274","557","0.041992188","-0.90625","0.35839844","-0.875","2.59375","-1.84375"
"1575216898274","558","0.043945312","-0.9267578","0.36816406","-1.0","4.0625","-3.375"
"1575216898274","559","0.038085938","-0.9248047","0.38476562","-2.53125","2.4375","-3.875"
"1575216898668","560","0.017578125","-0.9199219","0.3857422","-2.21875","-0.375","-4.90625"
"1575216898669","561","0.03515625","-0.9345703","0.38378906","-1.59375","-2.875","-5.4375"
"1575216898669","562","0.04296875","-0.9404297","0.3779297","-3.8125","-2.15625","-6.96875"
"1575216898669","563","0.041015625","-0.9277344","0.37304688","-3.875","-1.65625","-6.96875"
"1575216898669","564","0.051757812","-0.9375","0.39453125","-1.90625","0.90625","-7.03125"
"1575216898671","565","0.037109375","-0.90722656","0.38476562","-3.5","0.09375","-5.5625"
"1575216898671","566","0.047851562","-0.92089844","0.37109375","-2.28125","-0.0625","-3.125"
"1575216898672","567","0.076171875","-0.9267578","0.36914062","-2.09375","-0.75","-1.0"
"1575216898672","568","0.072265625","-0.9404297","0.36621094","-1.53125","-2.9375","-2.75"
"1575216898672","569","0.07714844","-0.9326172","0.35546875","-1.71875","-6.78125","-2.34375"
"1575216899065","570","0.07519531","-0.9375","0.359375","-2.59375","-6.1875","-2.15625"
"1575216899066","571","0.0625","-0.92578125","0.33984375","-1.78125","-6.375","-1.40625"
"1575216899066","572","0.0546875","-0.9277344","0.37890625","-7.8125","-3.0","-2.59375"
"1575216899067","573","0.08300781","-0.9267578","0.3515625","-8.4375","-4.84375","-4.03125"
"1575216899067","574","0.09082031","-0.95214844","0.3232422","-11.0","-4.78125","-5.6875"
"1575216899067","575","0.076171875","-0.92871094","0.32910156","-15.34375","-3.8125","-6.125"
"1575216899067","576","0.08496094","-0.92285156","0.3310547","-14.1875","-3.4375","-6.0625"
"1575216899069","577","0.10253906","-0.9345703","0.2939453","-10.75","-5.9375","-4.59375"
"1575216899069","578","0.111328125","-0.9628906","0.28027344","-9.0625","-4.46875","-4.90625"
"1575216899070","579","0.091796875","-0.9433594","0.28320312","-11.3125","-0.5","-7.15625"
"1575216899461","580","0.11035156","-0.94140625","0.2607422","-11.4375","1.5","-8.5625"
"1575216899462","581","0.14550781","-0.9375","0.24414062","-11.5","1.5625","-9.125"
"1575216899462","582","0.1484375","-0.94921875","0.24023438","-12.78125","0.28125","-10.8125"
"1575216899462","583","0.17871094","-0.9511719","0.23046875","-12.53125","-1.3125","-11.6875"
"1575216899463","584","0.20507812","-0.9355469","0.20019531","-11.25","-7.09375","-10.9375"
"1575216899463","585","0.21875","-0.9189453","0.17578125","-11.5","-10.875","-10.15625"
"1575216899463","586","0.24414062","-0.92089844","0.1640625","-10.21875","-11.625","-7.28125"
"1575216899463","587","0.25878906","-0.93847656","0.15820312","-9.0625","-13.5","-4.71875"
"1575216899464","588","0.25878906","-0.9580078","0.15527344","-10.21875","-13.25","-3.375"
"1575216899465","589","0.22851562","-0.9550781","0.15429688","-12.34375","-13.1875","-4.53125"
"1575216899860","590","0.21289062","-0.9296875","0.1328125","-12.53125","-10.8125","-7.09375"
"1575216899861","591","0.22949219","-0.9560547","0.15625","-10.9375","-8.375","-5.875"
"1575216899861","592","0.23339844","-0.9423828","0.15136719","-14.40625","-5.6875","-8.6875"
"1575216899861","593","0.24609375","-0.9482422","0.109375","-11.3125","-4.90625","-9.53125"
"1575216899861","594","0.25390625","-0.9375","0.115234375","-13.5625","-2.59375","-10.4375"
"1575216899862","595","0.2939453","-0.9423828","0.103515625","-10.625","-3.125","-12.40625"
"1575216899862","596","0.2890625","-0.9501953","0.091796875","-10.75","-1.65625","-13.625"
"1575216899862","597","0.2939453","-0.95996094","0.107421875","-12.78125","-1.1875","-12.59375"
"1575216899862","598","0.27734375","-0.9169922","0.09472656","-12.46875","-7.03125","-8.25"
"1575216899863","599","0.2763672","-0.9345703","0.07324219","-7.9375","-8.5625","-4.34375"
"1575216900258","600","0.2734375","-0.9404297","0.060546875","-8.0","-1.84375","-4.15625"
"1575216900259","601","0.2998047","-0.9453125","0.061523438","-8.0","0.40625","-3.4375"
"1575216900260","602","0.30078125","-0.93652344","0.053710938","-8.25","0.59375","-2.59375"
"1575216900261","603","0.29589844","-0.9345703","0.05078125","-4.34375","1.28125","-1.65625"
"1575216900261","604","0.28320312","-0.9296875","0.052734375","-1.65625","1.28125","-1.0625"
"1575216900262","605","0.2783203","-0.94921875","0.041992188","1.03125","1.5","-0.9375"
"1575216900262","606","0.29296875","-0.94433594","0.040039062","0.40625","4.4375","-0.5"
"1575216900262","607","0.2841797","-0.9355469","0.052734375","-1.46875","6.9375","-0.75"
"1575216900263","608","0.2919922","-0.9326172","0.052734375","-0.875","8.15625","0.03125"
"1575216900263","609","0.2841797","-0.93652344","0.049804688","-0.5625","7.3125","0.71875"
"1575216900656","610","0.28515625","-0.9404297","0.043945312","5.59375","8.90625","0.0"
"1575216900657","611","0.28710938","-0.94921875","0.068359375","-0.625","6.75","-0.75"
"1575216900657","612","0.31933594","-0.9453125","0.049804688","2.65625","5.59375","-0.125"
"1575216900658","613","0.29785156","-0.9472656","0.052734375","3.21875","4.125","1.15625"
"1575216900659","614","0.2763672","-0.93359375","0.06542969","1.5625","5.90625","2.125"
"1575216900659","615","0.29589844","-0.9394531","0.06933594","1.15625","6.5625","3.40625"
"1575216900659","616","0.27929688","-0.9404297","0.05859375","7.5","6.46875","4.375"
"1575216900660","617","0.2578125","-0.94140625","0.083984375","4.0","8.28125","6.46875"
"1575216900660","618","0.2783203","-0.9423828","0.080078125","8.15625","7.90625","7.375"
"1575216900660","619","0.25195312","-0.94921875","0.09082031","6.6875","7.6875","8.03125"
"1575216901053","620","0.24902344","-0.921875","0.1171875","3.59375","8.21875","6.875"
"1575216901053","621","0.26367188","-0.93847656","0.11230469","5.125","8.03125","7.375"
"1575216901054","622","0.24414062","-0.9453125","0.11621094","4.875","9.8125","4.75"
"1575216901054","623","0.25195312","-0.95410156","0.10644531","5.40625","10.1875","4.0"
"1575216901054","624","0.2548828","-0.9560547","0.11328125","7.625","11.40625","2.90625"
"1575216901055","625","0.22949219","-0.94628906","0.1328125","8.46875","10.375","4.1875"
"1575216901056","626","0.18847656","-0.9404297","0.15820312","8.46875","13.71875","4.1875"
"1575216901056","627","0.16894531","-0.92871094","0.17480469","10.71875","18.96875","5.65625"
"1575216901056","628","0.15234375","-0.93847656","0.20898438","9.8125","21.84375","6.15625"
"1575216901057","629","0.17578125","-0.9423828","0.203125","15.625","20.96875","8.90625"
"1575216901649","630","0.16601562","-0.9511719","0.24121094","11.53125","18.90625","8.15625"
"1575216901650","631","0.16601562","-0.9609375","0.2548828","15.625","16.40625","8.34375"
"1575216901650","632","0.13476562","-0.96191406","0.25390625","14.21875","11.03125","8.28125"
"1575216901651","633","0.09277344","-0.9267578","0.2529297","13.59375","9.25","6.03125"
"1575216901651","634","0.12402344","-0.93359375","0.2734375","16.78125","12.375","8.21875"
"1575216901651","635","0.07324219","-0.9511719","0.3173828","13.15625","16.84375","4.125"
"1575216901652","636","0.064453125","-0.9277344","0.3251953","9.125","19.34375","2.375"
"1575216901652","637","0.11328125","-0.9580078","0.3251953","2.71875","21.53125","2.3125"
"1575216901653","638","0.07421875","-0.95703125","0.32714844","1.5","16.84375","1.375"
"1575216901654","639","0.07128906","-0.9560547","0.3515625","1.6875","16.53125","-1.3125"
"1575216902048","640","0.0703125","-0.96972656","0.33691406","2.65625","17.1875","-3.875"
"1575216902048","641","0.0859375","-0.9658203","0.34375","-0.6875","15.78125","-3.125"
"1575216902048","642","0.09765625","-0.93847656","0.34472656","0.90625","9.5","-2.28125"
"1575216902049","643","0.040039062","-0.93652344","0.33984375","-0.1875","6.09375","-0.1875"
"1575216902049","644","0.037109375","-0.9267578","0.3486328","1.8125","4.5625","-1.90625"
"1575216902049","645","0.06738281","-0.9296875","0.34277344","3.34375","2.71875","-2.34375"
"1575216902049","646","0.07714844","-0.92871094","0.33496094","5.1875","-0.75","-2.03125"
"1575216902050","647","0.07519531","-0.9394531","0.3515625","2.25","0.15625","-1.0625"
"1575216902050","648","0.064453125","-0.96484375","0.35839844","5.0","-2.34375","1.5"
"1575216902050","649","0.040039062","-0.9326172","0.40039062","-0.9375","-3.875","-0.875"
"1575216902443","650","0.0546875","-0.9345703","0.375","1.375","-4.96875","-2.28125"
"1575216902443","651","0.051757812","-0.9394531","0.36035156","-0.9375","-4.90625","-2.34375"
"1575216902443","652","0.0625","-0.9345703","0.3642578","-4.53125","-6.3125","-2.625"
"1575216902443","653","0.0703125","-0.9511719","0.3671875","-6.59375","-7.71875","-5.9375"
"1575216902444","654","0.078125","-0.9433594","0.35839844","-10.40625","-12.03125","-7.59375"
"1575216902444","655","0.051757812","-0.9394531","0.3466797","-12.53125","-14.59375","-11.5625"
"1575216902444","656","0.09375","-0.92285156","0.34277344","-12.84375","-11.96875","-12.15625"
"1575216902444","657","0.15039062","-0.9482422","0.3076172","-11.625","-11.625","-11.71875"
"1575216902445","658","0.1796875","-0.9375","0.28515625","-12.53125","-12.46875","-9.21875"
"1575216902445","659","0.17578125","-0.9482422","0.25683594","-13.1875","-14.25","-7.40625"
"1575216902841","660","0.16699219","-0.9199219","0.24023438","-11.25","-15.34375","-6.375"
"1575216902842","661","0.17773438","-0.90625","0.20019531","-10.09375","-16.4375","-5.09375"
"1575216902842","662","0.23632812","-0.90722656","0.16894531","-8.5625","-11.5","-5.75"
"1575216902842","663","0.2109375","-0.9355469","0.16308594","-10.5","-5.875","-7.34375"
"1575216902843","664","0.23144531","-0.9355469","0.15820312","-11.78125","-3.5625","-7.34375"
"1575216902843","665","0.23925781","-0.9267578","0.15917969","-12.53125","-1.1875","-8.0625"
"1575216902843","666","0.29003906","-0.9169922","0.14453125","-8.625","-2.625","-8.9375"
"1575216902844","667","0.24316406","-0.9433594","0.15722656","-12.03125","-5.8125","-12.78125"
"1575216902844","668","0.26367188","-0.9580078","0.13183594","-12.03125","-2.625","-15.09375"
"1575216902844","669","0.2890625","-0.92285156","0.14746094","-25.96875","2.375","-15.46875"
"1575216903238","670","0.30371094","-0.94433594","0.11425781","-18.03125","5.59375","-14.71875"
"1575216903239","671","0.30566406","-0.9375","0.1015625","-16.1875","0.84375","-12.21875"
"1575216903239","672","0.30371094","-0.9267578","0.08105469","-17.15625","1.5625","-11.5"
"1575216903240","673","0.31152344","-0.9355469","0.08300781","-14.40625","0.15625","-9.59375"
"1575216903241","674","0.2861328","-0.9248047","0.076171875","-8.875","2.96875","-9.40625"
"1575216903242","675","0.31347656","-0.9277344","0.08984375","-14.59375","5.0","-7.34375"
"1575216903242","676","0.31933594","-0.921875","0.07910156","-11.5625","4.0","-8.5625"
"1575216903242","677","0.34277344","-0.9375","0.0390625","-6.65625","-0.9375","-7.03125"
"1575216903243","678","0.3466797","-0.9375","0.051757812","-6.78125","-1.125","-7.15625"
"1575216903243","679","0.33203125","-0.921875","0.060546875","-2.28125","-4.65625","-5.5625"
"1575216903637","680","0.3564453","-0.921875","0.037109375","1.375","-10.625","-2.8125"
"1575216903637","681","0.32421875","-0.9394531","0.056640625","0.40625","-10.21875","-2.40625"
"1575216903637","682","0.31933594","-0.9345703","0.05859375","-0.0625","-11.96875","-1.40625"
"1575216903638","683","0.3125","-0.93847656","0.046875","-1.34375","-8.1875","-2.9375"
"1575216903638","684","0.32617188","-0.9394531","0.037109375","-4.84375","-3.96875","-4.40625"
"1575216903639","685","0.3310547","-0.9345703","0.041992188","-6.84375","-1.96875","-3.1875"
"1575216903640","686","0.32226562","-0.9199219","0.036132812","-10.75","2.71875","-3.875"
"1575216903640","687","0.33691406","-0.9091797","0.043945312","-14.59375","6.03125","-2.59375"
"1575216903641","688","0.32714844","-0.9082031","0.017578125","-10.4375","6.21875","-1.34375"
"1575216903641","689","0.31347656","-0.92578125","0.03515625","-12.71875","6.40625","-0.25"
"1575216904034","690","0.37890625","-0.9238281","0.016601562","2.1875","3.78125","2.96875"
"1575216904035","691","0.3544922","-0.9169922","0.005859375","2.5","3.46875","4.3125"
"1575216904035","692","0.3486328","-0.89941406","0.053710938","2.96875","2.25","7.5"
"1575216904035","693","0.33691406","-0.9111328","0.030273438","6.5","-1.1875","9.8125"
"1575216904035","694","0.32226562","-0.92089844","0.01953125","9.25","0.71875","10.46875"
"1575216904036","695","0.3173828","-0.9404297","0.033203125","10.1875","1.3125","11.71875"
"1575216904036","696","0.3232422","-0.9248047","0.049804688","11.40625","5.78125","11.8125"
"1575216904038","697","0.29492188","-0.94628906","0.0625","10.25","5.78125","13.53125"
"1575216904039","698","0.29492188","-0.94921875","0.056640625","9.25","1.21875","13.53125"
"1575216904039","699","0.2783203","-0.93847656","0.07714844","8.21875","1.09375","11.9375"
"1575216904433","700","0.28320312","-0.92285156","0.083984375","10.0625","1.21875","9.9375"
"1575216904434","701","0.30859375","-0.95703125","0.06933594","11.875","-2.625","10.0625"
"1575216904438","702","0.2783203","-0.94140625","0.091796875","10.0","-1.53125","9.5"
"1575216904438","703","0.23535156","-0.93652344","0.11621094","6.5625","3.34375","10.0625"
"1575216904439","704","0.21582031","-0.94628906","0.12207031","7.8125","8.46875","8.71875"
"1575216904439","705","0.21484375","-0.9394531","0.13769531","9.125","7.25","9.5"
"1575216904439","706","0.18359375","-0.9550781","0.14160156","10.1875","8.34375","11.53125"
"1575216904439","707","0.17773438","-0.9404297","0.1328125","15.3125","14.5","13.59375"
"1575216904440","708","0.13769531","-0.95410156","0.18066406","12.625","18.90625","16.40625"
"1575216904440","709","0.15820312","-0.94140625","0.18554688","12.1875","22.6875","12.875"
"1575216904828","710","0.15136719","-0.9658203","0.18554688","15.5625","21.34375","14.875"
"1575216904829","711","0.10546875","-0.9667969","0.21972656","13.03125","21.21875","13.40625"
"1575216904829","712","0.091796875","-0.95703125","0.23242188","13.71875","18.78125","12.375"
"1575216904830","713","0.08886719","-0.96191406","0.25097656","11.8125","16.40625","12.5"
"1575216904830","714","0.046875","-0.96191406","0.2705078","8.71875","10.84375","11.28125"
"1575216904830","715","0.056640625","-0.95703125","0.29589844","5.21875","11.03125","8.71875"
"1575216904831","716","0.045898438","-0.953125","0.29882812","6.8125","10.90625","7.25"
"1575216904831","717","0.047851562","-0.953125","0.29882812","5.46875","8.15625","7.375"
"1575216904831","718","0.044921875","-0.93847656","0.3046875","6.15625","5.21875","7.8125"
"1575216904832","719","0.043945312","-0.97265625","0.29101562","11.59375","4.875","9.5625"
"1575216905227","720","-0.051757812","-0.95996094","0.3408203","8.46875","2.1875","8.15625"
"1575216905228","721","-0.036132812","-0.9638672","0.35253906","6.5625","2.71875","7.375"
"1575216905229","722","-0.032226562","-0.9707031","0.3720703","2.3125","7.375","5.21875"
"1575216905229","723","-0.029296875","-0.9765625","0.3544922","-1.1875","2.78125","5.21875"
"1575216905229","724","-0.020507812","-0.9814453","0.35351562","-1.84375","-0.5625","3.40625"
"1575216905230","725","-0.05859375","-0.96191406","0.36132812","-3.875","-2.21875","1.75"
"1575216905230","726","-0.045898438","-0.95703125","0.34179688","-5.9375","1.28125","-0.4375"
"1575216905230","727","-0.0234375","-0.96972656","0.35058594","-5.625","-0.5","-1.3125"
"1575216905231","728","-0.041992188","-0.9277344","0.3544922","-9.78125","-1.65625","-5.8125"
"1575216905231","729","9.765625E-4","-0.9716797","0.3154297","-7.03125","-1.90625","-5.3125"
"1575216905624","730","-0.0048828125","-0.96484375","0.32128906","-9.21875","-2.34375","-6.0625"
"1575216905625","731","-0.025390625","-0.9824219","0.32910156","-5.5","-2.03125","-8.5"
"1575216905625","732","-0.080078125","-0.9921875","0.31640625","-8.75","2.78125","-16.5625"
"1575216905626","733","0.05859375","-0.95214844","0.2705078","-14.1875","6.75","-19.375"
"1575216905627","734","0.14453125","-0.9042969","0.24902344","-17.40625","1.03125","-17.21875"
"1575216905627","735","0.15039062","-0.9042969","0.21972656","-15.53125","-5.03125","-13.8125"
"1575216905627","736","0.15625","-0.9482422","0.18945312","-13.1875","-7.875","-13.03125"
"1575216905628","737","0.15820312","-0.9453125","0.16992188","-14.78125","-5.4375","-12.40625"
"1575216905628","738","0.17578125","-0.9501953","0.14550781","-11.3125","-8.1875","-11.625"
"1575216905628","739","0.16015625","-0.94921875","0.140625","-10.34375","-8.9375","-11.84375"
"1575216906020","740","0.19042969","-0.9589844","0.12988281","-7.8125","-11.5","-13.1875"
"1575216906021","741","0.19238281","-0.96484375","0.11425781","-8.0625","-13.4375","-13.75"
"1575216906021","742","0.19824219","-0.95703125","0.14160156","-8.625","-13.5625","-12.03125"
"1575216906021","743","0.1796875","-0.92871094","0.14453125","-7.8125","-16.875","-10.6875"
"1575216906022","744","0.1953125","-0.9394531","0.12988281","-8.125","-11.125","-9.65625"
"1575216906022","745","0.23046875","-0.9736328","0.09863281","-9.0","-9.90625","-8.375"
"1575216906022","746","0.22753906","-0.9589844","0.08984375","-13.5","-6.96875","-8.75"
"1575216906023","747","0.20410156","-0.9746094","0.0859375","-9.15625","-6.90625","-7.78125"
"1575216906023","748","0.20996094","-0.97558594","0.08203125","-12.96875","-2.46875","-10.5"
"1575216906023","749","0.23730469","-0.94921875","0.07519531","-12.71875","2.125","-12.03125"
"1575216906418","750","0.2109375","-0.9316406","0.07910156","-10.625","3.84375","-9.90625"
"1575216906418","751","0.26464844","-0.9189453","0.07714844","-9.40625","3.15625","-5.9375"
"1575216906418","752","0.27539062","-0.93359375","0.0703125","-7.21875","2.1875","-2.40625"
"1575216906419","753","0.25390625","-0.95410156","0.05078125","-2.46875","3.28125","-1.25"
"1575216906419","754","0.24902344","-0.9501953","0.07128906","-5.75","6.625","-1.40625"
"1575216906419","755","0.25","-0.9589844","0.056640625","-3.3125","4.5","-1.25"
"1575216906419","756","0.2607422","-0.95410156","0.053710938","0.71875","1.5625","-0.3125"
"1575216906420","757","0.25683594","-0.9404297","0.064453125","0.84375","1.5625","-0.4375"
"1575216906421","758","0.25976562","-0.95214844","0.056640625","2.65625","2.90625","0.34375"
"1575216906421","759","0.26464844","-0.953125","0.060546875","1.625","4.0625","0.0"
"1575216906817","760","0.24902344","-0.95214844","0.076171875","0.96875","2.0","0.53125"
"1575216906817","761","0.24707031","-0.9472656","0.07714844","2.375","4.6875","0.65625"
"1575216906818","762","0.24023438","-0.94140625","0.072265625","3.46875","6.46875","0.96875"
"1575216906818","763","0.26757812","-0.9482422","0.072265625","3.03125","7.25","2.4375"
"1575216906818","764","0.27441406","-0.95410156","0.07324219","2.96875","9.03125","2.84375"
"1575216906818","765","0.24316406","-0.94433594","0.07714844","1.3125","7.8125","2.4375"
"1575216906819","766","0.25390625","-0.9609375","0.06933594","8.46875","7.0","2.4375"
"1575216906819","767","0.22265625","-0.9453125","0.103515625","3.21875","2.84375","2.25"
"1575216906820","768","0.23925781","-0.9511719","0.09765625","8.34375","2.65625","1.75"
"1575216906821","769","0.23925781","-0.9511719","0.09082031","9.5625","4.9375","3.34375"
"1575216907215","770","0.22851562","-0.9511719","0.103515625","8.59375","4.0625","4.6875"
"1575216907215","771","0.21386719","-0.96875","0.11035156","9.375","3.21875","4.8125"
"1575216907216","772","0.22363281","-0.9423828","0.109375","9.125","6.5625","5.78125"
"1575216907216","773","0.19140625","-0.9609375","0.12597656","11.28125","10.0625","8.15625"
"1575216907216","774","0.18359375","-0.9501953","0.16601562","9.125","15.96875","6.5625"
"1575216907217","775","0.17285156","-0.953125","0.15917969","8.90625","16.28125","6.09375"
"1575216907217","776","0.16601562","-0.9511719","0.17089844","6.03125","17.5625","7.25"
"1575216907217","777","0.15820312","-0.9453125","0.18457031","7.8125","17.375","8.15625"
"1575216907217","778","0.14648438","-0.9404297","0.19824219","8.15625","17.0625","8.03125"
"1575216907218","779","0.13671875","-0.9560547","0.20703125","9.5625","17.3125","7.5"
"1575216907613","780","0.103515625","-0.9580078","0.23632812","5.21875","23.71875","4.875"
"1575216907613","781","0.12792969","-0.9746094","0.21582031","6.875","28.375","8.21875"
"1575216907614","782","0.11621094","-1.0058594","0.21679688","6.8125","23.0625","11.28125"
"1575216907615","783","0.11230469","-0.9785156","0.26171875","3.59375","20.5625","9.5"
"1575216907615","784","0.0859375","-0.9404297","0.26171875","7.90625","16.78125","8.28125"
"1575216907616","785","0.046875","-0.9345703","0.27148438","2.65625","12.625","2.65625"
"1575216907616","786","0.020507812","-0.9580078","0.3076172","2.5625","19.40625","-2.15625"
"1575216907616","787","-0.047851562","-0.8701172","0.3232422","-6.65625","16.46875","-9.71875"
"1575216907617","788","0.045898438","-0.93652344","0.296875","4.4375","15.84375","-6.59375"
"1575216907617","789","0.046875","-0.94921875","0.3173828","1.21875","10.71875","-2.21875"
"1575216908008","790","0.021484375","-0.9716797","0.3310547","2.125","2.96875","-0.5"
"1575216908008","791","0.032226562","-0.9921875","0.2998047","5.34375","0.0","-1.34375"
"1575216908008","792","0.015625","-0.984375","0.29785156","5.0625","-0.8125","1.15625"
"1575216908009","793","-0.00390625","-0.9609375","0.3486328","2.0","2.84375","-0.4375"
"1575216908009","794","-0.0068359375","-0.9511719","0.34472656","4.75","1.6875","0.46875"
"1575216908009","795","0.03515625","-0.94921875","0.31347656","6.625","-6.59375","2.4375"
"1575216908009","796","0.049804688","-0.9667969","0.328125","4.8125","-5.8125","2.125"
"1575216908010","797","0.02734375","-0.953125","0.32421875","4.6875","-3.625","0.65625"
"1575216908010","798","0.033203125","-0.9472656","0.3154297","2.3125","-2.40625","1.09375"
"1575216908011","799","0.038085938","-0.94140625","0.31054688","1.28125","-3.125","2.0625"
"1575216908407","800","0.03125","-0.93847656","0.32617188","-0.1875","-3.625","2.125"
"1575216908407","801","0.0029296875","-0.9638672","0.3486328","-3.375","-1.34375","0.46875"
"1575216908407","802","-0.0146484375","-0.9326172","0.34375","-7.9375","0.0","-4.15625"
"1575216908407","803","0.036132812","-0.95214844","0.3330078","-2.9375","-7.71875","-3.96875"
"1575216908408","804","0.045898438","-0.9394531","0.33398438","-4.71875","-13.03125","-6.96875"
"1575216908409","805","0.060546875","-0.95410156","0.32226562","-2.46875","-16.9375","-6.25"
"1575216908409","806","0.07421875","-0.953125","0.31152344","-3.0","-13.1875","-8.3125"
"1575216908409","807","0.076171875","-0.96777344","0.32421875","-4.34375","-12.96875","-6.90625"
"1575216908410","808","0.034179688","-0.94921875","0.2841797","-9.34375","-10.03125","-7.59375"
"1575216908410","809","0.10449219","-0.9511719","0.24316406","-5.09375","-8.0","-3.96875"
"1575216908803","810","0.10839844","-0.9433594","0.22363281","-6.0625","-6.84375","-2.75"
"1575216908804","811","0.119140625","-0.93066406","0.21679688","-4.90625","-4.46875","-4.28125"
"1575216908804","812","0.14160156","-0.9375","0.21386719","-5.3125","-0.5","-4.59375"
"1575216908805","813","0.15917969","-0.94433594","0.19726562","-3.25","-1.40625","-5.03125"
"1575216908805","814","0.17675781","-0.9345703","0.2109375","-2.875","-6.0625","-5.4375"
"1575216908805","815","0.18945312","-0.93066406","0.19921875","-5.25","-6.0625","-5.75"
"1575216908806","816","0.22558594","-0.95214844","0.20605469","-7.15625","-4.78125","-3.5625"
"1575216908807","817","0.15820312","-0.93066406","0.22363281","-10.875","-14.53125","-3.75"
"1575216908808","818","0.18066406","-0.9482422","0.21484375","-7.09375","-21.125","-2.6875"
"1575216908808","819","0.19238281","-0.9433594","0.18164062","-6.90625","-19.1875","-3.3125"
