"# PR data"
"# Start time: 20191201T171520"
"# Subject: seb"
"# Activity type: Leg slide"
"# Correctness: Incorrect"
"# Notes: "
""
"timestamp","seq","accel_x","accel_y","accel_z","gyro_x","gyro_y","gyro_z"
"1575216920729","0","0.04296875","-1.0253906","0.16503906","4.625","-11.375","8.90625"
"1575216920729","1","0.0546875","-0.99316406","0.17382812","4.3125","-13.5","4.0"
"1575216920729","2","0.052734375","-0.9785156","0.18652344","6.03125","-13.5","3.65625"
"1575216920730","3","-0.00390625","-0.9707031","0.19726562","5.46875","-9.125","4.1875"
"1575216920730","4","0.0","-0.97558594","0.20605469","0.15625","0.09375","-1.0625"
"1575216920730","5","0.0087890625","-0.9765625","0.21777344","-4.21875","5.0625","-3.90625"
"1575216920730","6","0.022460938","-0.9638672","0.22949219","-4.78125","13.0","-1.25"
"1575216920731","7","0.040039062","-0.9453125","0.23046875","-4.46875","16.78125","1.5625"
"1575216920731","8","0.053710938","-0.953125","0.21484375","-1.40625","17.5","6.6875"
"1575216920731","9","0.030273438","-0.97558594","0.19921875","-4.78125","17.4375","7.5"
"1575216921126","10","0.018554688","-0.9560547","0.2109375","-3.75","16.03125","7.375"
"1575216921127","11","-0.03515625","-0.9189453","0.20507812","-1.25","16.03125","9.25"
"1575216921127","12","0.022460938","-0.99316406","0.18066406","-2.03125","10.40625","11.28125"
"1575216921128","13","0.0146484375","-0.99121094","0.19726562","-4.15625","3.15625","6.9375"
"1575216921129","14","0.02734375","-0.9765625","0.19824219","-0.5","-2.59375","4.125"
"1575216921129","15","0.009765625","-0.95703125","0.19140625","-0.5625","-4.46875","2.5625"
"1575216921129","16","-0.016601562","-0.96484375","0.19140625","-2.21875","-4.59375","2.3125"
"1575216921129","17","-0.00390625","-0.9902344","0.15332031","1.6875","-0.875","1.875"
"1575216921130","18","-0.07519531","-0.9814453","0.18652344","-8.5625","4.25","-0.4375"
"1575216921130","19","-0.04296875","-1.0195312","0.17675781","-8.125","12.5625","-0.3125"
"1575216921523","20","-0.018554688","-1.0556641","0.1875","-10.5","17.4375","0.09375"
"1575216921524","21","-0.09472656","-1.0048828","0.1796875","-14.96875","16.84375","9.375"
"1575216921524","22","-0.0078125","-0.99902344","0.17382812","-13.5625","12.1875","18.34375"
"1575216921524","23","-0.0625","-0.9160156","0.20214844","-0.375","16.28125","24.71875"
"1575216921524","24","-0.10546875","-0.9296875","0.1875","-0.75","27.8125","27.21875"
"1575216921525","25","-0.060546875","-0.9716797","0.17480469","-3.75","27.75","24.71875"
"1575216921525","26","-0.06542969","-0.96191406","0.15625","-3.5625","23.65625","20.625"
"1575216921525","27","-0.056640625","-0.92089844","0.16503906","1.03125","14.3125","19.21875"
"1575216921526","28","-0.12402344","-0.9169922","0.14941406","9.5625","7.25","22.4375"
"1575216921526","29","-0.10058594","-0.96875","0.1484375","9.8125","0.71875","19.21875"
"1575216921921","30","-0.19433594","-0.97265625","0.16015625","8.84375","-5.21875","17.1875"
"1575216921922","31","-0.2109375","-0.9941406","0.16503906","6.03125","0.15625","11.9375"
"1575216921922","32","-0.203125","-0.9511719","0.16601562","2.90625","4.0","8.46875"
"1575216921922","33","-0.23339844","-0.9511719","0.19726562","0.78125","4.75","7.5"
"1575216921923","34","-0.24316406","-0.96484375","0.14648438","4.1875","7.125","8.46875"
"1575216921923","35","-0.26367188","-0.97265625","0.16796875","-4.78125","6.875","8.84375"
"1575216921923","36","-0.23339844","-0.9501953","0.13671875","-3.3125","5.28125","8.59375"
"1575216921924","37","-0.22363281","-0.9628906","0.12695312","1.375","4.9375","8.03125"
"1575216921925","38","-0.15820312","-0.93847656","0.1484375","-1.65625","3.34375","2.3125"
"1575216921925","39","-0.22753906","-0.9091797","0.15722656","4.0","-7.21875","2.3125"
"1575216922320","40","-0.21777344","-0.9248047","0.16308594","5.84375","-7.34375","1.15625"
"1575216922321","41","-0.296875","-0.92578125","0.17871094","5.28125","-6.65625","-0.6875"
"1575216922321","42","-0.2685547","-0.95996094","0.1875","2.3125","-1.78125","-3.0"
"1575216922321","43","-0.2783203","-0.9707031","0.20019531","0.40625","6.46875","-5.6875"
"1575216922321","44","-0.24902344","-0.94628906","0.19335938","-1.1875","8.53125","-4.09375"
"1575216922322","45","-0.26757812","-0.9453125","0.16796875","-0.25","4.75","-2.34375"
"1575216922322","46","-0.19921875","-0.9658203","0.12597656","-0.8125","-2.75","-3.5"
"1575216922322","47","-0.21386719","-0.97558594","0.15136719","-2.21875","-4.78125","-9.90625"
"1575216922322","48","-0.20117188","-0.9511719","0.17675781","-3.90625","-3.875","-12.46875"
"1575216922324","49","-0.11621094","-0.8955078","0.17773438","-1.0625","-15.6875","-12.59375"
"1575216922717","50","-0.12402344","-0.9326172","0.19921875","7.3125","-21.6875","-19.3125"
"1575216922717","51","-0.057617188","-0.9267578","0.1875","10.125","-29.6875","-26.375"
"1575216922717","52","-0.12890625","-0.8828125","0.25195312","10.78125","-32.78125","-33.71875"
"1575216922718","53","-0.068359375","-0.88964844","0.2705078","15.25","-27.90625","-43.34375"
"1575216922718","54","-0.034179688","-0.99902344","0.37890625","18.96875","-19.96875","-48.40625"
"1575216922718","55","-0.26953125","-1.0986328","0.41601562","18.96875","4.25","-34.5"
"1575216922718","56","-0.08496094","-0.99902344","0.2919922","-1.0","-3.875","-21.5"
"1575216922719","57","0.12109375","-0.94140625","0.17285156","-15.21875","-8.0625","-33.59375"
"1575216922719","58","-0.026367188","-1.0244141","0.18066406","-13.9375","-3.96875","-34.0"
"1575216922719","59","-0.047851562","-0.9326172","0.2529297","-13.1875","-1.84375","-23.03125"
"1575216923113","60","0.009765625","-0.8964844","0.26464844","-6.59375","-6.0","-20.15625"
"1575216923114","61","0.044921875","-0.9472656","0.23632812","6.03125","1.875","-13.875"
"1575216923115","62","0.044921875","-0.97265625","0.21972656","5.0625","4.125","-11.71875"
"1575216923115","63","0.078125","-0.9423828","0.2529297","5.59375","0.96875","-8.875"
"1575216923115","64","0.078125","-0.9345703","0.2919922","11.53125","-2.21875","-7.28125"
"1575216923116","65","0.078125","-0.93066406","0.28515625","12.8125","-5.75","-8.625"
"1575216923116","66","0.072265625","-0.92285156","0.2841797","12.4375","-6.71875","-7.21875"
"1575216923116","67","0.09277344","-0.9042969","0.29101562","12.5625","-3.90625","-3.96875"
"1575216923116","68","0.12988281","-0.8984375","0.3076172","13.65625","-9.15625","0.0"
"1575216923117","69","0.17578125","-0.8925781","0.3046875","24.03125","-16.5","4.4375"
"1575216923511","70","0.19042969","-0.8808594","0.3408203","20.75","-19.25","-3.96875"
"1575216923512","71","0.18457031","-0.81347656","0.4609375","41.5625","-23.9375","-4.90625"
"1575216923512","72","0.123046875","-0.9091797","0.38378906","48.03125","-32.1875","-8.375"
"1575216923513","73","0.13769531","-0.97265625","0.3701172","39.0625","-17.84375","-19.84375"
"1575216923513","74","0.12695312","-0.94921875","0.3857422","35.6875","-3.96875","-17.96875"
"1575216923513","75","0.14746094","-0.92285156","0.3955078","28.78125","3.78125","-16.625"
"1575216923513","76","0.11425781","-0.9082031","0.42773438","27.625","2.78125","-20.875"
"1575216923514","77","0.17382812","-0.8769531","0.4609375","17.375","2.3125","-27.46875"
"1575216923514","78","0.25976562","-0.8564453","0.4892578","10.65625","-4.65625","-29.5625"
"1575216923514","79","0.28320312","-0.8359375","0.4951172","6.5","-15.09375","-26.5"
"1575216923909","80","0.2548828","-0.84277344","0.48242188","2.84375","-17.40625","-21.1875"
"1575216923909","81","0.24511719","-0.84277344","0.484375","1.03125","-13.1875","-20.28125"
"1575216923910","82","0.26660156","-0.82128906","0.45117188","0.90625","-11.0","-17.84375"
"1575216923910","83","0.29589844","-0.81933594","0.47851562","-2.15625","-4.53125","-17.90625"
"1575216923911","84","0.31054688","-0.7988281","0.4892578","0.96875","-6.3125","-16.9375"
"1575216923911","85","0.3232422","-0.8310547","0.4892578","3.15625","-4.09375","-15.9375"
"1575216923911","86","0.29003906","-0.7734375","0.4638672","4.75","6.8125","-11.625"
"1575216923912","87","0.32226562","-0.7236328","0.53027344","-5.75","9.1875","-9.34375"
"1575216923912","88","0.37695312","-0.73828125","0.4970703","-1.59375","12.4375","-10.03125"
"1575216923913","89","0.35058594","-0.76171875","0.5048828","-2.28125","13.90625","-4.40625"
"1575216924307","90","0.37695312","-0.76464844","0.5205078","-1.34375","1.4375","0.46875"
"1575216924307","91","0.36328125","-0.78515625","0.52734375","-2.09375","-1.46875","1.75"
"1575216924307","92","0.3017578","-0.80566406","0.49609375","-1.1875","0.65625","6.875"
"1575216924308","93","0.26953125","-0.8027344","0.4892578","-7.8125","2.90625","11.03125"
"1575216924308","94","0.25683594","-0.8466797","0.4970703","-9.84375","10.65625","10.59375"
"1575216924308","95","0.28320312","-0.8173828","0.4892578","-10.875","9.75","11.28125"
"1575216924308","96","0.28320312","-0.81640625","0.4794922","-8.375","10.96875","7.6875"
"1575216924310","97","0.2841797","-0.79589844","0.48339844","-3.25","7.3125","6.34375"
"1575216924310","98","0.2626953","-0.79589844","0.46777344","-7.21875","10.3125","9.03125"
"1575216924311","99","0.2763672","-0.8232422","0.50390625","-10.4375","12.1875","5.90625"
"1575216924704","100","0.29296875","-0.82128906","0.45507812","-10.5","5.40625","8.46875"
"1575216924704","101","0.2998047","-0.89746094","0.45117188","-17.34375","7.84375","9.6875"
"1575216924704","102","0.25195312","-0.93359375","0.45507812","-25.53125","13.59375","10.46875"
"1575216924704","103","0.22265625","-0.9199219","0.3857422","-35.90625","14.3125","13.40625"
"1575216924705","104","0.22363281","-0.9082031","0.36621094","-55.3125","14.15625","14.375"
"1575216924705","105","0.28222656","-0.8769531","0.35058594","-61.53125","10.3125","13.15625"
"1575216924705","106","0.24511719","-0.92285156","0.39257812","-43.65625","7.0625","6.34375"
"1575216924705","107","0.0625","-0.9482422","0.34765625","-30.96875","1.09375","2.90625"
"1575216924706","108","0.15136719","-0.8359375","0.25976562","-32.90625","5.71875","11.8125"
"1575216924707","109","0.07714844","-0.921875","0.3046875","-37.84375","21.46875","13.65625"
"1575216925300","110","0.23046875","-0.8691406","0.2548828","-21.5","18.34375","15.71875"
"1575216925300","111","0.28515625","-0.99121094","0.27148438","-18.5625","12.0","14.3125"
"1575216925301","112","0.17382812","-0.9013672","0.24121094","-19.59375","-5.3125","6.34375"
"1575216925301","113","0.15136719","-0.9160156","0.20019531","-16.0625","-6.71875","-0.3125"
"1575216925301","114","0.12695312","-0.9091797","0.20214844","-14.34375","-5.875","2.71875"
"1575216925302","115","0.09277344","-0.9824219","0.20507812","-8.5","-4.90625","-1.84375"
"1575216925302","116","0.14355469","-0.9785156","0.17871094","-9.34375","5.0625","0.40625"
"1575216925302","117","0.09082031","-0.9433594","0.20019531","-12.34375","16.46875","-2.03125"
"1575216925302","118","0.125","-0.9326172","0.19824219","-14.78125","23.0625","-5.03125"
"1575216925303","119","0.15820312","-0.95996094","0.17285156","-12.21875","25.625","-4.96875"
"1575216925499","120","0.16992188","-0.9423828","0.1484375","-8.3125","21.28125","-3.1875"
"1575216925501","121","0.16992188","-0.984375","0.17089844","0.90625","15.84375","4.9375"
"1575216925501","122","0.09667969","-0.9580078","0.20214844","-9.0625","17.125","1.4375"
"1575216925502","123","0.115234375","-0.98535156","0.15527344","-7.40625","23.53125","-2.6875"
"1575216925502","124","0.13183594","-0.99121094","0.13378906","-15.6875","26.71875","-5.75"
"1575216925502","125","0.10644531","-0.9316406","0.1171875","-12.53125","23.375","2.0"
"1575216925503","126","0.17871094","-1.0","0.072265625","-2.46875","3.15625","14.8125"
"1575216925503","127","0.09472656","-1.0039062","0.16601562","-10.21875","13.09375","19.75"
"1575216925503","128","9.765625E-4","-0.9824219","0.16503906","-15.40625","28.65625","23.125"
"1575216925503","129","0.0703125","-0.98828125","0.13769531","-9.0625","27.8125","31.71875"
"1575216925898","130","0.13671875","-1.0029297","0.07910156","1.5","6.9375","39.84375"
"1575216925898","131","0.018554688","-0.96972656","0.15625","6.6875","12.5","39.34375"
"1575216925898","132","-0.083984375","-0.9794922","0.18066406","13.0","23.78125","37.53125"
"1575216925900","133","-0.016601562","-0.9560547","0.1484375","10.90625","18.96875","36.65625"
"1575216925900","134","-0.080078125","-0.95410156","0.16992188","10.375","17.3125","32.40625"
"1575216925901","135","-0.18652344","-0.9716797","0.140625","9.9375","12.625","29.03125"
"1575216925901","136","-0.09472656","-0.9970703","0.14746094","15.84375","15.0625","22.875"
"1575216925901","137","-0.13769531","-0.9658203","0.14257812","4.1875","24.71875","17.1875"
"1575216925901","138","-0.09667969","-0.97265625","0.2109375","-1.84375","16.78125","16.65625"
"1575216925902","139","-0.13964844","-0.96191406","0.1796875","-11.4375","6.75","14.5"
"1575216926293","140","-0.12792969","-0.9511719","0.123046875","-0.375","0.78125","19.09375"
"1575216926294","141","-0.13378906","-0.93359375","0.13964844","8.65625","-3.25","20.0625"
"1575216926294","142","-0.21386719","-0.9248047","0.17089844","16.46875","-5.875","12.0625"
"1575216926295","143","-0.28808594","-0.98046875","0.171875","15.5","0.96875","10.0625"
"1575216926295","144","-0.27734375","-0.96972656","0.203125","2.375","13.0","0.0"
"1575216926296","145","-0.21191406","-0.9326172","0.23144531","1.75","16.09375","-2.875"
"1575216926297","146","-0.2109375","-0.9296875","0.20996094","4.6875","9.375","-4.78125"
"1575216926297","147","-0.23144531","-0.9423828","0.23242188","-3.25","15.0","-4.40625"
"1575216926297","148","-0.3125","-0.953125","0.19042969","-6.65625","22.4375","-7.15625"
"1575216926298","149","-0.16015625","-0.9628906","0.12695312","-14.125","14.5625","-0.375"
"1575216926691","150","-0.17773438","-1.0097656","0.059570312","-6.1875","-11.0","4.0"
"1575216926691","151","-0.20703125","-0.9863281","0.08691406","-7.9375","-7.34375","-3.5625"
"1575216926692","152","-0.15234375","-0.91796875","0.15625","-5.6875","-19.25","-5.75"
"1575216926692","153","0.0146484375","-0.859375","0.21191406","-0.0625","-29.25","-16.96875"
"1575216926692","154","-0.15136719","-0.93359375","0.16601562","10.96875","-33.40625","-28.40625"
"1575216926693","155","-0.026367188","-0.92285156","0.18457031","3.9375","-48.78125","-34.0"
"1575216926693","156","-0.041992188","-0.94921875","0.24023438","14.3125","-56.90625","-45.3125"
"1575216926694","157","-0.09472656","-1.0849609","0.34179688","18.90625","-43.53125","-53.1875"
"1575216926695","158","-0.23242188","-1.0419922","0.41992188","11.75","-34.875","-41.21875"
"1575216926695","159","-0.09375","-0.9267578","0.25","1.28125","-0.8125","-14.40625"
"1575216927088","160","-0.047851562","-1.0097656","0.14453125","-17.28125","-2.34375","-24.6875"
"1575216927088","161","-0.0234375","-0.98535156","0.19726562","-10.5","6.03125","-32.0"
"1575216927089","162","-0.08984375","-1.0078125","0.24707031","-22.34375","11.53125","-29.0"
"1575216927089","163","0.11816406","-0.8574219","0.2939453","-11.78125","12.3125","-21.8125"
"1575216927089","164","0.08691406","-0.90625","0.29785156","-3.375","-2.34375","-15.53125"
"1575216927089","165","0.060546875","-0.9707031","0.203125","-0.1875","-1.96875","-8.375"
"1575216927090","166","0.099609375","-0.9550781","0.19824219","-0.6875","-8.3125","-8.0"
"1575216927090","167","0.115234375","-0.9550781","0.22167969","7.0625","-11.5625","-9.28125"
"1575216927090","168","0.09765625","-0.93652344","0.2626953","13.59375","-18.15625","-4.59375"
"1575216927090","169","0.06542969","-0.9501953","0.2421875","12.6875","-17.21875","-2.75"
"1575216927683","170","0.08300781","-0.9716797","0.23242188","8.65625","-8.75","-0.875"
"1575216927683","171","0.022460938","-0.9267578","0.24707031","10.84375","-5.8125","1.8125"
"1575216927683","172","0.033203125","-0.90722656","0.3046875","17.0625","6.5625","-1.25"
"1575216927684","173","0.07421875","-0.9169922","0.30273438","25.25","14.625","0.90625"
"1575216927684","174","0.13476562","-0.8642578","0.32421875","30.625","13.65625","5.90625"
"1575216927684","175","0.17285156","-0.83496094","0.34472656","43.9375","3.34375","3.46875"
"1575216927684","176","0.14941406","-0.8798828","0.3515625","53.6875","-6.65625","1.875"
"1575216927685","177","0.17871094","-0.91015625","0.3935547","53.9375","-9.53125","4.125"
"1575216927685","178","0.19921875","-0.9423828","0.36914062","50.78125","-16.1875","4.0"
"1575216927686","179","0.18164062","-0.9658203","0.3779297","40.5","-20.59375","-1.125"
"1575216927884","180","0.14160156","-0.96972656","0.4580078","30.875","-23.8125","-10.03125"
"1575216927885","181","0.0703125","-0.96875","0.45117188","25.0625","-25.46875","-11.1875"
"1575216927885","182","0.103515625","-0.9033203","0.47265625","14.21875","-21.4375","-8.625"
"1575216927886","183","0.123046875","-0.83984375","0.4951172","9.3125","-21.125","-5.5"
"1575216927886","184","0.10839844","-0.81152344","0.50390625","4.3125","-21.25","-5.9375"
"1575216927886","185","0.11230469","-0.8330078","0.4765625","4.9375","-14.1875","-5.625"
"1575216927886","186","0.15234375","-0.81152344","0.5292969","1.8125","-5.6875","-7.875"
"1575216927887","187","0.14160156","-0.8457031","0.5048828","2.78125","-6.4375","-6.71875"
"1575216927887","188","0.20410156","-0.82128906","0.51660156","1.5","-1.25","-6.96875"
"1575216927887","189","0.22265625","-0.8076172","0.49316406","1.28125","-0.375","-8.375"
"1575216928280","190","0.26464844","-0.7841797","0.48242188","5.28125","-0.75","-6.71875"
"1575216928281","191","0.24804688","-0.77246094","0.50390625","8.65625","-0.5625","-5.3125"
"1575216928281","192","0.24804688","-0.7480469","0.5371094","8.03125","0.53125","-1.71875"
"1575216928281","193","0.21582031","-0.78125","0.55371094","9.1875","-2.875","2.25"
"1575216928282","194","0.18066406","-0.7675781","0.54296875","6.03125","3.40625","2.96875"
"1575216928282","195","0.19042969","-0.82421875","0.5371094","2.71875","9.03125","1.09375"
"1575216928282","196","0.20996094","-0.8125","0.5410156","-0.6875","13.34375","-0.5625"
"1575216928283","197","0.22753906","-0.7626953","0.5732422","-1.34375","13.65625","0.46875"
"1575216928283","198","0.17578125","-0.79003906","0.5595703","1.6875","9.9375","2.3125"
"1575216928283","199","0.18261719","-0.7714844","0.57910156","-0.9375","11.875","5.59375"
"1575216928678","200","0.1328125","-0.8486328","0.5644531","-6.65625","14.09375","6.875"
"1575216928678","201","0.171875","-0.828125","0.5185547","-16.0625","20.625","7.6875"
"1575216928678","202","0.15625","-0.9003906","0.4873047","-25.53125","20.75","8.90625"
"1575216928678","203","0.14941406","-0.9082031","0.46972656","-41.875","23.84375","7.8125"
"1575216928679","204","0.15136719","-0.9013672","0.44335938","-54.46875","23.96875","7.90625"
"1575216928679","205","0.12597656","-0.9423828","0.45117188","-68.125","25.9375","2.90625"
"1575216928680","206","0.017578125","-0.97558594","0.38378906","-71.5625","20.0625","0.15625"
"1575216928680","207","0.12597656","-1.0986328","0.43164062","-52.09375","10.40625","4.0"
"1575216928680","208","0.14941406","-0.82714844","0.3173828","-49.625","7.3125","-7.59375"
"1575216928680","209","0.17480469","-0.74121094","0.3173828","-27.25","-16.3125","-11.6875"
"1575216929076","210","0.10839844","-0.8574219","0.2939453","-22.0","-4.21875","-8.8125"
"1575216929076","211","0.14160156","-0.9472656","0.31835938","-19.375","-7.875","-6.375"
"1575216929077","212","0.08496094","-0.9355469","0.30078125","-16.0625","-7.71875","1.5"
"1575216929077","213","0.12207031","-0.9628906","0.24902344","-17.78125","-11.0","6.6875"
"1575216929077","214","0.10449219","-0.91796875","0.25195312","-14.46875","-11.1875","6.8125"
"1575216929077","215","0.09863281","-0.93359375","0.24707031","-10.6875","-6.71875","4.8125"
"1575216929078","216","0.055664062","-0.953125","0.22851562","-11.125","-1.125","6.03125"
"1575216929079","217","0.06738281","-0.9453125","0.21972656","-11.84375","8.09375","4.8125"
"1575216929079","218","0.103515625","-0.95410156","0.20605469","-10.5","6.03125","3.40625"
"1575216929080","219","0.12695312","-0.9355469","0.19628906","-7.09375","6.625","0.96875"
"1575216929475","220","0.12207031","-0.96777344","0.20410156","-3.25","6.9375","0.65625"
"1575216929476","221","0.12109375","-0.9765625","0.1796875","-1.90625","0.96875","-1.125"
"1575216929476","222","0.16503906","-0.9941406","0.16015625","0.65625","-4.34375","-1.65625"
"1575216929476","223","0.13964844","-0.9501953","0.18261719","-4.46875","-7.59375","-0.5625"
"1575216929476","224","0.09667969","-0.9628906","0.18554688","-5.03125","-7.9375","-2.28125"
"1575216929477","225","0.08496094","-0.97753906","0.20019531","-8.125","-7.15625","-3.125"
"1575216929477","226","0.0390625","-0.95996094","0.18945312","-11.0","1.75","-1.59375"
"1575216929477","227","0.03125","-0.9921875","0.18164062","-12.78125","10.53125","2.65625"
"1575216929477","228","0.017578125","-1.0039062","0.1328125","-17.53125","26.46875","3.90625"
"1575216929479","229","0.022460938","-0.9453125","0.18164062","-21.375","35.15625","8.90625"
"1575216929871","230","0.030273438","-0.95410156","0.15625","-27.90625","43.25","21.96875"
"1575216929872","231","-0.0029296875","-0.9707031","0.15820312","-15.28125","44.1875","21.78125"
"1575216929872","232","0.125","-1.015625","0.14550781","-9.46875","39.46875","19.6875"
"1575216929872","233","0.11816406","-0.9951172","0.11035156","-4.78125","26.84375","20.5"
"1575216929873","234","0.13085938","-0.98828125","0.12207031","-3.0625","15.90625","20.5"
"1575216929873","235","0.07910156","-0.96875","0.13476562","-2.34375","2.5","19.8125"
"1575216929873","236","-0.0126953125","-0.9580078","0.1484375","1.15625","0.53125","24.03125"
"1575216929873","237","-0.125","-0.9892578","0.13964844","0.84375","5.90625","26.46875"
"1575216929874","238","-0.1015625","-1.0019531","0.15625","0.0","13.84375","24.09375"
"1575216929874","239","-0.12011719","-0.98046875","0.125","-2.03125","21.53125","23.46875"
"1575216930269","240","-0.103515625","-0.984375","0.103515625","-2.59375","20.96875","23.78125"
"1575216930270","241","-0.04296875","-0.96191406","0.11328125","-1.1875","15.0","21.28125"
"1575216930271","242","-0.045898438","-0.9863281","0.11816406","-1.90625","6.40625","18.1875"
"1575216930271","243","-0.14355469","-0.9746094","0.080078125","0.0","-1.71875","13.84375"
"1575216930272","244","-0.17578125","-0.9794922","0.0703125","-0.1875","-3.6875","13.0"
"1575216930272","245","-0.18554688","-1.0078125","0.1015625","0.0","-7.09375","9.125"
"1575216930272","246","-0.18652344","-0.9658203","0.11621094","-3.90625","-2.15625","7.0"
"1575216930273","247","-0.1875","-0.9511719","0.10253906","-4.28125","-4.46875","5.78125"
"1575216930273","248","-0.18457031","-0.95703125","0.08886719","-3.3125","-3.625","4.5625"
"1575216930274","249","-0.24804688","-0.9433594","0.07421875","-1.40625","-1.96875","2.4375"
"1575216930666","250","-0.2109375","-0.94628906","0.09375","-0.125","4.8125","1.21875"
"1575216930666","251","-0.234375","-0.9345703","0.09863281","0.59375","-0.25","-0.375"
"1575216930667","252","-0.27148438","-0.97265625","0.099609375","4.6875","3.03125","-5.5625"
"1575216930668","253","-0.265625","-0.9921875","0.095703125","5.34375","8.15625","-4.71875"
"1575216930668","254","-0.17285156","-0.9667969","0.0859375","2.96875","7.5","-5.875"
"1575216930669","255","-0.09667969","-0.9121094","0.053710938","4.625","-6.375","-8.3125"
"1575216930669","256","-0.09765625","-0.9082031","0.14160156","19.9375","-20.21875","-18.15625"
"1575216930669","257","-0.26367188","-0.9765625","0.111328125","21.40625","-22.78125","-18.03125"
"1575216930670","258","-0.033203125","-0.95214844","0.1484375","16.78125","-15.53125","-21.125"
"1575216930670","259","-0.068359375","-0.8828125","0.17871094","21.90625","-28.59375","-30.59375"
"1575216931064","260","-0.05078125","-0.8857422","0.171875","16.84375","-26.03125","-37.375"
"1575216931064","261","-0.024414062","-1.0332031","0.3017578","20.96875","-23.625","-46.84375"
"1575216931064","262","0.041992188","-1.1142578","0.40429688","30.125","-41.21875","-38.09375"
"1575216931065","263","0.017578125","-0.9892578","0.2998047","14.875","-18.8125","-15.53125"
"1575216931065","264","-0.083984375","-1.0478516","0.16503906","-13.1875","-10.75","-23.75"
"1575216931066","265","0.01171875","-0.9902344","0.2578125","-16.0","-3.0","-30.84375"
"1575216931066","266","-0.041015625","-0.96875","0.24121094","-17.15625","3.46875","-29.0"
"1575216931066","267","0.115234375","-0.8691406","0.26464844","-14.96875","14.8125","-34.75"
"1575216931067","268","0.020507812","-0.94628906","0.21484375","-10.28125","3.84375","-27.46875"
"1575216931067","269","0.068359375","-0.98339844","0.3154297","-13.375","11.53125","-21.3125"
"1575216931462","270","0.12109375","-0.9980469","0.22460938","-8.5","6.40625","-17.90625"
"1575216931462","271","0.14746094","-0.8847656","0.23144531","-1.84375","2.65625","-11.375"
"1575216931462","272","0.13769531","-0.9404297","0.21386719","2.96875","1.03125","-7.34375"
"1575216931463","273","0.125","-0.9277344","0.21582031","3.71875","0.0","-2.625"
"1575216931463","274","0.17578125","-0.9296875","0.23535156","6.40625","-8.625","6.03125"
"1575216931463","275","0.11230469","-0.9160156","0.23242188","12.3125","-8.625","3.21875"
"1575216931463","276","0.0859375","-0.9345703","0.19238281","18.90625","0.40625","6.8125"
"1575216931465","277","0.23046875","-0.88964844","0.25195312","26.40625","-11.90625","8.59375"
"1575216931465","278","0.18945312","-0.8261719","0.3330078","41.25","-32.90625","14.625"
"1575216931465","279","0.036132812","-0.8574219","0.3408203","49.53125","-32.125","21.53125"
"1575216932056","280","0.09277344","-0.92871094","0.29296875","54.5625","-14.3125","15.96875"
"1575216932057","281","0.19042969","-0.984375","0.3486328","48.375","-14.71875","1.3125"
"1575216932057","282","0.2685547","-1.0449219","0.46484375","36.78125","-35.125","-7.15625"
"1575216932057","283","0.29003906","-1.0136719","0.35351562","35.875","-40.40625","-25.21875"
"1575216932058","284","0.140625","-0.9355469","0.35742188","28.96875","-37.90625","-29.5625"
"1575216932058","285","0.19238281","-0.8613281","0.36621094","23.4375","-30.40625","-23.5"
"1575216932058","286","0.18359375","-0.9111328","0.41015625","16.09375","-30.03125","-19.3125"
"1575216932058","287","0.17480469","-0.83691406","0.42285156","12.0","-28.75","-14.96875"
"1575216932059","288","0.14257812","-0.859375","0.42773438","2.3125","-12.15625","-19.4375"
"1575216932059","289","0.24902344","-0.8095703","0.44726562","0.78125","4.0","-21.625"
"1575216932256","290","0.296875","-0.7480469","0.44921875","9.03125","9.8125","-28.53125"
"1575216932257","291","0.28808594","-0.7421875","0.46679688","17.5625","10.0625","-26.5625"
"1575216932257","292","0.3466797","-0.7919922","0.51171875","14.5","5.34375","-30.34375"
"1575216932257","293","0.375","-0.7890625","0.47851562","17.75","6.46875","-28.59375"
"1575216932257","294","0.4248047","-0.77441406","0.484375","17.625","8.71875","-25.40625"
"1575216932258","295","0.40625","-0.7919922","0.49414062","8.71875","4.1875","-21.0625"
"1575216932258","296","0.43652344","-0.7207031","0.49609375","1.75","3.09375","-15.28125"
"1575216932258","297","0.41992188","-0.74609375","0.49316406","2.125","-0.125","-8.25"
"1575216932258","298","0.3466797","-0.7363281","0.5361328","1.3125","0.34375","-3.1875"
"1575216932259","299","0.30566406","-0.7597656","0.52441406","0.71875","8.71875","2.0"
"1575216932655","300","0.3486328","-0.7558594","0.5498047","-6.71875","14.4375","4.3125"
"1575216932656","301","0.38964844","-0.7763672","0.52441406","-6.59375","10.78125","0.21875"
"1575216932656","302","0.3544922","-0.8046875","0.5253906","-12.71875","9.875","-0.375"
"1575216932657","303","0.3701172","-0.7685547","0.52734375","-18.6875","8.09375","1.75"
"1575216932657","304","0.39648438","-0.7597656","0.5107422","-25.40625","5.0625","1.875"
"1575216932657","305","0.40527344","-0.765625","0.4765625","-32.59375","-1.25","1.3125"
"1575216932657","306","0.34277344","-0.7519531","0.44433594","-35.90625","0.59375","9.6875"
"1575216932658","307","0.35058594","-0.77734375","0.453125","-31.6875","6.40625","16.21875"
"1575216932658","308","0.3359375","-0.84277344","0.45214844","-33.71875","11.875","19.9375"
"1575216932658","309","0.3232422","-0.94628906","0.42089844","-40.71875","6.9375","18.96875"
"1575216933051","310","0.2607422","-1.0234375","0.3232422","-52.375","10.53125","17.375"
"1575216933051","311","0.2939453","-0.9248047","0.2705078","-73.75","21.65625","17.6875"
"1575216933051","312","0.2783203","-0.8769531","0.23925781","-73.8125","9.1875","17.875"
"1575216933053","313","0.25683594","-0.9892578","0.25195312","-60.875","20.0625","7.90625"
"1575216933053","314","0.08300781","-0.9921875","0.171875","-55.875","19.75","2.96875"
"1575216933054","315","0.20703125","-0.8925781","0.14257812","-33.84375","-4.84375","12.5"
"1575216933054","316","0.14941406","-0.88671875","0.25097656","-24.5625","9.1875","22.625"
"1575216933060","317","0.23632812","-0.8378906","0.2265625","-19.59375","21.90625","7.625"
"1575216933061","318","0.2626953","-0.94921875","0.17285156","-11.90625","7.84375","6.34375"
"1575216933061","319","0.20703125","-0.9550781","0.13183594","-13.125","-4.53125","9.9375"
"1575216933449","320","0.21191406","-0.8964844","0.12890625","-15.21875","-7.78125","9.25"
"1575216933450","321","0.23632812","-0.9033203","0.14160156","-8.0625","-6.96875","9.03125"
"1575216933450","322","0.18847656","-0.96191406","0.12792969","-1.53125","-6.5","13.96875"
"1575216933450","323","0.13867188","-0.9921875","0.11621094","-1.34375","-1.71875","12.625"
"1575216933451","324","0.1171875","-0.9794922","0.10644531","-1.1875","4.6875","8.15625"
"1575216933451","325","0.16699219","-0.97558594","0.11035156","-0.875","8.15625","0.65625"
"1575216933451","326","0.15039062","-0.9628906","0.11816406","-4.53125","8.65625","-3.75"
"1575216933452","327","0.15136719","-0.96777344","0.1171875","-8.1875","10.3125","-5.21875"
"1575216933452","328","0.14746094","-0.9707031","0.11816406","-14.34375","13.46875","-7.15625"
"1575216933452","329","0.16308594","-0.96484375","0.12207031","-15.21875","16.28125","-9.0625"
"1575216934043","330","0.16210938","-0.96777344","0.0859375","-15.8125","14.6875","-10.9375"
"1575216934044","331","0.17480469","-0.9941406","0.07910156","-9.0","9.1875","-4.90625"
"1575216934044","332","0.18261719","-0.95703125","0.047851562","-7.875","1.4375","-1.78125"
"1575216934045","333","0.21191406","-0.9892578","0.018554688","7.84375","-8.25","11.15625"
"1575216934045","334","0.15039062","-0.9824219","0.09472656","7.1875","-4.21875","16.09375"
"1575216934045","335","0.087890625","-0.9746094","0.12011719","9.5","2.3125","17.6875"
"1575216934045","336","0.10253906","-0.98828125","0.10449219","9.03125","5.34375","20.84375"
"1575216934046","337","0.115234375","-0.9902344","0.099609375","13.28125","4.6875","26.0"
"1575216934046","338","0.078125","-0.96777344","0.14941406","13.96875","6.03125","32.28125"
"1575216934046","339","-0.0068359375","-1.0058594","0.17675781","14.75","14.875","35.875"
"1575216934243","340","-0.083984375","-1.0644531","0.13574219","13.28125","31.78125","37.8125"
"1575216934243","341","-0.0146484375","-1.0039062","0.15625","12.375","44.0","41.71875"
"1575216934243","342","-0.0546875","-0.9042969","0.22167969","30.3125","54.84375","44.40625"
"1575216934244","343","-0.03515625","-0.99609375","0.17578125","29.15625","52.34375","37.34375"
"1575216934244","344","-9.765625E-4","-0.99316406","0.16699219","9.8125","50.21875","30.0"
"1575216934244","345","-0.013671875","-0.9472656","0.2763672","-6.125","52.0625","20.5"
"1575216934244","346","-0.109375","-0.8652344","0.27734375","9.8125","42.09375","20.90625"
"1575216934244","347","-0.053710938","-0.95703125","0.19726562","5.21875","25.125","24.8125"
"1575216934245","348","-0.15625","-0.9951172","0.19433594","1.375","21.28125","19.6875"
"1575216934246","349","-0.12792969","-0.95996094","0.16601562","-4.53125","14.9375","15.65625"
"1575216934641","350","-0.17382812","-0.95214844","0.20800781","2.5625","2.25","12.625"
"1575216934641","351","-0.13867188","-0.9433594","0.19335938","5.0","-11.1875","11.15625"
"1575216934642","352","-0.19628906","-0.92871094","0.17773438","8.65625","-7.71875","10.375"
"1575216934642","353","-0.24121094","-0.9589844","0.17089844","3.59375","-8.0","12.375"
"1575216934642","354","-0.2783203","-0.9472656","0.17480469","-0.4375","-1.46875","8.71875"
"1575216934642","355","-0.2685547","-0.9609375","0.17675781","-3.375","6.5","6.03125"
"1575216934642","356","-0.24316406","-0.95214844","0.15039062","-1.96875","5.1875","5.90625"
"1575216934643","357","-0.24511719","-0.92578125","0.16308594","-11.625","7.1875","0.34375"
"1575216934643","358","-0.20410156","-0.953125","0.15429688","-7.09375","-2.46875","0.65625"
"1575216934643","359","-0.25195312","-0.95996094","0.18554688","-2.15625","-5.5","-0.3125"
"1575216935039","360","-0.26953125","-0.9355469","0.15039062","1.375","-9.0","1.875"
"1575216935041","361","-0.22558594","-0.9238281","0.14257812","1.3125","-11.1875","0.71875"
"1575216935042","362","-0.27148438","-0.9326172","0.15039062","4.375","-12.84375","-1.46875"
"1575216935042","363","-0.23046875","-0.9433594","0.13085938","2.3125","-15.53125","-4.96875"
"1575216935042","364","-0.13574219","-0.88183594","0.13867188","6.625","-24.6875","-11.3125"
"1575216935043","365","-0.21484375","-0.8798828","0.23046875","17.0","-21.5","-23.40625"
"1575216935043","366","-0.20996094","-0.98046875","0.18066406","11.09375","-25.34375","-27.0"
"1575216935043","367","-0.08984375","-0.93847656","0.17285156","-0.0625","-26.9375","-35.46875"
"1575216935044","368","0.044921875","-0.8417969","0.19921875","4.25","-29.0625","-54.6875"
"1575216935044","369","-0.047851562","-0.84472656","0.32128906","22.875","-25.96875","-70.09375"
"1575216935437","370","-0.123046875","-1.1728516","0.6298828","9.03125","37.8125","-79.71875"
"1575216935437","371","-0.296875","-0.7109375","0.4794922","34.03125","-6.0","-34.0"
"1575216935437","372","0.12011719","-1.0478516","0.3173828","23.4375","3.90625","-28.65625"
"1575216935439","373","0.18945312","-1.0478516","0.24804688","-15.75","14.5625","-53.59375"
"1575216935439","374","0.02734375","-1.1533203","0.3466797","-26.5625","5.84375","-38.65625"
"1575216935440","375","0.030273438","-0.94628906","0.41308594","-35.53125","-8.125","-31.875"
"1575216935440","376","0.091796875","-0.78125","0.31054688","-10.03125","-6.4375","-24.0625"
"1575216935440","377","0.052734375","-0.8925781","0.21777344","6.875","9.25","-8.125"
"1575216935441","378","0.23046875","-1.0058594","0.22460938","10.0625","12.75","1.875"
"1575216935441","379","0.15234375","-0.9873047","0.2841797","-7.21875","4.1875","3.09375"
"1575216935834","380","0.16308594","-0.8798828","0.36816406","-5.875","-6.65625","1.09375"
"1575216935834","381","0.11816406","-0.9316406","0.32617188","-6.59375","-9.0","-4.15625"
"1575216935834","382","0.15820312","-0.9404297","0.25585938","-1.0","-8.6875","-3.1875"
"1575216935835","383","0.11230469","-0.9326172","0.29589844","-12.15625","-12.90625","-0.9375"
"1575216935835","384","0.053710938","-0.9189453","0.2890625","-4.90625","-10.40625","-2.03125"
"1575216935836","385","0.0234375","-0.97265625","0.296875","-5.03125","-3.96875","1.8125"
"1575216935837","386","0.05078125","-0.97265625","0.28808594","-9.46875","3.15625","2.5625"
"1575216935837","387","0.14550781","-0.93652344","0.26171875","-10.75","1.625","-1.59375"
"1575216935837","388","0.20996094","-0.93652344","0.23339844","-11.5625","-5.25","-7.09375"
"1575216935837","389","0.19335938","-0.95703125","0.21289062","-15.8125","-9.53125","-7.09375"
"1575216936230","390","0.13671875","-0.92089844","0.203125","-20.9375","-9.125","-7.28125"
"1575216936231","391","0.15332031","-0.8984375","0.2265625","-4.46875","-1.84375","-4.65625"
"1575216936231","392","0.140625","-0.8857422","0.23242188","1.28125","-9.125","-2.75"
"1575216936231","393","0.18652344","-0.9033203","0.21777344","13.0","-8.5","-1.34375"
"1575216936232","394","0.16113281","-0.890625","0.24902344","25.75","-12.15625","0.03125"
"1575216936232","395","0.11230469","-0.8798828","0.2578125","36.0","-14.0625","-1.40625"
"1575216936232","396","0.083984375","-0.94628906","0.26660156","46.0625","-3.25","-7.71875"
"1575216936233","397","0.078125","-1.0234375","0.2763672","46.90625","7.25","-21.75"
"1575216936234","398","0.25097656","-0.9248047","0.30273438","33.84375","21.34375","-24.84375"
"1575216936234","399","0.26171875","-0.85546875","0.36035156","37.40625","-4.15625","-22.53125"
"1575216936629","400","0.2783203","-0.8154297","0.3701172","41.5625","-17.84375","-15.75"
"1575216936629","401","0.3251953","-0.8779297","0.40722656","41.65625","2.0","-8.125"
"1575216936630","402","0.24902344","-0.93359375","0.453125","34.21875","-6.84375","-3.96875"
"1575216936630","403","0.24121094","-0.89941406","0.45214844","24.46875","-10.6875","-5.21875"
"1575216936630","404","0.23828125","-0.8720703","0.453125","23.0625","-13.0625","-3.6875"
"1575216936630","405","0.17675781","-0.8925781","0.45703125","25.625","-5.75","-9.21875"
"1575216936631","406","0.31347656","-0.81933594","0.46777344","15.78125","-3.0","-1.65625"
"1575216936631","407","0.25195312","-0.8417969","0.5058594","10.78125","-21.125","-2.6875"
"1575216936631","408","0.21386719","-0.8515625","0.49414062","6.875","-15.6875","-2.46875"
"1575216936632","409","0.26953125","-0.78222656","0.4970703","-1.96875","-5.75","-4.09375"
"1575216937026","410","0.32714844","-0.8066406","0.4794922","3.28125","-4.03125","-3.96875"
"1575216937027","411","0.23535156","-0.76660156","0.5097656","1.4375","-13.375","-1.0"
"1575216937027","412","0.30566406","-0.7783203","0.48828125","-2.40625","-10.09375","-4.78125"
"1575216937027","413","0.359375","-0.80566406","0.5214844","-0.25","-12.71875","-12.40625"
"1575216937027","414","0.35058594","-0.7529297","0.49414062","-1.59375","-14.90625","-12.90625"
"1575216937027","415","0.3095703","-0.7910156","0.5029297","-8.625","-6.65625","-10.15625"
"1575216937028","416","0.31152344","-0.78222656","0.49121094","-12.34375","5.1875","-5.09375"
"1575216937028","417","0.31933594","-0.78222656","0.4716797","-17.15625","12.1875","0.65625"
"1575216937028","418","0.3203125","-0.80566406","0.45214844","-19.90625","18.34375","3.90625"
"1575216937028","419","0.3486328","-0.84375","0.4501953","-19.53125","18.84375","4.0"
"1575216937425","420","0.3623047","-0.828125","0.45214844","-21.125","16.09375","4.25"
"1575216937426","421","0.36035156","-0.81152344","0.44726562","-19.53125","10.96875","4.4375"
"1575216937426","422","0.359375","-0.8232422","0.43847656","-20.9375","6.40625","3.59375"
"1575216937426","423","0.3701172","-0.82421875","0.4267578","-20.65625","0.21875","2.375"
"1575216937427","424","0.3544922","-0.83984375","0.4111328","-24.1875","-4.65625","3.53125"
"1575216937427","425","0.36816406","-0.8544922","0.37402344","-26.5","-9.34375","7.5625"
"1575216937427","426","0.3466797","-0.89160156","0.34960938","-38.65625","-7.09375","13.96875"
"1575216937427","427","0.3876953","-0.88964844","0.39453125","-37.90625","-20.09375","25.3125"
"1575216937428","428","0.22167969","-0.9140625","0.21777344","-51.40625","-29.0625","30.3125"
"1575216937428","429","0.25878906","-1.1035156","0.18457031","-70.6875","8.53125","11.15625"
"1575216937822","430","-0.0087890625","-1.0576172","-0.032226562","-69.03125","-2.59375","11.40625"
"1575216937822","431","0.08984375","-0.88183594","0.109375","-49.09375","0.28125","24.65625"
"1575216937822","432","0.022460938","-0.77441406","0.46875","0.71875","3.90625","26.09375"
"1575216937824","433","0.09765625","-0.8466797","0.19433594","3.03125","31.40625","17.875"
"1575216937824","434","0.29101562","-0.9189453","0.18652344","4.9375","19.8125","17.6875"
"1575216937824","435","0.1171875","-0.9082031","0.19140625","-8.25","20.6875","16.84375"
"1575216937825","436","0.06347656","-0.8964844","0.21484375","-6.0","24.8125","10.90625"
"1575216937825","437","0.1796875","-1.0019531","0.20410156","-2.34375","16.34375","-1.71875"
"1575216937825","438","0.17285156","-0.96191406","0.16601562","4.6875","1.09375","-5.4375"
"1575216937826","439","0.21875","-0.94628906","0.099609375","-0.9375","-0.6875","-2.15625"
"1575216938218","440","0.32617188","-1.0302734","0.17480469","4.4375","1.6875","4.125"
"1575216938218","441","0.16503906","-0.96484375","0.20605469","6.21875","-3.875","2.4375"
"1575216938218","442","0.15136719","-1.0048828","0.18554688","3.40625","-7.34375","-1.40625"
"1575216938219","443","0.078125","-0.9746094","0.16308594","-6.375","-4.84375","-6.53125"
"1575216938219","444","0.064453125","-0.9658203","0.17675781","-9.46875","2.0","-7.21875"
"1575216938220","445","0.0703125","-0.94140625","0.14257812","-8.125","6.625","-8.0625"
"1575216938220","446","0.10058594","-0.95214844","0.14941406","-0.25","10.84375","-7.53125"
"1575216938221","447","0.12207031","-0.9814453","0.15820312","2.96875","13.84375","-2.75"
"1575216938221","448","0.17871094","-0.9824219","0.17382812","0.65625","18.40625","-5.75"
"1575216938221","449","0.18261719","-0.9941406","0.22949219","5.65625","13.59375","-5.5625"
"1575216938814","450","0.16210938","-0.9355469","0.24023438","3.65625","10.1875","-3.90625"
"1575216938815","451","0.14648438","-0.96875","0.17675781","4.0625","24.09375","0.46875"
"1575216938815","452","0.12109375","-1.0292969","0.1484375","-3.875","19.75","17.875"
"1575216938815","453","0.072265625","-0.9863281","0.18164062","-22.21875","27.09375","18.0"
"1575216938815","454","0.07128906","-0.9921875","0.17578125","-23.09375","39.40625","21.78125"
"1575216938816","455","0.115234375","-0.94921875","0.12695312","-18.25","33.4375","23.46875"
"1575216938816","456","0.1015625","-1.0009766","0.10058594","-15.40625","19.03125","31.96875"
"1575216938817","457","0.0390625","-1.0185547","0.14257812","-6.65625","18.90625","26.03125"
"1575216938818","458","-0.0078125","-0.9785156","0.15136719","-0.375","25.8125","18.78125"
"1575216938818","459","0.056640625","-0.82421875","0.23730469","-3.0625","34.53125","16.90625"
"1575216939213","460","0.04296875","-0.87597656","0.18066406","10.59375","21.28125","23.59375"
"1575216939213","461","-0.04296875","-1.0380859","0.12792969","8.15625","16.65625","32.9375"
"1575216939213","462","0.009765625","-1.1582031","0.11621094","-0.375","10.78125","17.875"
"1575216939214","463","-0.038085938","-0.9863281","0.22265625","-14.0625","13.0","15.71875"
"1575216939214","464","0.032226562","-0.9482422","0.26757812","-9.71875","-7.8125","14.21875"
"1575216939214","465","-0.08984375","-0.92578125","0.09863281","-8.0625","-17.46875","14.5"
"1575216939214","466","-0.0703125","-0.9892578","0.072265625","-9.125","-2.6875","8.84375"
"1575216939214","467","-0.12988281","-0.96484375","0.09375","-14.90625","10.53125","-1.46875"
"1575216939215","468","-0.10546875","-0.984375","0.0859375","-9.46875","9.75","-2.40625"
"1575216939216","469","-0.043945312","-1.015625","0.060546875","-10.875","2.0","-4.96875"
"1575216939609","470","-0.083984375","-0.9736328","0.051757812","-10.09375","-0.4375","-6.71875"
"1575216939609","471","-0.06738281","-0.9873047","0.08105469","-4.59375","-5.5625","-1.90625"
"1575216939610","472","-0.1328125","-0.9394531","0.046875","-1.125","-4.46875","-1.53125"
"1575216939610","473","-0.12011719","-0.94140625","0.05078125","3.28125","-0.8125","2.0"
"1575216939610","474","-0.140625","-0.96972656","0.024414062","7.5625","6.09375","-1.84375"
"1575216939610","475","-0.060546875","-1.0234375","0.029296875","7.125","6.09375","-6.53125"
"1575216939611","476","-0.08300781","-0.99121094","0.072265625","8.90625","2.71875","-10.8125"
"1575216939611","477","-0.0546875","-0.9951172","0.09375","1.6875","5.53125","-14.53125"
"1575216939611","478","0.0146484375","-0.94921875","0.045898438","8.40625","-10.09375","-10.15625"
"1575216939611","479","-0.017578125","-0.9111328","0.053710938","15.78125","-26.375","-7.65625"
"1575216940008","480","0.095703125","-0.89453125","0.0390625","20.4375","-35.0","-16.875"
"1575216940009","481","0.17285156","-0.8671875","0.119140625","36.3125","-48.84375","-33.34375"
"1575216940010","482","0.13671875","-0.81640625","0.21777344","52.0","-59.65625","-48.1875"
"1575216940010","483","0.10546875","-1.2724609","0.6894531","56.125","-11.78125","-52.875"
"1575216940011","484","-0.21289062","-0.70410156","0.40820312","69.9375","-86.5625","0.28125"
"1575216940011","485","0.3408203","-1.0673828","0.41015625","48.9375","-65.9375","-1.53125"
"1575216940011","486","-0.10839844","-1.234375","0.11035156","4.625","-3.96875","-31.6875"
"1575216940012","487","0.045898438","-1.0664062","0.28320312","-40.0625","24.40625","17.0625"
"1575216940012","488","0.16894531","-0.7753906","0.3876953","-4.53125","-7.34375","11.53125"
"1575216940012","489","-0.018554688","-0.90234375","0.2890625","-6.53125","3.28125","-1.1875"
"1575216940405","490","-0.06738281","-1.0175781","0.28222656","-10.5625","31.71875","-8.875"
"1575216940406","491","0.13769531","-0.9580078","0.27148438","-18.25","32.5625","-21.75"
"1575216940406","492","0.20410156","-0.8808594","0.29492188","-18.875","30.875","-16.0"
"1575216940408","493","0.16113281","-0.9169922","0.3173828","-18.6875","27.15625","-15.21875"
"1575216940408","494","0.17578125","-0.984375","0.23730469","-16.875","23.53125","-18.8125"
"1575216940408","495","0.19628906","-0.9921875","0.18945312","-23.4375","22.5625","-16.8125"
"1575216940409","496","0.265625","-0.90722656","0.24804688","-23.625","21.03125","-15.625"
"1575216940409","497","0.234375","-0.9501953","0.26660156","-13.875","9.1875","-15.34375"
"1575216940409","498","0.20605469","-0.92871094","0.22070312","-10.875","-4.34375","-13.875"
"1575216940410","499","0.19140625","-0.9111328","0.21289062","-4.90625","-6.90625","-14.125"
"1575216940804","500","0.16015625","-0.94433594","0.24511719","4.875","-5.09375","-17.65625"
"1575216940805","501","0.14550781","-0.9267578","0.24707031","18.84375","-1.71875","-26.75"
"1575216940805","502","0.21484375","-0.8359375","0.265625","30.0","2.375","-18.8125"
"1575216940805","503","0.15136719","-0.8300781","0.2998047","39.46875","-7.15625","-5.03125"
"1575216940806","504","0.17285156","-0.8408203","0.37402344","49.84375","-1.25","1.3125"
"1575216940807","505","0.20214844","-0.90625","0.38476562","42.40625","10.46875","-3.4375"
"1575216940807","506","0.22460938","-0.92578125","0.3203125","38.3125","9.8125","-6.0"
"1575216940808","507","0.24414062","-0.87597656","0.36523438","46.1875","6.15625","-5.03125"
"1575216940808","508","0.115234375","-0.76660156","0.39648438","45.40625","6.5625","-6.78125"
"1575216940808","509","0.15234375","-0.8623047","0.4638672","40.375","29.84375","-11.0"
"1575216941199","510","0.3310547","-0.875","0.48242188","43.1875","30.375","-11.4375"
"1575216941200","511","0.30566406","-0.90234375","0.47558594","50.875","11.9375","-4.28125"
"1575216941200","512","0.2578125","-0.87402344","0.5341797","49.78125","-1.40625","-6.1875"
"1575216941201","513","0.20117188","-0.82421875","0.5029297","36.3125","3.34375","-11.4375"
"1575216941201","514","0.23828125","-0.7919922","0.5625","27.4375","6.8125","-15.03125"
"1575216941201","515","0.25097656","-0.7470703","0.58984375","23.1875","2.3125","-16.125"
"1575216941202","516","0.28710938","-0.72753906","0.60546875","17.3125","-4.53125","-11.0625"
"1575216941203","517","0.265625","-0.7216797","0.6074219","14.3125","-8.5","-6.5"
"1575216941203","518","0.32910156","-0.75","0.58984375","5.84375","-7.53125","-3.5"
"1575216941203","519","0.34375","-0.7636719","0.6347656","3.59375","-11.71875","0.0"
"1575216941599","520","0.29296875","-0.7246094","0.63378906","-1.125","-11.0625","1.5"
"1575216941600","521","0.29296875","-0.6982422","0.6230469","-1.78125","-11.84375","4.5625"
"1575216941600","522","0.28515625","-0.69140625","0.6230469","-3.1875","-15.34375","5.65625"
"1575216941600","523","0.26757812","-0.6855469","0.6171875","-3.125","-15.40625","4.5625"
"1575216941601","524","0.27539062","-0.7138672","0.59375","-4.90625","-11.3125","5.125"
"1575216941601","525","0.26660156","-0.7216797","0.61035156","-11.71875","-7.53125","8.15625"
"1575216941601","526","0.30273438","-0.7529297","0.6230469","-18.6875","0.78125","11.28125"
"1575216941601","527","0.328125","-0.7939453","0.5830078","-22.90625","0.59375","14.09375"
"1575216941602","528","0.24902344","-0.7128906","0.5703125","-32.5625","-1.71875","14.21875"
"1575216941603","529","0.25878906","-0.7685547","0.5283203","-27.1875","12.8125","14.21875"
"1575216941995","530","0.31933594","-0.8466797","0.5185547","-30.15625","12.125","12.1875"
"1575216941996","531","0.3486328","-0.8388672","0.50878906","-35.59375","9.875","12.5"
"1575216941996","532","0.22363281","-0.87109375","0.45996094","-41.34375","7.3125","16.9375"
"1575216941996","533","0.20605469","-0.9423828","0.39257812","-59.34375","15.25","21.71875"
"1575216941997","534","0.17480469","-0.875","0.35742188","-70.4375","13.65625","20.375"
"1575216941997","535","0.13085938","-0.94433594","0.47460938","-69.90625","45.5625","25.25"
"1575216941997","536","0.06347656","-1.2490234","0.26757812","-56.34375","20.90625","2.78125"
"1575216941997","537","0.28027344","-0.68066406","0.19921875","-42.625","-22.21875","1.5625"
"1575216941998","538","0.049804688","-0.75390625","0.2548828","-23.6875","-18.875","1.03125"
"1575216941998","539","-0.0126953125","-0.9404297","0.24511719","-17.71875","17.0","-0.5"
