"# PR data"
"# Start time: 20191128T194711"
"# Subject: santi"
"# Activity type: Sit to stand"
"# Correctness: Correct"
"# Notes: "
""
"timestamp","seq","accel_x","accel_y","accel_z","gyro_x","gyro_y","gyro_z"
"1574966831542","0","-0.052734375","-0.8574219","-0.08886719","-1.46875","-3.15625","-2.5625"
"1574966831542","1","-0.068359375","-0.87109375","-0.08496094","-0.65625","-3.40625","-0.28125"
"1574966831543","2","-0.044921875","-0.8613281","-0.09082031","-1.09375","-7.84375","1.40625"
"1574966831543","3","-0.052734375","-0.85253906","-0.08105469","2.25","-5.71875","2.375"
"1574966831543","4","-0.045898438","-0.8535156","-0.1015625","7.625","-8.46875","6.34375"
"1574966831543","5","-0.05078125","-0.8457031","-0.061523438","11.90625","-6.875","8.4375"
"1574966831544","6","-0.06738281","-0.8496094","-0.109375","18.875","-9.5625","11.4375"
"1574966831544","7","-0.0068359375","-0.81347656","-0.052734375","24.1875","-5.59375","19.0625"
"1574966831544","8","-0.11425781","-0.85058594","-0.0029296875","17.8125","7.65625","16.5625"
"1574966831544","9","-0.055664062","-0.8417969","-0.11035156","38.875","-6.75","27.78125"
"1574966832136","10","-0.08496094","-0.8779297","-0.013671875","36.625","-4.0625","34.25"
"1574966832137","11","-0.16894531","-0.8515625","-0.024414062","50.34375","-14.0","40.21875"
"1574966832139","12","-0.12597656","-0.7939453","0.030273438","57.4375","-11.8125","45.53125"
"1574966832140","13","-0.09375","-0.7529297","0.013671875","72.5","-13.28125","50.90625"
"1574966832140","14","-0.07714844","-0.6484375","0.078125","97.84375","-13.59375","66.84375"
"1574966832140","15","-0.21484375","-0.78125","0.18359375","113.03125","2.46875","86.625"
"1574966832140","16","-0.44921875","-0.9433594","0.38085938","99.96875","16.9375","84.3125"
"1574966832141","17","-0.5488281","-0.8613281","0.515625","93.5625","24.9375","90.03125"
"1574966832141","18","-0.5859375","-0.83691406","0.59472656","79.28125","34.4375","84.0"
"1574966832141","19","-0.78125","-0.7832031","0.71777344","59.625","17.375","68.0"
"1574966832336","20","-0.8330078","-0.6796875","0.7470703","44.5625","0.09375","43.03125"
"1574966832336","21","-0.7128906","-0.6269531","0.671875","33.09375","-4.0","25.53125"
"1574966832336","22","-0.66503906","-0.55371094","0.64941406","11.40625","6.0","16.375"
"1574966832337","23","-0.6796875","-0.54003906","0.57128906","-10.125","6.0","0.625"
"1574966832337","24","-0.6044922","-0.49609375","0.45214844","-16.90625","-1.25","-21.34375"
"1574966832337","25","-0.47558594","-0.5859375","0.5390625","-7.375","-8.34375","-15.6875"
"1574966832338","26","-0.46484375","-0.4296875","0.48242188","-18.78125","-8.59375","-29.59375"
"1574966832338","27","-0.48339844","-0.5126953","0.46777344","-31.84375","-5.15625","-42.34375"
"1574966832338","28","-0.4716797","-0.57910156","0.3876953","-48.46875","-3.09375","-62.625"
"1574966832339","29","-0.4794922","-0.6279297","0.27539062","-45.15625","-13.40625","-77.5625"
"1574966832733","30","-0.49609375","-0.6044922","0.27441406","-46.625","-5.59375","-78.3125"
"1574966832734","31","-0.3779297","-0.5527344","0.27539062","-75.875","-1.3125","-80.4375"
"1574966832734","32","-0.38476562","-0.59472656","0.2705078","-85.9375","6.0","-81.78125"
"1574966832734","33","-0.28320312","-0.6660156","0.21386719","-88.8125","3.125","-76.21875"
"1574966832734","34","-0.18359375","-0.68847656","0.12988281","-64.5","-20.0","-76.15625"
"1574966832735","35","-0.22558594","-0.7128906","0.22167969","-91.0","-9.375","-69.28125"
"1574966832735","36","-0.12988281","-0.5888672","0.057617188","-69.40625","-31.78125","-68.40625"
"1574966832736","37","-0.087890625","-0.57421875","0.0087890625","-58.28125","-22.9375","-59.25"
"1574966832737","38","-0.12402344","-0.57128906","0.08691406","-67.5","-27.375","-44.4375"
"1574966832737","39","-0.034179688","-0.7089844","0.091796875","-69.21875","-22.8125","-29.46875"
"1574966833330","40","0.024414062","-0.9345703","0.01171875","-41.125","-33.71875","-19.53125"
"1574966833331","41","-0.0234375","-0.9013672","-0.06738281","-26.4375","-44.78125","-11.96875"
"1574966833331","42","-0.044921875","-0.78222656","-0.111328125","-18.3125","-46.25","-3.28125"
"1574966833331","43","-0.06640625","-0.75","-0.11230469","-1.78125","-37.5","6.78125"
"1574966833331","44","-0.08105469","-0.8251953","-0.06738281","18.0","-28.46875","15.375"
"1574966833332","45","-0.123046875","-0.83203125","-0.034179688","25.875","-27.5625","29.375"
"1574966833332","46","-0.171875","-0.7441406","0.0078125","30.28125","-15.15625","35.78125"
"1574966833332","47","-0.13671875","-0.7158203","-0.00390625","43.28125","-11.15625","46.21875"
"1574966833333","48","-0.19433594","-0.7236328","0.026367188","34.84375","-5.78125","51.34375"
"1574966833334","49","-0.23632812","-0.7080078","-0.0048828125","50.84375","0.21875","52.5"
"1574966833727","50","-0.26660156","-0.60546875","0.0625","70.75","-0.28125","62.875"
"1574966833727","51","-0.25195312","-0.375","0.048828125","79.21875","-1.25","76.3125"
"1574966833728","52","-0.13476562","-0.41601562","0.12402344","77.15625","9.125","76.4375"
"1574966833728","53","-0.42773438","-0.51660156","0.19824219","80.09375","25.40625","88.4375"
"1574966833728","54","-0.3955078","-0.71972656","0.1484375","107.125","7.84375","94.0625"
"1574966833728","55","-0.38964844","-0.890625","0.5185547","59.4375","25.84375","67.6875"
"1574966833728","56","-0.8457031","-0.96972656","0.111328125","90.6875","-24.375","70.625"
"1574966833729","57","-0.4189453","-0.89160156","0.45703125","62.75","4.0625","36.9375"
"1574966833729","58","-0.55078125","-0.48535156","0.31347656","69.34375","-24.9375","34.875"
"1574966833729","59","-0.4580078","-0.47070312","0.26660156","66.40625","-15.0","7.21875"
"1574966834321","60","-0.546875","-0.55859375","0.4267578","30.09375","-1.1875","16.78125"
"1574966834324","61","-0.7470703","-0.48828125","0.44433594","34.0625","11.9375","-4.15625"
"1574966834324","62","-0.3828125","-0.5703125","0.47558594","16.53125","4.125","-19.40625"
"1574966834325","63","-0.69140625","-0.5136719","0.4658203","3.40625","8.5625","-17.9375"
"1574966834325","64","-0.4716797","-0.59277344","0.56347656","-1.53125","8.5625","-23.25"
"1574966834325","65","-0.6982422","-0.58496094","0.53808594","-13.125","3.75","-30.375"
"1574966834326","66","-0.44335938","-0.6064453","0.51953125","-13.0625","-3.4375","-38.5625"
"1574966834326","67","-0.63183594","-0.5595703","0.54296875","-32.15625","4.71875","-40.28125"
"1574966834326","68","-0.4560547","-0.67089844","0.44726562","-37.03125","-7.125","-51.75"
"1574966834326","69","-0.46679688","-0.6113281","0.4580078","-55.0625","0.15625","-57.0625"
"1574966834327","70","-0.484375","-0.8613281","0.4423828","-62.3125","2.59375","-63.03125"
"1574966834328","71","-0.41015625","-1.0585938","0.42871094","-66.40625","-6.0625","-71.59375"
"1574966834328","72","-0.34765625","-1.0458984","0.3251953","-70.0","-9.0625","-62.125"
"1574966834328","73","-0.24804688","-1.0351562","0.24902344","-79.84375","-14.625","-62.75"
"1574966834329","74","-0.1640625","-0.875","0.07519531","-78.3125","-20.84375","-61.09375"
"1574966834329","75","-0.095703125","-0.7265625","0.08496094","-52.1875","-15.71875","-47.78125"
"1574966834329","76","-0.123046875","-0.7167969","0.013671875","-50.34375","-4.3125","-31.25"
"1574966834329","77","-0.034179688","-0.7402344","-0.037109375","-33.9375","-6.5","-31.5"
"1574966834330","78","-0.024414062","-0.7910156","-0.0068359375","-29.0625","0.09375","-17.3125"
"1574966834330","79","-0.05859375","-0.8378906","-0.078125","-7.0625","-6.875","-17.5"
"1574966834720","80","-0.09863281","-0.8857422","0.00390625","-4.4375","-2.53125","-3.71875"
"1574966834720","81","-0.0703125","-0.88964844","-0.038085938","-2.5","-6.625","-2.375"
"1574966834721","82","-0.080078125","-0.8486328","-0.028320312","-6.03125","-7.65625","7.21875"
"1574966834721","83","-0.09472656","-0.82910156","-0.055664062","0.375","-9.3125","11.0"
"1574966834721","84","-0.06933594","-0.82714844","-0.055664062","8.5","-7.84375","18.6875"
"1574966834722","85","-0.08886719","-0.8642578","-0.041015625","10.3125","-4.625","19.96875"
"1574966834722","86","-0.07324219","-0.8046875","-0.040039062","23.1875","-8.46875","24.25"
"1574966834723","87","-0.11425781","-0.81152344","-0.0048828125","34.0","-7.3125","34.875"
"1574966834723","88","-0.15917969","-0.83203125","0.038085938","45.0","-9.625","41.34375"
"1574966834723","89","-0.20214844","-0.7578125","0.07421875","61.84375","-12.375","49.03125"
"1574966835514","90","-0.24023438","-0.74316406","0.09667969","76.0","-16.5625","56.90625"
"1574966835515","91","-0.21972656","-0.68847656","0.13769531","92.59375","-16.8125","67.9375"
"1574966835515","92","-0.28320312","-0.6933594","0.16503906","107.3125","-13.71875","70.625"
"1574966835515","93","-0.26171875","-0.5986328","0.23046875","120.65625","-8.53125","82.28125"
"1574966835516","94","-0.39453125","-0.7529297","0.40429688","128.40625","4.125","94.125"
"1574966835516","95","-0.78515625","-0.8613281","0.6669922","109.0","36.28125","89.90625"
"1574966835516","96","-0.7890625","-0.86328125","0.9589844","90.65625","30.65625","68.3125"
"1574966835518","97","-0.83984375","-0.6816406","0.9453125","47.6875","-14.25","46.53125"
"1574966835518","98","-0.8222656","-0.5263672","0.8154297","37.84375","-17.0","33.8125"
"1574966835518","99","-0.70996094","-0.5185547","0.8154297","30.59375","-15.71875","22.40625"
"1574966835710","100","-0.70214844","-0.4873047","0.72753906","5.875","-17.75","8.5"
"1574966835711","101","-0.6201172","-0.41503906","0.68847656","-9.6875","-15.34375","-10.5"
"1574966835711","102","-0.54296875","-0.3779297","0.55566406","-20.6875","-11.9375","-23.6875"
"1574966835711","103","-0.4892578","-0.38867188","0.4794922","-39.0","-14.3125","-33.8125"
"1574966835711","104","-0.47851562","-0.35253906","0.4716797","-41.125","-6.1875","-37.84375"
"1574966835712","105","-0.44921875","-0.38671875","0.47265625","-62.875","-2.0","-43.9375"
"1574966835712","106","-0.4580078","-0.41015625","0.4033203","-66.34375","-6.125","-55.84375"
"1574966835712","107","-0.4326172","-0.54003906","0.41210938","-66.9375","-2.59375","-55.46875"
"1574966835712","108","-0.4326172","-0.6376953","0.3828125","-73.40625","-7.59375","-60.90625"
"1574966835713","109","-0.39941406","-0.5703125","0.3203125","-70.4375","-16.34375","-63.21875"
"1574966835912","110","-0.31640625","-0.52441406","0.34179688","-75.4375","-5.96875","-59.875"
"1574966835913","111","-0.31933594","-0.5292969","0.25390625","-77.8125","-9.75","-63.34375"
"1574966835913","112","-0.21679688","-0.6484375","0.26367188","-75.375","5.65625","-51.5625"
"1574966835913","113","-0.25585938","-0.68652344","0.20507812","-71.78125","-5.90625","-46.375"
"1574966835913","114","-0.17773438","-0.6464844","0.15917969","-67.25","-15.78125","-42.15625"
"1574966835914","115","-0.18457031","-0.75","0.17480469","-94.90625","-17.625","-46.4375"
"1574966835914","116","-0.20996094","-0.78125","0.109375","-76.0","-15.125","-44.84375"
"1574966835914","117","-0.18359375","-0.7324219","0.0048828125","-64.21875","-18.21875","-42.46875"
"1574966835914","118","-0.15136719","-0.6660156","0.033203125","-52.71875","-7.0625","-30.3125"
"1574966835914","119","-0.080078125","-0.69140625","0.01171875","-35.9375","-3.5","-17.8125"
"1574966836310","120","-0.10253906","-0.8173828","0.018554688","-36.0","-2.46875","-14.46875"
"1574966836311","121","-0.1796875","-0.9316406","-0.02734375","-2.8125","-5.09375","-0.84375"
"1574966836312","122","-0.15039062","-0.8066406","-0.02734375","13.8125","-4.78125","3.4375"
"1574966836312","123","-0.08105469","-0.70410156","-0.013671875","16.46875","-3.75","9.59375"
"1574966836312","124","-0.1328125","-0.7939453","0.024414062","24.34375","2.46875","15.9375"
"1574966836312","125","-0.16503906","-0.81347656","0.06933594","29.0625","6.6875","21.90625"
"1574966836312","126","-0.16894531","-0.7597656","0.02734375","44.5","-1.9375","24.90625"
"1574966836313","127","-0.15332031","-0.7421875","0.103515625","44.5625","1.3125","35.65625"
"1574966836313","128","-0.25976562","-0.7089844","0.11816406","50.40625","4.78125","34.6875"
"1574966836313","129","-0.22070312","-0.65527344","0.123046875","59.03125","0.6875","45.59375"
"1574966836707","130","-0.3154297","-0.6044922","0.19726562","48.65625","11.9375","53.71875"
"1574966836708","131","-0.3125","-0.57910156","0.171875","51.6875","26.8125","54.8125"
"1574966836708","132","-0.28808594","-0.6796875","0.15820312","76.3125","22.4375","70.5"
"1574966836709","133","-0.23925781","-0.64746094","0.12695312","73.96875","7.90625","74.59375"
"1574966836709","134","-0.1953125","-0.57910156","0.21582031","96.1875","-8.09375","67.625"
"1574966836710","135","-0.6201172","-0.45507812","0.25390625","78.0","12.28125","72.65625"
"1574966836710","136","-0.4326172","-0.4638672","0.28320312","65.875","33.0","75.6875"
"1574966836710","137","-0.34179688","-0.58984375","0.34570312","65.90625","4.1875","47.90625"
"1574966836710","138","-0.62597656","-0.6044922","0.38671875","53.46875","19.6875","44.4375"
"1574966836711","139","-0.5673828","-0.5371094","0.40039062","27.96875","1.3125","26.6875"
"1574966837303","140","-0.5986328","-0.53125","0.42285156","32.71875","9.90625","18.0625"
"1574966837304","141","-0.4169922","-0.6904297","0.5214844","23.4375","-0.34375","-5.125"
"1574966837304","142","-0.8408203","-0.5966797","0.54296875","-13.25","8.9375","-17.25"
"1574966837304","143","-0.6074219","-0.62597656","0.53125","6.03125","4.125","-29.09375"
"1574966837304","144","-0.6689453","-0.6796875","0.6113281","-22.75","10.46875","-39.3125"
"1574966837305","145","-0.69628906","-0.6972656","0.52246094","-35.875","-2.84375","-46.8125"
"1574966837306","146","-0.4765625","-0.6582031","0.4296875","-50.28125","-15.21875","-72.0625"
"1574966837306","147","-0.5654297","-0.7636719","0.49804688","-67.6875","-4.125","-79.21875"
"1574966837306","148","-0.57714844","-1.0","0.46484375","-67.9375","-4.6875","-84.28125"
"1574966837307","149","-0.42871094","-1.0849609","0.37597656","-60.25","-18.09375","-80.6875"
"1574966837502","150","-0.3359375","-0.984375","0.27734375","-70.75","-17.0","-62.3125"
"1574966837502","151","-0.21777344","-0.9140625","0.14746094","-66.09375","-17.0625","-56.09375"
"1574966837503","152","-0.12597656","-0.8300781","0.026367188","-69.15625","-19.4375","-55.59375"
"1574966837503","153","-0.13476562","-0.703125","0.026367188","-66.78125","-17.3125","-50.09375"
"1574966837503","154","-0.13867188","-0.73046875","0.01171875","-71.53125","3.3125","-43.15625"
"1574966837503","155","-0.103515625","-0.68359375","0.001953125","-78.0","27.8125","-41.625"
"1574966837504","156","-0.0068359375","-0.7470703","-0.15820312","-48.15625","16.6875","-31.84375"
"1574966837505","157","-0.078125","-0.99902344","-0.09082031","-20.75","14.75","-33.4375"
"1574966837505","158","-0.059570312","-1.0107422","-0.14257812","-8.0","6.625","-24.28125"
"1574966837506","159","0.026367188","-0.92285156","-0.16503906","9.03125","-7.25","-9.75"
"1574966838099","160","0.041992188","-0.83203125","-0.16015625","-10.3125","-16.09375","8.375"
"1574966838100","161","-0.05078125","-0.7871094","-0.18945312","12.8125","-22.875","12.65625"
"1574966838100","162","-0.048828125","-0.7734375","-0.08984375","13.75","-24.75","21.125"
"1574966838100","163","-0.11621094","-0.7451172","-0.07714844","0.96875","-7.84375","21.0"
"1574966838100","164","-0.09472656","-0.74121094","-0.07910156","14.84375","-1.375","24.90625"
"1574966838101","165","0.0068359375","-0.80078125","-0.19140625","29.125","3.8125","26.0625"
"1574966838101","166","0.0068359375","-0.90234375","-0.19335938","46.6875","-5.53125","36.75"
"1574966838101","167","-0.0087890625","-0.8847656","-0.095703125","79.96875","-17.5625","62.3125"
"1574966838101","168","-0.14941406","-0.7763672","-0.030273438","102.71875","-25.4375","77.84375"
"1574966838102","169","-0.20214844","-0.7265625","0.01171875","116.46875","-4.4375","90.9375"
"1574966838298","170","-0.2783203","-0.9394531","0.19042969","124.5","22.375","96.875"
"1574966838299","171","-0.43652344","-0.94140625","0.47265625","105.53125","26.875","96.03125"
"1574966838299","172","-0.6220703","-1.0625","0.59765625","92.46875","7.40625","83.875"
"1574966838299","173","-0.7001953","-0.8076172","0.59765625","65.75","-32.8125","45.0625"
"1574966838300","174","-0.765625","-0.67871094","0.7060547","55.78125","-16.5","41.28125"
"1574966838300","175","-0.7753906","-0.5986328","0.66015625","41.6875","-15.40625","36.25"
"1574966838300","176","-0.6875","-0.6201172","0.62597656","23.6875","-12.65625","14.34375"
"1574966838300","177","-0.6376953","-0.55078125","0.6074219","6.28125","0.6875","-0.84375"
"1574966838301","178","-0.6328125","-0.5126953","0.546875","5.125","14.25","-8.96875"
"1574966838301","179","-0.44335938","-0.63964844","0.51171875","0.4375","6.8125","-16.40625"
"1574966838695","180","-0.49609375","-0.4736328","0.43164062","-22.625","-12.25","-36.5"
"1574966838695","181","-0.4951172","-0.5361328","0.39453125","-18.90625","-9.75","-47.71875"
"1574966838696","182","-0.4345703","-0.5019531","0.4248047","-53.65625","-10.96875","-60.78125"
"1574966838696","183","-0.40625","-0.5517578","0.3466797","-55.46875","-12.65625","-71.65625"
"1574966838696","184","-0.39453125","-0.59472656","0.3408203","-67.125","-17.3125","-76.78125"
"1574966838697","185","-0.31835938","-0.6044922","0.33789062","-75.1875","-8.21875","-78.90625"
"1574966838697","186","-0.3232422","-0.52441406","0.30273438","-82.75","-6.625","-78.1875"
"1574966838697","187","-0.20507812","-0.5566406","0.2548828","-78.25","-2.53125","-72.125"
"1574966838698","188","-0.23046875","-0.6796875","0.23144531","-84.15625","-5.78125","-71.28125"
"1574966838698","189","-0.17578125","-0.60058594","0.15039062","-95.6875","-12.4375","-67.125"
"1574966839094","190","-0.072265625","-0.53027344","0.12597656","-83.125","-8.9375","-49.5625"
"1574966839094","191","-0.09472656","-0.6816406","0.09375","-51.09375","-12.5625","-44.5"
"1574966839094","192","-0.14746094","-0.73046875","0.060546875","-48.6875","-9.3125","-30.875"
"1574966839096","193","-0.064453125","-0.74316406","-0.037109375","-14.03125","-6.625","-19.34375"
"1574966839096","194","-0.053710938","-0.8720703","0.022460938","-5.125","-17.0625","-4.8125"
"1574966839097","195","-0.015625","-0.7714844","0.0048828125","13.8125","-22.6875","8.4375"
"1574966839097","196","-0.09863281","-0.671875","0.0390625","34.65625","-24.3125","19.0"
"1574966839097","197","-0.19921875","-0.59472656","0.15625","80.6875","-18.59375","35.53125"
"1574966839097","198","-0.20214844","-0.53027344","0.16601562","98.21875","-7.78125","49.9375"
"1574966839098","199","-0.16308594","-0.44335938","0.20800781","114.03125","-2.46875","62.875"
"1574966839491","200","-0.25195312","-0.44140625","0.24902344","111.9375","4.375","80.40625"
"1574966839491","201","-0.21484375","-0.3798828","0.18359375","89.40625","20.46875","86.3125"
"1574966839492","202","-0.2861328","-0.59765625","0.34375","90.09375","19.9375","78.9375"
"1574966839492","203","-0.25683594","-0.7685547","0.38671875","43.28125","22.1875","90.65625"
"1574966839492","204","-0.53027344","-0.7138672","0.3017578","28.15625","9.59375","58.84375"
"1574966839494","205","-0.53808594","-0.71484375","0.3564453","28.625","52.5625","54.21875"
"1574966839494","206","-0.3935547","-0.6347656","0.5595703","18.1875","28.40625","64.53125"
"1574966839494","207","-0.48339844","-0.5390625","0.3642578","64.59375","-2.59375","45.0625"
"1574966839495","208","-0.7558594","-0.66503906","0.52441406","23.5625","23.84375","48.78125"
"1574966839495","209","-0.5419922","-0.6777344","0.6357422","14.03125","21.625","20.875"
"1574966839890","210","-0.7001953","-0.6904297","0.46289062","1.34375","-6.0625","-12.375"
"1574966839890","211","-0.46484375","-0.5292969","0.4501953","-21.0","-7.0","-24.09375"
"1574966839890","212","-0.53808594","-0.5263672","0.4892578","-11.34375","8.28125","-32.8125"
"1574966839891","213","-0.46875","-0.5605469","0.4501953","-33.0625","-4.25","-34.40625"
"1574966839891","214","-0.6386719","-0.68847656","0.56152344","-45.78125","6.96875","-43.3125"
"1574966839891","215","-0.53808594","-0.74316406","0.43164062","-60.125","-5.46875","-62.0"
"1574966839891","216","-0.4609375","-0.8535156","0.40429688","-72.09375","-4.125","-68.09375"
"1574966839893","217","-0.5390625","-1.1494141","0.3876953","-65.25","-2.59375","-69.4375"
"1574966839893","218","-0.29296875","-1.1191406","0.30664062","-69.625","-21.15625","-71.03125"
"1574966839893","219","-0.23242188","-0.98535156","0.16113281","-65.0625","-25.71875","-53.21875"
"1574966840285","220","-0.23925781","-0.9121094","0.041015625","-57.125","-30.96875","-46.6875"
"1574966840285","221","-0.1484375","-0.7783203","0.025390625","-55.78125","-29.15625","-43.15625"
"1574966840285","222","-0.095703125","-0.7519531","0.0","-49.8125","-21.46875","-39.34375"
"1574966840285","223","-0.13574219","-0.7314453","-0.028320312","-48.8125","-15.59375","-39.1875"
"1574966840286","224","-0.08203125","-0.7734375","-0.016601562","-43.625","-17.90625","-37.53125"
"1574966840286","225","-0.08691406","-0.7871094","-0.0029296875","-39.71875","-12.59375","-28.5"
"1574966840286","226","-0.07324219","-0.8261719","-0.08984375","-18.90625","-15.84375","-17.3125"
"1574966840286","227","-0.12402344","-0.91015625","-0.038085938","-10.5625","-2.71875","-0.96875"
"1574966840287","228","-0.1015625","-0.8886719","-0.12988281","1.90625","-5.65625","0.5"
"1574966840288","229","-0.049804688","-0.8417969","-0.12109375","-3.15625","-8.65625","3.5"
"1574966840683","230","-0.022460938","-0.80078125","-0.0859375","9.28125","-6.8125","5.5625"
"1574966840684","231","-0.030273438","-0.7949219","-0.107421875","0.96875","-3.09375","10.875"
"1574966840684","232","-0.0107421875","-0.79589844","-0.119140625","18.5","-4.1875","14.53125"
"1574966840684","233","-0.06738281","-0.8183594","-0.07324219","25.875","-3.4375","23.8125"
"1574966840684","234","-0.043945312","-0.8378906","-0.08691406","44.875","-15.0625","32.0"
"1574966840685","235","-0.10449219","-0.8066406","-0.021484375","60.5","-9.9375","41.9375"
"1574966840685","236","-0.16992188","-0.79003906","-0.03515625","77.53125","-11.21875","53.46875"
"1574966840685","237","-0.14550781","-0.7890625","0.09082031","99.78125","-11.375","65.5"
"1574966840685","238","-0.1953125","-0.70703125","0.09863281","113.21875","-17.96875","71.65625"
"1574966840686","239","-0.30859375","-0.6591797","0.20214844","131.78125","-1.75","92.46875"
"1574966841081","240","-0.39648438","-0.75097656","0.39453125","127.5","19.9375","99.5"
"1574966841083","241","-0.65722656","-0.93652344","0.64746094","105.34375","42.3125","90.65625"
"1574966841083","242","-0.7207031","-0.8251953","0.81152344","83.625","31.15625","74.21875"
"1574966841084","243","-0.66796875","-0.64453125","0.79296875","65.90625","1.1875","54.15625"
"1574966841084","244","-0.8261719","-0.55566406","0.79003906","46.5","3.625","43.84375"
"1574966841084","245","-0.7060547","-0.6064453","0.7451172","35.96875","-7.53125","16.78125"
"1574966841085","246","-0.72265625","-0.48535156","0.71777344","15.25","-5.96875","2.03125"
"1574966841085","247","-0.6953125","-0.43554688","0.6035156","-0.375","-6.9375","-7.75"
"1574966841085","248","-0.55859375","-0.43554688","0.5966797","-13.375","-2.34375","-18.71875"
"1574966841146","249","-0.5371094","-0.3876953","0.46777344","-7.3125","-9.625","-25.625"
"1574966841479","250","-0.53125","-0.46972656","0.49414062","-24.09375","-4.75","-29.59375"
"1574966841479","251","-0.5029297","-0.38085938","0.47070312","-35.59375","-1.875","-32.03125"
"1574966841479","252","-0.5126953","-0.38476562","0.45703125","-47.25","2.84375","-39.1875"
"1574966841481","253","-0.4453125","-0.4501953","0.4013672","-36.96875","4.59375","-43.6875"
"1574966841481","254","-0.46777344","-0.5878906","0.4326172","-51.5","13.75","-45.40625"
"1574966841481","255","-0.4501953","-0.6699219","0.3779297","-55.0","4.59375","-52.71875"
"1574966841482","256","-0.421875","-0.6748047","0.38476562","-64.9375","-0.46875","-61.875"
"1574966841482","257","-0.41308594","-0.6845703","0.3515625","-61.03125","-8.46875","-67.875"
"1574966841482","258","-0.32910156","-0.63671875","0.296875","-89.34375","-5.15625","-76.53125"
"1574966841482","259","-0.34179688","-0.6689453","0.23730469","-94.0625","-6.125","-87.9375"
"1574966842075","260","-0.18164062","-0.6171875","0.19042969","-89.71875","-13.875","-79.34375"
"1574966842076","261","-0.15820312","-0.5605469","0.14648438","-105.21875","-11.15625","-80.0"
"1574966842076","262","-0.12109375","-0.6230469","0.05859375","-76.40625","-13.21875","-66.59375"
"1574966842076","263","-0.11816406","-0.77734375","0.0546875","-70.125","-7.34375","-55.21875"
"1574966842077","264","-0.09472656","-0.765625","0.043945312","-51.5625","-10.34375","-41.9375"
"1574966842078","265","-0.09472656","-0.72265625","-0.0126953125","-44.125","-9.5","-29.65625"
"1574966842079","266","-0.02734375","-0.8076172","-0.08203125","-38.5625","-7.46875","-28.875"
"1574966842079","267","0.0146484375","-0.82714844","-0.078125","-27.65625","-14.6875","-17.15625"
"1574966842079","268","-0.0625","-0.77734375","-0.099609375","-24.78125","-7.90625","-10.0625"
"1574966842079","269","-0.0029296875","-0.8652344","-0.16894531","-9.875","-10.78125","-7.6875"
"1574966842272","270","0.0029296875","-0.8564453","-0.14746094","5.0","-19.125","-1.40625"
"1574966842273","271","-0.06542969","-0.75097656","-0.09667969","9.21875","-11.4375","7.46875"
"1574966842273","272","-0.06347656","-0.8027344","-0.078125","25.46875","-3.5625","17.28125"
"1574966842273","273","-0.12988281","-0.76953125","-0.059570312","38.8125","-6.375","26.25"
"1574966842273","274","-0.12890625","-0.69140625","0.0126953125","57.5","-4.4375","43.15625"
"1574966842273","275","-0.11621094","-0.6220703","0.08691406","77.34375","0.15625","55.5625"
"1574966842274","276","-0.1953125","-0.5292969","0.08105469","99.3125","-5.90625","72.46875"
"1574966842275","277","-0.18261719","-0.5761719","0.041992188","97.59375","-15.125","87.65625"
"1574966842275","278","-0.11035156","-0.53808594","0.21777344","89.78125","-7.0","89.65625"
"1574966842275","279","-0.41210938","-0.5029297","0.22949219","94.65625","-9.6875","86.3125"
"1574966842670","280","-0.4375","-0.55371094","0.17382812","83.625","7.03125","94.84375"
"1574966842670","281","-0.28027344","-0.65234375","0.21582031","65.90625","10.875","80.46875"
"1574966842670","282","-0.3125","-0.55371094","0.39453125","62.375","13.03125","62.21875"
"1574966842670","283","-0.6982422","-0.61328125","0.2626953","54.25","24.1875","67.9375"
"1574966842671","284","-0.37695312","-0.6328125","0.40722656","23.0","22.125","52.0"
"1574966842671","285","-0.48535156","-0.6933594","0.33496094","33.5625","-0.59375","29.375"
"1574966842671","286","-0.7060547","-0.7060547","0.4921875","27.46875","3.5","14.96875"
"1574966842671","287","-0.66015625","-0.6777344","0.37695312","13.375","9.4375","7.28125"
"1574966842672","288","-0.60839844","-0.7207031","0.5722656","-3.15625","10.03125","-14.625"
"1574966842673","289","-0.6816406","-0.7246094","0.51464844","-14.875","5.9375","-24.34375"
"1574966843266","290","-0.5839844","-0.63183594","0.45703125","-27.09375","2.59375","-44.0625"
"1574966843266","291","-0.5546875","-0.78222656","0.5048828","-38.5625","-5.71875","-56.09375"
"1574966843267","292","-0.5966797","-0.83691406","0.4609375","-56.8125","-1.1875","-70.375"
"1574966843267","293","-0.5517578","-0.9970703","0.4423828","-54.0625","-9.5625","-74.625"
"1574966843267","294","-0.4736328","-1.0703125","0.40234375","-48.65625","-19.3125","-69.875"
"1574966843267","295","-0.35742188","-0.95703125","0.29589844","-57.75","-20.1875","-57.4375"
"1574966843268","296","-0.22070312","-0.81933594","0.12695312","-53.84375","-23.15625","-56.5625"
"1574966843268","297","-0.17089844","-0.6894531","0.09082031","-42.84375","-20.375","-50.09375"
"1574966843268","298","-0.15039062","-0.7216797","0.09863281","-48.40625","-9.8125","-41.75"
"1574966843268","299","-0.12597656","-0.7519531","0.033203125","-39.96875","-15.65625","-44.3125"
"1574966843664","300","-0.09277344","-0.796875","0.051757812","-24.15625","-14.5625","-34.96875"
"1574966843665","301","-0.07324219","-0.8183594","0.0078125","-8.90625","-15.65625","-23.4375"
"1574966843665","302","-0.14160156","-0.8339844","0.099609375","10.4375","-3.5625","-13.46875"
"1574966843666","303","-0.1796875","-0.89160156","0.029296875","0.375","0.40625","-8.78125"
"1574966843668","304","-0.057617188","-0.875","0.024414062","2.875","2.78125","-4.875"
"1574966843669","305","-0.053710938","-0.8798828","0.00390625","4.15625","-1.5","4.21875"
"1574966843669","306","-0.06542969","-0.8203125","0.017578125","-0.53125","-3.75","6.90625"
"1574966843669","307","-0.078125","-0.80566406","0.01171875","2.6875","-2.15625","13.25"
"1574966843669","308","-0.08691406","-0.8105469","0.026367188","13.375","-2.40625","21.8125"
"1574966843670","309","-0.11621094","-0.80078125","0.07324219","25.46875","-3.6875","32.0625"
"1574966843864","310","-0.14648438","-0.7871094","0.078125","36.0","-0.15625","42.0"
"1574966843864","311","-0.111328125","-0.7548828","0.078125","53.09375","-4.4375","55.375"
"1574966843864","312","-0.1171875","-0.7324219","0.16015625","68.375","-7.71875","69.03125"
"1574966843866","313","-0.171875","-0.7529297","0.23046875","98.34375","-14.0625","79.15625"
"1574966843866","314","-0.30371094","-0.6699219","0.19238281","102.0","-14.625","85.75"
"1574966843866","315","-0.38867188","-0.67089844","0.31445312","93.5","-0.15625","87.96875"
"1574966843867","316","-0.51171875","-0.7441406","0.4404297","93.03125","19.5","81.125"
"1574966843867","317","-0.68359375","-0.8300781","0.54589844","98.9375","28.53125","77.40625"
"1574966843867","318","-0.84277344","-0.80566406","0.8095703","79.15625","14.4375","67.8125"
"1574966843867","319","-0.8652344","-0.69433594","0.875","53.09375","-11.21875","44.6875"
"1574966844457","320","-0.8125","-0.59375","0.796875","33.9375","-24.03125","18.8125"
"1574966844457","321","-0.7207031","-0.55078125","0.74121094","4.53125","-19.03125","6.0"
"1574966844458","322","-0.68652344","-0.4296875","0.66308594","-19.71875","-16.8125","-7.8125"
"1574966844458","323","-0.61035156","-0.49609375","0.6220703","-14.78125","-15.59375","-15.90625"
"1574966844458","324","-0.53808594","-0.45703125","0.54785156","-39.65625","-12.1875","-29.28125"
"1574966844459","325","-0.42285156","-0.43554688","0.5341797","-40.21875","-13.65625","-37.59375"
"1574966844460","326","-0.46777344","-0.49023438","0.50878906","-55.84375","-15.65625","-44.3125"
"1574966844460","327","-0.45410156","-0.4794922","0.43652344","-60.84375","-15.125","-48.875"
"1574966844460","328","-0.4091797","-0.54589844","0.42382812","-57.25","-20.0625","-50.65625"
"1574966844461","329","-0.35253906","-0.52441406","0.3779297","-62.75","-18.78125","-53.46875"
"1574966844658","330","-0.3095703","-0.5126953","0.34375","-68.21875","-17.5625","-52.3125"
"1574966844659","331","-0.2890625","-0.5722656","0.33496094","-63.46875","-11.9375","-48.875"
"1574966844659","332","-0.29003906","-0.5546875","0.234375","-56.5625","-17.3125","-47.96875"
"1574966844659","333","-0.24804688","-0.578125","0.2998047","-72.375","-11.6875","-41.25"
"1574966844659","334","-0.20800781","-0.5800781","0.22167969","-75.5625","-8.59375","-42.78125"
"1574966844660","335","-0.20019531","-0.6875","0.20898438","-55.0","-7.34375","-36.71875"
"1574966844660","336","-0.23046875","-0.7529297","0.18261719","-73.375","-4.375","-35.5"
"1574966844661","337","-0.18652344","-0.78125","0.119140625","-65.3125","-10.40625","-34.71875"
"1574966844662","338","-0.14746094","-0.72753906","0.10644531","-64.4375","-8.21875","-33.0"
"1574966844662","339","-0.11425781","-0.7167969","0.0234375","-46.25","-11.75","-29.21875"
"1574966845056","340","-0.095703125","-0.78027344","0.0703125","-48.65625","-7.53125","-22.6875"
"1574966845057","341","-0.13964844","-0.77246094","-0.00390625","-39.4375","-6.3125","-20.4375"
"1574966845057","342","-0.1015625","-0.8125","-0.013671875","-26.0","-6.625","-10.78125"
"1574966845057","343","-0.10839844","-0.82714844","-0.03125","-18.375","-5.28125","-7.0"
"1574966845057","344","-0.11328125","-0.8251953","-0.03515625","-7.0625","-1.0","-1.8125"
"1574966845058","345","-0.140625","-0.82421875","-0.038085938","-2.75","-0.9375","3.4375"
"1574966845058","346","-0.13476562","-0.8339844","-0.01953125","-0.25","6.5625","3.125"
"1574966845058","347","-0.12695312","-0.8261719","-0.025390625","14.40625","7.09375","10.875"
"1574966845058","348","-0.12402344","-0.80859375","-9.765625E-4","19.34375","5.8125","18.125"
"1574966845060","349","-0.16601562","-0.82910156","-0.021484375","24.46875","2.28125","21.4375"
"1574966845454","350","-0.20898438","-0.75390625","0.021484375","37.0","6.875","31.0"
"1574966845454","351","-0.23828125","-0.7050781","0.072265625","54.375","12.21875","41.5625"
"1574966845455","352","-0.2109375","-0.68359375","0.061523438","63.1875","5.34375","50.90625"
"1574966845455","353","-0.21484375","-0.6220703","0.115234375","62.3125","-6.6875","59.9375"
"1574966845455","354","-0.26171875","-0.49609375","0.123046875","79.46875","-4.4375","67.40625"
"1574966845456","355","-0.29882812","-0.5439453","0.22070312","68.4375","-3.8125","73.5"
"1574966845456","356","-0.37304688","-0.61621094","0.29003906","69.09375","-0.03125","74.46875"
"1574966845456","357","-0.4560547","-0.59375","0.2265625","76.90625","-3.34375","73.875"
"1574966845456","358","-0.4501953","-0.66503906","0.27734375","71.28125","3.25","79.0625"
"1574966845457","359","-0.42578125","-0.6894531","0.31445312","60.78125","-5.90625","60.375"
"1574966845851","360","-0.41210938","-0.6542969","0.37304688","49.5","-3.4375","43.09375"
"1574966845853","361","-0.5566406","-0.5888672","0.2998047","45.21875","-15.0625","37.90625"
"1574966845853","362","-0.46289062","-0.5576172","0.41210938","44.4375","1.1875","24.65625"
"1574966845853","363","-0.609375","-0.60253906","0.35253906","41.875","-8.03125","32.25"
"1574966845854","364","-0.5048828","-0.57714844","0.41015625","37.84375","-4.5","13.5"
"1574966845854","365","-0.6328125","-0.55078125","0.46972656","23.9375","2.71875","9.65625"
"1574966845854","366","-0.64941406","-0.5546875","0.47558594","6.03125","-1.25","-8.84375"
"1574966845854","367","-0.5546875","-0.5449219","0.5595703","-6.59375","13.5","-22.28125"
"1574966845856","368","-0.6796875","-0.5644531","0.5361328","-13.0","13.5","-27.21875"
"1574966845856","369","-0.47460938","-0.5957031","0.578125","-24.21875","13.9375","-41.3125"
"1574966846643","370","-0.7265625","-0.6582031","0.56933594","-35.53125","9.125","-49.96875"
"1574966846644","371","-0.5","-0.6855469","0.47460938","-39.125","-2.40625","-57.1875"
"1574966846644","372","-0.4658203","-0.7060547","0.4970703","-62.8125","-4.0625","-69.375"
"1574966846645","373","-0.63671875","-0.8984375","0.45703125","-75.9375","0.875","-65.0"
"1574966846645","374","-0.4970703","-1.0957031","0.36523438","-81.125","-5.78125","-71.71875"
"1574966846646","375","-0.34277344","-0.9746094","0.2783203","-65.96875","-13.78125","-66.8125"
"1574966846646","376","-0.27148438","-0.8886719","0.21191406","-65.59375","-22.96875","-61.5"
"1574966846647","377","-0.19042969","-0.74902344","0.080078125","-53.9375","-24.4375","-55.96875"
"1574966846647","378","-0.16015625","-0.6923828","0.06347656","-59.03125","-17.5","-50.65625"
"1574966846647","379","-0.109375","-0.7050781","0.025390625","-52.0625","-14.0","-49.25"
"1574966846840","380","-0.12792969","-0.7548828","0.018554688","-50.34375","-0.84375","-43.875"
"1574966846841","381","-0.1171875","-0.8574219","-0.032226562","-47.375","5.21875","-40.59375"
"1574966846841","382","-0.038085938","-0.87402344","-0.032226562","-38.25","4.59375","-36.5625"
"1574966846841","383","-0.06933594","-0.87402344","-0.0625","-34.90625","7.21875","-25.3125"
"1574966846841","384","-0.041992188","-0.8886719","-0.103515625","-31.6875","8.6875","-19.34375"
"1574966846843","385","0.03515625","-0.8408203","-0.13085938","-15.8125","1.96875","-14.6875"
"1574966846843","386","0.0","-0.90234375","-0.16992188","-14.78125","-1.6875","-9.34375"
"1574966846843","387","0.07324219","-0.8613281","-0.16601562","-9.6875","-6.8125","-9.03125"
"1574966846844","388","0.00390625","-0.875","-0.15820312","-9.9375","-3.8125","-5.125"
"1574966846844","389","0.048828125","-0.8330078","-0.18945312","0.4375","-8.21875","-4.375"
"1574966847241","390","0.01953125","-0.85546875","-0.18457031","3.46875","-3.21875","3.1875"
"1574966847241","391","0.0234375","-0.84765625","-0.171875","3.71875","-4.75","6.0625"
"1574966847242","392","0.009765625","-0.8261719","-0.16113281","10.25","-3.8125","14.59375"
"1574966847242","393","-0.0068359375","-0.84472656","-0.15429688","18.25","-3.28125","20.15625"
"1574966847242","394","-0.01171875","-0.8486328","-0.14257812","25.625","-5.40625","26.3125"
"1574966847242","395","-0.025390625","-0.8251953","-0.10253906","29.59375","-8.59375","32.28125"
"1574966847243","396","-0.05859375","-0.8203125","-0.10644531","45.78125","-6.5","39.8125"
"1574966847244","397","-0.06933594","-0.8076172","-0.04296875","48.21875","-15.40625","45.0"
"1574966847244","398","-0.10449219","-0.79589844","-0.001953125","62.125","-13.28125","52.625"
"1574966847244","399","-0.14257812","-0.7841797","0.0234375","68.53125","-11.625","64.21875"
"1574966847640","400","-0.12011719","-0.7607422","0.03515625","83.5","-15.125","71.3125"
"1574966847640","401","-0.22363281","-0.7128906","0.09082031","106.9375","-10.59375","78.125"
"1574966847641","402","-0.27148438","-0.8066406","0.17578125","115.96875","-5.90625","80.75"
"1574966847641","403","-0.39257812","-0.90234375","0.28320312","107.4375","2.90625","74.09375"
"1574966847641","404","-0.47753906","-0.875","0.44921875","106.5","0.8125","76.0625"
"1574966847641","405","-0.80566406","-0.8378906","0.7001953","102.59375","9.25","78.3125"
"1574966847642","406","-0.7011719","-0.75683594","0.765625","74.90625","-4.625","51.65625"
"1574966847642","407","-0.7167969","-0.703125","0.7871094","42.25","-25.0","37.96875"
"1574966847642","408","-0.7265625","-0.48242188","0.7714844","32.28125","-22.9375","25.65625"
"1574966847643","409","-0.64941406","-0.5234375","0.66503906","19.90625","-17.5","19.65625"
"1574966848036","410","-0.5751953","-0.46972656","0.66796875","2.4375","-12.3125","4.09375"
"1574966848037","411","-0.61035156","-0.5175781","0.5986328","-14.875","-14.0625","-9.9375"
"1574966848037","412","-0.54589844","-0.54785156","0.60546875","-32.96875","-2.84375","-24.71875"
"1574966848037","413","-0.44335938","-0.5078125","0.6035156","-49.6875","-2.71875","-34.21875"
"1574966848038","414","-0.47265625","-0.55859375","0.49609375","-46.1875","-13.40625","-40.03125"
"1574966848038","415","-0.44433594","-0.6503906","0.4814453","-54.8125","-14.5","-49.125"
"1574966848038","416","-0.42773438","-0.5917969","0.39160156","-67.875","-15.46875","-54.5"
"1574966848038","417","-0.3251953","-0.5439453","0.3623047","-65.125","-15.125","-59.75"
"1574966848039","418","-0.29003906","-0.50097656","0.32128906","-84.34375","-11.875","-63.90625"
"1574966848039","419","-0.25195312","-0.51464844","0.25976562","-93.1875","-10.65625","-65.125"
"1574966848435","420","-0.22949219","-0.5","0.25097656","-90.03125","-12.3125","-58.40625"
"1574966848437","421","-0.21484375","-0.5527344","0.22070312","-88.25","-8.875","-49.0"
"1574966848437","422","-0.19824219","-0.55566406","0.14257812","-76.46875","-13.53125","-44.25"
"1574966848437","423","-0.19042969","-0.6455078","0.13378906","-73.0","-6.6875","-35.6875"
"1574966848438","424","-0.17578125","-0.7207031","0.09277344","-66.53125","-9.96875","-33.4375"
"1574966848438","425","-0.14746094","-0.78027344","0.078125","-59.03125","-11.5625","-31.5"
"1574966848438","426","-0.14648438","-0.7734375","0.025390625","-41.125","-13.34375","-24.09375"
"1574966848439","427","-0.08691406","-0.78808594","-0.0126953125","-35.59375","-9.625","-21.84375"
"1574966848439","428","-0.05078125","-0.78808594","-0.04296875","-22.8125","-15.59375","-15.625"
"1574966848439","429","-0.13085938","-0.8017578","-0.017578125","-22.6875","-6.75","-9.9375"
"1574966848832","430","-0.083984375","-0.83984375","-0.045898438","-8.46875","-2.90625","-8.46875"
"1574966848832","431","-0.072265625","-0.8388672","-0.06738281","-3.96875","-7.84375","0.625"
"1574966848832","432","-0.10058594","-0.86035156","-0.051757812","-0.71875","-4.125","1.78125"
"1574966848835","433","-0.056640625","-0.8544922","-0.056640625","1.15625","-3.5","3.125"
"1574966848835","434","-0.08203125","-0.8203125","-0.06738281","3.3125","-8.9375","5.0625"
"1574966848836","435","-0.09277344","-0.8564453","-0.07128906","-2.0625","3.5","2.625"
"1574966848836","436","-0.06933594","-0.87597656","-0.1015625","-2.75","3.4375","1.90625"
"1574966848836","437","-0.047851562","-0.8388672","-0.051757812","5.1875","-3.8125","7.34375"
"1574966848836","438","-0.12011719","-0.8203125","-0.057617188","0.3125","1.25","6.65625"
"1574966848837","439","-0.119140625","-0.859375","-0.052734375","12.8125","8.6875","12.28125"
"1574966849229","440","-0.1171875","-0.83203125","-0.041015625","27.78125","6.1875","20.6875"
"1574966849230","441","-0.15625","-0.7480469","-0.001953125","38.34375","8.3125","28.4375"
"1574966849230","442","-0.21191406","-0.7138672","0.059570312","51.34375","11.8125","39.3125"
"1574966849230","443","-0.20605469","-0.69921875","0.02734375","59.28125","9.0","50.0"
"1574966849231","444","-0.22070312","-0.63964844","0.078125","68.3125","4.65625","56.15625"
"1574966849232","445","-0.1796875","-0.5449219","0.12207031","73.25","1.3125","67.40625"
"1574966849232","446","-0.3017578","-0.51953125","0.17089844","78.9375","2.59375","74.53125"
"1574966849232","447","-0.31152344","-0.53125","0.2548828","80.5","10.71875","75.625"
"1574966849233","448","-0.32910156","-0.54589844","0.14355469","92.21875","-9.1875","80.09375"
"1574966849233","449","-0.34765625","-0.6230469","0.296875","62.9375","3.875","66.71875"
"1574966849627","450","-0.48632812","-0.53027344","0.26464844","74.28125","-1.5","63.59375"
"1574966849627","451","-0.46679688","-0.6503906","0.35839844","62.5","9.84375","54.4375"
"1574966849627","452","-0.4716797","-0.6376953","0.3564453","37.1875","-2.15625","37.0625"
"1574966849628","453","-0.5097656","-0.5957031","0.4345703","39.90625","7.65625","25.9375"
"1574966849628","454","-0.5","-0.6972656","0.47265625","20.5","-6.75","11.90625"
"1574966849628","455","-0.7939453","-0.81640625","0.46875","3.25","4.53125","-9.625"
"1574966849629","456","-0.66015625","-0.72753906","0.52246094","-11.53125","6.0","-18.125"
"1574966849630","457","-0.578125","-0.6357422","0.4560547","-18.1875","5.6875","-28.75"
"1574966849631","458","-0.5644531","-0.6015625","0.48046875","-28.625","13.46875","-33.1875"
"1574966849631","459","-0.58984375","-0.6123047","0.40722656","-28.75","6.875","-44.3125"
"1574966850222","460","-0.5107422","-0.5722656","0.44628906","-36.75","12.96875","-56.875"
"1574966850223","461","-0.4921875","-0.6689453","0.3642578","-42.46875","9.375","-58.53125"
"1574966850223","462","-0.41992188","-0.8408203","0.36914062","-63.71875","10.03125","-69.03125"
"1574966850223","463","-0.5527344","-1.1826172","0.29882812","-84.78125","16.875","-69.03125"
"1574966850223","464","-0.4482422","-1.2539062","0.24511719","-60.84375","4.59375","-67.125"
"1574966850224","465","-0.28515625","-1.0507812","0.15917969","-63.0","-5.28125","-62.4375"
"1574966850224","466","-0.18554688","-0.86621094","0.0234375","-42.0625","-24.21875","-62.5"
"1574966850224","467","-0.103515625","-0.6933594","-0.0146484375","-20.8125","-35.25","-52.125"
"1574966850224","468","-0.13085938","-0.5986328","-0.0087890625","-29.65625","-16.5625","-37.09375"
"1574966850225","469","-0.09667969","-0.6738281","0.0068359375","-32.84375","-2.65625","-32.78125"
"1574966850621","470","-0.053710938","-0.7890625","0.016601562","-35.46875","2.96875","-32.09375"
"1574966850622","471","-0.09667969","-0.90527344","-0.07714844","-17.28125","-7.0","-21.53125"
"1574966850622","472","0.0087890625","-0.92285156","-0.072265625","-16.59375","-8.34375","-19.15625"
"1574966850622","473","-0.0068359375","-0.9482422","-0.040039062","-12.5625","-6.625","-11.96875"
"1574966850622","474","-0.08203125","-0.9199219","-0.068359375","-10.3125","-1.5","-6.9375"
"1574966850623","475","-0.029296875","-0.828125","-0.10449219","-6.53125","-6.03125","-4.625"
"1574966850623","476","-0.025390625","-0.8066406","-0.0546875","-1.71875","-0.28125","3.0625"
"1574966850623","477","-0.026367188","-0.80566406","-0.09765625","-3.40625","2.96875","3.5625"
"1574966850623","478","-0.072265625","-0.8154297","-0.08496094","-5.1875","4.0625","6.1875"
"1574966850623","479","-0.060546875","-0.78515625","-0.07324219","-0.375","4.59375","9.34375"
"1574966850820","480","-0.034179688","-0.8310547","-0.10546875","11.46875","11.5625","17.34375"
"1574966850821","481","-0.051757812","-0.8808594","-0.15527344","36.8125","22.90625","33.34375"
"1574966850822","482","-0.05859375","-0.91796875","-0.041015625","32.0625","11.125","38.875"
"1574966850822","483","-0.13574219","-0.84375","-0.022460938","33.4375","-7.0","39.5625"
"1574966850822","484","-0.119140625","-0.7988281","0.0126953125","53.65625","-16.5625","44.375"
"1574966850822","485","-0.18066406","-0.7285156","0.00390625","69.21875","-21.46875","52.4375"
"1574966850823","486","-0.18164062","-0.69628906","0.08691406","90.6875","-20.3125","64.78125"
"1574966850823","487","-0.26953125","-0.6464844","0.09765625","103.59375","-14.375","76.96875"
"1574966850823","488","-0.2607422","-0.7294922","0.18945312","117.625","-9.375","91.625"
"1574966850824","489","-0.44433594","-0.9746094","0.4296875","122.125","24.875","102.65625"
"1574966851216","490","-0.72265625","-1.1435547","0.6484375","105.15625","34.15625","96.75"
"1574966851216","491","-0.71777344","-0.95703125","0.84375","81.125","3.125","58.71875"
"1574966851217","492","-0.8613281","-0.6582031","0.72265625","38.09375","-19.5","27.65625"
"1574966851218","493","-0.7001953","-0.6953125","0.75097656","24.0625","-22.5","8.5625"
"1574966851218","494","-0.71191406","-0.5126953","0.6142578","3.53125","-24.625","6.28125"
"1574966851218","495","-0.6230469","-0.43847656","0.5722656","-2.6875","-21.75","1.71875"
"1574966851218","496","-0.5078125","-0.52441406","0.5283203","-3.21875","-9.96875","-8.09375"
"1574966851219","497","-0.53027344","-0.54785156","0.5097656","-26.96875","-11.875","-17.5625"
"1574966851219","498","-0.5234375","-0.4560547","0.50683594","-37.28125","-8.09375","-30.09375"
"1574966851219","499","-0.4765625","-0.54589844","0.45117188","-32.84375","-9.25","-31.84375"
"1574966851615","500","-0.4345703","-0.5908203","0.45996094","-52.1875","-9.125","-40.53125"
"1574966851615","501","-0.4375","-0.5058594","0.38671875","-56.9375","-11.8125","-49.0625"
"1574966851616","502","-0.39648438","-0.5644531","0.37695312","-60.59375","-5.90625","-47.46875"
"1574966851616","503","-0.36328125","-0.5986328","0.31640625","-58.84375","-8.03125","-50.53125"
"1574966851616","504","-0.29492188","-0.6455078","0.3203125","-60.90625","-8.59375","-49.25"
"1574966851618","505","-0.2861328","-0.5996094","0.2529297","-65.78125","-15.53125","-50.34375"
"1574966851618","506","-0.26367188","-0.5830078","0.21777344","-70.3125","-17.4375","-51.3125"
"1574966851618","507","-0.1875","-0.54003906","0.17675781","-65.84375","-17.75","-42.15625"
"1574966851619","508","-0.21289062","-0.59472656","0.203125","-69.46875","-8.21875","-46.25"
"1574966851619","509","-0.15917969","-0.7089844","0.09765625","-55.78125","-19.5625","-42.96875"
"1574966852013","510","-0.13671875","-0.73046875","0.12988281","-64.875","-17.125","-34.96875"
"1574966852013","511","-0.20410156","-0.7402344","0.064453125","-60.46875","-20.375","-39.40625"
"1574966852013","512","-0.10449219","-0.7558594","0.036132812","-38.375","-17.0625","-25.0"
"1574966852014","513","-0.09472656","-0.73535156","-0.009765625","-33.875","-16.75","-22.75"
"1574966852014","514","-0.11621094","-0.82128906","0.0146484375","-28.5625","-14.0625","-16.90625"
"1574966852014","515","-0.09472656","-0.8935547","-0.016601562","-26.84375","-3.75","-15.5625"
"1574966852014","516","-0.06542969","-0.8544922","-0.051757812","-13.0","-7.46875","-9.625"
"1574966852016","517","-0.09765625","-0.7919922","-0.049804688","-5.96875","-6.1875","-2.25"
"1574966852017","518","-0.078125","-0.87109375","-0.028320312","-1.8125","0.875","-0.78125"
"1574966852018","519","-0.08496094","-0.8232422","-0.030273438","2.6875","-2.15625","6.65625"
"1574966852609","520","-0.11621094","-0.8203125","-0.013671875","14.03125","0.40625","13.4375"
"1574966852609","521","-0.11816406","-0.79589844","0.0087890625","20.4375","0.28125","20.34375"
"1574966852610","522","-0.16992188","-0.796875","0.0087890625","32.78125","3.375","25.53125"
"1574966852610","523","-0.18554688","-0.78222656","0.020507812","35.78125","9.375","32.1875"
"1574966852610","524","-0.15722656","-0.734375","0.041015625","48.65625","0.75","41.625"
"1574966852610","525","-0.2548828","-0.6201172","0.11816406","65.4375","-0.84375","52.0625"
"1574966852611","526","-0.33007812","-0.5683594","0.14355469","73.71875","12.84375","60.1875"
"1574966852611","527","-0.24902344","-0.55859375","0.12109375","83.8125","10.09375","71.59375"
"1574966852611","528","-0.16601562","-0.5058594","0.21386719","82.65625","7.59375","76.90625"
"1574966852613","529","-0.31933594","-0.5097656","0.29882812","76.53125","2.59375","71.125"
"1574966852806","530","-0.42773438","-0.54003906","0.22753906","66.78125","9.59375","69.65625"
"1574966852806","531","-0.31054688","-0.5908203","0.21972656","69.78125","4.90625","67.09375"
"1574966852806","532","-0.45703125","-0.63671875","0.3486328","60.0","7.09375","54.8125"
"1574966852807","533","-0.42871094","-0.5761719","0.30273438","40.65625","-1.375","50.0625"
"1574966852807","534","-0.40429688","-0.55078125","0.39160156","37.53125","4.25","21.8125"
"1574966852807","535","-0.6953125","-0.703125","0.37402344","38.03125","10.40625","27.28125"
"1574966852807","536","-0.46289062","-0.68359375","0.453125","23.5625","7.46875","-0.59375"
"1574966852808","537","-0.6455078","-0.7207031","0.5","7.03125","-4.625","-15.0625"
"1574966852808","538","-0.6796875","-0.6376953","0.5595703","-22.34375","23.28125","-26.3125"
"1574966852808","539","-0.484375","-0.7421875","0.48046875","-30.21875","10.84375","-39.59375"
"1574966853400","540","-0.6455078","-0.7529297","0.57128906","-43.03125","9.59375","-44.53125"
"1574966853402","541","-0.6064453","-0.7363281","0.4638672","-56.40625","5.03125","-57.375"
"1574966853402","542","-0.49804688","-0.80566406","0.42871094","-78.71875","1.5","-72.9375"
"1574966853403","543","-0.50390625","-0.9658203","0.3125","-102.15625","9.375","-79.46875"
"1574966853403","544","-0.53222656","-1.1025391","0.234375","-100.03125","12.96875","-82.28125"
"1574966853403","545","-0.3701172","-1.1337891","0.15917969","-93.4375","0.75","-80.5"
"1574966853403","546","-0.19433594","-0.87402344","-0.033203125","-77.625","-16.5625","-70.25"
"1574966853404","547","-0.06347656","-0.7246094","-0.13183594","-69.21875","-19.25","-61.9375"
"1574966853404","548","0.036132812","-0.7441406","-0.072265625","-63.90625","-20.40625","-57.0"
"1574966853404","549","-0.08105469","-0.7597656","-0.15722656","-58.40625","-20.96875","-45.59375"
"1574966853602","550","-0.11621094","-0.8183594","-0.16113281","-67.4375","2.78125","-43.15625"
"1574966853602","551","-0.0068359375","-0.8857422","-0.23242188","-67.25","-4.3125","-46.75"
"1574966853603","552","0.034179688","-0.8251953","-0.23046875","-65.65625","4.375","-36.90625"
"1574966853604","553","0.057617188","-0.82421875","-0.37402344","-51.875","-6.375","-34.90625"
"1574966853605","554","0.111328125","-0.8310547","-0.27441406","-38.375","-11.4375","-21.71875"
"1574966853605","555","0.029296875","-0.82421875","-0.45996094","-13.0625","-14.5","-11.21875"
"1574966853605","556","0.103515625","-0.8701172","-0.375","4.09375","-29.9375","-5.65625"
"1574966853605","557","0.09472656","-0.78027344","-0.4013672","7.8125","-41.125","1.21875"
"1574966853606","558","0.08203125","-0.80859375","-0.42773438","30.21875","-49.71875","5.9375"
"1574966853606","559","0.021484375","-0.79589844","-0.3984375","14.21875","-33.90625","6.71875"
"1574966854593","560","0.018554688","-0.79003906","-0.32421875","15.09375","-21.28125","6.71875"
"1574966854594","561","-0.03515625","-0.8027344","-0.32617188","10.875","-7.65625","6.59375"
"1574966854595","562","0.02734375","-0.81347656","-0.3486328","22.09375","-8.28125","9.65625"
"1574966854595","563","0.0087890625","-0.8203125","-0.31054688","20.75","2.65625","12.15625"
"1574966854596","564","-0.013671875","-0.828125","-0.3359375","28.875","8.03125","15.625"
"1574966854597","565","-0.0029296875","-0.8310547","-0.31445312","33.34375","16.375","16.84375"
"1574966854597","566","0.032226562","-0.8330078","-0.2705078","41.625","13.625","18.6875"
"1574966854598","567","-0.0078125","-0.80078125","-0.22851562","54.03125","6.4375","27.15625"
"1574966854598","568","-0.032226562","-0.7939453","-0.20703125","67.4375","1.3125","37.3125"
"1574966854598","569","-0.033203125","-0.8105469","-0.14453125","85.625","-2.71875","46.6875"
"1574966854791","570","-0.1015625","-0.7919922","-0.11230469","98.40625","-6.75","56.71875"
"1574966854791","571","-0.12207031","-0.8466797","-0.08105469","117.5625","-4.5","66.0"
"1574966854792","572","-0.15527344","-0.85058594","0.048828125","128.40625","5.40625","79.90625"
"1574966854793","573","-0.3046875","-0.9375","0.20507812","126.34375","20.40625","93.9375"
"1574966854793","574","-0.38964844","-0.9658203","0.49414062","131.09375","46.28125","95.84375"
"1574966854793","575","-0.68359375","-0.93359375","0.65527344","98.5625","28.84375","71.46875"
"1574966854795","576","-0.5888672","-0.87109375","0.7939453","72.15625","14.0625","50.53125"
"1574966854797","577","-0.6621094","-0.74316406","0.68066406","45.09375","-13.65625","32.25"
"1574966854797","578","-0.6464844","-0.6699219","0.6689453","34.0","-15.84375","22.59375"
"1574966854798","579","-0.6015625","-0.57421875","0.5917969","20.21875","-22.96875","16.125"
"1574966854798","580","-0.5371094","-0.54003906","0.52246094","16.25","-15.53125","3.625"
"1574966854799","581","-0.5253906","-0.57714844","0.53808594","-5.25","-9.25","-8.0"
"1574966854799","582","-0.45996094","-0.57421875","0.5048828","-11.15625","-15.96875","-18.3125"
"1574966854799","583","-0.515625","-0.5283203","0.4345703","-11.71875","-13.28125","-25.5"
"1574966854799","584","-0.45996094","-0.5292969","0.43164062","-25.15625","-3.5625","-38.0625"
"1574966854800","585","-0.40527344","-0.5654297","0.40722656","-43.625","-7.71875","-52.90625"
"1574966854800","586","-0.37890625","-0.62890625","0.36816406","-64.09375","-7.65625","-64.9375"
"1574966854800","587","-0.3515625","-0.6503906","0.34179688","-64.09375","-4.5625","-69.75"
"1574966854800","588","-0.3095703","-0.65234375","0.3330078","-85.4375","-3.15625","-70.90625"
"1574966854801","589","-0.27539062","-0.5751953","0.28027344","-87.65625","-4.375","-74.625"
"1574966855192","590","-0.16210938","-0.55078125","0.21582031","-94.65625","-9.5625","-69.8125"
"1574966855193","591","-0.18359375","-0.57910156","0.17382812","-108.8125","-2.34375","-70.25"
"1574966855193","592","-0.1328125","-0.671875","0.107421875","-97.34375","-2.65625","-60.40625"
"1574966855194","593","-0.11328125","-0.68066406","0.078125","-82.625","-0.34375","-49.4375"
"1574966855194","594","-0.08105469","-0.7060547","0.040039062","-62.0625","5.03125","-43.21875"
"1574966855194","595","-0.044921875","-0.7080078","-0.001953125","-56.625","-0.53125","-36.5625"
"1574966855194","596","-0.038085938","-0.7685547","-0.06542969","-40.21875","-8.65625","-26.71875"
"1574966855195","597","-0.034179688","-0.8173828","-0.052734375","-32.90625","-6.5625","-20.1875"
"1574966855195","598","-0.018554688","-0.85546875","-0.09863281","-25.25","-4.84375","-16.96875"
"1574966855195","599","-0.0029296875","-0.82128906","-0.12792969","-13.1875","-8.09375","-9.21875"
"1574966855590","600","0.0234375","-0.8183594","-0.18359375","-4.09375","-6.8125","-2.6875"
"1574966855591","601","-0.018554688","-0.8769531","-0.13574219","2.6875","-10.21875","4.90625"
"1574966855591","602","-0.044921875","-0.7753906","-0.10644531","23.875","-11.75","11.0625"
"1574966855591","603","-0.056640625","-0.7998047","-0.07324219","40.28125","-15.46875","20.21875"
"1574966855591","604","-0.06542969","-0.7626953","-0.024414062","44.125","-14.875","29.78125"
"1574966855592","605","-0.11621094","-0.73046875","0.017578125","52.875","-5.34375","35.59375"
"1574966855592","606","-0.1953125","-0.71484375","0.041015625","70.625","6.4375","46.53125"
"1574966855592","607","-0.20996094","-0.65527344","0.083984375","71.65625","16.1875","60.5"
"1574966855592","608","-0.10058594","-0.6220703","0.11230469","62.8125","14.0625","68.1875"
"1574966855593","609","-0.18261719","-0.609375","0.10644531","89.0","-4.3125","72.8125"
"1574966855986","610","-0.24316406","-0.52734375","0.20703125","94.25","-0.21875","80.5625"
"1574966855986","611","-0.30859375","-0.5","0.16210938","94.65625","5.75","76.5625"
"1574966855987","612","-0.26660156","-0.60546875","0.2109375","89.78125","2.65625","79.78125"
"1574966855987","613","-0.37109375","-0.64453125","0.48046875","80.6875","13.40625","80.15625"
"1574966855987","614","-0.5810547","-0.7001953","0.3173828","76.59375","10.21875","72.65625"
"1574966855988","615","-0.5917969","-0.6425781","0.41015625","48.65625","35.5625","62.3125"
"1574966855988","616","-0.375","-0.6171875","0.4375","19.96875","20.71875","42.25"
"1574966855988","617","-0.5800781","-0.61621094","0.48046875","10.3125","30.53125","20.03125"
"1574966855989","618","-0.67578125","-0.6386719","0.36328125","-13.1875","18.34375","19.1875"
"1574966855989","619","-0.48828125","-0.5996094","0.38085938","-18.375","13.21875","-7.5"
"1574966856385","620","-0.44921875","-0.5576172","0.4951172","-38.75","11.9375","-20.5"
"1574966856385","621","-0.7714844","-0.62109375","0.4296875","-17.03125","15.78125","-18.0"
"1574966856385","622","-0.48828125","-0.7080078","0.4375","-34.0625","10.28125","-51.125"
"1574966856386","623","-0.6591797","-0.76953125","0.37109375","-53.71875","1.375","-57.4375"
"1574966856386","624","-0.59277344","-0.8876953","0.43554688","-61.46875","17.125","-76.65625"
"1574966856387","625","-0.61621094","-1.1855469","0.31445312","-83.8125","18.9375","-79.53125"
"1574966856388","626","-0.3955078","-1.2539062","0.2685547","-70.4375","-2.59375","-83.4375"
"1574966856388","627","-0.36035156","-0.9980469","0.10449219","-69.8125","-13.53125","-69.09375"
"1574966856388","628","-0.24121094","-0.8642578","-0.013671875","-59.09375","-12.1875","-70.84375"
"1574966856389","629","-0.14355469","-0.78808594","-0.03125","-55.96875","-11.9375","-72.125"
"1574966856781","630","-0.13476562","-0.6923828","-0.05078125","-69.40625","-8.15625","-73.90625"
"1574966856782","631","-0.06542969","-0.63378906","-0.14648438","-63.34375","-12.78125","-65.25"
"1574966856782","632","-0.06738281","-0.76171875","-0.08691406","-63.90625","6.8125","-51.03125"
"1574966856782","633","-0.08105469","-0.9013672","-0.18164062","-70.84375","3.125","-49.3125"
"1574966856783","634","0.034179688","-0.88183594","-0.19140625","-42.0625","-9.25","-39.78125"
"1574966856783","635","0.0068359375","-0.8544922","-0.2841797","-26.96875","-3.15625","-22.03125"
"1574966856783","636","0.046875","-0.859375","-0.34765625","-38.625","5.59375","-17.09375"
"1574966856785","637","0.09277344","-0.92285156","-0.36621094","-17.4375","5.59375","-10.90625"
"1574966856785","638","0.099609375","-0.85058594","-0.32617188","-8.0625","-5.15625","-10.96875"
"1574966856786","639","0.10839844","-0.7949219","-0.3330078","-9.9375","-1.5625","-6.21875"
"1574966857377","640","0.10644531","-0.8066406","-0.3359375","-2.5625","-5.96875","-3.59375"
"1574966857377","641","0.07128906","-0.7861328","-0.31347656","-3.96875","-5.78125","2.15625"
"1574966857377","642","0.034179688","-0.8046875","-0.28808594","9.28125","-6.625","7.9375"
"1574966857378","643","0.044921875","-0.80371094","-0.28710938","14.15625","-3.5625","16.84375"
"1574966857378","644","0.038085938","-0.8310547","-0.28515625","19.15625","-4.3125","23.4375"
"1574966857378","645","0.02734375","-0.8183594","-0.3076172","29.84375","-7.46875","30.59375"
"1574966857378","646","-0.0029296875","-0.8300781","-0.29589844","35.21875","-7.25","37.4375"
"1574966857379","647","0.0107421875","-0.8486328","-0.28710938","38.46875","-9.0625","40.78125"
"1574966857379","648","-0.0068359375","-0.82421875","-0.23242188","43.34375","-11.15625","47.75"
"1574966857379","649","-0.037109375","-0.8154297","-0.19433594","46.9375","-14.375","51.28125"
"1574966857576","650","-0.078125","-0.81933594","-0.20898438","69.09375","-20.0","57.875"
"1574966857577","651","-0.16308594","-0.8310547","-0.12890625","74.40625","-12.125","69.59375"
"1574966857577","652","-0.3251953","-0.80566406","-0.009765625","98.15625","-13.65625","83.125"
"1574966857577","653","-0.21679688","-0.9296875","-0.029296875","131.21875","-26.78125","78.3125"
"1574966857578","654","-0.234375","-0.91308594","0.09765625","149.65625","-35.9375","81.84375"
"1574966857578","655","-0.61816406","-0.88671875","0.36816406","107.96875","-6.9375","84.25"
"1574966857578","656","-0.64160156","-0.85546875","0.46484375","80.9375","12.40625","63.90625"
"1574966857578","657","-0.59472656","-0.78027344","0.5859375","47.71875","-1.125","45.96875"
"1574966857579","658","-0.69140625","-0.6640625","0.5722656","49.625","-8.34375","47.6875"
"1574966857579","659","-0.5966797","-0.65722656","0.5527344","57.875","-8.65625","42.6875"
"1574966857975","660","-0.57714844","-0.6328125","0.6455078","31.0625","-0.03125","30.84375"
"1574966857977","661","-0.5830078","-0.6923828","0.43164062","67.5","-19.75","8.90625"
"1574966857977","662","-0.7265625","-0.67578125","0.5800781","19.59375","-13.09375","-13.59375"
"1574966857977","663","-0.6767578","-0.60839844","0.57421875","-10.0","-9.0","-18.1875"
"1574966857978","664","-0.58496094","-0.63964844","0.53222656","-32.21875","-5.34375","-34.125"
"1574966857978","665","-0.484375","-0.63183594","0.47265625","-53.03125","-12.84375","-44.4375"
"1574966857978","666","-0.35742188","-0.546875","0.4111328","-61.21875","-23.40625","-51.5"
"1574966857978","667","-0.3623047","-0.43652344","0.35253906","-63.09375","-25.1875","-60.53125"
"1574966857979","668","-0.3154297","-0.48535156","0.29101562","-72.125","-16.8125","-67.0625"
"1574966857979","669","-0.2734375","-0.5390625","0.26660156","-73.78125","-11.9375","-66.8125"
"1574966858571","670","-0.29882812","-0.6435547","0.23144531","-79.65625","-7.0625","-70.0625"
"1574966858572","671","-0.265625","-0.6982422","0.20117188","-85.125","-0.40625","-68.46875"
"1574966858572","672","-0.203125","-0.66015625","0.15820312","-85.1875","-3.34375","-60.59375"
"1574966858573","673","-0.17089844","-0.640625","0.16308594","-82.15625","-7.78125","-55.53125"
"1574966858574","674","-0.17089844","-0.6269531","0.099609375","-85.125","1.5","-51.875"
"1574966858574","675","-0.11621094","-0.70703125","-0.045898438","-57.625","-6.4375","-42.15625"
"1574966858574","676","-0.024414062","-0.69433594","0.015625","-62.5","-5.90625","-36.3125"
"1574966858574","677","-0.13476562","-0.7480469","-0.045898438","-59.125","-4.125","-33.0"
"1574966858575","678","-0.1015625","-0.79589844","-0.08886719","-39.5625","-2.125","-23.78125"
"1574966858575","679","-0.024414062","-0.8173828","-0.12792969","-26.1875","-8.6875","-16.65625"
"1574966858769","680","-0.06933594","-0.8613281","-0.14648438","-21.1875","-4.5","-13.84375"
"1574966858769","681","-0.057617188","-0.8330078","-0.1484375","-11.84375","-2.0","-6.09375"
"1574966858770","682","-0.051757812","-0.828125","-0.14941406","3.96875","-0.09375","4.09375"
"1574966858770","683","-0.06933594","-0.82421875","-0.13769531","6.03125","2.71875","10.03125"
"1574966858770","684","-0.09765625","-0.7939453","-0.13964844","16.84375","5.21875","19.25"
"1574966858771","685","-0.12109375","-0.7998047","-0.10253906","29.59375","3.5625","30.09375"
"1574966858772","686","-0.10839844","-0.7363281","-0.052734375","41.625","0.34375","40.34375"
"1574966858772","687","-0.15332031","-0.7080078","-0.049804688","56.875","-9.3125","47.6875"
"1574966858772","688","-0.14355469","-0.67285156","-0.016601562","77.6875","-16.34375","63.96875"
"1574966858773","689","-0.18652344","-0.6269531","0.052734375","85.8125","-15.28125","73.125"
"1574966859167","690","-0.18847656","-0.5263672","0.10449219","87.65625","-17.1875","71.71875"
"1574966859168","691","-0.29589844","-0.5341797","0.22167969","105.46875","-16.625","76.25"
"1574966859168","692","-0.44433594","-0.5810547","0.23828125","98.8125","-4.0","83.625"
"1574966859168","693","-0.37695312","-0.5576172","0.22265625","90.75","-3.8125","75.3125"
"1574966859169","694","-0.43359375","-0.6621094","0.3388672","72.875","21.8125","81.125"
"1574966859169","695","-0.54296875","-0.6972656","0.23535156","63.65625","7.28125","65.8125"
"1574966859169","696","-0.3701172","-0.61035156","0.3408203","54.4375","15.03125","47.1875"
"1574966859171","697","-0.41210938","-0.59765625","0.328125","13.1875","-5.90625","34.8125"
"1574966859171","698","-0.53222656","-0.62402344","0.4111328","30.53125","4.46875","7.46875"
"1574966859171","699","-0.63964844","-0.70410156","0.49414062","-8.71875","-0.65625","9.34375"
"1574966859564","700","-0.7578125","-0.78808594","0.41308594","-12.15625","13.625","-2.90625"
"1574966859564","701","-0.43847656","-0.71972656","0.53027344","-22.03125","3.1875","-25.25"
"1574966859564","702","-0.7548828","-0.72753906","0.46777344","-30.5","2.96875","-31.375"
"1574966859565","703","-0.6621094","-0.74609375","0.45117188","-34.0625","5.28125","-38.625"
"1574966859565","704","-0.44335938","-0.70703125","0.390625","-44.96875","0.28125","-55.65625"
"1574966859566","705","-0.48046875","-0.67871094","0.34472656","-54.8125","1.625","-74.875"
"1574966859566","706","-0.49121094","-0.8652344","0.33691406","-57.625","5.03125","-72.3125"
"1574966859566","707","-0.50878906","-1.0410156","0.24511719","-58.09375","8.75","-79.75"
"1574966859566","708","-0.27929688","-1.0693359","0.22753906","-47.96875","3.125","-78.0"
"1574966859568","709","-0.20117188","-0.99316406","0.17773438","-40.28125","-7.1875","-60.15625"
"1574966859962","710","-0.16796875","-0.81933594","0.013671875","-46.75","-13.28125","-60.90625"
"1574966859963","711","0.021484375","-0.7421875","0.07910156","-44.3125","-6.6875","-52.84375"
"1574966859963","712","-0.056640625","-0.7763672","-0.016601562","-47.125","-5.90625","-46.25"
"1574966859964","713","-0.025390625","-0.8017578","-0.052734375","-43.875","-8.75","-44.375"
"1574966859964","714","0.044921875","-0.8408203","-0.0390625","-45.46875","-0.59375","-41.96875"
"1574966859964","715","-0.034179688","-0.8378906","-0.10058594","-50.40625","-2.78125","-44.53125"
"1574966859964","716","-0.0126953125","-0.86035156","-0.15234375","-39.125","2.34375","-40.625"
"1574966859965","717","0.041015625","-0.8515625","-0.16601562","-38.5625","10.03125","-36.25"
"1574966859965","718","0.068359375","-0.8535156","-0.20019531","-21.3125","11.0","-25.0"
"1574966859965","719","0.10449219","-0.8984375","-0.2265625","-1.78125","4.375","-8.90625"
"1574966860358","720","0.12011719","-0.89453125","-0.22558594","1.34375","-5.03125","0.875"
"1574966860360","721","0.13964844","-0.85839844","-0.22460938","2.125","-6.75","7.8125"
"1574966860360","722","0.099609375","-0.8408203","-0.20019531","2.8125","-7.78125","14.21875"
"1574966860360","723","0.09082031","-0.8076172","-0.21777344","10.6875","-10.96875","17.21875"
"1574966860361","724","0.06640625","-0.8173828","-0.20019531","16.90625","-11.5","24.0625"
"1574966860361","725","0.034179688","-0.81347656","-0.17578125","26.6875","-8.53125","30.40625"
"1574966860361","726","0.016601562","-0.8154297","-0.13671875","34.4375","-5.46875","38.40625"
"1574966860362","727","0.0048828125","-0.8222656","-0.12792969","42.53125","-4.25","47.5"
"1574966860362","728","-0.022460938","-0.83203125","-0.087890625","57.9375","-5.34375","59.875"
"1574966860362","729","-0.09375","-0.81152344","-0.057617188","66.78125","-1.25","66.78125"
"1574966860757","730","-0.08691406","-0.7685547","-0.038085938","87.53125","-11.03125","77.59375"
"1574966860757","731","-0.09863281","-0.78808594","0.032226562","101.25","-12.1875","95.21875"
"1574966860758","732","-0.25585938","-0.9003906","0.1015625","102.0","2.40625","98.875"
"1574966860759","733","-0.37109375","-0.9951172","0.38183594","86.625","9.125","103.59375"
"1574966860759","734","-0.60839844","-1.0371094","0.46972656","71.96875","8.75","92.65625"
"1574966860759","735","-0.7441406","-0.7861328","0.5107422","66.90625","-18.96875","62.875"
"1574966860760","736","-0.73535156","-0.8378906","0.5761719","52.90625","-12.0","43.84375"
"1574966860760","737","-0.69628906","-0.75390625","0.5703125","47.0625","-16.28125","31.0625"
"1574966860760","738","-0.58691406","-0.66015625","0.55371094","25.75","-21.53125","21.0625"
"1574966860761","739","-0.6123047","-0.62402344","0.51171875","15.75","-14.625","10.75"
"1574966861153","740","-0.5830078","-0.6201172","0.54296875","8.0625","-14.0","-0.34375"
"1574966861154","741","-0.54785156","-0.6279297","0.5107422","2.09375","-9.75","-8.28125"
"1574966861154","742","-0.47070312","-0.6611328","0.51464844","-13.0","-14.25","-19.28125"
"1574966861154","743","-0.48339844","-0.61621094","0.44433594","-25.3125","-19.5625","-35.40625"
"1574966861154","744","-0.4482422","-0.5810547","0.36035156","-33.6875","-17.25","-40.75"
"1574966861156","745","-0.34277344","-0.5488281","0.33007812","-54.0625","-16.21875","-47.90625"
"1574966861156","746","-0.33691406","-0.51953125","0.3017578","-65.125","-13.875","-56.5625"
"1574966861157","747","-0.32714844","-0.56640625","0.2890625","-78.3125","-7.59375","-59.6875"
"1574966861157","748","-0.33691406","-0.5722656","0.24902344","-77.625","-0.875","-54.6875"
"1574966861157","749","-0.20214844","-0.5878906","0.18847656","-75.75","-10.40625","-52.3125"
"1574966861552","750","-0.23925781","-0.5908203","0.16699219","-77.6875","-14.0625","-50.28125"
"1574966861553","751","-0.19042969","-0.6777344","0.12011719","-80.0","-19.5625","-46.1875"
"1574966861553","752","-0.31445312","-0.7988281","0.15820312","-95.625","-7.84375","-47.15625"
"1574966861553","753","-0.16503906","-0.7890625","0.021484375","-59.25","-18.46875","-43.6875"
"1574966861553","754","-0.08105469","-0.6894531","0.0126953125","-56.03125","-25.0","-36.6875"
"1574966861554","755","-0.18164062","-0.64746094","-0.022460938","-59.1875","-22.25","-36.84375"
"1574966861554","756","-0.16015625","-0.72753906","-0.005859375","-39.84375","-12.375","-22.4375"
"1574966861555","757","-0.13183594","-0.7949219","-0.057617188","-27.84375","-9.8125","-17.5625"
"1574966861556","758","-0.125","-0.81640625","-0.061523438","-11.84375","-2.71875","-3.28125"
"1574966861556","759","-0.15917969","-0.81152344","-0.055664062","-0.96875","4.375","8.4375"
"1574966861950","760","-0.12792969","-0.8203125","-0.08300781","16.90625","-0.34375","16.5"
"1574966861951","761","-0.1640625","-0.7841797","-0.059570312","27.65625","1.5","26.125"
"1574966861951","762","-0.23339844","-0.73046875","-0.0068359375","35.34375","7.65625","34.125"
"1574966861951","763","-0.25683594","-0.6699219","0.009765625","53.90625","11.75","49.4375"
"1574966861952","764","-0.22949219","-0.63183594","0.0234375","77.8125","15.34375","66.53125"
"1574966861952","765","-0.1484375","-0.57421875","0.0087890625","93.75","2.59375","78.1875"
"1574966861952","766","-0.20703125","-0.5996094","0.13085938","69.71875","-2.21875","75.5"
"1574966861952","767","-0.48535156","-0.60546875","0.18261719","78.5","-6.8125","72.65625"
"1574966861953","768","-0.40234375","-0.6191406","0.25195312","73.71875","1.375","75.875"
"1574966861954","769","-0.41992188","-0.54589844","0.16699219","80.5","-8.53125","74.03125"
"1574966862744","770","-0.40722656","-0.5498047","0.2548828","68.90625","5.03125","69.46875"
"1574966862744","771","-0.42773438","-0.6152344","0.25976562","45.09375","2.46875","55.96875"
"1574966862744","772","-0.6386719","-0.6171875","0.29101562","75.5625","-1.75","48.03125"
"1574966862744","773","-0.5527344","-0.6123047","0.46972656","21.0","6.0625","40.0"
"1574966862745","774","-0.5830078","-0.64453125","0.26171875","46.5625","-7.84375","9.84375"
"1574966862745","775","-0.4814453","-0.6035156","0.44921875","10.4375","6.9375","-0.71875"
"1574966862745","776","-0.7128906","-0.578125","0.38867188","-0.96875","3.3125","-1.625"
"1574966862746","777","-0.6142578","-0.69140625","0.5136719","-7.6875","7.53125","-23.125"
"1574966862746","778","-0.6220703","-0.6660156","0.46679688","-19.03125","5.875","-40.46875"
"1574966862746","779","-0.6123047","-0.6298828","0.5253906","-32.96875","11.125","-39.125"
