"# PR data"
"# Start time: 20191128T195534"
"# Subject: santi"
"# Activity type: Wall push offs"
"# Correctness: Correct"
"# Notes: "
""
"timestamp","seq","accel_x","accel_y","accel_z","gyro_x","gyro_y","gyro_z"
"1574967334971","0","-0.115234375","-0.84277344","0.07910156","-5.0625","12.28125","-2.5"
"1574967334972","1","-0.14941406","-0.8125","0.0546875","-4.8125","14.0","-3.09375"
"1574967334972","2","-0.11328125","-0.8828125","0.10449219","-2.3125","16.3125","1.65625"
"1574967334973","3","-0.15136719","-0.87890625","0.095703125","-17.21875","22.0","-3.40625"
"1574967334973","4","-0.08300781","-0.8984375","0.047851562","-6.03125","10.65625","-1.21875"
"1574967334973","5","-0.19628906","-0.8691406","0.11816406","-24.78125","12.0625","-1.03125"
"1574967334973","6","-0.17480469","-0.79003906","0.044921875","-23.96875","17.96875","-7.9375"
"1574967334974","7","-0.16503906","-0.88183594","0.044921875","-27.34375","31.03125","-11.28125"
"1574967334974","8","-0.16210938","-0.84375","-0.0546875","-20.5625","33.09375","-9.5625"
"1574967334974","9","-0.09472656","-0.8935547","-0.09765625","-20.75","32.8125","-2.875"
"1574967335173","10","-0.09667969","-0.85546875","-0.017578125","-51.4375","48.90625","-1.34375"
"1574967335174","11","-0.15722656","-0.7841797","-0.14453125","-33.875","48.84375","1.71875"
"1574967335174","12","-0.051757812","-0.8798828","-0.14746094","-16.53125","46.65625","4.28125"
"1574967335174","13","-0.04296875","-0.8359375","-0.16992188","-14.09375","41.21875","8.5625"
"1574967335174","14","-0.09472656","-0.8076172","-0.21972656","-7.1875","31.59375","10.09375"
"1574967335175","15","-0.041015625","-0.8535156","-0.21484375","-2.125","26.5","6.0625"
"1574967335175","16","-0.057617188","-0.8388672","-0.20898438","-1.46875","17.84375","6.125"
"1574967335175","17","-0.0859375","-0.8144531","-0.20996094","4.65625","12.0625","5.625"
"1574967335176","18","-0.087890625","-0.85839844","-0.2109375","3.25","8.875","2.375"
"1574967335176","19","-0.11328125","-0.8457031","-0.20019531","2.03125","-0.46875","-0.90625"
"1574967335570","20","-0.12011719","-0.8535156","-0.18945312","5.1875","-2.46875","-4.625"
"1574967335571","21","-0.095703125","-0.8720703","-0.18164062","-0.3125","-5.15625","-7.0625"
"1574967335571","22","-0.12011719","-0.8486328","-0.15429688","-1.78125","-9.625","-2.5"
"1574967335571","23","-0.14355469","-0.86035156","-0.19824219","5.0","-6.3125","-4.375"
"1574967335572","24","-0.15234375","-0.8642578","-0.15136719","-6.90625","-6.25","-3.46875"
"1574967335572","25","-0.109375","-0.85546875","-0.18359375","-1.15625","-3.875","-5.125"
"1574967335572","26","-0.1328125","-0.86621094","-0.18164062","2.75","-4.84375","-3.96875"
"1574967335573","27","-0.13183594","-0.8613281","-0.17089844","4.40625","-7.46875","-3.46875"
"1574967335573","28","-0.12402344","-0.8691406","-0.171875","4.09375","-8.28125","-1.9375"
"1574967335573","29","-0.13085938","-0.8623047","-0.15722656","0.6875","-5.03125","-2.5"
"1574967335968","30","-0.12402344","-0.8720703","-0.16210938","6.21875","-7.65625","-1.03125"
"1574967335968","31","-0.11816406","-0.85839844","-0.14160156","2.875","-4.375","0.4375"
"1574967335969","32","-0.10644531","-0.8652344","-0.15917969","2.75","-5.96875","0.1875"
"1574967335969","33","-0.08984375","-0.8613281","-0.16308594","3.375","-5.40625","3.4375"
"1574967335969","34","-0.12207031","-0.8535156","-0.16210938","3.46875","-5.53125","1.78125"
"1574967335969","35","-0.08691406","-0.8720703","-0.16308594","4.75","-5.34375","0.25"
"1574967335970","36","-0.046875","-0.8457031","-0.18847656","7.21875","-8.28125","1.71875"
"1574967335971","37","-0.07421875","-0.796875","-0.18554688","6.34375","-3.9375","5.5"
"1574967335971","38","-0.038085938","-0.83496094","-0.18359375","13.4375","-1.4375","6.65625"
"1574967335971","39","-0.026367188","-0.86328125","-0.1953125","13.96875","-5.21875","5.1875"
"1574967336366","40","-0.033203125","-0.8095703","-0.19628906","17.59375","-7.46875","10.5"
"1574967336367","41","-0.0087890625","-0.8515625","-0.18261719","16.125","-9.6875","8.4375"
"1574967336367","42","-0.037109375","-0.8486328","-0.16308594","12.03125","-11.3125","8.75"
"1574967336368","43","-0.049804688","-0.82714844","-0.18359375","17.46875","-16.75","9.96875"
"1574967336368","44","-0.109375","-0.8339844","-0.13867188","13.5","-13.09375","9.09375"
"1574967336368","45","-0.11816406","-0.8339844","-0.13574219","18.625","-10.46875","9.71875"
"1574967336368","46","-0.12597656","-0.7988281","-0.08300781","20.21875","-0.15625","14.46875"
"1574967336369","47","-0.14550781","-0.79003906","-0.15625","31.0","-0.875","15.09375"
"1574967336369","48","-0.17285156","-0.8154297","-0.0048828125","18.875","9.71875","19.1875"
"1574967336369","49","-0.1484375","-0.8222656","-0.0625","30.71875","6.5625","23.5625"
"1574967337160","50","-0.26953125","-0.8183594","0.009765625","24.40625","17.3125","22.09375"
"1574967337160","51","-0.20117188","-0.8417969","0.0126953125","24.40625","17.96875","21.125"
"1574967337161","52","-0.20703125","-0.82421875","0.03515625","33.8125","2.65625","22.46875"
"1574967337161","53","-0.2939453","-0.79785156","0.09863281","27.03125","-1.3125","27.09375"
"1574967337161","54","-0.3154297","-0.80859375","0.11035156","32.0","5.28125","24.84375"
"1574967337161","55","-0.3173828","-0.7919922","0.12988281","25.75","1.1875","18.6875"
"1574967337161","56","-0.35253906","-0.80859375","0.13574219","26.84375","-0.28125","19.78125"
"1574967337162","57","-0.35742188","-0.80078125","0.16796875","28.15625","-3.40625","18.625"
"1574967337162","58","-0.3876953","-0.8027344","0.22460938","23.9375","-5.03125","19.34375"
"1574967337162","59","-0.4326172","-0.74609375","0.18164062","18.0","-8.9375","17.28125"
"1574967337357","60","-0.40820312","-0.7705078","0.17675781","15.375","3.3125","16.84375"
"1574967337358","61","-0.45410156","-0.84277344","0.2578125","20.5625","-17.125","12.03125"
"1574967337358","62","-0.46972656","-0.80566406","0.265625","13.84375","-29.6875","10.3125"
"1574967337359","63","-0.49414062","-0.7636719","0.33691406","1.65625","-13.78125","0.0625"
"1574967337359","64","-0.5498047","-0.796875","0.30664062","8.90625","-14.1875","-4.03125"
"1574967337359","65","-0.44140625","-0.796875","0.31347656","-5.4375","-3.4375","-6.09375"
"1574967337359","66","-0.484375","-0.7519531","0.3232422","-8.53125","2.03125","-8.59375"
"1574967337360","67","-0.5058594","-0.7392578","0.3095703","-10.4375","2.28125","-10.375"
"1574967337360","68","-0.43066406","-0.8076172","0.29101562","-10.625","5.21875","-11.28125"
"1574967337360","69","-0.48632812","-0.8154297","0.3046875","-20.25","5.34375","-14.625"
"1574967337559","70","-0.45117188","-0.8027344","0.2841797","-24.78125","5.65625","-16.71875"
"1574967337560","71","-0.4296875","-0.82910156","0.2626953","-27.34375","-1.0","-21.90625"
"1574967337560","72","-0.39453125","-0.8017578","0.20605469","-29.34375","-4.25","-23.71875"
"1574967337561","73","-0.3779297","-0.8066406","0.1875","-29.40625","-4.0625","-24.65625"
"1574967337561","74","-0.35351562","-0.8261719","0.13085938","-32.46875","-11.21875","-30.4375"
"1574967337561","75","-0.2861328","-0.7763672","0.07519531","-24.34375","-14.0625","-27.28125"
"1574967337562","76","-0.2265625","-0.7578125","0.0107421875","-25.3125","-11.4375","-24.03125"
"1574967337562","77","-0.08984375","-0.7636719","-0.10839844","-10.96875","-17.90625","-13.25"
"1574967337562","78","-0.107421875","-0.7441406","-0.08300781","-13.375","-15.21875","-5.0"
"1574967337562","79","-0.087890625","-0.78808594","-0.087890625","-3.65625","-10.71875","1.0"
"1574967337957","80","-0.14453125","-0.8417969","-0.10449219","-3.78125","-5.46875","-1.09375"
"1574967337958","81","-0.07421875","-0.83496094","-0.111328125","-1.28125","-7.71875","3.78125"
"1574967337958","82","-0.1015625","-0.81933594","-0.08105469","-0.90625","-11.5625","1.40625"
"1574967337958","83","-0.14746094","-0.8544922","-0.07421875","-3.34375","-8.09375","-3.65625"
"1574967337959","84","-0.10058594","-0.8808594","-0.068359375","-2.75","-11.875","-0.40625"
"1574967337960","85","-0.11425781","-0.8544922","-0.047851562","-18.3125","-11.9375","-8.0625"
"1574967337960","86","-0.1171875","-0.82421875","-0.0703125","-20.5625","-13.40625","-4.875"
"1574967337961","87","-0.103515625","-0.7792969","-0.10058594","-18.78125","-5.03125","-5.90625"
"1574967337961","88","-0.07324219","-0.8417969","-0.13769531","-9.15625","-3.75","-7.0625"
"1574967337961","89","-0.055664062","-0.82910156","-0.15234375","-3.40625","-9.96875","-4.03125"
"1574967338354","90","-0.051757812","-0.8496094","-0.12109375","3.65625","-7.34375","0.1875"
"1574967338355","91","-0.09082031","-0.7910156","-0.16210938","3.78125","-5.65625","-1.75"
"1574967338355","92","-0.020507812","-0.8515625","-0.13671875","12.34375","-5.90625","2.21875"
"1574967338355","93","-0.08691406","-0.81640625","-0.203125","8.5","-5.59375","1.21875"
"1574967338355","94","-0.043945312","-0.83203125","-0.10644531","6.40625","-5.03125","3.71875"
"1574967338356","95","-0.043945312","-0.8330078","-0.13183594","14.46875","-4.375","7.03125"
"1574967338356","96","-0.087890625","-0.8076172","-0.13574219","23.375","-6.1875","9.53125"
"1574967338357","97","-0.10253906","-0.8330078","-0.09375","17.15625","2.34375","12.40625"
"1574967338358","98","-0.14550781","-0.80078125","-0.07519531","19.46875","0.8125","12.40625"
"1574967338358","99","-0.20117188","-0.8017578","-0.037109375","19.84375","11.0","16.4375"
"1574967338751","100","-0.16308594","-0.82714844","-0.020507812","26.6875","13.625","19.0"
"1574967338752","101","-0.22363281","-0.8154297","0.0078125","23.125","12.53125","19.28125"
"1574967338752","102","-0.203125","-0.81933594","0.036132812","21.90625","5.21875","19.0"
"1574967338753","103","-0.31640625","-0.7871094","0.1015625","23.3125","17.84375","19.71875"
"1574967338753","104","-0.27441406","-0.83496094","0.103515625","26.625","5.15625","18.375"
"1574967338753","105","-0.3017578","-0.7910156","0.15820312","18.5","5.9375","17.15625"
"1574967338753","106","-0.31347656","-0.78027344","0.14746094","25.03125","2.40625","18.375"
"1574967338753","107","-0.34375","-0.80566406","0.21484375","24.96875","5.09375","20.21875"
"1574967338754","108","-0.38378906","-0.796875","0.19726562","26.84375","-3.875","13.9375"
"1574967338755","109","-0.3720703","-0.7451172","0.19238281","24.53125","-7.0","17.28125"
"1574967339148","110","-0.4013672","-0.75878906","0.2109375","25.40625","5.09375","17.53125"
"1574967339149","111","-0.3798828","-0.79003906","0.22753906","32.46875","0.28125","16.25"
"1574967339149","112","-0.4140625","-0.7314453","0.265625","20.75","0.28125","12.8125"
"1574967339149","113","-0.47753906","-0.76660156","0.2939453","15.875","-3.21875","12.75"
"1574967339149","114","-0.515625","-0.8203125","0.35742188","-3.65625","-4.78125","-0.96875"
"1574967339150","115","-0.5410156","-0.8203125","0.28222656","3.78125","0.625","-3.65625"
"1574967339150","116","-0.5078125","-0.76171875","0.40625","-27.9375","10.84375","-7.9375"
"1574967339150","117","-0.5439453","-0.7548828","0.23925781","-7.8125","-0.40625","-16.09375"
"1574967339150","118","-0.43066406","-0.8027344","0.29492188","-20.125","2.15625","-15.3125"
"1574967339151","119","-0.5410156","-0.77734375","0.27539062","-28.625","1.625","-21.0"
"1574967339546","120","-0.43066406","-0.84472656","0.26953125","-21.46875","0.75","-16.90625"
"1574967339546","121","-0.43359375","-0.8310547","0.20898438","-26.53125","-4.5","-21.78125"
"1574967339547","122","-0.38964844","-0.8076172","0.17480469","-24.21875","-6.4375","-20.625"
"1574967339547","123","-0.36132812","-0.7998047","0.15039062","-29.71875","-8.40625","-23.1875"
"1574967339547","124","-0.34960938","-0.796875","0.1171875","-26.78125","-12.5","-21.09375"
"1574967339547","125","-0.25","-0.78515625","0.048828125","-22.21875","-13.78125","-17.25"
"1574967339548","126","-0.22753906","-0.7910156","0.0146484375","-18.125","-15.71875","-14.46875"
"1574967339548","127","-0.1796875","-0.7783203","-0.040039062","-7.1875","-17.96875","-12.1875"
"1574967339548","128","-0.17871094","-0.7890625","-0.025390625","-7.5","-10.46875","-7.0"
"1574967339548","129","-0.19628906","-0.82128906","-0.03125","-10.6875","-7.1875","-9.6875"
"1574967339944","130","-0.1484375","-0.80078125","-0.057617188","-1.40625","-9.5625","-7.375"
"1574967339944","131","-0.12597656","-0.8408203","-0.036132812","-2.875","-8.75","-3.90625"
"1574967339945","132","-0.1875","-0.8564453","-0.07714844","-7.375","-14.25","-11.34375"
"1574967339946","133","-0.13183594","-0.81640625","-0.049804688","-10.125","-12.0625","-9.21875"
"1574967339947","134","-0.140625","-0.8232422","-0.056640625","-5.375","-10.59375","-8.15625"
"1574967339947","135","-0.11425781","-0.89160156","-0.02734375","-3.40625","-16.34375","-8.46875"
"1574967339947","136","-0.13964844","-0.79589844","-0.083984375","-8.3125","-13.21875","-8.15625"
"1574967339948","137","-0.07714844","-0.8457031","-0.029296875","-12.8125","-20.375","-3.28125"
"1574967339948","138","-0.13867188","-0.82128906","-0.07421875","-17.5625","-16.28125","-9.15625"
"1574967339948","139","-0.07324219","-0.85546875","-0.13085938","-6.21875","-12.90625","-4.9375"
"1574967340537","140","-0.08984375","-0.80078125","-0.107421875","-16.78125","-12.3125","-6.03125"
"1574967340538","141","-0.07714844","-0.8154297","-0.14160156","-5.1875","-11.03125","-1.40625"
"1574967340538","142","-0.0859375","-0.80859375","-0.14257812","0.5","-3.28125","0.75"
"1574967340538","143","-0.05078125","-0.8496094","-0.171875","15.1875","-1.9375","4.40625"
"1574967340539","144","-0.06640625","-0.8330078","-0.15429688","8.78125","-0.15625","6.34375"
"1574967340539","145","-0.09863281","-0.8017578","-0.12109375","12.15625","5.65625","6.90625"
"1574967340539","146","-0.033203125","-0.8310547","-0.13964844","29.25","5.21875","11.96875"
"1574967340539","147","-0.16015625","-0.82421875","-0.053710938","11.53125","11.6875","10.25"
"1574967340540","148","-0.06347656","-0.8261719","-0.10449219","21.65625","10.65625","15.625"
"1574967340540","149","-0.1796875","-0.79785156","-0.025390625","13.25","17.40625","16.71875"
"1574967340738","150","-0.15722656","-0.84375","-0.041015625","22.9375","17.1875","19.125"
"1574967340738","151","-0.19433594","-0.8359375","0.00390625","22.34375","18.21875","18.375"
"1574967340738","152","-0.16699219","-0.7919922","0.038085938","40.46875","9.125","22.28125"
"1574967340739","153","-0.25195312","-0.921875","0.32128906","87.59375","2.15625","14.78125"
"1574967340739","154","-0.23046875","-0.7636719","0.076171875","66.03125","-8.875","17.59375"
"1574967340739","155","-0.36132812","-0.74902344","0.20605469","32.84375","-14.0625","14.0"
"1574967340739","156","-0.21679688","-0.7548828","0.19726562","22.84375","7.59375","17.34375"
"1574967340740","157","-0.3076172","-0.8046875","0.18945312","16.4375","-5.53125","17.09375"
"1574967340741","158","-0.26757812","-0.74121094","0.22167969","9.09375","-2.0625","15.875"
"1574967340741","159","-0.33789062","-0.7167969","0.29589844","17.03125","5.40625","20.40625"
"1574967341135","160","-0.30078125","-0.90527344","0.2998047","32.34375","-5.40625","11.84375"
"1574967341136","161","-0.43847656","-0.71777344","0.23242188","18.875","3.0625","13.3125"
"1574967341136","162","-0.43066406","-0.80078125","0.21582031","3.0625","-9.625","11.4375"
"1574967341136","163","-0.3359375","-0.68066406","0.37597656","-51.625","28.28125","9.90625"
"1574967341136","164","-0.46972656","-0.7988281","0.31933594","23.25","8.3125","4.46875"
"1574967341137","165","-0.43066406","-0.7998047","0.2783203","8.1875","8.75","-2.90625"
"1574967341137","166","-0.46484375","-0.6923828","0.24902344","1.40625","-0.03125","9.28125"
"1574967341137","167","-0.41503906","-0.8408203","0.24804688","-25.3125","11.3125","-1.21875"
"1574967341138","168","-0.4560547","-0.71484375","0.3046875","-47.65625","20.15625","-2.25"
"1574967341138","169","-0.4892578","-0.7763672","0.24804688","-11.84375","7.84375","-6.8125"
"1574967341533","170","-0.44726562","-0.90527344","0.3046875","6.0","5.59375","-21.84375"
"1574967341534","171","-0.46484375","-0.68652344","0.20214844","-9.34375","-0.84375","-13.1875"
"1574967341534","172","-0.40820312","-0.84765625","0.20117188","-19.09375","-3.34375","-14.09375"
"1574967341534","173","-0.4169922","-0.8105469","0.23632812","-40.78125","-2.0625","-15.0"
"1574967341535","174","-0.4169922","-0.7392578","0.16210938","-27.28125","-9.4375","-10.5"
"1574967341535","175","-0.33398438","-0.82128906","0.14160156","-19.78125","-9.1875","-17.4375"
"1574967341535","176","-0.3388672","-0.8417969","0.087890625","-15.9375","-18.71875","-13.84375"
"1574967341536","177","-0.3544922","-0.7910156","0.12402344","-19.78125","-12.71875","-11.09375"
"1574967341536","178","-0.26757812","-0.81347656","0.056640625","-11.21875","-17.75","-11.53125"
"1574967341536","179","-0.2734375","-0.8203125","0.05859375","-12.5625","-14.0","-11.53125"
"1574967341932","180","-0.25585938","-0.79589844","0.01953125","-15.6875","-15.0625","-12.0625"
"1574967341934","181","-0.23046875","-0.8203125","0.0029296875","-9.59375","-12.1875","-11.65625"
"1574967341934","182","-0.20800781","-0.8408203","0.0029296875","-11.90625","-14.5625","-13.71875"
"1574967341934","183","-0.23242188","-0.81347656","0.00390625","-7.625","-8.53125","-12.375"
"1574967341935","184","-0.19042969","-0.8222656","-0.046875","-8.96875","-16.875","-11.71875"
"1574967341935","185","-0.14941406","-0.8203125","-0.04296875","-6.15625","-11.03125","-12.3125"
"1574967341935","186","-0.125","-0.82910156","-0.052734375","-6.71875","-17.75","-8.15625"
"1574967341936","187","-0.16894531","-0.82910156","-0.041015625","-3.15625","-14.375","-9.09375"
"1574967341936","188","-0.12792969","-0.8300781","-0.049804688","-1.15625","-14.1875","-3.96875"
"1574967341936","189","-0.16015625","-0.84277344","-0.038085938","-3.0625","-12.71875","-4.9375"
"1574967342329","190","-0.09765625","-0.8378906","-0.059570312","-0.125","-14.75","-3.78125"
"1574967342329","191","-0.1171875","-0.86621094","-0.045898438","-5.375","-13.53125","-8.0"
"1574967342330","192","-0.13964844","-0.8828125","-0.05078125","-16.90625","-15.84375","-10.3125"
"1574967342332","193","-0.13183594","-0.76953125","-0.083984375","-12.75","-6.0625","-10.1875"
"1574967342333","194","-0.11621094","-0.80859375","-0.11425781","-3.46875","1.96875","-4.3125"
"1574967342333","195","-0.064453125","-0.84375","-0.11621094","-3.59375","6.375","-0.78125"
"1574967342336","196","-0.016601562","-0.84277344","-0.14257812","6.90625","-1.1875","7.75"
"1574967342337","197","-0.08300781","-0.82128906","-0.099609375","9.65625","2.40625","7.625"
"1574967342337","198","-0.08105469","-0.828125","-0.11816406","9.40625","5.21875","11.125"
"1574967342337","199","-0.060546875","-0.84375","-0.08886719","-6.59375","10.65625","8.6875"
"1574967342725","200","-0.083984375","-0.7998047","-0.12597656","0.5","5.8125","12.71875"
"1574967342726","201","-0.107421875","-0.8496094","-0.12988281","2.03125","4.53125","13.5625"
"1574967342726","202","-0.09667969","-0.8798828","-0.11230469","5.6875","6.1875","16.375"
"1574967342726","203","-0.16015625","-0.7578125","-0.051757812","1.21875","7.71875","15.5"
"1574967342726","204","-0.21386719","-0.8388672","-0.08203125","21.0","8.3125","15.28125"
"1574967342728","205","-0.20996094","-0.86816406","-0.033203125","6.65625","5.03125","15.28125"
"1574967342728","206","-0.17382812","-0.8232422","-0.0625","11.40625","5.53125","19.96875"
"1574967342728","207","-0.24414062","-0.8095703","-0.0126953125","20.03125","6.1875","17.15625"
"1574967342728","208","-0.2421875","-0.8339844","-0.025390625","20.8125","-3.5625","18.625"
"1574967342729","209","-0.26660156","-0.80078125","0.021484375","17.15625","4.25","18.1875"
"1574967343124","210","-0.2763672","-0.82421875","0.05078125","13.90625","7.03125","13.25"
"1574967343124","211","-0.3095703","-0.8222656","0.041992188","12.9375","10.9375","13.6875"
"1574967343125","212","-0.3154297","-0.7939453","0.032226562","3.25","8.28125","11.46875"
"1574967343125","213","-0.31640625","-0.7783203","0.043945312","12.21875","2.40625","12.75"
"1574967343125","214","-0.3310547","-0.796875","0.08203125","20.5","4.59375","16.125"
"1574967343125","215","-0.38671875","-0.8310547","0.09277344","24.84375","-5.71875","13.9375"
"1574967343126","216","-0.38964844","-0.78125","0.11816406","14.65625","-4.125","10.3125"
"1574967343127","217","-0.3720703","-0.8251953","0.115234375","10.8125","-3.75","12.28125"
"1574967343127","218","-0.4482422","-0.8095703","0.14160156","37.96875","-7.125","12.40625"
"1574967343127","219","-0.45996094","-0.76171875","0.16210938","11.1875","-9.0625","8.75"
"1574967343522","220","-0.42089844","-0.8154297","0.16503906","13.125","-4.375","9.15625"
"1574967343522","221","-0.46679688","-0.8095703","0.16796875","8.625","-7.90625","3.625"
"1574967343522","222","-0.4951172","-0.8046875","0.23046875","-1.875","-4.0","0.125"
"1574967343523","223","-0.4873047","-0.8154297","0.20703125","-7.0","-1.3125","-5.78125"
"1574967343523","224","-0.52734375","-0.8359375","0.24707031","-11.34375","-1.75","-9.21875"
"1574967343523","225","-0.46679688","-0.8076172","0.20410156","-12.625","-4.78125","-13.53125"
"1574967343523","226","-0.44726562","-0.8105469","0.1953125","-11.59375","-5.53125","-12.8125"
"1574967343524","227","-0.46191406","-0.80859375","0.17675781","-9.53125","-9.96875","-13.46875"
"1574967343524","228","-0.46191406","-0.8408203","0.22070312","-21.71875","0.28125","-17.15625"
"1574967343525","229","-0.41210938","-0.8046875","0.11328125","-15.25","-10.90625","-18.84375"
"1574967343919","230","-0.36523438","-0.8417969","0.14550781","-14.59375","-5.09375","-15.90625"
"1574967343920","231","-0.39648438","-0.8417969","0.109375","-19.59375","-4.84375","-20.875"
"1574967343920","232","-0.31347656","-0.7861328","0.052734375","-19.59375","-7.40625","-20.75"
"1574967343920","233","-0.23339844","-0.7861328","-0.009765625","-10.0","-10.40625","-16.28125"
"1574967343920","234","-0.203125","-0.8076172","-0.034179688","-5.84375","-11.8125","-11.34375"
"1574967343921","235","-0.18847656","-0.78515625","-0.056640625","-1.8125","-10.40625","-9.21875"
"1574967343921","236","-0.20019531","-0.8066406","-0.076171875","-2.8125","-9.1875","-8.53125"
"1574967343921","237","-0.15136719","-0.83691406","-0.032226562","-11.03125","-9.0625","-6.8125"
"1574967343921","238","-0.20410156","-0.82421875","-0.0703125","-7.4375","-6.0625","-8.65625"
"1574967343922","239","-0.15917969","-0.84765625","-0.08300781","-4.40625","-7.96875","-9.875"
"1574967344513","240","-0.15917969","-0.8222656","-0.07128906","-7.9375","-9.25","-8.90625"
"1574967344514","241","-0.123046875","-0.8144531","-0.11425781","-2.875","-15.28125","-8.15625"
"1574967344515","242","-0.119140625","-0.8261719","-0.0859375","-3.90625","-9.4375","-6.65625"
"1574967344515","243","-0.10253906","-0.88378906","-0.07128906","-0.71875","-16.6875","-5.0625"
"1574967344515","244","-0.14550781","-0.8691406","-0.057617188","-10.25","-21.9375","-12.25"
"1574967344516","245","-0.17089844","-0.82714844","-0.036132812","-20.4375","-13.65625","-12.8125"
"1574967344516","246","-0.08886719","-0.8105469","-0.1015625","-14.21875","-15.0","-10.0"
"1574967344516","247","-0.08984375","-0.796875","-0.12988281","-19.34375","-13.875","-10.78125"
"1574967344517","248","-0.08691406","-0.8027344","-0.19140625","4.40625","-13.875","-3.28125"
"1574967344517","249","-0.055664062","-0.8310547","-0.16699219","-1.03125","-1.4375","0.8125"
"1574967344713","250","-0.024414062","-0.859375","-0.17578125","9.46875","-4.0","5.0"
"1574967344713","251","-0.09472656","-0.78515625","-0.123046875","8.84375","1.0","10.875"
"1574967344713","252","-0.068359375","-0.8125","-0.171875","18.5625","6.875","11.84375"
"1574967344715","253","-0.10253906","-0.8261719","-0.15234375","21.71875","7.21875","12.8125"
"1574967344715","254","-0.038085938","-0.85058594","-0.099609375","19.65625","9.0625","15.9375"
"1574967344715","255","-0.10058594","-0.79296875","-0.12597656","26.1875","8.4375","17.46875"
"1574967344715","256","-0.17285156","-0.86035156","0.0126953125","3.3125","11.5625","15.75"
"1574967344716","257","-0.2109375","-0.8076172","-0.041015625","7.875","5.65625","16.1875"
"1574967344716","258","-0.23144531","-0.828125","0.0087890625","10.5625","10.15625","16.90625"
"1574967344716","259","-0.234375","-0.8408203","0.009765625","20.5","2.03125","17.65625"
"1574967345110","260","-0.21289062","-0.8046875","0.028320312","19.40625","4.1875","20.21875"
"1574967345111","261","-0.24609375","-0.8183594","0.03515625","20.375","-5.28125","18.75"
"1574967345111","262","-0.31152344","-0.7841797","0.025390625","25.40625","-5.21875","18.9375"
"1574967345111","263","-0.24023438","-0.82128906","0.07128906","22.71875","-0.40625","21.3125"
"1574967345112","264","-0.31835938","-0.79785156","0.078125","23.625","-3.75","17.96875"
"1574967345113","265","-0.33691406","-0.8066406","0.11816406","20.34375","-0.9375","16.4375"
"1574967345113","266","-0.37890625","-0.8154297","0.13476562","20.03125","-1.0","17.28125"
"1574967345113","267","-0.3720703","-0.7910156","0.14941406","21.25","-1.6875","13.4375"
"1574967345114","268","-0.37109375","-0.8046875","0.1953125","15.625","-1.4375","11.90625"
"1574967345114","269","-0.39160156","-0.7607422","0.16992188","13.4375","-4.75","11.0625"
"1574967345706","270","-0.45507812","-0.78222656","0.22460938","6.78125","0.03125","8.0"
"1574967345707","271","-0.44140625","-0.8027344","0.19335938","12.625","-2.53125","2.625"
"1574967345707","272","-0.43847656","-0.7871094","0.25390625","6.84375","-8.53125","1.03125"
"1574967345707","273","-0.46289062","-0.7832031","0.21289062","11.84375","-6.375","1.21875"
"1574967345707","274","-0.4765625","-0.7871094","0.26367188","-0.90625","-5.65625","-1.6875"
"1574967345708","275","-0.5136719","-0.81640625","0.2998047","-5.71875","-11.9375","-7.1875"
"1574967345708","276","-0.4482422","-0.8203125","0.29296875","-16.96875","-7.0","-11.46875"
"1574967345709","277","-0.45507812","-0.8408203","0.26953125","-11.78125","-6.03125","-10.25"
"1574967345710","278","-0.44726562","-0.7841797","0.20996094","-14.8125","-10.40625","-13.28125"
"1574967345710","279","-0.3955078","-0.8095703","0.21484375","-15.625","-7.1875","-12.75"
"1574967345905","280","-0.4140625","-0.7919922","0.19433594","-22.9375","-3.15625","-15.96875"
"1574967345906","281","-0.37402344","-0.8017578","0.15429688","-9.875","-5.71875","-12.875"
"1574967345906","282","-0.36132812","-0.8222656","0.14746094","-14.03125","-3.15625","-12.75"
"1574967345906","283","-0.31054688","-0.8125","0.080078125","-13.125","-4.96875","-14.21875"
"1574967345906","284","-0.25683594","-0.796875","0.080078125","-9.875","-5.03125","-11.59375"
"1574967345907","285","-0.25390625","-0.78222656","0.055664062","-10.75","-4.96875","-10.96875"
"1574967345907","286","-0.23925781","-0.79589844","0.020507812","-9.40625","-6.1875","-9.9375"
"1574967345907","287","-0.20800781","-0.8125","0.0126953125","-13.96875","-3.75","-10.96875"
"1574967345907","288","-0.20214844","-0.8154297","0.009765625","-11.78125","-2.53125","-9.6875"
"1574967345909","289","-0.21972656","-0.81152344","-0.020507812","-12.25","-6.375","-12.1875"
"1574967346305","290","-0.16308594","-0.8095703","-0.0234375","-10.75","-5.65625","-10.0"
"1574967346305","291","-0.15527344","-0.81152344","-0.052734375","-4.5","-7.71875","-6.78125"
"1574967346305","292","-0.15625","-0.8222656","-0.05859375","-1.34375","-8.59375","-7.1875"
"1574967346306","293","-0.15429688","-0.8232422","-0.040039062","-5.6875","-6.5","-7.3125"
"1574967346306","294","-0.12988281","-0.8798828","-0.01171875","-6.46875","-12.4375","-9.15625"
"1574967346306","295","-0.115234375","-0.9082031","-0.04296875","3.78125","-19.0625","-10.5"
"1574967346306","296","-0.18652344","-0.8310547","-0.00390625","-26.25","-22.875","-17.5625"
"1574967346307","297","-0.12109375","-0.8076172","-0.037109375","-23.0","-17.25","-12.5"
"1574967346307","298","-0.16015625","-0.7841797","-0.08105469","-34.40625","-9.3125","-15.0625"
"1574967346307","299","-0.103515625","-0.7861328","-0.16503906","-16.0625","-5.21875","-9.8125"
"1574967346901","300","-0.020507812","-0.8769531","-0.18164062","5.9375","-6.6875","1.84375"
"1574967346901","301","-0.034179688","-0.84277344","-0.16308594","7.03125","-5.53125","4.03125"
"1574967346902","302","-0.10546875","-0.7841797","-0.140625","9.71875","-2.28125","6.71875"
"1574967346902","303","-0.068359375","-0.8017578","-0.13671875","15.4375","3.3125","9.09375"
"1574967346902","304","-0.034179688","-0.8613281","-0.14550781","16.71875","6.125","11.53125"
"1574967346902","305","-0.038085938","-0.8203125","-0.123046875","14.96875","1.625","12.21875"
"1574967346903","306","-0.087890625","-0.85253906","-0.09472656","28.1875","-7.125","15.9375"
"1574967346903","307","-0.12402344","-0.7919922","-0.04296875","12.875","3.5625","15.34375"
"1574967346903","308","-0.12792969","-0.8154297","-0.06347656","16.65625","2.03125","16.0625"
"1574967346903","309","-0.15332031","-0.8691406","-0.0029296875","11.28125","-0.09375","14.71875"
"1574967347693","310","-0.29003906","-0.81347656","-0.046875","7.21875","-2.59375","12.03125"
"1574967347694","311","-0.23730469","-0.7871094","0.04296875","20.4375","1.0625","17.34375"
"1574967347694","312","-0.234375","-0.828125","0.038085938","23.1875","8.75","13.625"
"1574967347694","313","-0.22070312","-0.8300781","0.029296875","20.75","4.90625","20.28125"
"1574967347694","314","-0.30273438","-0.81347656","0.08300781","20.5","8.375","14.0"
"1574967347695","315","-0.25683594","-0.8076172","0.08203125","15.3125","4.71875","15.28125"
"1574967347695","316","-0.2998047","-0.8027344","0.11621094","18.6875","4.59375","15.375"
"1574967347695","317","-0.32128906","-0.8183594","0.1328125","24.25","3.625","16.375"
"1574967347696","318","-0.34277344","-0.7626953","0.13183594","12.34375","2.21875","13.1875"
"1574967347696","319","-0.3203125","-0.8183594","0.14453125","26.0625","4.1875","17.71875"
"1574967348090","320","-0.35058594","-0.80078125","0.1640625","17.34375","-3.625","14.65625"
"1574967348090","321","-0.41992188","-0.7753906","0.21875","10.0","-4.90625","10.9375"
"1574967348091","322","-0.41210938","-0.8046875","0.24316406","-3.0","-0.78125","6.53125"
"1574967348091","323","-0.4375","-0.79785156","0.20898438","3.375","1.3125","6.53125"
"1574967348091","324","-0.45898438","-0.82128906","0.21875","5.5625","-0.59375","3.0"
"1574967348093","325","-0.48828125","-0.80078125","0.25195312","-5.71875","0.28125","-3.34375"
"1574967348093","326","-0.4921875","-0.81347656","0.234375","-0.59375","-9.4375","-7.5625"
"1574967348093","327","-0.48046875","-0.8203125","0.27734375","-14.03125","-3.4375","-12.5625"
"1574967348093","328","-0.4423828","-0.81933594","0.22363281","-7.3125","-9.0625","-13.96875"
"1574967348094","329","-0.40234375","-0.8095703","0.23046875","-12.75","-7.78125","-14.40625"
"1574967348288","330","-0.39257812","-0.8076172","0.19921875","-0.71875","-17.375","-14.28125"
"1574967348288","331","-0.40820312","-0.82714844","0.2548828","-15.75","-7.84375","-15.875"
"1574967348289","332","-0.33984375","-0.7871094","0.16308594","-9.03125","-15.84375","-14.8125"
"1574967348289","333","-0.33398438","-0.8222656","0.16308594","-11.09375","-11.03125","-13.1875"
"1574967348289","334","-0.31152344","-0.80078125","0.12011719","-9.40625","-11.09375","-12.3125"
"1574967348289","335","-0.24414062","-0.7998047","0.08496094","-6.71875","-8.40625","-8.71875"
"1574967348290","336","-0.21777344","-0.79296875","0.041992188","-4.5","-7.96875","-8.0625"
"1574967348292","337","-0.20605469","-0.80078125","0.038085938","-7.5","-7.1875","-7.6875"
"1574967348293","338","-0.21191406","-0.81640625","0.04296875","-12.09375","-7.25","-7.75"
"1574967348293","339","-0.18945312","-0.82421875","0.016601562","-8.59375","-1.5625","-6.8125"
"1574967348294","340","-0.20898438","-0.81933594","0.0126953125","-12.4375","-3.6875","-9.75"
"1574967348294","341","-0.17285156","-0.8203125","-0.034179688","0.4375","-9.5625","-9.625"
"1574967348294","342","-0.13183594","-0.81640625","-0.0087890625","-2.875","-5.46875","-4.9375"
"1574967348294","343","-0.17089844","-0.796875","-0.0068359375","0.6875","-3.625","-5.84375"
"1574967348295","344","-0.14257812","-0.8486328","-0.036132812","4.28125","-7.25","-5.90625"
"1574967348295","345","-0.13867188","-0.86621094","-0.0087890625","-2.875","-4.25","-4.875"
"1574967348295","346","-0.15039062","-0.8359375","-0.0078125","-8.84375","-4.3125","-7.4375"
"1574967348296","347","-0.18066406","-0.8925781","0.025390625","-15.625","-5.40625","-9.9375"
"1574967348296","348","-0.15625","-0.8027344","-0.030273438","-20.4375","-5.34375","-14.9375"
"1574967348296","349","-0.051757812","-0.80566406","-0.05859375","-6.34375","-8.03125","-3.84375"
"1574967348692","350","-0.12988281","-0.8642578","-0.06738281","-16.90625","-8.9375","-9.8125"
"1574967348692","351","-0.09082031","-0.77441406","-0.11816406","-5.5625","-7.96875","-3.71875"
"1574967348693","352","-0.091796875","-0.8076172","-0.08886719","2.5625","-1.375","2.375"
"1574967348693","353","-0.095703125","-0.84472656","-0.125","5.875","1.375","4.59375"
"1574967348693","354","-0.09277344","-0.8046875","-0.11230469","6.78125","4.3125","7.34375"
"1574967348694","355","-0.10253906","-0.828125","-0.107421875","15.1875","6.25","8.1875"
"1574967348694","356","-0.09082031","-0.82421875","-0.107421875","16.0625","10.875","10.1875"
"1574967348694","357","-0.05078125","-0.84277344","-0.07128906","12.15625","6.625","13.125"
"1574967348694","358","-0.13671875","-0.82421875","-0.046875","17.03125","4.375","14.0"
"1574967348695","359","-0.15039062","-0.8017578","-0.028320312","10.625","6.375","13.5625"
"1574967349085","360","-0.19433594","-0.81152344","-0.057617188","11.53125","7.09375","13.875"
"1574967349087","361","-0.1015625","-0.83203125","0.01171875","14.65625","-0.53125","19.125"
"1574967349087","362","-0.20117188","-0.79785156","0.0146484375","16.4375","0.09375","22.59375"
"1574967349088","363","-0.19824219","-0.8183594","0.03125","21.3125","-6.5625","22.71875"
"1574967349088","364","-0.31054688","-0.82128906","0.08105469","17.65625","-0.15625","21.8125"
"1574967349088","365","-0.375","-0.8564453","0.1171875","2.9375","3.625","8.625"
"1574967349089","366","-0.2705078","-0.8017578","0.068359375","9.59375","-0.84375","12.59375"
"1574967349089","367","-0.3173828","-0.8183594","0.16992188","4.46875","19.0","9.90625"
"1574967349089","368","-0.29296875","-0.796875","0.0859375","2.375","1.375","11.4375"
"1574967349090","369","-0.328125","-0.7548828","0.1171875","4.09375","5.65625","8.0"
"1574967349485","370","-0.31054688","-0.81933594","0.060546875","8.0","-1.1875","7.6875"
"1574967349486","371","-0.36132812","-0.7919922","0.15039062","10.9375","-4.3125","8.4375"
"1574967349486","372","-0.34375","-0.7792969","0.10058594","18.9375","-8.34375","9.59375"
"1574967349487","373","-0.390625","-0.8183594","0.16113281","11.65625","-11.4375","2.875"
"1574967349488","374","-0.39941406","-0.796875","0.15527344","14.78125","-16.8125","4.53125"
"1574967349488","375","-0.3515625","-0.77246094","0.23535156","18.5625","-25.65625","11.375"
"1574967349488","376","-0.43945312","-0.81347656","0.22167969","21.625","-28.96875","13.0"
"1574967349489","377","-0.4716797","-0.83496094","0.26464844","26.4375","-38.96875","2.6875"
"1574967349489","378","-0.546875","-0.79785156","0.37695312","6.78125","-16.34375","-0.0625"
"1574967349489","379","-0.45214844","-0.8173828","0.36035156","7.15625","-12.375","-2.0625"
"1574967349884","380","-0.41210938","-0.82128906","0.29492188","0.1875","-4.375","-4.25"
"1574967349884","381","-0.4248047","-0.79589844","0.31152344","-14.59375","6.96875","-5.4375"
"1574967349885","382","-0.42285156","-0.7763672","0.32128906","-19.65625","11.5625","-7.5625"
"1574967349885","383","-0.41210938","-0.8017578","0.26464844","-25.6875","23.53125","-13.125"
"1574967349885","384","-0.39746094","-0.8027344","0.23632812","-34.71875","11.3125","-18.5"
"1574967349887","385","-0.32128906","-0.8154297","0.1484375","-23.96875","2.59375","-16.40625"
"1574967349887","386","-0.2939453","-0.8076172","0.14746094","-23.0","-3.40625","-16.40625"
"1574967349887","387","-0.32226562","-0.7753906","0.08886719","-21.3125","-4.125","-17.5"
"1574967349888","388","-0.25683594","-0.78222656","0.06542969","-19.28125","-0.71875","-15.375"
"1574967349888","389","-0.23144531","-0.8027344","0.005859375","-15.875","-1.375","-16.03125"
"1574967350280","390","-0.19433594","-0.82128906","0.0126953125","-18.0625","-0.15625","-15.1875"
"1574967350281","391","-0.18066406","-0.8095703","-0.03515625","-10.375","-3.875","-13.34375"
"1574967350281","392","-0.15039062","-0.8076172","-0.044921875","2.625","-8.75","-7.1875"
"1574967350281","393","-0.16503906","-0.7998047","-0.01953125","-4.28125","-1.9375","-8.59375"
"1574967350282","394","-0.12792969","-0.8173828","-0.045898438","-2.1875","-5.40625","-6.09375"
"1574967350282","395","-0.13671875","-0.8574219","-0.05078125","-5.0625","-3.625","-6.78125"
"1574967350282","396","-0.13964844","-0.84375","-0.057617188","-1.09375","-11.3125","-6.03125"
"1574967350283","397","-0.16503906","-0.8720703","-0.026367188","-6.65625","-10.78125","-8.53125"
"1574967350284","398","-0.21582031","-0.8408203","-0.021484375","-12.15625","-11.21875","-15.125"
"1574967350284","399","-0.11328125","-0.7519531","-0.07128906","-3.40625","-6.4375","-12.875"
"1574967350677","400","-0.034179688","-0.8339844","-0.10546875","-4.5","-5.71875","-2.3125"
"1574967350677","401","-0.09863281","-0.7988281","-0.10546875","-3.40625","-5.34375","-3.90625"
"1574967350677","402","-0.06640625","-0.83496094","-0.09667969","4.09375","-5.84375","0.1875"
"1574967350677","403","-0.0703125","-0.8232422","-0.09667969","5.25","-0.46875","3.375"
"1574967350678","404","-0.083984375","-0.8261719","-0.15039062","13.0","-0.65625","3.96875"
"1574967350678","405","-0.08300781","-0.8339844","-0.072265625","0.1875","-2.40625","6.78125"
"1574967350678","406","-0.064453125","-0.8154297","-0.10644531","12.75","0.40625","8.1875"
"1574967350678","407","-0.06640625","-0.83496094","-0.11035156","16.4375","-1.625","11.125"
"1574967350679","408","-0.12402344","-0.81933594","-0.053710938","11.0","-0.34375","10.25"
"1574967350680","409","-0.09277344","-0.82714844","-0.055664062","9.84375","-0.21875","13.25"
"1574967351272","410","-0.13183594","-0.8105469","-0.043945312","17.59375","-0.15625","16.84375"
"1574967351273","411","-0.18359375","-0.83203125","-0.0087890625","8.65625","-0.875","14.59375"
"1574967351273","412","-0.20996094","-0.81347656","0.030273438","8.0625","1.625","17.84375"
"1574967351273","413","-0.23535156","-0.8203125","0.025390625","10.6875","3.5","15.15625"
"1574967351273","414","-0.22265625","-0.8144531","0.048828125","15.3125","0.15625","21.25"
"1574967351274","415","-0.30371094","-0.796875","0.07128906","13.96875","0.6875","15.625"
"1574967351274","416","-0.24804688","-0.8017578","0.05859375","17.8125","-1.5625","19.90625"
"1574967351274","417","-0.31640625","-0.7910156","0.12011719","15.8125","3.5","20.9375"
"1574967351274","418","-0.328125","-0.81640625","0.119140625","19.46875","-0.71875","17.78125"
"1574967351275","419","-0.32421875","-0.80371094","0.10839844","16.71875","-3.15625","15.75"
"1574967351866","420","-0.34570312","-0.7734375","0.15429688","12.03125","5.40625","15.8125"
"1574967351869","421","-0.36621094","-0.79296875","0.14257812","17.59375","3.6875","16.65625"
"1574967351869","422","-0.3935547","-0.78222656","0.19042969","13.0","3.625","12.9375"
"1574967351869","423","-0.38964844","-0.79003906","0.14550781","19.34375","0.03125","12.21875"
"1574967351870","424","-0.46875","-0.79589844","0.23730469","-2.375","16.03125","6.90625"
"1574967351870","425","-0.4609375","-0.8251953","0.2109375","-2.125","2.78125","-0.53125"
"1574967351870","426","-0.4609375","-0.78027344","0.1953125","2.03125","3.0625","-0.96875"
"1574967351871","427","-0.45410156","-0.80371094","0.20898438","3.0","6.3125","1.28125"
"1574967351871","428","-0.49023438","-0.7988281","0.21875","2.09375","-0.65625","-5.3125"
"1574967351873","429","-0.47460938","-0.7919922","0.23144531","-3.09375","-0.53125","-7.4375"
"1574967352065","430","-0.49316406","-0.8408203","0.24511719","-13.25","1.375","-13.125"
"1574967352065","431","-0.47265625","-0.83691406","0.21191406","-13.375","-2.46875","-14.40625"
"1574967352065","432","-0.43359375","-0.7988281","0.20703125","-14.71875","-0.875","-13.0625"
"1574967352066","433","-0.41601562","-0.8095703","0.17773438","-9.46875","-5.09375","-11.15625"
"1574967352066","434","-0.41601562","-0.80371094","0.16894531","-19.03125","-3.40625","-11.28125"
"1574967352067","435","-0.37109375","-0.7890625","0.115234375","-9.9375","-9.9375","-9.09375"
"1574967352067","436","-0.36621094","-0.80078125","0.10839844","-7.5","-12.0625","-8.21875"
"1574967352068","437","-0.34277344","-0.8027344","0.0703125","-3.40625","-12.4375","-8.34375"
"1574967352068","438","-0.2734375","-0.79003906","0.045898438","-0.84375","-15.28125","-5.96875"
"1574967352068","439","-0.28808594","-0.8105469","0.053710938","-4.28125","-12.375","-9.21875"
"1574967352266","440","-0.2607422","-0.79589844","0.026367188","-6.59375","-14.8125","-11.03125"
"1574967352266","441","-0.27148438","-0.8232422","0.056640625","-11.59375","-6.5625","-13.96875"
"1574967352267","442","-0.20996094","-0.8203125","-0.0087890625","-5.78125","-9.6875","-12.6875"
"1574967352267","443","-0.2421875","-0.80371094","-0.0029296875","-7.9375","-5.78125","-14.21875"
"1574967352267","444","-0.15039062","-0.8017578","0.009765625","-5.84375","-14.125","-10.1875"
"1574967352268","445","-0.18945312","-0.8310547","-0.052734375","9.59375","-13.09375","-12.8125"
"1574967352269","446","-0.15136719","-0.79003906","0.0048828125","-12.375","-4.78125","-10.375"
"1574967352269","447","-0.16699219","-0.8105469","-0.03515625","0.625","-6.03125","-9.34375"
"1574967352269","448","-0.12890625","-0.86816406","-0.041015625","3.0","-11.625","-8.96875"
"1574967352269","449","-0.11035156","-0.8574219","-0.037109375","-0.71875","-20.25","-10.4375"
"1574967352663","450","-0.080078125","-0.921875","0.053710938","-10.125","-20.40625","-11.15625"
"1574967352663","451","-0.28125","-0.7753906","0.049804688","-35.15625","-15.28125","-27.21875"
"1574967352663","452","-0.18945312","-0.734375","-0.07910156","-14.34375","-8.8125","-15.6875"
"1574967352664","453","-0.036132812","-0.8339844","-0.123046875","3.125","-0.53125","-8.0625"
"1574967352664","454","-0.01171875","-0.8652344","-0.12597656","1.15625","-1.5625","-3.96875"
"1574967352664","455","-0.034179688","-0.8144531","-0.099609375","2.125","-3.03125","6.90625"
"1574967352664","456","-0.13964844","-0.796875","-0.07519531","8.78125","4.375","3.90625"
"1574967352666","457","-0.055664062","-0.85253906","-0.08105469","14.78125","5.46875","8.84375"
"1574967352666","458","-0.041992188","-0.86035156","-0.072265625","11.1875","-0.21875","8.96875"
"1574967352666","459","-0.099609375","-0.81640625","-0.053710938","12.15625","-1.25","8.625"
"1574967353063","460","-0.059570312","-0.8339844","-0.041015625","15.75","-2.28125","11.0625"
"1574967353063","461","-0.13574219","-0.79785156","-0.046875","13.25","0.9375","12.53125"
"1574967353063","462","-0.07128906","-0.8330078","-0.036132812","18.0","-3.625","18.375"
"1574967353064","463","-0.1796875","-0.8066406","0.001953125","16.84375","0.8125","18.75"
"1574967353064","464","-0.11621094","-0.83496094","0.0068359375","20.09375","-2.125","23.03125"
"1574967353064","465","-0.234375","-0.7832031","0.018554688","13.5625","-1.0","22.59375"
"1574967353064","466","-0.24414062","-0.8330078","0.078125","8.0625","6.875","16.0"
"1574967353065","467","-0.21386719","-0.83496094","0.0546875","11.0","5.53125","20.40625"
"1574967353065","468","-0.30664062","-0.78027344","0.111328125","12.28125","3.0625","16.65625"
"1574967353066","469","-0.265625","-0.8144531","0.119140625","19.84375","-0.21875","23.25"
"1574967353460","470","-0.34375","-0.79785156","0.12207031","13.3125","4.59375","15.375"
"1574967353461","471","-0.29882812","-0.8017578","0.10253906","20.21875","-1.625","15.9375"
"1574967353461","472","-0.3310547","-0.8017578","0.18554688","15.375","0.9375","17.96875"
"1574967353461","473","-0.40625","-0.7861328","0.18945312","10.75","-0.71875","12.03125"
"1574967353461","474","-0.3828125","-0.7753906","0.16503906","15.875","-3.15625","14.84375"
"1574967353462","475","-0.36914062","-0.7763672","0.23339844","7.5625","5.6875","14.40625"
"1574967353462","476","-0.49316406","-0.7939453","0.22363281","2.3125","0.9375","5.25"
"1574967353462","477","-0.45507812","-0.7832031","0.25585938","-9.46875","9.4375","-1.03125"
"1574967353462","478","-0.4453125","-0.828125","0.21679688","-11.03125","5.09375","-3.59375"
"1574967353463","479","-0.4814453","-0.81640625","0.2421875","-3.96875","4.46875","-0.34375"
"1574967354052","480","-0.50878906","-0.78222656","0.24023438","3.125","-0.15625","-6.875"
"1574967354054","481","-0.48828125","-0.82128906","0.24414062","-3.96875","-0.21875","-13.0625"
"1574967354054","482","-0.4482422","-0.8105469","0.2265625","-8.84375","0.46875","-12.0"
"1574967354054","483","-0.4482422","-0.82714844","0.24316406","-6.65625","-1.0625","-12.75"
"1574967354055","484","-0.46484375","-0.7998047","0.18457031","-7.0","-7.25","-12.6875"
"1574967354055","485","-0.42089844","-0.8076172","0.20898438","-9.625","-1.1875","-11.21875"
"1574967354055","486","-0.37109375","-0.79589844","0.14550781","-10.3125","-6.25","-12.0625"
"1574967354056","487","-0.34765625","-0.79296875","0.12109375","-18.25","-7.53125","-11.90625"
"1574967354056","488","-0.3330078","-0.7910156","0.125","-22.15625","-2.0","-12.0"
"1574967354056","489","-0.2841797","-0.79785156","0.036132812","-20.25","-4.0625","-14.75"
"1574967354254","490","-0.23535156","-0.8095703","-0.013671875","-7.25","-8.34375","-12.125"
"1574967354254","491","-0.20605469","-0.8261719","0.02734375","-20.9375","-5.15625","-12.0625"
"1574967354255","492","-0.21875","-0.7871094","-0.056640625","-12.8125","-10.78125","-13.1875"
"1574967354256","493","-0.17382812","-0.82714844","-0.040039062","-10.125","-6.3125","-10.6875"
"1574967354256","494","-0.13769531","-0.8300781","-0.064453125","-8.0","-10.34375","-12.75"
"1574967354256","495","-0.18847656","-0.84277344","-0.053710938","-9.9375","-9.875","-14.28125"
"1574967354257","496","-0.14257812","-0.8232422","-0.07324219","-9.75","-11.5625","-15.0"
"1574967354257","497","-0.15527344","-0.8183594","-0.064453125","-8.46875","-8.9375","-14.09375"
"1574967354257","498","-0.087890625","-0.8125","-0.07714844","-6.78125","-10.96875","-9.21875"
"1574967354257","499","-0.123046875","-0.82128906","-0.09667969","-0.375","-16.625","-9.5"
"1574967354651","500","-0.09277344","-0.875","-0.0625","-11.09375","-12.65625","-8.53125"
"1574967354651","501","-0.15527344","-0.8251953","-0.06640625","-11.90625","-12.4375","-10.6875"
"1574967354652","502","-0.125","-0.7998047","-0.09375","-7.5625","-7.53125","-6.65625"
"1574967354652","503","-0.09375","-0.8183594","-0.12695312","-4.40625","-4.5","-4.1875"
"1574967354652","504","-0.087890625","-0.8251953","-0.14257812","3.0","-6.03125","-0.125"
"1574967354653","505","-0.08300781","-0.8251953","-0.125","4.75","-2.59375","3.5625"
"1574967354654","506","-0.083984375","-0.8203125","-0.12890625","13.8125","-2.40625","4.15625"
"1574967354654","507","-0.09277344","-0.8378906","-0.09667969","12.6875","-1.3125","7.6875"
"1574967354654","508","-0.11816406","-0.80566406","-0.09082031","8.71875","0.5625","7.21875"
"1574967354654","509","-0.0546875","-0.81152344","-0.1171875","21.78125","4.3125","12.75"
"1574967355049","510","-0.13183594","-0.8408203","-0.064453125","10.3125","-2.125","12.28125"
"1574967355050","511","-0.13085938","-0.8203125","-0.078125","12.34375","1.4375","13.4375"
"1574967355050","512","-0.12109375","-0.83496094","-0.045898438","18.6875","-0.28125","15.625"
"1574967355050","513","-0.24804688","-0.78808594","-0.00390625","13.5","6.5","12.875"
"1574967355051","514","-0.12792969","-0.8769531","-0.0126953125","12.9375","14.625","18.5625"
"1574967355051","515","-0.26953125","-0.81640625","0.044921875","5.875","14.0","17.34375"
"1574967355051","516","-0.23046875","-0.82421875","0.0126953125","7.8125","5.59375","13.0"
"1574967355052","517","-0.21679688","-0.7919922","0.0107421875","23.6875","1.625","19.125"
"1574967355053","518","-0.2685547","-0.8417969","0.07128906","16.25","2.53125","16.0"
"1574967355053","519","-0.2890625","-0.7871094","0.053710938","22.78125","-4.4375","18.875"
"1574967355841","520","-0.31445312","-0.8105469","0.13476562","18.5625","5.65625","16.375"
"1574967355842","521","-0.3125","-0.7949219","0.09765625","13.4375","4.65625","15.6875"
"1574967355842","522","-0.3251953","-0.7910156","0.119140625","10.375","10.875","17.59375"
"1574967355842","523","-0.3359375","-0.8300781","0.10449219","7.6875","2.03125","14.96875"
"1574967355843","524","-0.4111328","-0.7792969","0.12109375","9.03125","1.125","10.4375"
"1574967355843","525","-0.38476562","-0.8095703","0.12207031","13.0625","0.34375","7.5625"
"1574967355843","526","-0.47265625","-0.80859375","0.17578125","12.03125","-0.78125","2.875"
"1574967355843","527","-0.4501953","-0.8105469","0.16113281","17.03125","1.1875","1.0"
"1574967355844","528","-0.42382812","-0.81933594","0.23535156","19.03125","-4.78125","2.15625"
"1574967355846","529","-0.5332031","-0.78027344","0.29882812","10.6875","-11.875","3.1875"
"1574967356041","530","-0.48242188","-0.8154297","0.22949219","14.21875","-7.59375","-0.28125"
"1574967356041","531","-0.49414062","-0.8173828","0.3251953","-6.15625","-3.875","-4.4375"
"1574967356041","532","-0.45214844","-0.7939453","0.23242188","-4.34375","-2.59375","-5.78125"
"1574967356042","533","-0.42285156","-0.8339844","0.21679688","-2.625","-4.6875","-7.5"
"1574967356042","534","-0.44433594","-0.78808594","0.24511719","-10.1875","-2.53125","-9.4375"
"1574967356042","535","-0.40820312","-0.7763672","0.21191406","-9.59375","-1.875","-8.0625"
"1574967356042","536","-0.39648438","-0.79296875","0.18554688","-12.4375","-1.375","-9.875"
"1574967356043","537","-0.37402344","-0.78515625","0.18457031","-12.4375","-4.90625","-10.0"
"1574967356043","538","-0.3671875","-0.7919922","0.17382812","-12.6875","-6.375","-10.78125"
"1574967356043","539","-0.34277344","-0.8232422","0.15625","-18.0","-7.0","-12.75"
