"# PR data"
"# Start time: 20191128T195716"
"# Subject: santi"
"# Activity type: Leg slide"
"# Correctness: Correct"
"# Notes: "
""
"timestamp","seq","accel_x","accel_y","accel_z","gyro_x","gyro_y","gyro_z"
"1574967436731","0","-0.18359375","-0.7841797","-0.13085938","-21.71875","19.625","-5.71875"
"1574967436732","1","-0.07324219","-0.9794922","-0.10546875","-36.75","37.25","-5.25"
"1574967436732","2","-0.0048828125","-0.93652344","-0.1015625","-17.875","13.09375","2.875"
"1574967436732","3","-0.030273438","-0.796875","-0.18261719","-21.0","1.5625","-7.5625"
"1574967436733","4","0.021484375","-0.7919922","-0.20898438","-15.5625","2.78125","-10.375"
"1574967436733","5","-0.052734375","-0.83203125","-0.19042969","-8.0625","5.75","-1.5625"
"1574967436733","6","-0.09863281","-0.8623047","-0.21191406","-7.75","12.59375","-3.28125"
"1574967436733","7","-0.051757812","-0.89160156","-0.21386719","-1.71875","14.5625","2.375"
"1574967436737","8","-0.040039062","-0.8652344","-0.20703125","4.9375","14.75","5.0625"
"1574967436737","9","-0.0068359375","-0.8564453","-0.21484375","2.8125","13.28125","5.0625"
"1574967436933","10","0.022460938","-0.85546875","-0.20800781","-0.71875","9.375","6.65625"
"1574967436934","11","-0.001953125","-0.84472656","-0.21679688","-1.65625","4.3125","4.84375"
"1574967436934","12","-0.040039062","-0.8964844","-0.22558594","-1.59375","2.53125","5.5625"
"1574967436935","13","-0.0087890625","-0.8623047","-0.23535156","-4.8125","-6.75","4.9375"
"1574967436936","14","-0.0029296875","-0.85253906","-0.23242188","0.8125","-16.34375","2.6875"
"1574967436936","15","-0.038085938","-0.8466797","-0.20898438","-7.5625","-14.9375","-2.0625"
"1574967436937","16","-0.034179688","-0.85253906","-0.24511719","6.40625","-18.21875","-2.4375"
"1574967436937","17","-0.07910156","-0.8417969","-0.21972656","2.125","-14.0625","-0.71875"
"1574967436937","18","-0.03515625","-0.86328125","-0.23632812","4.40625","-9.9375","-1.6875"
"1574967436938","19","-0.0234375","-0.8564453","-0.24121094","5.75","-11.09375","-1.625"
"1574967437331","20","-0.040039062","-0.8417969","-0.23730469","7.375","-10.28125","-3.15625"
"1574967437331","21","-0.025390625","-0.8564453","-0.22363281","2.75","-9.375","-3.15625"
"1574967437331","22","-0.040039062","-0.8574219","-0.21679688","1.09375","-7.0","-3.09375"
"1574967437331","23","-0.051757812","-0.8613281","-0.22070312","2.03125","-3.875","-2.375"
"1574967437332","24","-0.018554688","-0.8544922","-0.21386719","-0.65625","-3.21875","-1.6875"
"1574967437333","25","-0.046875","-0.84765625","-0.20507812","0.625","-1.875","-0.53125"
"1574967437333","26","-0.055664062","-0.85058594","-0.2109375","2.5","2.28125","0.125"
"1574967437333","27","-0.020507812","-0.8798828","-0.21777344","3.84375","3.625","0.8125"
"1574967437336","28","-0.009765625","-0.8574219","-0.21679688","1.34375","1.3125","0.3125"
"1574967437337","29","-0.016601562","-0.84472656","-0.21191406","0.1875","0.75","0.1875"
"1574967437729","30","-0.041015625","-0.875","-0.20117188","2.4375","2.71875","1.03125"
"1574967437729","31","-0.015625","-0.85546875","-0.2109375","1.53125","0.875","1.09375"
"1574967437729","32","-0.0146484375","-0.84765625","-0.22753906","1.03125","-2.78125","1.03125"
"1574967437730","33","-0.038085938","-0.8642578","-0.21875","0.5625","-2.0625","0.75"
"1574967437730","34","-0.017578125","-0.85546875","-0.20410156","1.46875","-1.0","0.5625"
"1574967437730","35","-0.016601562","-0.8642578","-0.20507812","-0.4375","-2.0","0.9375"
"1574967437730","36","-0.020507812","-0.8466797","-0.24414062","4.59375","-1.0625","0.5625"
"1574967437732","37","-0.001953125","-0.8720703","-0.17773438","0.90625","-9.25","3.71875"
"1574967437732","38","-0.0048828125","-0.8535156","-0.19042969","1.96875","-8.21875","5.1875"
"1574967437732","39","0.020507812","-0.87402344","-0.17382812","8.0625","-12.59375","6.90625"
"1574967438126","40","-0.045898438","-0.8574219","-0.13183594","5.4375","-13.09375","13.0625"
"1574967438127","41","-0.057617188","-0.84765625","-0.14257812","7.09375","-2.0625","14.53125"
"1574967438127","42","-0.06347656","-0.90625","-0.15429688","1.59375","10.21875","17.28125"
"1574967438127","43","-0.064453125","-0.90234375","-0.18554688","9.03125","4.84375","26.1875"
"1574967438127","44","-0.078125","-0.83203125","-0.13769531","6.78125","7.09375","28.4375"
"1574967438128","45","-0.26953125","-0.7949219","-0.18847656","13.5625","12.96875","26.75"
"1574967438128","46","-0.02734375","-0.9199219","-0.28027344","5.0625","16.6875","14.65625"
"1574967438128","47","0.095703125","-0.9091797","-0.22167969","-5.25","-5.96875","8.75"
"1574967438128","48","-0.055664062","-0.8310547","-0.21582031","-7.375","-29.03125","1.09375"
"1574967438130","49","-0.14941406","-0.8251953","-0.21484375","-4.9375","-27.75","-2.4375"
"1574967438523","50","-0.18359375","-0.78222656","-0.25","-2.5625","-32.125","5.3125"
"1574967438524","51","-0.18945312","-0.8017578","-0.20117188","-0.5","-13.9375","2.625"
"1574967438524","52","-0.24609375","-0.8925781","-0.21484375","1.59375","-7.90625","5.5"
"1574967438524","53","-0.123046875","-0.89941406","-0.24707031","1.65625","-12.5","4.28125"
"1574967438524","54","-0.14257812","-0.8457031","-0.19042969","-0.1875","-10.09375","3.84375"
"1574967438525","55","-0.15039062","-0.8359375","-0.19238281","1.96875","-12.0","4.90625"
"1574967438525","56","-0.20507812","-0.8388672","-0.21386719","9.03125","-11.9375","6.46875"
"1574967438525","57","-0.25097656","-0.84375","-0.20019531","7.6875","-0.84375","7.9375"
"1574967438525","58","-0.18261719","-0.8496094","-0.20996094","7.28125","6.1875","6.34375"
"1574967438526","59","-0.1875","-0.9042969","-0.21679688","2.75","5.46875","4.46875"
"1574967438922","60","-0.1796875","-0.83496094","-0.24804688","5.8125","-3.21875","3.625"
"1574967438925","61","-0.16503906","-0.82128906","-0.24804688","-0.78125","-3.03125","1.03125"
"1574967438925","62","-0.18847656","-0.9111328","-0.19335938","-1.21875","-6.875","-0.28125"
"1574967438926","63","-0.21484375","-0.8232422","-0.20507812","-0.375","-13.46875","4.65625"
"1574967438926","64","-0.17480469","-0.7705078","-0.20507812","1.09375","-10.53125","-0.96875"
"1574967438926","65","-0.17382812","-0.86328125","-0.20019531","-0.5","-11.6875","-2.0"
"1574967438927","66","-0.18945312","-0.8613281","-0.22949219","-2.3125","-10.28125","-9.8125"
"1574967438927","67","-0.16210938","-0.8671875","-0.18261719","6.0","-10.28125","-12.375"
"1574967438927","68","-0.14648438","-0.8388672","-0.203125","1.40625","-6.03125","-10.1875"
"1574967438928","69","-0.109375","-0.82910156","-0.22363281","6.96875","-11.625","-15.625"
"1574967439319","70","-0.14648438","-0.8105469","-0.1640625","12.03125","-5.78125","-14.46875"
"1574967439320","71","-0.099609375","-0.87597656","-0.13867188","2.625","1.96875","-18.25"
"1574967439320","72","-0.20117188","-0.96191406","-0.10546875","13.125","-3.03125","-13.65625"
"1574967439321","73","-0.16113281","-0.8564453","-0.23632812","2.875","-8.53125","-7.4375"
"1574967439321","74","-0.15332031","-0.7998047","-0.19726562","3.96875","-5.65625","-8.84375"
"1574967439321","75","-0.08300781","-0.8017578","-0.15917969","8.65625","1.4375","-10.375"
"1574967439322","76","-0.005859375","-0.86035156","-0.12792969","10.3125","-5.71875","-15.0"
"1574967439322","77","-0.07421875","-0.9316406","-0.12402344","4.28125","-11.6875","-13.96875"
"1574967439322","78","0.009765625","-0.81640625","-0.18652344","11.84375","-26.71875","-17.1875"
"1574967439323","79","-0.0048828125","-0.8457031","-0.08984375","20.28125","-28.0","-13.1875"
"1574967439716","80","-0.04296875","-0.8339844","-0.16015625","22.03125","-33.65625","-19.09375"
"1574967439717","81","0.0546875","-0.8310547","-0.11230469","32.46875","-43.0","-13.0625"
"1574967439717","82","-9.765625E-4","-0.9326172","-0.03125","11.34375","-37.15625","-10.4375"
"1574967439717","83","-0.040039062","-1.0273438","-0.080078125","8.84375","-34.40625","-10.0"
"1574967439717","84","-0.018554688","-0.90722656","-0.16113281","4.40625","-30.375","-8.59375"
"1574967439719","85","-0.018554688","-0.83496094","-0.059570312","-1.15625","-26.71875","-6.15625"
"1574967439719","86","0.02734375","-0.83496094","-0.078125","3.0","-21.34375","-6.65625"
"1574967439719","87","-0.013671875","-0.8964844","-0.07910156","-7.3125","-18.78125","-8.15625"
"1574967439720","88","0.080078125","-0.8339844","-0.07324219","-5.84375","-17.96875","-8.46875"
"1574967439720","89","0.061523438","-0.83203125","-0.05859375","0.96875","-17.25","-7.625"
"1574967440312","90","0.08496094","-0.8251953","-0.06347656","0.84375","-13.84375","-7.9375"
"1574967440312","91","0.09667969","-0.8574219","-0.06542969","3.59375","-15.125","-7.375"
"1574967440312","92","0.040039062","-0.83984375","-0.072265625","-2.0","-10.78125","-4.8125"
"1574967440313","93","0.11328125","-0.8701172","-0.0703125","6.09375","-10.71875","-4.875"
"1574967440313","94","0.032226562","-0.8457031","-0.06738281","3.40625","-7.0625","-2.8125"
"1574967440313","95","0.09765625","-0.84277344","-0.07324219","7.3125","-2.0625","-0.78125"
"1574967440313","96","0.095703125","-0.84472656","-0.038085938","8.3125","-5.40625","0.0625"
"1574967440314","97","-0.01953125","-0.86328125","-0.07324219","5.5","7.34375","1.65625"
"1574967440317","98","0.13378906","-0.8515625","-0.09863281","6.09375","3.9375","1.53125"
"1574967440317","99","0.07324219","-0.8671875","-0.049804688","8.90625","-0.65625","5.5625"
"1574967441109","100","0.0234375","-0.83203125","-0.060546875","3.0625","6.5625","6.46875"
"1574967441110","101","0.13183594","-0.84375","-0.044921875","7.28125","3.75","10.4375"
"1574967441110","102","-0.0146484375","-0.8886719","-0.076171875","-1.15625","3.5625","11.78125"
"1574967441110","103","0.08203125","-0.82421875","-0.07128906","-11.53125","6.125","12.09375"
"1574967441110","104","0.043945312","-0.92089844","-0.1015625","-4.03125","7.15625","7.6875"
"1574967441111","105","-0.0859375","-0.8808594","-0.13671875","-10.25","8.6875","13.5625"
"1574967441111","106","0.11425781","-0.84472656","-0.08886719","-6.65625","13.75","9.71875"
"1574967441111","107","0.033203125","-0.83984375","-0.09863281","-8.40625","14.75","7.9375"
"1574967441112","108","-0.08105469","-0.86816406","-0.095703125","-3.71875","14.375","8.375"
"1574967441113","109","0.044921875","-0.8261719","-0.095703125","-4.40625","13.6875","9.40625"
"1574967441505","110","0.048828125","-0.86816406","-0.030273438","8.96875","8.375","7.53125"
"1574967441505","111","-0.016601562","-0.84375","-0.044921875","4.34375","7.96875","9.90625"
"1574967441505","112","0.005859375","-0.8720703","-0.076171875","-2.375","10.34375","8.0"
"1574967441506","113","-0.029296875","-0.8691406","-0.072265625","-3.28125","13.09375","12.59375"
"1574967441506","114","0.03125","-0.91015625","-0.08886719","-5.96875","5.8125","6.96875"
"1574967441506","115","-0.16113281","-0.9091797","-0.032226562","-8.96875","23.71875","21.0625"
"1574967441507","116","-0.359375","-0.8955078","-0.045898438","12.21875","40.625","33.34375"
"1574967441507","117","0.026367188","-0.79785156","-0.19042969","4.9375","46.28125","20.21875"
"1574967441507","118","0.11035156","-0.83496094","-0.18457031","0.625","40.5","8.0625"
"1574967441507","119","-0.026367188","-0.9277344","-0.10839844","-2.6875","19.625","11.59375"
"1574967441702","120","-0.02734375","-0.7890625","-0.09863281","-5.5","0.9375","3.3125"
"1574967441704","121","-0.07128906","-0.8173828","-0.13867188","0.625","-4.0625","2.5625"
"1574967441704","122","-0.15234375","-0.87109375","-0.17382812","3.1875","-13.59375","6.0"
"1574967441705","123","-0.17773438","-0.80859375","-0.20800781","0.75","-10.90625","1.15625"
"1574967441705","124","-0.0703125","-0.8935547","-0.14355469","1.65625","-3.625","-7.3125"
"1574967441705","125","-0.140625","-0.89746094","-0.08203125","-0.375","-2.21875","-1.40625"
"1574967441706","126","-0.22558594","-0.8925781","-0.1328125","-0.59375","-3.5","7.15625"
"1574967441706","127","-0.25","-0.94433594","-0.17578125","0.5","1.1875","13.625"
"1574967441706","128","-0.12207031","-0.828125","-0.15625","4.03125","0.15625","15.4375"
"1574967441706","129","-0.15625","-0.7832031","-0.1484375","3.53125","-5.90625","9.21875"
"1574967441902","130","-0.18261719","-0.82714844","-0.14941406","1.03125","-0.03125","8.125"
"1574967441902","131","-0.12988281","-0.859375","-0.16699219","-2.0","-5.40625","2.28125"
"1574967441902","132","-0.17089844","-0.8515625","-0.13867188","2.8125","-12.78125","4.15625"
"1574967441903","133","-0.13671875","-0.82714844","-0.1484375","-2.875","-7.125","-1.40625"
"1574967441904","134","-0.14941406","-0.8730469","-0.1328125","1.71875","-12.96875","-4.5625"
"1574967441904","135","-0.22363281","-0.85058594","-0.13378906","6.96875","-16.6875","1.84375"
"1574967441905","136","-0.11035156","-0.7890625","-0.18066406","0.5","-9.75","-9.21875"
"1574967441905","137","-0.12207031","-0.8623047","-0.13769531","5.5625","-13.21875","-14.46875"
"1574967441906","138","-0.12597656","-0.90527344","-0.12597656","1.34375","-11.75","-9.34375"
"1574967441907","139","-0.095703125","-0.8847656","-0.15234375","0.84375","-15.90625","-13.1875"
"1574967442302","140","-0.08105469","-0.81347656","-0.14453125","1.28125","-17.6875","-13.59375"
"1574967442302","141","-0.068359375","-0.79003906","-0.13183594","6.71875","-23.84375","-13.59375"
"1574967442303","142","-0.12597656","-0.8378906","-0.099609375","8.5","-19.03125","-20.6875"
"1574967442303","143","-0.11035156","-0.9326172","-0.034179688","9.9375","-3.6875","-11.71875"
"1574967442306","144","-0.16113281","-1.0009766","-0.034179688","15.875","-5.78125","-5.65625"
"1574967442306","145","-0.12792969","-0.81152344","-0.14648438","4.53125","-9.0625","-2.5625"
"1574967442306","146","-0.029296875","-0.7734375","-0.13378906","6.65625","-0.15625","-3.84375"
"1574967442307","147","-0.022460938","-0.859375","-0.053710938","7.9375","-2.59375","-10.125"
"1574967442307","148","-0.015625","-0.85839844","-0.046875","6.28125","-19.03125","-5.65625"
"1574967442307","149","-0.034179688","-0.8701172","-0.123046875","1.53125","-25.5625","-10.4375"
"1574967442894","150","0.068359375","-0.82128906","-0.111328125","3.125","-35.625","-15.0625"
"1574967442894","151","0.06542969","-0.94140625","-0.040039062","9.90625","-47.40625","-6.40625"
"1574967442894","152","-0.061523438","-0.875","-0.024414062","4.28125","-31.34375","-9.21875"
"1574967442895","153","-0.013671875","-0.95410156","-0.12988281","14.78125","-26.03125","-3.53125"
"1574967442895","154","9.765625E-4","-0.8173828","-0.09277344","1.90625","-22.625","2.9375"
"1574967442895","155","0.013671875","-0.7998047","-0.046875","2.875","-17.375","1.78125"
"1574967442896","156","0.032226562","-0.84765625","-0.060546875","3.375","-21.59375","1.46875"
"1574967442897","157","-0.0078125","-0.8886719","0.005859375","-1.875","-21.6875","2.4375"
"1574967442897","158","0.021484375","-0.87109375","-0.080078125","4.9375","-19.875","0.625"
"1574967442898","159","-0.01953125","-0.8652344","-0.026367188","9.46875","-17.5","2.15625"
"1574967443096","160","0.018554688","-0.8544922","-0.040039062","6.03125","-10.90625","-2.375"
"1574967443096","161","0.10449219","-0.81347656","-0.015625","6.34375","-14.25","-2.625"
"1574967443096","162","0.044921875","-0.8408203","-0.021484375","5.375","-12.5","-5.53125"
"1574967443097","163","0.08496094","-0.8125","-0.01953125","6.53125","-12.65625","-5.53125"
"1574967443097","164","0.06347656","-0.9160156","-0.001953125","6.28125","-8.46875","-6.59375"
"1574967443097","165","0.06738281","-0.8808594","-0.00390625","6.03125","-10.59375","-6.78125"
"1574967443098","166","0.09765625","-0.828125","-0.018554688","11.46875","-10.71875","-7.5625"
"1574967443098","167","0.017578125","-0.8076172","0.0107421875","4.59375","-2.71875","-4.3125"
"1574967443098","168","0.07714844","-0.84277344","0.0","6.0","6.0625","-3.65625"
"1574967443099","169","0.119140625","-0.8251953","-0.0048828125","9.34375","-2.53125","-1.9375"
"1574967443494","170","0.03125","-0.85839844","0.024414062","5.3125","1.3125","0.6875"
"1574967443494","171","0.051757812","-0.8798828","0.028320312","1.21875","4.65625","0.75"
"1574967443494","172","0.028320312","-0.8876953","-0.022460938","-1.65625","5.21875","7.5625"
"1574967443495","173","0.095703125","-0.8173828","-0.038085938","-5.71875","1.78125","6.96875"
"1574967443495","174","0.041992188","-0.89746094","-0.037109375","-10.5625","4.71875","13.0625"
"1574967443495","175","0.05078125","-0.8378906","-0.05859375","-25.15625","8.28125","14.90625"
"1574967443496","176","0.0068359375","-0.82421875","-0.08105469","-27.65625","5.53125","17.46875"
"1574967443496","177","-0.18066406","-0.89453125","-0.05859375","-34.1875","17.0","22.59375"
"1574967443496","178","-0.11425781","-1.0244141","-0.123046875","-8.59375","11.25","18.6875"
"1574967443497","179","0.0234375","-0.8232422","-0.107421875","-6.90625","-7.25","20.625"
"1574967444089","180","-0.12988281","-0.72558594","-0.036132812","5.8125","2.21875","17.53125"
"1574967444091","181","-0.31933594","-0.8417969","-0.043945312","2.875","36.84375","30.21875"
"1574967444091","182","-0.22070312","-0.98046875","-0.16699219","17.75","40.75","38.65625"
"1574967444092","183","-0.0068359375","-0.9511719","-0.13183594","1.84375","37.0","32.53125"
"1574967444092","184","-0.055664062","-0.7910156","-0.107421875","1.65625","30.1875","20.5625"
"1574967444092","185","-0.013671875","-0.83496094","-0.0703125","-6.46875","28.09375","11.53125"
"1574967444093","186","-0.115234375","-0.8417969","-0.07324219","-2.125","16.75","7.8125"
"1574967444093","187","-0.16113281","-0.82421875","-0.13867188","-5.125","13.9375","7.6875"
"1574967444093","188","-0.13964844","-0.8388672","-0.16015625","5.125","5.28125","5.375"
"1574967444093","189","-0.13574219","-0.81152344","-0.15917969","5.8125","6.0","-0.46875"
"1574967444286","190","-0.087890625","-0.8408203","-0.140625","1.15625","8.875","-12.8125"
"1574967444287","191","-0.22363281","-0.94140625","-0.103515625","-9.34375","10.59375","-10.78125"
"1574967444287","192","-0.21484375","-0.9248047","-0.111328125","-2.75","7.40625","-2.125"
"1574967444288","193","-0.24707031","-0.8339844","-0.140625","0.90625","4.40625","10.09375"
"1574967444289","194","-0.22460938","-0.8076172","-0.16210938","0.0","12.53125","4.59375"
"1574967444289","195","-0.16210938","-0.8173828","-0.16992188","-2.375","9.25","1.03125"
"1574967444289","196","-0.055664062","-0.85839844","-0.11425781","-3.34375","3.25","-4.75"
"1574967444289","197","-0.32421875","-0.85058594","-0.1328125","2.09375","-8.21875","0.125"
"1574967444290","198","-0.15332031","-0.8105469","-0.19726562","-0.25","2.03125","-1.5625"
"1574967444290","199","-0.10644531","-0.8544922","-0.15429688","7.15625","-3.8125","-5.4375"
"1574967444686","200","-0.28808594","-0.8330078","-0.15722656","13.5625","-2.84375","-1.03125"
"1574967444686","201","-0.1953125","-0.9111328","-0.17382812","9.84375","4.46875","-1.53125"
"1574967444687","202","-0.111328125","-0.89453125","-0.19238281","2.03125","-2.40625","-0.84375"
"1574967444687","203","-0.053710938","-0.7949219","-0.15136719","0.6875","-17.4375","-3.84375"
"1574967444687","204","-0.07519531","-0.8076172","-0.10449219","8.125","-14.25","-10.5"
"1574967444688","205","-0.21191406","-0.90527344","-0.072265625","-3.21875","-14.5625","-14.59375"
"1574967444689","206","0.08691406","-0.7753906","-0.15722656","1.71875","-35.0","-13.65625"
"1574967444689","207","-0.12597656","-0.828125","-0.07519531","10.3125","-35.3125","-30.6875"
"1574967444689","208","-0.21191406","-0.8828125","-0.048828125","3.25","-18.59375","-21.0"
"1574967444690","209","-0.030273438","-0.90625","-0.07421875","7.5","-7.40625","-30.8125"
"1574967445280","210","-0.18261719","-1.1328125","-0.10253906","9.71875","-12.25","-14.75"
"1574967445281","211","-0.0048828125","-0.75683594","-0.13769531","-6.96875","-21.09375","-11.96875"
"1574967445281","212","0.15332031","-0.6035156","-0.08691406","11.0","-42.15625","-25.4375"
"1574967445281","213","-0.14453125","-0.9707031","-0.029296875","23.4375","-43.25","-15.0625"
"1574967445282","214","-0.0048828125","-0.8496094","-0.08496094","19.53125","-41.96875","-18.4375"
"1574967445282","215","0.11425781","-0.8417969","-0.061523438","16.3125","-48.375","-13.84375"
"1574967445282","216","0.076171875","-0.8828125","-0.072265625","9.21875","-43.8125","-16.71875"
"1574967445283","217","-0.017578125","-0.9794922","-0.14257812","15.5625","-37.28125","-9.5"
"1574967445284","218","0.0078125","-0.890625","-0.1171875","6.15625","-23.71875","-4.3125"
"1574967445284","219","0.08496094","-0.8154297","-0.0546875","10.3125","-18.34375","-3.09375"
"1574967445479","220","0.08691406","-0.8857422","-0.0390625","4.03125","-22.3125","-2.75"
"1574967445480","221","0.078125","-0.85058594","-0.009765625","-1.28125","-26.59375","-2.125"
"1574967445480","222","0.048828125","-0.84277344","-0.021484375","3.59375","-26.21875","-1.21875"
"1574967445480","223","0.03125","-0.83984375","-0.009765625","9.65625","-20.3125","0.125"
"1574967445480","224","0.03125","-0.8720703","-0.025390625","8.5625","-7.40625","0.125"
"1574967445480","225","0.13671875","-0.81933594","0.01171875","4.09375","-3.5625","-1.6875"
"1574967445481","226","0.109375","-0.8671875","0.0126953125","-0.3125","-0.09375","-2.25"
"1574967445481","227","0.06542969","-0.8496094","-0.020507812","5.5","2.40625","-4.8125"
"1574967445481","228","0.123046875","-0.83496094","0.03515625","-4.5625","-0.875","-3.46875"
"1574967445482","229","0.12207031","-0.7949219","-0.0048828125","2.125","0.40625","-3.46875"
"1574967446074","230","0.09277344","-0.828125","0.0","7.3125","0.09375","-0.40625"
"1574967446074","231","0.09082031","-0.8417969","0.026367188","6.71875","0.40625","-0.59375"
"1574967446074","232","0.0546875","-0.8339844","0.024414062","7.03125","9.125","0.9375"
"1574967446075","233","0.05859375","-0.85839844","-0.001953125","6.28125","19.125","4.40625"
"1574967446075","234","0.09765625","-0.8574219","0.0126953125","8.125","20.71875","7.6875"
"1574967446075","235","0.07519531","-0.86328125","0.0234375","-1.15625","24.8125","8.4375"
"1574967446076","236","0.08203125","-0.86328125","-0.025390625","-5.96875","23.78125","11.1875"
"1574967446076","237","0.10253906","-0.8886719","-0.029296875","-10.375","23.28125","11.65625"
"1574967446076","238","0.087890625","-0.8457031","-0.032226562","-11.34375","13.625","12.28125"
"1574967446077","239","-0.040039062","-0.8847656","-0.0126953125","-14.65625","23.71875","16.0625"
"1574967446276","240","0.05078125","-0.85058594","-0.043945312","-12.75","23.34375","13.25"
"1574967446278","241","0.10253906","-0.79785156","-0.049804688","-7.3125","16.03125","9.15625"
"1574967446278","242","0.076171875","-0.8095703","-0.009765625","-13.4375","17.1875","3.5625"
"1574967446279","243","-0.051757812","-0.98828125","-0.08203125","-23.3125","17.96875","-1.28125"
"1574967446279","244","-0.056640625","-1.0058594","-0.140625","-29.84375","10.59375","11.96875"
"1574967446279","245","0.076171875","-0.7011719","-0.017578125","-3.21875","-4.84375","9.09375"
"1574967446279","246","0.0107421875","-0.80566406","-0.0146484375","-0.25","3.1875","9.03125"
"1574967446280","247","-0.09765625","-0.9111328","-0.095703125","-9.9375","13.5","17.46875"
"1574967446280","248","-0.14355469","-0.9296875","-0.10058594","-4.6875","29.3125","27.28125"
"1574967446280","249","-0.18652344","-0.8574219","-0.15917969","19.0","34.28125","37.96875"
"1574967446674","250","0.01953125","-0.79589844","-0.13769531","4.8125","24.0625","36.1875"
"1574967446674","251","-0.034179688","-0.8574219","-0.1015625","4.40625","32.625","20.875"
"1574967446675","252","-0.0390625","-0.984375","-0.1484375","-4.625","14.375","16.3125"
"1574967446676","253","0.005859375","-0.8154297","-0.099609375","-11.09375","-4.5625","6.78125"
"1574967446677","254","-0.14257812","-0.7939453","-0.16308594","-8.78125","-4.75","6.125"
"1574967446677","255","-0.16699219","-0.8515625","-0.17578125","-0.59375","1.625","11.96875"
"1574967446677","256","-0.17480469","-0.8857422","-0.11816406","1.90625","7.59375","11.25"
"1574967446678","257","-0.2265625","-0.8701172","-0.13867188","-4.03125","8.09375","13.6875"
"1574967446678","258","-0.1953125","-0.87597656","-0.15625","-2.75","9.3125","13.5"
"1574967446678","259","-0.18945312","-0.8515625","-0.16894531","-4.03125","9.4375","15.09375"
"1574967447071","260","-0.16699219","-0.8359375","-0.21484375","-7.8125","0.5","12.09375"
"1574967447071","261","-0.20605469","-0.88964844","-0.1796875","-5.4375","-4.84375","10.03125"
"1574967447071","262","-0.24316406","-0.8496094","-0.17480469","-3.34375","-5.46875","10.9375"
"1574967447072","263","-0.19238281","-0.78222656","-0.26464844","6.53125","-17.0625","10.15625"
"1574967447072","264","-0.1640625","-0.74121094","-0.125","17.65625","-16.875","10.5"
"1574967447074","265","-0.30371094","-0.7363281","-0.14257812","14.15625","-6.6875","9.40625"
"1574967447074","266","-0.265625","-0.9003906","-0.15722656","10.0625","-4.5625","3.375"
"1574967447074","267","-0.20898438","-0.8251953","-0.083984375","12.40625","-10.53125","6.46875"
"1574967447075","268","-0.328125","-0.85253906","-0.16992188","11.78125","-6.03125","5.4375"
"1574967447075","269","-0.21875","-0.8613281","-0.12988281","9.21875","-5.96875","0.6875"
"1574967447466","270","-0.29589844","-0.82714844","-0.15039062","7.5625","-9.0625","4.65625"
"1574967447467","271","-0.23046875","-0.8457031","-0.14746094","5.875","-6.25","-0.0625"
"1574967447467","272","-0.20605469","-0.79589844","-0.16796875","1.53125","-5.78125","-6.21875"
"1574967447467","273","-0.23535156","-0.8076172","-0.07324219","5.5","-6.375","-8.78125"
"1574967447468","274","-0.15917969","-0.8359375","-0.11425781","4.15625","-5.40625","-18.53125"
"1574967447468","275","-0.12792969","-0.8964844","-0.056640625","14.84375","0.03125","-18.0"
"1574967447468","276","-0.24414062","-0.86035156","-0.032226562","15.8125","-4.5","-16.78125"
"1574967447469","277","-0.10449219","-0.8388672","-0.0390625","12.46875","-20.25","-15.1875"
"1574967447470","278","-0.13671875","-0.8339844","-0.0703125","-0.25","-24.28125","-26.53125"
"1574967447470","279","-0.22753906","-0.87109375","-0.08496094","-5.25","-21.28125","-28.6875"
"1574967448064","280","-0.23730469","-0.94433594","-0.068359375","6.03125","-15.40625","-21.84375"
"1574967448065","281","-0.12988281","-0.90625","-0.05859375","15.4375","-12.90625","-20.125"
"1574967448065","282","-0.05078125","-0.7988281","-0.05859375","7.9375","-22.8125","-12.375"
"1574967448066","283","-0.037109375","-0.76171875","-0.03515625","7.28125","-27.0625","-24.15625"
"1574967448066","284","9.765625E-4","-0.85058594","-0.03125","14.96875","-29.46875","-22.9375"
"1574967448066","285","-0.05859375","-1.03125","0.0","13.625","-41.1875","-20.9375"
"1574967448066","286","0.07324219","-0.81152344","-0.11328125","7.75","-55.03125","-18.0"
"1574967448067","287","0.03125","-0.8183594","0.051757812","-4.6875","-40.1875","-13.46875"
"1574967448067","288","-0.08984375","-1.0048828","-0.072265625","18.4375","-24.8125","-11.65625"
"1574967448069","289","0.016601562","-0.92871094","-0.111328125","1.28125","-21.40625","-1.8125"
"1574967448263","290","0.111328125","-0.7988281","-0.005859375","-6.53125","-23.78125","-6.59375"
"1574967448263","291","0.07324219","-0.8330078","0.001953125","-3.84375","-24.8125","-5.53125"
"1574967448263","292","0.028320312","-0.8720703","0.0068359375","-12.625","-21.75","-2.6875"
"1574967448264","293","0.05859375","-0.86035156","-0.009765625","-9.9375","-21.40625","0.3125"
"1574967448264","294","0.0126953125","-0.9296875","-0.020507812","-3.71875","-13.28125","2.875"
"1574967448264","295","0.02734375","-0.81933594","-0.043945312","-1.78125","-5.15625","10.4375"
"1574967448264","296","0.18652344","-0.83984375","0.029296875","-7.375","-7.65625","6.65625"
"1574967448265","297","0.053710938","-0.81933594","-0.0234375","-1.53125","-16.9375","7.625"
"1574967448265","298","-0.0029296875","-0.8466797","-0.043945312","2.1875","-14.125","8.84375"
"1574967448265","299","0.048828125","-0.84277344","-0.0146484375","0.84375","-11.6875","6.40625"
"1574967448660","300","0.041992188","-0.8457031","-0.03125","3.125","-9.5625","4.53125"
"1574967448662","301","0.057617188","-0.8544922","-0.028320312","3.90625","-7.25","4.21875"
"1574967448662","302","0.07714844","-0.89746094","-0.044921875","1.96875","-7.59375","0.8125"
"1574967448663","303","0.030273438","-0.8457031","0.0048828125","-1.40625","-10.90625","2.8125"
"1574967448663","304","-0.01953125","-0.7939453","-0.080078125","-8.25","0.28125","8.90625"
"1574967448663","305","0.09863281","-0.87402344","-0.036132812","-9.09375","5.875","11.0"
"1574967448664","306","-0.095703125","-0.88378906","-0.07421875","-16.34375","9.5625","12.34375"
"1574967448664","307","0.028320312","-0.87597656","-0.1171875","-19.59375","18.15625","15.375"
"1574967448664","308","0.103515625","-0.86816406","-0.09863281","-13.3125","3.75","10.875"
"1574967448664","309","-0.16210938","-0.8154297","-0.099609375","-26.3125","11.5625","11.90625"
"1574967449453","310","0.030273438","-0.86816406","-0.095703125","-8.0","14.25","13.5625"
"1574967449453","311","-0.14941406","-0.8183594","-0.083984375","-2.0","10.15625","14.0"
"1574967449453","312","-0.24121094","-0.83203125","-0.14550781","-7.25","15.96875","20.34375"
"1574967449454","313","-0.10546875","-0.91796875","-0.16699219","5.25","19.875","21.0625"
"1574967449455","314","-0.19433594","-0.86035156","-0.13085938","1.40625","24.5625","23.625"
"1574967449455","315","-0.19042969","-0.9033203","-0.13085938","4.8125","24.375","18.3125"
"1574967449455","316","-0.16992188","-0.8925781","-0.115234375","8.5","24.0625","23.5625"
"1574967449456","317","-0.15332031","-0.828125","-0.20019531","1.90625","21.4375","17.40625"
"1574967449456","318","-0.09082031","-0.8076172","-0.103515625","-5.6875","22.65625","7.9375"
"1574967449456","319","-0.12597656","-0.8378906","-0.13183594","2.5","15.59375","12.75"
"1574967449651","320","-0.3330078","-0.87890625","-0.17285156","2.6875","21.5","11.53125"
"1574967449652","321","-0.17382812","-0.9091797","-0.23632812","3.125","22.1875","13.4375"
"1574967449652","322","-0.10644531","-0.85546875","-0.18847656","0.625","13.34375","13.875"
"1574967449652","323","-0.26757812","-0.78515625","-0.14648438","9.90625","12.21875","9.53125"
"1574967449652","324","-0.28125","-0.8564453","-0.20703125","6.71875","9.25","13.0625"
"1574967449653","325","-0.22558594","-0.8535156","-0.21289062","4.40625","10.46875","9.59375"
"1574967449654","326","-0.20117188","-0.8466797","-0.21191406","9.65625","6.8125","6.71875"
"1574967449654","327","-0.20019531","-0.8203125","-0.16015625","-1.46875","10.09375","4.65625"
"1574967449654","328","-0.23828125","-0.80566406","-0.14160156","9.84375","-3.15625","4.40625"
"1574967449655","329","-0.25","-0.7910156","-0.1796875","13.25","-5.96875","5.75"
"1574967449852","330","-0.234375","-0.83984375","-0.17285156","8.71875","-0.53125","2.28125"
"1574967449853","331","-0.2734375","-0.84375","-0.18457031","12.28125","-1.1875","-1.09375"
"1574967449853","332","-0.25585938","-0.8886719","-0.18847656","6.40625","6.4375","1.65625"
"1574967449853","333","-0.22753906","-0.8828125","-0.17578125","-1.09375","9.90625","1.96875"
"1574967449853","334","-0.25585938","-0.86328125","-0.17578125","-2.625","8.28125","1.96875"
"1574967449854","335","-0.16210938","-0.8173828","-0.20800781","-12.6875","1.78125","-2.0"
"1574967449854","336","-0.07519531","-0.71875","-0.15136719","-13.375","-10.90625","-14.8125"
"1574967449855","337","-0.19628906","-0.7939453","-0.15625","0.25","-8.9375","-24.28125"
"1574967449855","338","-0.115234375","-0.86035156","-0.11425781","-4.40625","-14.375","-30.03125"
"1574967449856","339","-0.13574219","-0.85058594","-0.09765625","20.21875","-19.9375","-26.59375"
"1574967450251","340","-0.2705078","-0.86035156","-0.072265625","13.90625","-10.15625","-22.15625"
"1574967450251","341","-0.20703125","-0.9160156","-0.12109375","16.84375","8.75","-24.78125"
"1574967450251","342","-0.036132812","-0.8955078","-0.20605469","13.84375","-14.9375","-15.5625"
"1574967450252","343","-0.09765625","-0.83691406","-0.12597656","11.59375","-17.6875","-19.71875"
"1574967450252","344","0.061523438","-0.7363281","-0.07324219","30.09375","-25.96875","-28.90625"
"1574967450252","345","0.16308594","-0.91796875","-0.022460938","43.59375","-62.21875","-22.75"
"1574967450252","346","-0.05078125","-1.0087891","0.056640625","35.96875","-85.59375","-17.1875"
"1574967450253","347","-0.17480469","-0.83203125","-0.017578125","25.28125","-79.0625","-11.71875"
"1574967450253","348","-0.056640625","-0.97558594","-0.0390625","28.5","-54.28125","-5.4375"
"1574967450254","349","-0.038085938","-0.8222656","-0.091796875","16.0","-47.28125","-2.625"
"1574967450647","350","0.11035156","-0.7392578","0.05078125","9.53125","-44.53125","3.375"
"1574967450648","351","-0.05078125","-0.91503906","0.11816406","0.84375","-38.125","1.78125"
"1574967450648","352","-0.078125","-0.9199219","0.06640625","0.90625","-32.875","6.90625"
"1574967450649","353","-0.01171875","-0.8730469","0.037109375","0.0625","-25.4375","7.21875"
"1574967450649","354","0.0078125","-0.8457031","0.044921875","-2.3125","-16.34375","2.4375"
"1574967450649","355","0.0390625","-0.83691406","0.061523438","-1.15625","-15.28125","1.34375"
"1574967450650","356","0.001953125","-0.82128906","0.052734375","-1.15625","-8.6875","1.28125"
"1574967450650","357","-9.765625E-4","-0.81933594","0.045898438","2.375","-6.5625","3.3125"
"1574967450650","358","0.015625","-0.859375","0.038085938","0.96875","-3.09375","0.4375"
"1574967450650","359","0.009765625","-0.83984375","0.060546875","1.40625","-1.125","-0.90625"
"1574967451046","360","0.036132812","-0.8251953","-0.0126953125","4.71875","1.1875","-4.4375"
"1574967451048","361","0.083984375","-0.8261719","0.08496094","0.90625","-4.5625","-5.0625"
"1574967451048","362","-0.030273438","-0.8701172","0.045898438","2.125","2.34375","-8.15625"
"1574967451048","363","0.14648438","-0.86816406","-0.0126953125","0.8125","-8.09375","-13.28125"
"1574967451049","364","0.2705078","-0.82128906","0.078125","-0.4375","-24.8125","-12.3125"
"1574967451049","365","-0.11035156","-0.86328125","-0.0068359375","-1.9375","-14.6875","-9.09375"
"1574967451049","366","-0.022460938","-0.82714844","-0.038085938","-4.4375","-3.15625","1.46875"
"1574967451049","367","0.19433594","-0.84472656","0.0087890625","-9.46875","3.5","4.21875"
"1574967451050","368","-0.11230469","-0.9033203","-0.041992188","-20.75","14.0","2.625"
"1574967451050","369","-0.1484375","-0.89746094","-0.09667969","-33.9375","31.9375","9.78125"
